Acc X       , Acc Y       , Acc Z       , Gyro X      , Gyro Y      , Gyro Z      , Euler X     , Euler Y     , Euler Z     , Pres X      , Pres Y      , Pres Z      , Time        , Status      , LowRate X   , LowRate Y   , LowRate Z    
-0.07119588 , -0.141126022, -9.819449   , 0           , 0           , 0           , 0.0143711017, -0.00724962028, 0           , 916.5438    , 32.1309242  , 838.191345  , 0           , 2           , 0           , 5.49223137  , 0
-0.06036053 , -0.1303505  , -9.810789   , -0.00027096743, 0.000287146744, -0.000827148557, 0.0143684791, -0.007246665, -8.22938546E-06, 916.5438    , 32.1309242  , 838.191345  , 0.01        , 3           , 1           , 0           , 0
-0.0566733778, -0.132711649, -9.817946   , 0.0003000016, 0.000292649638, -0.0003282536, 0.0143715041, -0.00724369241, -1.14695349E-05, 916.5438    , 32.1309242  , 838.191345  , 0.02        , 3           , 2           , 0           , 0
-0.0667680055, -0.145373   , -9.789531   , 0.000336567755, 0.000206001627, 0.000121196979, 0.01437486  , -0.00724165 , -1.02280774E-05, 916.5053    , 31.6852932  , 838.191345  , 0.03        , 3           , 3           , 0           , 0
-0.07141398 , -0.147588879, -9.803024   , 0.000140165546, -0.000400852383, 0.00022468665, 0.0143762445, -0.007245689, -8.03906E-06, 916.5053    , 31.6852932  , 838.191345  , 0.04        , 3           , 4           , 0           , 0
-0.0643469244, -0.14461872 , -9.804623   , 0.000150303575, -0.0005462505, 1.7262646E-05, 0.0143777467, -0.0072511537, -7.944995E-06, 916.5053    , 31.6852932  , 838.191345  , 0.05        , 3           , 5           , 0           , 0
-0.06595992 , -0.145197511, -9.803793   , 8.91396339E-05, -0.0007137187, -0.00014885352, 0.01437865  , -0.007258269, -9.535983E-06, 916.5053    , 31.6852932  , 838.191345  , 0.06        , 3           , 6           , 0           , 0
-0.0621214621, -0.1454277  , -9.801923   , 0.0005470542, -0.000116442068, 4.21623263E-05, 0.014384117 , -0.00725943968, -9.131145E-06, 916.5053    , 31.6852932  , 838.191345  , 0.07        , 3           , 7           , 0           , 0
-0.0712587237, -0.136231527, -9.800023   , 0.0001971491, -0.0001224344, 0.00010483693, 0.01438608  , -0.00726067834, -8.100497E-06, 916.5053    , 31.6852932  , 838.191345  , 0.08        , 3           , 8           , 5           , 5
-0.07312936 , -0.139165267, -9.80854    , -2.96168073E-05, 0.0008248347, -0.000128757558, 0.0143857934, -0.00725241238, -9.26928351E-06, 916.5053    , 31.6852932  , 838.191345  , 0.09        , 3           , 9           , 5           , 0.1
-0.06762734 , -0.131311625, -9.805994   , -0.0006054142, 0.0005143549, -0.0004983565, 0.0143797752, -0.007247199, -1.41783676E-05, 916.5053    , 31.6852932  , 838.191345  , 0.1         , 3           , 10          , 0.1         , 0.1
-0.06769356 , -0.14156884 , -9.808727   , 5.588727E-05, 0.000531182 , -4.95638233E-05, 0.0143776434, -0.00723014073, -1.45780959E-05, 916.5053    , 31.6852932  , 838.5378    , 0.11        , 3           , 11          , 0.0109544508, 0.0109544508
-0.06401006 , -0.140900433, -9.804876   , -0.00019678197, 0.00028790845, -6.41275255E-05, 0.0143756792, -0.00722725363, -1.51779132E-05, 916.5053    , 31.6852932  , 838.537842  , 0.12        , 3           , 12          , 0.174642488 , 0
-0.06674318 , -0.1440165  , -9.810789   , -0.0004248928, 0.000447940838, 0.000289361458, 0.0143714109, -0.007222816, -1.22202182E-05, 916.5345    , 31.726553   , 838.5379    , 0.13        , 3           , 13          , 0           , 0
-0.0645537749, -0.141950682, -9.80887    , 0.000319772545, -0.000929538568, -0.000230180827, 0.0143746249, -0.007232076, -1.4655393E-05, 916.5345    , 31.726553   , 838.537964  , 0.14        , 3           , 14          , 0.00012955963, 6.266316E-05
-0.06605667 , -0.1452061  , -9.802676   , -0.000368450768, -0.000593471166, 0.0004319851, 0.01437091  , -0.00723807467, -1.042128E-05, 916.5345    , 31.726553   , 838.538     , 0.15        , 3           , 15          , 0           , 0.000175180292
-0.0671374947, -0.141852736, -9.806066   , -0.000554002763, -0.000519731664, 0.000197407935, 0.0143653564, -0.00724329846, -8.522084E-06, 916.5345    , 31.726553   , 838.5381    , 0.16        , 3           , 16          , 0           , 1.401298E-45
-0.06437209 , -0.137643516, -9.805208   , -0.000494555454, -0.000152543682, 3.282813E-05, 0.0143604083, -0.00724482769, -8.215747E-06, 916.5345    , 31.726553   , 838.538147  , 0.17        , 3           , 20          , 0           , 0
-0.065545   , -0.1501598  , -9.792297   , -0.0011562932, 0.000434444053, 6.05181558E-05, 0.0143488413, -0.00724049425, -7.548279E-06, 916.5345    , 31.726553   , 838.5382    , 0.18        , 3           , 21          , 0           , 0
-0.0615209937, -0.1417847  , -9.813759   , -0.000932230963, 0.000578313135, -6.177912E-05, 0.0143395234, -0.007234702, -8.083055E-06, 916.5345    , 31.726553   , 838.538269  , 0.19        , 3           , 22          , 0           , 0
-0.0654569045, -0.136058241, -9.824885   , 0.000100062767, -0.000165590041, -7.719028E-05, 0.0143405283, -0.0072363466, -8.878625E-06, 916.5345    , 31.726553   , 838.5383    , 0.2         , 3           , 40          , 0           , 0
-0.06766403 , -0.125742927, -9.811523   , 0.000233661121, -0.00071705447, -2.12922168E-06, 0.0143451467, -0.00723220268, -9.019251E-06, 916.5345    , 31.726553   , 838.4072    , 0.21        , 3           , 41          , 0           , 0
-0.06371186 , -0.127251387, -9.813776   , 0.000253842241, -0.000649453141, -0.000122652418, 0.0143476939, -0.00723867863, -1.03388184E-05, 916.5345    , 31.726553   , 838.4073    , 0.22        , 3           , 42          , 0           , 0
-0.076200746, -0.1315114  , -9.805257   , 0.000276753941, -0.00051873154, 0.000117697637, 0.0143504525, -0.007243882, -9.23639E-06, 916.536     , 31.7497444  , 838.407349  , 0.23        , 3           , 255         , 0           , 0
-0.0782416239, -0.135146737, -9.831304   , 0.00071073  , -0.00123746332, 2.622082E-05, 0.0143575594, -0.00725625874, -9.151828E-06, 916.536     , 31.7497444  , 838.4074    , 0.24        , 3           , 255         , 0           , 0
-0.08278845 , -0.137772992, -9.816008   , 0.000484719785, -0.00130589539, -0.000233338666, 0.0143624227, -0.00726928143, -1.16724877E-05, 916.536     , 31.7497444  , 838.4075    , 0.25        , 3           , 255         , 0           , 0
-0.08434217 , -0.130837053, -9.799501   , 0.000225814932, -0.0006589213, 0.000390972826, 0.0143646533, -0.00727592641, -7.857795E-06, 916.536     , 31.7497444  , 838.407532  , 0.26        , 3           , 255         , 0           , 0
-0.07640586 , -0.1361052  , -9.788881   , 0.00100752211, -0.00116317312, 0.000152197434, 0.01437472  , -0.00728758 , -6.50313541E-06, 916.536     , 31.7497444  , 838.4076    , 0.27        , 3           , 255         , 0           , 0
-0.0767945051, -0.136061192, -9.77875    , 6.09453127E-06, -0.0005466733, -2.96606013E-05, 0.0143747823, -0.0072930404, -6.87828742E-06, 916.536     , 31.7497444  , 838.407654  , 0.28        , 3           , 255         , 0           , 0
-0.07474734 , -0.134172291, -9.79471    , -0.0005373731, 2.69596567E-05, 0.0006572082, 0.0143693592, -0.00729286531, -3.03000775E-07, 916.536     , 31.7497444  , 838.4077    , 0.29        , 3           , 255         , 0           , 0
-0.07154845 , -0.1362346  , -9.819448   , -0.000475345849, 0.000640353537, -0.000326334615, 0.0143646291, -0.00728641544, -3.474017E-06, 916.536     , 31.7497444  , 838.4078    , 0.3         , 3           , 255         , 0           , 0
-0.06655072 , -0.148734212, -9.806762   , -0.000675226736, 0.000531171 , -0.000271875149, 0.0143416515, -0.007289456, -5.997774E-06, 916.536     , 31.7497444  , 838.3586    , 0.31        , 3           , 255         , 0           , 0
-0.06715274 , -0.140940771, -9.790079   , -0.00141767971, 0.000121544741, -0.0005786177, 0.0143275168, -0.007288157, -1.17659547E-05, 916.536     , 31.7497444  , 838.3587    , 0.32        , 3           , 255         , 0           , 0
-0.0598608665, -0.145803779, -9.812422   , -0.0006934572, 0.000184490462, 0.000237052067, 0.0143205654, -0.007286346, -9.369245E-06, 916.50116   , 31.7678814  , 838.3588    , 0.33        , 3           , 255         , 0           , 0
-0.0502659678, -0.146881714, -9.826834   , 0.000267795753, -0.000339964259, 0.000129774242, 0.0143232327, -0.007289764, -8.120316E-06, 916.50116   , 31.7678814  , 838.358948  , 0.34        , 3           , 255         , 0           , 0
-0.05848456 , -0.143151492, -9.82741    , 0.000147827188, -0.000524259638, 0.000592803757, 0.0143246688, -0.007295091, -2.26797988E-06, 916.50116   , 31.7678814  , 838.3591    , 0.35        , 3           , 255         , 0           , 0
-0.0601632223, -0.130484983, -9.818892   , 6.618998E-05, -0.000574604, 0.00106549729, 0.0143252537, -0.00730098831, 8.30361E-06 , 916.50116   , 31.7678814  , 838.3592    , 0.36        , 3           , 255         , 0           , 0
-0.0544875637, -0.135999873, -9.799638   , 0.000135436174, -0.000758493668, 0.0002949846, 0.0143265855, -0.007308615, 1.11445115E-05, 916.50116   , 31.7678814  , 838.3593    , 0.37        , 3           , 255         , 0           , 0
-0.06383759 , -0.136810422, -9.780264   , 0.0008104701, -0.00106312474, -0.0001363022, 0.014334701 , -0.007319224, 9.629276E-06, 916.50116   , 31.7678814  , 838.359436  , 0.38        , 3           , 255         , 0           , 0
-0.07172409 , -0.133989692, -9.802449   , 0.0009574246, -0.000666804146, 1.54983427E-05, 0.0143442741, -0.007325894, 9.68864151E-06, 916.50116   , 31.7678814  , 838.359558  , 0.39        , 3           , 255         , 0           , 0
-0.07756861 , -0.150341421, -9.819301   , 0.0008053439, 0.000125056613, -0.000363681, 0.0143523524, -0.007324592, 6.07014454E-06, 916.50116   , 31.7678814  , 838.3597    , 0.4         , 3           , 255         , 0           , 0
-0.08492382 , -0.143584147, -9.811733   , -0.000119744669, -7.423613E-05, -0.000353490119, 0.0143527016, -0.007309222, 2.513834E-06, 916.50116   , 31.7678814  , 838.4146    , 0.41        , 3           , 255         , 0           , 0
-0.0764513537, -0.132111877, -9.799153   , -0.0005935103, 0.000122597034, 0.000212430576, 0.0143467523, -0.00730802631, 4.655515E-06, 916.50116   , 31.7678814  , 838.414734  , 0.42        , 3           , 255         , 0           , 0
-0.0667679757, -0.130198985, -9.801998   , -0.00109790731, 0.000192030653, -0.0006228576, 0.0143358186, -0.007306018, -1.54489055E-06, 916.4838    , 31.7769814  , 838.414856  , 0.43        , 3           , 255         , 0           , 0
-0.06734728 , -0.134661317, -9.802869   , -0.0005206366, 0.000199336529, -9.04606059E-05, 0.014330619 , -0.00730401045, -2.42083775E-06, 916.4838    , 31.7769814  , 838.415     , 0.44        , 3           , 255         , 0           , 0
-0.06274896 , -0.132737979, -9.812601   , 0.0003095484, -0.000139226831, 0.0004498361, 0.0143336831, -0.0073054675, 2.05711376E-06, 916.4838    , 31.7769814  , 838.4151    , 0.45        , 3           , 255         , 0           , 0
-0.0597308353, -0.138287947, -9.812463   , 0.000359848957, 0.00021688515, -5.36374719E-05, 0.0143372845, -0.007303291, 1.55187956E-06, 916.4838    , 31.7769814  , 838.4152    , 0.46        , 3           , 255         , 0           , 0
-0.06624742 , -0.139061525, -9.798929   , -7.19004238E-05, -0.000186339545, 4.0084662E-05, 0.0143365618, -0.00730516063, 1.925972E-06, 916.4838    , 31.7769814  , 838.415344  , 0.47        , 3           , 255         , 0           , 0
-0.06348213 , -0.142428622, -9.803115   , 0.000224176314, 0.0007310988, 0.0006755268, 0.014338755 , -0.00729794847, 8.78538049E-06, 916.4838    , 31.7769814  , 838.415466  , 0.48        , 3           , 255         , 0           , 0
-0.0656604841, -0.137458175, -9.800052   , -0.0001944188, 0.00085663615, 0.00015205922, 0.0143367993, -0.00728940452, 1.04286337E-05, 916.4838    , 31.7769814  , 838.4156    , 0.49        , 3           , 255         , 0           , 0
-0.06850056 , -0.134546116, -9.804304   , 0.000461925 , -0.000171343912, 0.000198330381, 0.0143414047, -0.00729114562, 1.238716E-05, 916.4838    , 31.7769814  , 838.4157    , 0.5         , 3           , 255         , 0           , 0
-0.07600508 , -0.1468658  , -9.805752   , 9.2125556E-05, -0.000294832455, -8.025772E-05, 0.0143338246, -0.00728680566, 1.16043739E-05, 916.4838    , 31.7769814  , 838.481445  , 0.51        , 3           , 255         , 0           , 0
-0.07070559 , -0.140010238, -9.814835   , -0.0005374601, 0.000342306041, -0.0001384961, 0.0143284583, -0.007283365, 1.02686081E-05, 916.4838    , 31.7769814  , 838.4816    , 0.52        , 3           , 255         , 0           , 0
-0.07474886 , -0.133316264, -9.78815    , -0.00026005978, -1.16209412E-05, -0.000704220147, 0.01432591  , -0.007283379, 3.22545566E-06, 916.5541    , 31.78669    , 838.4818    , 0.53        , 3           , 255         , 0           , 0
-0.08738961 , -0.138653651, -9.806064   , -0.0003593479, -0.000396064628, -0.0002932658, 0.0143223377, -0.007287297, 2.36362141E-07, 916.5541    , 31.78669    , 838.482     , 0.54        , 3           , 255         , 0           , 0
-0.07997233 , -0.132616729, -9.808031   , 7.229549E-05, 5.386871E-05, -0.000292791025, 0.0143230818, -0.007286716, -2.68353187E-06, 916.5541    , 31.78669    , 838.4822    , 0.55        , 3           , 255         , 0           , 0
-0.07611273 , -0.135626957, -9.81832    , 9.96508E-05 , 0.00038737373, -0.000149988831, 0.0143240895, -0.007282822, -4.127786E-06, 916.5541    , 31.78669    , 838.482361  , 0.56        , 3           , 255         , 0           , 0
-0.0801843256, -0.135477185, -9.816861   , -0.000426561484, 0.000179346767, -2.386792E-05, 0.014319825 , -0.007281025, -4.34075173E-06, 916.5541    , 31.78669    , 838.482544  , 0.57        , 3           , 255         , 0           , 0
-0.07525571 , -0.143014088, -9.801906   , 0.000484746823, -0.000340660219, -0.0011412506, 0.0143247582, -0.00728426874, -1.58008952E-05, 916.5541    , 31.78669    , 838.4827    , 0.58        , 3           , 255         , 0           , 0
-0.06937097 , -0.134882718, -9.804011   , -0.000105099673, -0.0005151759, -0.000137944953, 0.014323717 , -0.00728939939, -1.72540022E-05, 916.5541    , 31.78669    , 838.4829    , 0.59        , 3           , 255         , 0           , 0
-0.06531076 , -0.140669256, -9.807523   , -0.000559311, -4.05893079E-05, 0.000273927581, 0.0143181039, -0.007289844, -1.45208223E-05, 916.5541    , 31.78669    , 838.4831    , 0.6         , 3           , 255         , 0           , 0
-0.0648023263, -0.134975463, -9.803925   , 2.83940753E-05, 0.000385228428, -0.0005706824, 0.0143139679, -0.007293526, -2.01393887E-05, 916.5541    , 31.78669    , 838.416565  , 0.61        , 3           , 255         , 0           , 0
-0.0559624434, -0.1397097  , -9.804789   , -0.000197063477, 9.67454544E-05, 0.000115115152, 0.0143119907, -0.00729257474, -1.89745024E-05, 916.5541    , 31.78669    , 838.416748  , 0.62        , 3           , 255         , 0           , 0
-0.0672723651, -0.149203628, -9.805557   , -0.0008139057, -4.74599146E-05, 0.000275884231, 0.01430383  , -0.00729309069, -1.62227279E-05, 916.524841  , 31.7906     , 838.416931  , 0.63        , 3           , 255         , 0           , 0
-0.0755787045, -0.14561139 , -9.795705   , -0.0009007724, 0.0005589742, -5.295816E-05, 0.0142948264, -0.00728749344, -1.66723439E-05, 916.524841  , 31.7906     , 838.4171    , 0.64        , 3           , 255         , 0           , 0
-0.07963969 , -0.137015224, -9.797594   , -0.0006131392, 0.000378574 , 0.000475603854, 0.0142886611, -0.0072837756, -1.18626813E-05, 916.524841  , 31.7906     , 838.4173    , 0.65        , 3           , 255         , 0           , 0
-0.0710544139, -0.135246962, -9.811338   , -0.0002420631, 0.000196687834, 0.000150712163, 0.0142862285, -0.00728183053, -1.03276125E-05, 916.524841  , 31.7906     , 838.4175    , 0.66        , 3           , 255         , 0           , 0
-0.07433336 , -0.145024255, -9.81501    , 0.0003295252, -3.647136E-05, 0.000349463837, 0.0142894983, -0.00728224544, -6.83853432E-06, 916.524841  , 31.7906     , 838.417664  , 0.67        , 3           , 255         , 0           , 0
-0.07121669 , -0.134516716, -9.806138   , 0.0005028342, -0.000120449535, 0.000119484452, 0.0142945182, -0.00728346733, -5.661024E-06, 916.524841  , 31.7906     , 838.417847  , 0.68        , 3           , 255         , 0           , 0
-0.0707164258, -0.140900284, -9.806218   , -2.06758123E-05, -0.000291603385, -0.0004012565, 0.0142943412, -0.007286325, -9.71486952E-06, 916.524841  , 31.7906     , 838.418     , 0.69        , 3           , 255         , 0           , 0
-0.0653974339, -0.137781546, -9.804357   , -0.000202303287, 9.820907E-05, 0.000428068684, 0.0142922876, -0.00728540448, -5.42057251E-06, 916.524841  , 31.7906     , 838.4182    , 0.7         , 3           , 255         , 0           , 0
-0.06358412 , -0.145352274, -9.816637   , -0.000648621353, -5.140551E-05, 0.00036337733, 0.0142855048, -0.00728228455, -1.79255619E-06, 916.524841  , 31.7906     , 838.4102    , 0.71        , 3           , 255         , 0           , 0
-0.0676395148, -0.1413543  , -9.803827   , 0.000189265091, -5.8360667E-05, 0.000471547537, 0.0142873628, -0.007282936, 2.9141022E-06, 916.524841  , 31.7906     , 838.4104    , 0.72        , 3           , 255         , 0           , 0
-0.07589404 , -0.137815639, -9.803659   , -0.000966102, 0.000477812835, -3.36688681E-05, 0.0142777041, -0.0072781546, 2.645688E-06, 916.536     , 31.7962627  , 838.4106    , 0.73        , 3           , 255         , 0           , 0
-0.06430606 , -0.143365771, -9.801989   , -0.0009675374, -0.000138170988, 0.000591906835, 0.0142679866, -0.00727962 , 8.544442E-06, 916.536     , 31.7962627  , 838.410767  , 0.74        , 3           , 255         , 0           , 0
-0.0694591552, -0.140810937, -9.798019   , -0.0007907144, -0.000471250562, -0.00020014144, 0.0142600955, -0.007284303, 6.476011E-06, 916.536     , 31.7962627  , 838.41095   , 0.75        , 3           , 255         , 0           , 0
-0.06661386 , -0.141235024, -9.804663   , -6.19386847E-05, 0.00011005954, 0.000334116165, 0.0142594511, -0.007283251, 9.832528E-06, 916.536     , 31.7962627  , 838.411133  , 0.76        , 3           , 255         , 0           , 0
-0.0589010231, -0.1412955  , -9.808533   , 4.10055654E-05, -0.0005440345, 0.0003721115, 0.0142598338, -0.00728874374, 1.34756974E-05, 916.536     , 31.7962627  , 838.4114    , 0.77        , 3           , 255         , 0           , 0
-0.0679339  , -0.1376726  , -9.815871   , 9.57885641E-05, 7.15002534E-06, -0.000195481785, 0.0142608061, -0.00728864456, 1.1522091E-05, 916.536     , 31.7962627  , 838.4116    , 0.78        , 3           , 255         , 0           , 0
-0.07307203 , -0.137273937, -9.803462   , 0.000152964 , -0.000352013274, -0.000194249544, 0.0142623493, -0.00729213655, 9.52959E-06 , 916.536     , 31.7962627  , 838.411865  , 0.79        , 3           , 255         , 0           , 0
-0.07312705 , -0.141441733, -9.795557   , -0.000285861839, 0.00021669433, -0.000694290444, 0.0142595414, -0.00728987064, 2.618283E-06, 916.536     , 31.7962627  , 838.4121    , 0.8         , 3           , 255         , 0           , 0
-0.07432855 , -0.149202853, -9.808222   , -0.000747925, 0.00024378908, 2.75444036E-05, 0.0142538166, -0.007280872, 2.91565925E-06, 916.536     , 31.7962627  , 838.391541  , 0.81        , 3           , 255         , 0           , 0
-0.07218621 , -0.132789761, -9.805216   , 9.298253E-05, -8.90124938E-05, -1.0457341E-05, 0.014254747 , -0.00728176069, 2.79840765E-06, 916.536     , 31.7962627  , 838.3917    , 0.82        , 3           , 255         , 0           , 0
-0.07683397 , -0.134594649, -9.809396   , 0.000154781519, -0.000276915554, -0.0006430325, 0.0142563423, -0.007284438, -3.67074927E-06, 916.5201    , 31.7994328  , 838.3919    , 0.83        , 3           , 255         , 0           , 0
-0.07316132 , -0.135969371, -9.806862   , 0.000109690925, -7.95454762E-05, -0.000143046869, 0.0142574515, -0.00728521263, -5.1124166E-06, 916.5201    , 31.7994328  , 838.392151  , 0.84        , 3           , 255         , 0           , 0
-0.06941147 , -0.1310414  , -9.798007   , -7.106328E-05, 0.000135495822, -5.44929353E-05, 0.0142567437, -0.00728385 , -5.637973E-06, 916.5201    , 31.7994328  , 838.3924    , 0.85        , 3           , 255         , 0           , 0
-0.08042698 , -0.148445025, -9.806315   , -0.0005812084, 0.0002494066, -0.000180255927, 0.0142509444, -0.007281331, -7.40480436E-06, 916.5201    , 31.7994328  , 838.392639  , 0.86        , 3           , 255         , 0           , 0
-0.06974616 , -0.143225044, -9.803772   , 5.70751581E-05, -0.000116362266, -0.00015635592, 0.0142515264, -0.007282472, -8.984792E-06, 916.5201    , 31.7994328  , 838.3929    , 0.87        , 3           , 255         , 0           , 0
-0.07211091 , -0.139325827, -9.799898   , -4.04510865E-05, -0.00017896705, 0.00039900525, 0.0142510943, -0.00728431763, -5.020639E-06, 916.5201    , 31.7994328  , 838.3931    , 0.88        , 3           , 255         , 0           , 0
-0.0736680552, -0.12899451 , -9.802754   , 0.000204968979, -0.000121524441, 4.321699E-05, 0.01425314  , -0.007285539, -4.60582942E-06, 916.5201    , 31.7994328  , 838.3934    , 0.89        , 3           , 255         , 0           , 0
-0.07763053 , -0.1355453  , -9.799571   , 0.000360607228, -0.0002051375, -4.213871E-06, 0.0142567465, -0.0072875903, -4.67720474E-06, 916.5201    , 31.7994328  , 838.3936    , 0.9         , 3           , 255         , 0           , 0
-0.06532239 , -0.133413285, -9.808254   , 0.0003789119, -8.186921E-05, -0.00058068306, 0.01425682  , -0.007293398, -1.04677265E-05, 916.5201    , 31.7994328  , 838.3956    , 0.91        , 3           , 255         , 0           , 0
-0.07249463 , -0.1390298  , -9.804012   , -0.000105142259, -0.0006038416, -0.000116105148, 0.0142557779, -0.00729941856, -1.1714742E-05, 916.5201    , 31.7994328  , 838.3959    , 0.92        , 3           , 255         , 0           , 0
-0.07490401 , -0.142199367, -9.806052   , -9.86356463E-05, 5.01968461E-05, -0.0009011711, 0.0142548569, -0.007298788, -2.07183966E-05, 916.489136  , 31.8033428  , 838.3961    , 0.93        , 3           , 255         , 0           , 0
-0.0668384  , -0.131917283, -9.798546   , -0.000199846516, -0.0002465348, -0.0006165863, 0.0142529048, -0.00730116526, -2.69187858E-05, 916.489136  , 31.8033428  , 838.396362  , 0.94        , 3           , 255         , 0           , 0
-0.06584995 , -0.143933818, -9.799576   , -0.000206616125, -0.0001469187, 0.000565319 , 0.0142507972, -0.00730271451, -2.12870982E-05, 916.489136  , 31.8033428  , 838.3966    , 0.95        , 3           , 255         , 0           , 0
-0.06854452 , -0.139668092, -9.805253   , -0.000185533339, -0.000469690451, 0.000272436242, 0.0142489225, -0.00730745029, -1.86299385E-05, 916.489136  , 31.8033428  , 838.396851  , 0.96        , 3           , 255         , 0           , 0
-0.078020826, -0.137748271, -9.803555   , -0.0003853037, 0.000341932 , -0.000178449816, 0.0142450826, -0.00730400532, -2.03655472E-05, 916.489136  , 31.8033428  , 838.3971    , 0.97        , 3           , 255         , 0           , 0
-0.0743532851, -0.138823286, -9.801279   , -0.00026277572, -0.0002845418, 0.000472777581, 0.0142424209, -0.007306918, -1.56787664E-05, 916.489136  , 31.8033428  , 838.397339  , 0.98        , 3           , 255         , 0           , 0
-0.07452201 , -0.137490779, -9.803375   , -0.000318932725, -2.27897654E-05, 0.000243792441, 0.0142392134, -0.00730718067, -1.32443338E-05, 916.489136  , 31.8033428  , 838.3976    , 0.99        , 3           , 255         , 0           , 0
-0.07377727 , -0.135442808, -9.809783   , -0.000193674234, 0.000119841483, -0.0006480786, 0.0142373238, -0.00730589 , -1.97074132E-05, 916.489136  , 31.8033428  , 838.3978    , 1           , 3           , 0           , 6.492236    , 100
-0.07400976 , -0.135522008, -9.806656   , 6.37013E-05 , 8.361796E-05, -0.0005263603, 0.0142345186, -0.00730471173, -2.493315E-05, 916.489136  , 31.8033428  , 838.4333    , 1.01        , 3           , 1           , 0           , 0
-0.06516496 , -0.136770383, -9.807458   , -0.000495619141, 0.000305252557, -0.000475578, 0.0142295975, -0.007301591, -2.96450125E-05, 916.489136  , 31.8033428  , 838.4336    , 1.02        , 3           , 2           , 0           , 0
-0.0729117543, -0.144604951, -9.802134   , 5.723168E-05, 3.42358981E-05, -7.099867E-05, 0.014230174 , -0.00730123837, -3.035006E-05, 916.5256    , 31.8021965  , 838.43396   , 1.03        , 3           , 3           , 0           , 0
-0.08685343 , -0.1381478  , -9.807773   , 0.000201759511, 2.62123722E-05, -0.000399325043, 0.014232222 , -0.00730091939, -3.433918E-05, 916.5256    , 31.8021965  , 838.4343    , 1.04        , 3           , 4           , 0           , 0
-0.07734601 , -0.139532924, -9.805203   , -0.000483849639, -0.000235832616, -0.000365094922, 0.0142274089, -0.00730322534, -3.802333E-05, 916.5256    , 31.8021965  , 838.4347    , 1.05        , 3           , 5           , 0           , 0
-0.07219597 , -0.145237327, -9.806195   , -0.0008296638, -0.000532249, -0.000289861724, 0.0142191341, -0.007308507, -4.09973472E-05, 916.5256    , 31.8021965  , 838.435059  , 1.06        , 3           , 6           , 0           , 0
-0.0671715438, -0.139538944, -9.809698   , -9.961737E-05, -0.000852022669, -8.86365451E-05, 0.0142181451, -0.007317013, -4.20047545E-05, 916.5256    , 31.8021965  , 838.4354    , 1.07        , 3           , 7           , 0           , 0
-0.06619761 , -0.137622118, -9.805736   , 0.0005222837, -0.000367195549, -0.00031627 , 0.01422339  , -0.007320639, -4.521935E-05, 916.5256    , 31.8021965  , 838.4358    , 1.08        , 3           , 8           , 5           , 5
-0.0843076557, -0.137094781, -9.80042    , 5.463467E-05, -6.934177E-05, 0.000263717142, 0.0142239193, -0.00732137 , -4.25923026E-05, 916.5256    , 31.8021965  , 838.436157  , 1.09        , 3           , 9           , 5           , 0.1
-0.08151431 , -0.1375277  , -9.802595   , -0.000222278948, -0.0002444225, 0.000240619687, 0.0142216766, -0.007323848, -4.02211044E-05, 916.5256    , 31.8021965  , 838.4365    , 1.1         , 3           , 10          , 0.1         , 0.1
-0.07245453 , -0.133436024, -9.810362   , 0.000269365875, -0.000236116117, -8.515978E-05, 0.0142236957, -0.00733197341, -4.1101197E-05, 916.5256    , 31.8021965  , 838.4278    , 1.11        , 3           , 11          , 0.009919693 , 0.009919693
-0.07821348 , -0.141090184, -9.809705   , -4.21312943E-05, 0.0007219545, -0.000153426663, 0.014223285 , -0.00732473331, -4.25326361E-05, 916.5256    , 31.8021965  , 838.428162  , 1.12        , 3           , 12          , 0.174642846 , 0
-0.07821287 , -0.136366919, -9.804533   , -0.000197525427, 0.000372786628, 0.000486506935, 0.0142212734, -0.0073210746, -3.76150274E-05, 916.5574    , 31.8074551  , 838.4285    , 1.13        , 3           , 13          , 0           , 0
-0.07322327 , -0.1436117  , -9.804102   , -4.17325646E-06, -0.000155793154, -0.000372286479, 0.0142212594, -0.00732258 , -4.135968E-05, 916.5574    , 31.8074551  , 838.4289    , 1.14        , 3           , 14          , 0.000129576336, 6.266209E-05
-0.06888969 , -0.144415408, -9.807559   , 0.000921927858, -4.40359363E-05, -0.0003318562, 0.0142305037, -0.00732297357, -4.46841768E-05, 916.5574    , 31.8074551  , 838.42926   , 1.15        , 3           , 15          , 0           , 0.000175180176
-0.06694488 , -0.138480663, -9.81133    , 0.000426142447, -6.555395E-05, 7.897822E-05, 0.0142347608, -0.007323641, -4.39038E-05, 916.5574    , 31.8074551  , 838.4296    , 1.16        , 3           , 16          , 0           , 1.401298E-45
-0.07233347 , -0.144746453, -9.801406   , 0.000158866169, -6.789554E-05, 0.0009904484, 0.014236276 , -0.0073244595, -3.400997E-05, 916.5574    , 31.8074551  , 838.43      , 1.17        , 3           , 20          , 0           , 0
-0.0742024854, -0.139551431, -9.79741    , 0.0002802504, -6.38223137E-05, 0.000330933224, 0.0142390542, -0.007325145, -3.07100527E-05, 916.5574    , 31.8074551  , 838.430359  , 1.18        , 3           , 21          , 0           , 0
-0.06885359 , -0.14604041 , -9.797439   , 0.000440705422, -0.00045161217, 0.000169160048, 0.0142434491, -0.00732968468, -2.908293E-05, 916.5574    , 31.8074551  , 838.4307    , 1.19        , 3           , 22          , 0           , 0
-0.07148291 , -0.144625112, -9.800044   , -4.8939095E-05, -0.000477429, -0.000472813234, 0.0142429965, -0.007334391, -3.38785976E-05, 916.5574    , 31.8074551  , 838.4311    , 1.2         , 3           , 40          , 0           , 0
-0.07357438 , -0.14671874 , -9.80323    , -0.0007769035, 0.000185949975, -7.797569E-05, 0.0142384805, -0.00733378436, -3.46556262E-05, 916.5574    , 31.8074551  , 838.3904    , 1.21        , 3           , 41          , 0           , 0
-0.07669753 , -0.134924427, -9.803587   , -0.000952061033, -8.1219514E-05, 0.0007014829, 0.0142289074, -0.00733469566, -2.76530391E-05, 916.5574    , 31.8074551  , 838.3906    , 1.22        , 3           , 42          , 0           , 0
-0.07774389 , -0.140686989, -9.813201   , -0.00024076202, -0.0002575191, 0.000399019162, 0.0142264711, -0.007337327, -2.36998767E-05, 916.4961    , 31.8097477  , 838.390869  , 1.23        , 3           , 255         , 0           , 0
-0.0671579242, -0.140398413, -9.80302    , -0.000616667559, 0.000482015254, 0.000380432757, 0.0142202768, -0.00733256154, -1.982737E-05, 916.4961    , 31.8097477  , 838.3911    , 1.24        , 3           , 255         , 0           , 0
-0.0662716255, -0.139308482, -9.801389   , -0.000448511273, 0.000460117124, -7.76462E-05, 0.0142157963, -0.00732795 , -2.05383476E-05, 916.4961    , 31.8097477  , 838.391357  , 1.25        , 3           , 255         , 0           , 0
-0.06838199 , -0.146294862, -9.803212   , -7.859327E-05, 0.000108612963, 7.0991824E-05, 0.0142150037, -0.007326874, -1.981306E-05, 916.4961    , 31.8097477  , 838.3916    , 1.26        , 3           , 255         , 0           , 0
-0.07296198 , -0.142089456, -9.802096   , -0.00079439336, -0.000420591678, -0.0007817767, 0.014207121 , -0.007330969, -2.7689819E-05, 916.4961    , 31.8097477  , 838.391846  , 1.27        , 3           , 255         , 0           , 0
-0.07555853 , -0.130178675, -9.804556   , -0.0007119912, -0.000296845072, -0.0005612076, 0.014200042 , -0.00733385747, -3.33435E-05, 916.4961    , 31.8097477  , 838.3921    , 1.28        , 3           , 255         , 0           , 0
-0.07734116 , -0.1287266  , -9.804123   , -0.000427181629, -0.00042654475, -0.000856781553, 0.0141958324, -0.007338001, -4.19710341E-05, 916.4961    , 31.8097477  , 838.392334  , 1.29        , 3           , 255         , 0           , 0
-0.0758466944, -0.143272   , -9.807646   , -0.000448764622, 7.950635E-05, -0.0006451279, 0.0141913937, -0.007337115, -4.84103875E-05, 916.4961    , 31.8097477  , 838.3926    , 1.3         , 3           , 255         , 0           , 0
-0.07063025 , -0.142562792, -9.805353   , -0.000158994546, -0.000124819431, 8.119289E-05, 0.01418953  , -0.007340708, -4.76143032E-05, 916.4961    , 31.8097477  , 838.4193    , 1.31        , 3           , 255         , 0           , 0
-0.07085931 , -0.135589808, -9.806274   , 0.000384343322, 0.000112948088, -0.00124665629, 0.0141934659, -0.0073394007, -6.00636049E-05, 916.4961    , 31.8097477  , 838.4197    , 1.32        , 3           , 255         , 0           , 0
-0.0721925  , -0.139448076, -9.785799   , -0.000209521619, -0.000246423238, -3.64908628E-05, 0.0141913733, -0.00734186 , -6.04634479E-05, 916.532349  , 31.8085327  , 838.420044  , 1.33        , 3           , 255         , 0           , 0
-0.07319593 , -0.143339545, -9.80274    , -0.000269077776, 0.000127798936, -0.0004486752, 0.0141887153, -0.007340518, -6.493162E-05, 916.532349  , 31.8085327  , 838.4204    , 1.34        , 3           , 255         , 0           , 0
-0.0732570961, -0.143277451, -9.807154   , 0.00010242821, -0.000135160488, -0.000261392473, 0.0141897574, -0.00734183239, -6.756446E-05, 916.532349  , 31.8085327  , 838.4208    , 1.35        , 3           , 255         , 0           , 0
-0.0767107  , -0.141713336, -9.809425   , 0.0003488215, -5.87905633E-05, -0.0006693349, 0.0141932955, -0.007342325, -7.42654956E-05, 916.532349  , 31.8085327  , 838.421143  , 1.36        , 3           , 255         , 0           , 0
-0.07120021 , -0.141087145, -9.810987   , -0.0008147105, -2.93568155E-05, 6.576882E-05, 0.0141851436, -0.00734262774, -7.36120346E-05, 916.532349  , 31.8085327  , 838.4215    , 1.37        , 3           , 255         , 0           , 0
-0.0739503354, -0.142583609, -9.810262   , -0.0009287242, -0.0003476308, -5.67219322E-05, 0.01417586  , -0.007346097, -7.42284756E-05, 916.532349  , 31.8085327  , 838.4219    , 1.38        , 3           , 255         , 0           , 0
-0.07271294 , -0.145548433, -9.805827   , -0.000420072232, -0.000153620349, -0.00011545726, 0.0141716683, -0.00734761637, -7.540472E-05, 916.532349  , 31.8085327  , 838.422241  , 1.39        , 3           , 255         , 0           , 0
-0.06897773 , -0.151294678, -9.801516   , 9.029123E-05, 7.02600446E-05, 0.000334467855, 0.0141725475, -0.007346961, -7.205041E-05, 916.532349  , 31.8085327  , 838.4226    , 1.4         , 3           , 255         , 0           , 0
-0.07225386 , -0.133903712, -9.80623    , 0.000335230317, 0.000228231962, 0.000372035021, 0.0141821681, -0.007345414, -6.834433E-05, 916.532349  , 31.8085327  , 838.4087    , 1.41        , 3           , 255         , 0           , 0
-0.06816143 , -0.133565784, -9.811281   , 4.159122E-05, -0.0002955703, 0.000275380327, 0.0141825639, -0.00734840846, -6.56327247E-05, 916.532349  , 31.8085327  , 838.409     , 1.42        , 3           , 255         , 0           , 0
-0.07081435 , -0.132956877, -9.813166   , -0.000421391276, -0.000423241756, -1.70801068E-05, 0.0141783534, -0.00735263759, -6.58635254E-05, 916.523254  , 31.8097477  , 838.409363  , 1.43        , 3           , 255         , 0           , 0
-0.0633571  , -0.135931447, -9.801152   , 2.03616946E-05, -0.000425471575, -0.000280859938, 0.0141785778, -0.00735685276, -6.873217E-05, 916.523254  , 31.8097477  , 838.4097    , 1.44        , 3           , 255         , 0           , 0
-0.06531712 , -0.135355592, -9.798174   , -0.000791011, 0.0002006949, 1.24758953E-05, 0.0141706672, -0.00735484669, -6.85789855E-05, 916.523254  , 31.8097477  , 838.4101    , 1.45        , 3           , 255         , 0           , 0
-0.07479772 , -0.131858855, -9.804659   , -0.000887585746, 0.000232438484, -7.989916E-05, 0.0141617963, -0.007352512, -6.934497E-05, 916.523254  , 31.8097477  , 838.410461  , 1.46        , 3           , 255         , 0           , 0
-0.07294883 , -0.14070344 , -9.803149   , -3.37330857E-05, 2.505193E-05, -0.000183535056, 0.0141614722, -0.00735223526, -7.11766E-05, 916.523254  , 31.8097477  , 838.4108    , 1.47        , 3           , 255         , 0           , 0
-0.07152285 , -0.137005225, -9.805671   , 2.13667226E-06, -0.00019158014, 0.000379719131, 0.0141614666, -0.007354205, -6.740691E-05, 916.523254  , 31.8097477  , 838.4112    , 1.48        , 3           , 255         , 0           , 0
-0.0687186345, -0.138573378, -9.798671   , -7.379925E-05, 4.05496248E-05, 0.000104702907, 0.0141607216, -0.00735381432, -6.635424E-05, 916.523254  , 31.8097477  , 838.41156   , 1.49        , 3           , 255         , 0           , 0
-0.07237975 , -0.139466316, -9.802301   , -9.134668E-05, 0.000250675716, -0.000290585653, 0.0141598294, -0.007351267, -6.922431E-05, 916.523254  , 31.8097477  , 838.4119    , 1.5         , 3           , 255         , 0           , 0
-0.06629582 , -0.141574025, -9.802969   , -0.00027940725, 0.000488611753, -0.0002618287, 0.0141516551, -0.00734262 , -7.173353E-05, 916.523254  , 31.8097477  , 838.408569  , 1.51        , 3           , 255         , 0           , 0
-0.06724302 , -0.138149768, -9.802111   , -0.0006660787, 6.580413E-05, -0.000189182436, 0.0141450064, -0.007341937, -7.36158545E-05, 916.523254  , 31.8097477  , 838.408936  , 1.52        , 3           , 255         , 0           , 0
-0.05948764 , -0.144815952, -9.801612   , -0.0001360458, -0.000168784056, 0.000485020748, 0.0141436113, -0.00734369224, -6.87899956E-05, 916.497     , 31.8102188  , 838.4093    , 1.53        , 3           , 255         , 0           , 0
-0.0604711659, -0.138517454, -9.801442   , -7.61259653E-05, -0.000255250168, -0.000365450047, 0.0141428774, -0.007346193, -7.248023E-05, 916.497     , 31.8102188  , 838.409668  , 1.54        , 3           , 255         , 0           , 0
-0.06748009 , -0.136126518, -9.804611   , 0.00043151807, 0.0006774024, 0.000104098508, 0.0141471848, -0.0073394347, -7.134353E-05, 916.497     , 31.8102188  , 838.410034  , 1.55        , 3           , 255         , 0           , 0
-0.0711900741, -0.136423379, -9.80833    , -0.0006096312, -0.000218183326, 0.0002522433, 0.0141410716, -0.007341652, -6.8852205E-05, 916.497     , 31.8102188  , 838.4104    , 1.56        , 3           , 255         , 0           , 0
-0.07922716 , -0.14531672 , -9.80467    , -0.0003971663, -0.0003759061, 0.000495279965, 0.0141370622, -0.00734548038, -6.395303E-05, 916.497     , 31.8102188  , 838.410767  , 1.57        , 3           , 255         , 0           , 0
-0.07600065 , -0.144491   , -9.810114   , 0.000209802674, -0.0002054862, -0.000846785, 0.0141392229, -0.00734741567, -7.24491038E-05, 916.497     , 31.8102188  , 838.411133  , 1.58        , 3           , 255         , 0           , 0
-0.06704459 , -0.146622986, -9.799803   , 0.0001842769, -0.00104673614, -0.0009153681, 0.0141411349, -0.00735775335, -8.174992E-05, 916.497     , 31.8102188  , 838.4115    , 1.59        , 3           , 255         , 0           , 0
-0.0671705157, -0.14182201 , -9.801912   , -0.0012848737, 0.000377949676, -0.000438184827, 0.0141283181, -0.007353911, -8.60779255E-05, 916.497     , 31.8102188  , 838.411865  , 1.6         , 3           , 255         , 0           , 0
-0.0726421252, -0.1352591  , -9.799051   , -0.000448416045, 0.0003308993, -2.37279455E-05, 0.014128658 , -0.00734375743, -8.630387E-05, 916.497     , 31.8102188  , 838.436768  , 1.61        , 3           , 255         , 0           , 0
-0.0662786961, -0.140962169, -9.811811   , -0.000607528549, 0.000103215556, -0.000361983519, 0.01412261  , -0.0073426743, -8.99087754E-05, 916.497     , 31.8102188  , 838.437256  , 1.62        , 3           , 255         , 0           , 0
-0.07000431 , -0.1409663  , -9.795712   , -0.0008875526, -0.000214448344, -0.000179753944, 0.0141137475, -0.00734479353, -9.173642E-05, 916.503357  , 31.8121738  , 838.437744  , 1.63        , 3           , 255         , 0           , 0
-0.07139907 , -0.1401782  , -9.801447   , -9.805284E-06, 0.0002970771, 0.000120399811, 0.01411364  , -0.0073418403, -9.049062E-05, 916.503357  , 31.8121738  , 838.438232  , 1.64        , 3           , 255         , 0           , 0
-0.06809914 , -0.139449671, -9.805959   , 0.000242229828, -1.04959072E-05, -0.000176244183, 0.0141160758, -0.0073419204, -9.225437E-05, 916.503357  , 31.8121738  , 838.4387    , 1.65        , 3           , 255         , 0           , 0
-0.07114285 , -0.140750483, -9.807819   , -0.000301766733, -0.000395340234, 0.000352845324, 0.0141130332, -0.007345923, -8.878206E-05, 916.503357  , 31.8121738  , 838.4392    , 1.66        , 3           , 255         , 0           , 0
-0.07474408 , -0.139886811, -9.811958   , 0.000572518 , -0.000343552529, -0.0002137894, 0.0141187739, -0.007349328, -9.09682349E-05, 916.503357  , 31.8121738  , 838.4397    , 1.67        , 3           , 255         , 0           , 0
-0.0704847351, -0.1400452  , -9.808148   , 6.949768E-05, -2.53733633E-05, -0.0005404254, 0.0141195077, -0.00734950555, -9.63755447E-05, 916.503357  , 31.8121738  , 838.4402    , 1.68        , 3           , 255         , 0           , 0
-0.06838687 , -0.142537355, -9.801827   , 0.0004359092, -0.0006391017, -0.000217632973, 0.014123884 , -0.007355864, -9.86418963E-05, 916.503357  , 31.8121738  , 838.4407    , 1.69        , 3           , 255         , 0           , 0
-0.06754117 , -0.142506629, -9.804078   , -5.31069236E-06, -0.000296467246, 0.000265806681, 0.0141238123, -0.00735886674, -9.602596E-05, 916.503357  , 31.8121738  , 838.4412    , 1.7         , 3           , 255         , 0           , 0
-0.06427115 , -0.140786052, -9.799903   , 0.000365712651, -0.000359810976, -5.904032E-05, 0.014130597 , -0.00735920854, -9.669011E-05, 916.503357  , 31.8121738  , 838.4564    , 1.71        , 3           , 255         , 0           , 0
-0.075397864, -0.142505929, -9.812686   , -6.604726E-05, -0.000454441062, -0.000408165157, 0.0141299665, -0.007363695, -0.000100835583, 916.503357  , 31.8121738  , 838.457031  , 1.72        , 3           , 255         , 0           , 0
-0.07570911 , -0.137853071, -9.802988   , -0.0002352419, 0.000171740976, -0.0001388742, 0.0141276233, -0.00736195827, -0.000102199934, 916.5433    , 31.8131847  , 838.457642  , 1.73        , 3           , 255         , 0           , 0
-0.06565567 , -0.141645238, -9.804457   , 0.000471277483, 0.00033053293, -1.56270835E-05, 0.0141323386, -0.007358651, -0.000102309481, 916.5433    , 31.8131847  , 838.458252  , 1.74        , 3           , 255         , 0           , 0
-0.06483084 , -0.1441209  , -9.802218   , 0.000417698961, -0.000135991533, -0.000445190759, 0.0141365472, -0.007359947, -0.000106780179, 916.5433    , 31.8131847  , 838.458862  , 1.75        , 3           , 255         , 0           , 0
-0.07175122 , -0.133093312, -9.799649   , 0.0005289962, -0.00104840973, -0.000289932417, 0.0141418595, -0.00737038767, -0.000109827452, 916.5433    , 31.8131847  , 838.4595    , 1.76        , 3           , 255         , 0           , 0
-0.0712642  , -0.126752138, -9.804725   , -0.000579716754, -0.000703065132, -0.000609858835, 0.0141361086, -0.00737733254, -0.000116024858, 916.5433    , 31.8131847  , 838.4601    , 1.77        , 3           , 255         , 0           , 0
-0.071583   , -0.137965664, -9.804245   , -0.000638342346, -8.774451E-05, -0.000509323145, 0.0141297616, -0.007378138, -0.000121130004, 916.5433    , 31.8131847  , 838.4607    , 1.78        , 3           , 255         , 0           , 0
-0.07618292 , -0.1419039  , -9.81003952 , 0.000275950559, 0.000118066477, -0.000157818591, 0.0141325332, -0.00737693533, -0.000122691345, 916.5433    , 31.8131847  , 838.4613    , 1.79        , 3           , 255         , 0           , 0
-0.0731452852, -0.144172668, -9.813007   , -0.000102203434, 0.000232826715, -0.000269583223, 0.0141315321, -0.00737456931, -0.00012535401, 916.5433    , 31.8131847  , 838.4619    , 1.8         , 3           , 255         , 0           , 0
-0.06997546 , -0.144571483, -9.816484   , 0.0006704202, 0.000220544578, -0.0004311973, 0.0141390329, -0.007370365, -0.000129640044, 916.5433    , 31.8131847  , 838.4298    , 1.81        , 3           , 255         , 0           , 0
-0.0720482543, -0.1482387  , -9.821469   , -0.000153082627, -0.000325073721, -0.000271572673, 0.0141375232, -0.00737357652, -0.000132401459, 916.5433    , 31.8131847  , 838.430237  , 1.82        , 3           , 255         , 0           , 0
-0.07548305 , -0.154239744, -9.78958    , -0.0006736487, 0.000119635544, -0.0001783548, 0.0141307991, -0.007372355, -0.000134167931, 916.503     , 31.8119717  , 838.430664  , 1.83        , 3           , 255         , 0           , 0
-0.0687461346, -0.137426391, -9.797267   , -4.34335234E-05, 0.000386275526, 0.0003245009, 0.0141303409, -0.007368538, -0.000130868677, 916.503     , 31.8119717  , 838.4311    , 1.84        , 3           , 255         , 0           , 0
-0.06574829 , -0.139492258, -9.806325   , -0.000221315568, 8.947593E-05, -0.000452226435, 0.0141281625, -0.00736757973, -0.00013537785, 916.503     , 31.8119717  , 838.4315    , 1.85        , 3           , 255         , 0           , 0
-0.0751735941, -0.139579684, -9.802329   , -0.00101903616, -5.85546659E-05, 0.000260972651, 0.0141179534, -0.00736820325, -0.000132776637, 916.503     , 31.8119717  , 838.432     , 1.86        , 3           , 255         , 0           , 0
-0.06252301 , -0.1466617  , -9.802713   , -3.85521125E-05, -0.000577184255, 0.00032583985, 0.0141175436, -0.00737402029, -0.000129600012, 916.503     , 31.8119717  , 838.4325    , 1.87        , 3           , 255         , 0           , 0
-0.071307525, -0.143211439, -9.805211   , -0.0003266862, -0.00023178698, -1.15988078E-05, 0.0141142765, -0.00737633649, -0.000129748718, 916.503     , 31.8119717  , 838.433     , 1.88        , 3           , 255         , 0           , 0
-0.07085806 , -0.141802117, -9.808682   , -0.00101608434, -4.839091E-05, -0.0009696842, 0.0141041866, -0.00737668248, -0.00013945144, 916.503     , 31.8119717  , 838.4335    , 1.89        , 3           , 255         , 0           , 0
-0.0742504746, -0.142086744, -9.80705452 , -4.6008754E-05, -0.000217829147, -0.000295265578, 0.0141037488, -0.00737881847, -0.00014243451, 916.503     , 31.8119717  , 838.43396   , 1.9         , 3           , 255         , 0           , 0
-0.0711792558, -0.132202908, -9.803217   , -0.000463551929, -0.0003794326, 0.000210233731, 0.0141072692, -0.00738004642, -0.0001404462, 916.503     , 31.8119717  , 838.4512    , 1.91        , 3           , 255         , 0           , 0
-0.06663717 , -0.138912067, -9.800344   , -0.0003306353, 0.000160889642, -0.000315438578, 0.0141039854, -0.007378394, -0.000143577578, 916.503     , 31.8119717  , 838.4517    , 1.92        , 3           , 255         , 0           , 0
-0.0640530139, -0.141665637, -9.798567   , -8.751312E-05, 7.389428E-05, -0.0001858234, 0.014103123 , -0.0073776287, -0.00014542522, 916.535645  , 31.8118362  , 838.4523    , 1.93        , 3           , 255         , 0           , 0
-0.06727045 , -0.133781478, -9.803217   , 7.23192352E-06, -7.438045E-05, 0.00026468822, 0.014103177 , -0.00737840962, -0.000142789082, 916.535645  , 31.8118362  , 838.4528    , 1.94        , 3           , 255         , 0           , 0
-0.0690072  , -0.140101239, -9.809279   , -1.42382778E-05, -0.000124404032, 0.0001498425, 0.0141030233, -0.007379674, -0.000141308352, 916.535645  , 31.8118362  , 838.4534    , 1.95        , 3           , 255         , 0           , 0
-0.0614969656, -0.140814468, -9.804346   , -0.000343027961, -7.349013E-05, 0.0003884647, 0.0140995653, -0.00738046365, -0.000137434428, 916.535645  , 31.8118362  , 838.454041  , 1.96        , 3           , 255         , 0           , 0
-0.0686586648, -0.136067033, -9.809326   , -0.000361838174, -0.000318893522, -0.000188933976, 0.01409596  , -0.00738362549, -0.000139368552, 916.535645  , 31.8118362  , 838.454651  , 1.97        , 3           , 255         , 0           , 0
-0.07449678 , -0.132098719, -9.804026   , 0.000182859134, -0.0005638341, 4.72345855E-05, 0.0140977865, -0.00738927023, -0.000138975709, 916.535645  , 31.8118362  , 838.455261  , 1.98        , 3           , 255         , 0           , 0
-0.0660818443, -0.124946915, -9.79873848 , -0.000371239468, 0.000240710477, -0.000412047433, 0.0140941041, -0.00738680549, -0.000143061872, 916.535645  , 31.8118362  , 838.4559    , 1.99        , 3           , 255         , 0           , 0
-0.0685286745, -0.130898476, -9.806497   , -9.63903E-05, -0.0003441685, 7.849233E-05, 0.0140931346, -0.00739025744, -0.000142325531, 916.535645  , 31.8118362  , 838.4565    , 2           , 3           , 0           , 7.492236    , 200
-0.06119597 , -0.135191724, -9.80522    , -0.000379551639, 0.00017543236, -0.000178730232, 0.0140840877, -0.007380706, -0.0001440491, 916.535645  , 31.8118362  , 838.432251  , 2.01        , 3           , 1           , 0           , 0
-0.07026106 , -0.136413366, -9.813095   , 0.000339724735, 0.000896977144, -0.000422356068, 0.0140875159, -0.00737167848, -0.0001481459, 916.535645  , 31.8118362  , 838.4327    , 2.02        , 3           , 2           , 0           , 0
-0.07138695 , -0.133732468, -9.8101     , 0.000290795841, -0.00020318522, 0.0003143739, 0.0140904021, -0.0073737544, -0.000145031081, 916.5423    , 31.8152084  , 838.4331    , 2.03        , 3           , 3           , 0           , 0
-0.07414688 , -0.147807658, -9.803929   , -0.0002655608, 0.0002523633, 8.237053E-06, 0.014087745 , -0.007371232, -0.0001449132, 916.5423    , 31.8152084  , 838.433533  , 2.04        , 3           , 4           , 0           , 0
-0.06910814 , -0.148930818, -9.804499   , 0.0005305584, 0.000144090911, -0.00077268586, 0.0140931075, -0.00736968266, -0.000152618974, 916.5423    , 31.8152084  , 838.434     , 2.05        , 3           , 5           , 0           , 0
-0.07817046 , -0.143754452, -9.806669   , -0.00027480087, 0.000291330769, 7.417443E-05, 0.0140903555, -0.00736678 , -0.000151836255, 916.5423    , 31.8152084  , 838.4345    , 2.06        , 3           , 6           , 0           , 0
-0.07024236 , -0.13741371 , -9.801481   , 0.000100306454, -0.0007286717, -0.000397268654, 0.0140913883, -0.00737401051, -0.000155911242, 916.5423    , 31.8152084  , 838.435     , 2.07        , 3           , 7           , 0           , 0
-0.07178016 , -0.135560989, -9.798586   , -0.000299418985, -0.0001432248, 0.0002367624, 0.0140883764, -0.007375476, -0.000153564033, 916.5423    , 31.8152084  , 838.4355    , 2.08        , 3           , 8           , 5           , 5
-0.06637976 , -0.140989736, -9.798031   , 5.027688E-05, -5.86968163E-05, 0.0004475429, 0.0140888467, -0.007376126, -0.0001490973, 916.5423    , 31.8152084  , 838.436     , 2.09        , 3           , 9           , 5           , 0.1
-0.06793609 , -0.148383975, -9.801456   , 7.452458E-05, 3.03902343E-05, 0.000214998785, 0.014089576 , -0.007375852, -0.000146943232, 916.5423    , 31.8152084  , 838.436462  , 2.1         , 3           , 10          , 0.1         , 0.1
-0.0632095039, -0.145173669, -9.801383   , 4.22878657E-07, -0.0006729973, 0.00048224855, 0.0140938377, -0.007379077, -0.0001422477, 916.5423    , 31.8152084  , 838.405762  , 2.11        , 3           , 11          , 0.009117853 , 0.009117851
-0.06892941 , -0.144549385, -9.822886   , 0.00010736227, -0.000230110047, 0.000228410252, 0.0140948957, -0.00738141034, -0.000139996278, 916.5423    , 31.8152084  , 838.406067  , 2.12        , 3           , 12          , 0.174643889 , 0
-0.07145066 , -0.1362114  , -9.804102   , 0.0001774436, -7.778663E-05, -5.06010547E-05, 0.0140966726, -0.007382181, -0.0001405132, 916.5152    , 31.8164883  , 838.4064    , 2.13        , 3           , 13          , 0           , 0
-0.07163487 , -0.138949245, -9.805182   , 0.00017827742, -0.000169278326, 0.000406911771, 0.0140984273, -0.007383931, -0.000136468312, 916.5152    , 31.8164883  , 838.4067    , 2.14        , 3           , 14          , 0.000129538486, 6.26053E-05
-0.07803272 , -0.133791253, -9.801255   , 0.000160173062, 0.000149316184, 4.449433E-05, 0.0141000254, -0.007382444, -0.000136002374, 916.5152    , 31.8164883  , 838.407     , 2.15        , 3           , 15          , 0           , 0.000175181238
-0.07763679 , -0.145329878, -9.806361   , -0.000310271047, 0.000304542627, -9.323207E-05, 0.0140969278, -0.00737938564, -0.000136891671, 916.5152    , 31.8164883  , 838.4073    , 2.16        , 3           , 16          , 0           , 1.401298E-45
-0.06455476 , -0.144488782, -9.798943   , 0.0004811635, -0.000211279374, -0.00102783716, 0.0141018163, -0.007381352, -0.000147198836, 916.5152    , 31.8164883  , 838.4076    , 2.17        , 3           , 20          , 0           , 0
-0.0706966147, -0.13951692 , -9.8036375  , -0.0006338116, 6.816617E-05, -0.000856084342, 0.0140955411, -0.00738055073, -0.000155749236, 916.5152    , 31.8164883  , 838.4079    , 2.18        , 3           , 21          , 0           , 0
-0.08115151 , -0.138884783, -9.808283   , 0.000570205448, 0.000493404164, -4.14031529E-05, 0.0141012454, -0.00737561239, -0.00015609368, 916.5152    , 31.8164883  , 838.4082    , 2.19        , 3           , 22          , 0           , 0
-0.07275073 , -0.142034858, -9.804294   , 0.000659984769, 0.0004294486, -0.0005005838, 0.014107883 , -0.00737124728, -0.00016103845, 916.5152    , 31.8164883  , 838.4085    , 2.2         , 3           , 40          , 0           , 0
-0.0750472844, -0.1401428  , -9.820173   , 0.000118487005, -3.512405E-05, -0.00021852451, 0.014113063 , -0.007370963, -0.000163257791, 916.5152    , 31.8164883  , 838.4151    , 2.21        , 3           , 41          , 0           , 0
-0.06486546 , -0.138251767, -9.82704    , -0.000236424909, 9.006114E-05, -0.000323688553, 0.0141107235, -0.00737001747, -0.000166481652, 916.5152    , 31.8164883  , 838.415466  , 2.22        , 3           , 42          , 0           , 0
-0.07404723 , -0.142637819, -9.791955   , -7.85052E-05, -0.0003320248, -0.0004011005, 0.0141099682, -0.007373281, -0.0001705391, 916.5456    , 31.8156128  , 838.415833  , 2.23        , 3           , 255         , 0           , 0
-0.0752116144, -0.138437286, -9.803346   , -0.0007811641, -0.00031508028, -0.000133510912, 0.0141021674, -0.007376413, -0.000171918553, 916.5456    , 31.8156128  , 838.4162    , 2.24        , 3           , 255         , 0           , 0
-0.07086704 , -0.13464871 , -9.798353   , -0.000175526744, -0.0004936106, 8.151194E-05, 0.0141004082, -0.007381359, -0.000171173131, 916.5456    , 31.8156128  , 838.416565  , 2.25        , 3           , 255         , 0           , 0
-0.0699732155, -0.135065034, -9.806808   , -0.000216009372, 0.000308840885, 0.000117936142, 0.0140982373, -0.00737828854, -0.000169950319, 916.5456    , 31.8156128  , 838.416931  , 2.26        , 3           , 255         , 0           , 0
-0.06905838 , -0.136597559, -9.809275   , -0.000143689045, -0.000589308969, 0.000592550146, 0.0140967574, -0.007384264, -0.000164108467, 916.5456    , 31.8156128  , 838.4173    , 2.27        , 3           , 255         , 0           , 0
-0.07078141 , -0.142352924, -9.80038    , 0.000643577951, -0.0006862374, -0.000573532656, 0.0141032375, -0.00739104627, -0.000169939973, 916.5456    , 31.8156128  , 838.417664  , 2.28        , 3           , 255         , 0           , 0
-0.06976129 , -0.13624616 , -9.801788   , -0.0006220526, 0.0002500293, -0.000740571646, 0.01409707  , -0.00738844043, -0.000177309717, 916.5456    , 31.8156128  , 838.418     , 2.29        , 3           , 255         , 0           , 0
-0.07686447 , -0.141094044, -9.794877   , 3.40844272E-05, 6.70398731E-06, -0.0004922382, 0.0140974475, -0.007388304, -0.000182230666, 916.5456    , 31.8156128  , 838.4184    , 2.3         , 3           , 255         , 0           , 0
-0.07173125 , -0.140801817, -9.804338   , 0.000413063855, 0.000111852765, -0.00054899184, 0.0141020287, -0.007386022, -0.000187707323, 916.5456    , 31.8156128  , 838.384338  , 2.31        , 3           , 255         , 0           , 0
-0.07990724 , -0.140522435, -9.813896   , 4.655939E-05, 0.000199050526, -0.0008100032, 0.0141025539, -0.007383917, -0.0001957785, 916.5456    , 31.8156128  , 838.3845    , 2.32        , 3           , 255         , 0           , 0
-0.07604428 , -0.141548842, -9.803389   , -0.0008338936, 0.0005269982, 0.000152629233, 0.0140942028, -0.00737867039, -0.000194178065, 916.5303    , 31.8149376  , 838.3847    , 2.33        , 3           , 255         , 0           , 0
-0.08013606 , -0.133583426, -9.809063   , -0.000332216558, 0.0003980973, 0.0001027152, 0.0140908742, -0.00737470435, -0.0001930949, 916.5303    , 31.8149376  , 838.3849    , 2.34        , 3           , 255         , 0           , 0
-0.0748955756, -0.149557978, -9.803738   , -0.000269569282, 0.000277777 , -0.000326920534, 0.0140882013, -0.00737188058, -0.000196324661, 916.5303    , 31.8149376  , 838.3851    , 2.35        , 3           , 255         , 0           , 0
-0.07176579 , -0.143071562, -9.808395   , -0.0008037887, -2.72236866E-06, 0.000324307242, 0.0140801407, -0.00737195555, -0.0001930823, 916.5303    , 31.8149376  , 838.385254  , 2.36        , 3           , 255         , 0           , 0
-0.07515089 , -0.138238043, -9.811613   , -0.0007904737, 0.000182501622, -0.0001913711, 0.0140722515, -0.00737010362, -0.000194970169, 916.5303    , 31.8149376  , 838.385437  , 2.37        , 3           , 255         , 0           , 0
-0.07429982 , -0.1295539  , -9.811253   , 0.0006023953, 0.0001054767, -0.0009429074, 0.0140783424, -0.00736891571, -0.000204383468, 916.5303    , 31.8149376  , 838.3856    , 2.38        , 3           , 255         , 0           , 0
-0.0758084059, -0.136996672, -9.806299   , 5.03298652E-05, -0.00055128953, -0.000388287765, 0.0140788741, -0.00737437326, -0.000208343568, 916.5303    , 31.8149376  , 838.3858    , 2.39        , 3           , 255         , 0           , 0
-0.07081827 , -0.140817538, -9.798488   , -0.000250560173, 1.86165853E-05, -0.0007310353, 0.0140764248, -0.00737408455, -0.000215650609, 916.5303    , 31.8149376  , 838.386     , 2.4         , 3           , 255         , 0           , 0
-0.0721567646, -0.147193551, -9.806265   , 0.000630051538, -2.95959217E-05, -0.000682818762, 0.0140845729, -0.00737811532, -0.000222495553, 916.5303    , 31.8149376  , 838.375732  , 2.41        , 3           , 255         , 0           , 0
-0.07502794 , -0.155748725, -9.816575   , 0.000325701141, 4.03659651E-05, -0.000827430864, 0.01408789  , -0.00737759564, -0.000230763384, 916.5303    , 31.8149376  , 838.375854  , 2.42        , 3           , 255         , 0           , 0
-0.06813793 , -0.142240793, -9.794355   , 7.979006E-05, 0.000181195675, 2.49898E-05 , 0.0140886866, -0.007375788, -0.00023048796, 916.554932  , 31.8132534  , 838.376     , 2.43        , 3           , 255         , 0           , 0
-0.06595818 , -0.146145552, -9.804247   , -0.0003610173, 0.0002892553, -0.000256736646, 0.0140850954, -0.007372859, -0.000233014332, 916.554932  , 31.8132534  , 838.3761    , 2.44        , 3           , 255         , 0           , 0
-0.06888914 , -0.148389384, -9.80071449 , 0.000203236836, -9.960885E-05, -0.000744664634, 0.0140871806, -0.00737374974, -0.0002404743, 916.554932  , 31.8132534  , 838.3762    , 2.45        , 3           , 255         , 0           , 0
-0.06990753 , -0.140401363, -9.805801   , 0.000487693353, 6.92150934E-06, -0.000468244543, 0.0140920933, -0.007373614, -0.000245155272, 916.554932  , 31.8132534  , 838.376343  , 2.46        , 3           , 255         , 0           , 0
-0.0610362068, -0.136993974, -9.808844   , -0.000425632228, 0.0002460538, -0.000159147821, 0.0140878474, -0.007371131, -0.000246711919, 916.554932  , 31.8132534  , 838.376465  , 2.47        , 3           , 255         , 0           , 0
-0.07023371 , -0.132065341, -9.813735   , -0.000375939533, -0.000208937214, -0.000147298008, 0.0140841007, -0.007373199, -0.0002482142, 916.554932  , 31.8132534  , 838.3766    , 2.48        , 3           , 255         , 0           , 0
-0.07801564 , -0.134938389, -9.799512   , -0.000333607051, -0.000565722, -0.000278222753, 0.0140807861, -0.007378816, -0.000251075864, 916.554932  , 31.8132534  , 838.3767    , 2.49        , 3           , 255         , 0           , 0
-0.0779995248, -0.136405021, -9.806804   , 0.0003007776, -0.000483401, -0.000897254562, 0.0140838595, -0.00738352444, -0.000260115572, 916.554932  , 31.8132534  , 838.376831  , 2.5         , 3           , 255         , 0           , 0
-0.07571148 , -0.14188385 , -9.811789   , 5.85613452E-05, -0.00062786293, -0.000444447622, 0.0140901543, -0.007387457, -0.000264689937, 916.554932  , 31.8132534  , 838.334534  , 2.51        , 3           , 255         , 0           , 0
-0.0825421959, -0.142334655, -9.806653   , 0.000502486131, -0.000345531444, 3.49020847E-05, 0.0140951769, -0.00739091728, -0.000264389644, 916.554932  , 31.8132534  , 838.3344    , 2.52        , 3           , 255         , 0           , 0
-0.08327719 , -0.137164   , -9.807198   , 0.000270784425, 0.000306628877, -0.000262525253, 0.0140979029, -0.007387814, -0.000266971416, 916.511841  , 31.8152084  , 838.3343    , 2.53        , 3           , 255         , 0           , 0
-0.06753997 , -0.139592454, -9.805082   , 0.0002569815, 0.000475664274, -0.000150698485, 0.0141004845, -0.00738303736, -0.0002684112, 916.511841  , 31.8152084  , 838.334167  , 2.54        , 3           , 255         , 0           , 0
-0.07580994 , -0.128785625, -9.804566   , -6.095967E-05, 0.000225093871, -0.0005883099, 0.0140999164, -0.00738070346, -0.000274262, 916.511841  , 31.8152084  , 838.334045  , 2.55        , 3           , 255         , 0           , 0
-0.07328931 , -0.141095534, -9.810547   , -0.000279989617, 3.66699824E-05, 2.8758237E-05, 0.0140971141, -0.00738034071, -0.0002739693, 916.511841  , 31.8152084  , 838.3339    , 2.56        , 3           , 255         , 0           , 0
-0.07080511 , -0.149301037, -9.807711   , -0.000677575357, 0.000344018626, 0.0006583783, 0.01409029  , -0.007376994, -0.000267337658, 916.511841  , 31.8152084  , 838.3338    , 2.57        , 3           , 255         , 0           , 0
-0.0673983  , -0.145392656, -9.807338   , -0.0003473374, 0.0006311061, -0.0002736529, 0.014086836 , -0.00737064471, -0.00026998503, 916.511841  , 31.8152084  , 838.3337    , 2.58        , 3           , 255         , 0           , 0
-0.06636951 , -0.138619184, -9.798498   , -0.0005361497, -4.3247077E-05, -0.00010296976, 0.0140814837, -0.00737106241, -0.0002710207, 916.511841  , 31.8152084  , 838.333557  , 2.59        , 3           , 255         , 0           , 0
-0.06469512 , -0.134919524, -9.797238   , -0.00113649294, -0.0006182027, -0.0009778675, 0.0140701905, -0.0073771053, -0.000280885433, 916.511841  , 31.8152084  , 838.333435  , 2.6         , 3           , 255         , 0           , 0
-0.06602586 , -0.1448073  , -9.797496   , -0.00103527331, -0.000476440619, -0.0005357671, 0.014062223 , -0.00738230068, -0.000286326918, 916.511841  , 31.8152084  , 838.3553    , 2.61        , 3           , 255         , 0           , 0
-0.0671988353, -0.157591864, -9.805447   , 0.0006287815, 5.826487E-05, -0.000154483612, 0.0140685216, -0.00738169672, -0.000287863426, 916.511841  , 31.8152084  , 838.355347  , 2.62        , 3           , 255         , 0           , 0
-0.0722888559, -0.14557153 , -9.809904   , 0.000693058362, -0.0005038333, 0.0003336363, 0.0140754292, -0.007386782, -0.000284598238, 916.4956    , 31.8165569  , 838.3554    , 2.63        , 3           , 255         , 0           , 0
-0.07380713 , -0.136217967, -9.801744   , 0.0005686588, -0.0002594107, -8.359048E-05, 0.0140811205, -0.0073893643, -0.0002854706, 916.4956    , 31.8165569  , 838.355469  , 2.64        , 3           , 255         , 0           , 0
-0.0791704655, -0.129017308, -9.796011   , 0.00029207312, 8.0799E-05  , -0.0008373222, 0.0140841026, -0.00738843763, -0.0002938316, 916.4956    , 31.8165569  , 838.3555    , 2.65        , 3           , 255         , 0           , 0
-0.0840127543, -0.1394998  , -9.796209   , 0.0007571818, -0.0004914601, -0.000113488706, 0.0140916836, -0.007393336, -0.000295035628, 916.4956    , 31.8165569  , 838.3556    , 2.66        , 3           , 255         , 0           , 0
-0.069971934, -0.13101697 , -9.797785   , -0.000160519223, -0.0003468792, -0.000517157547, 0.014090118 , -0.007396731, -0.000300255546, 916.4956    , 31.8165569  , 838.355652  , 2.67        , 3           , 255         , 0           , 0
-0.07081519 , -0.136774614, -9.801217   , -0.000910925562, -0.001043052, -0.000580017862, 0.0140810534, -0.00740707759, -0.000306202128, 916.4956    , 31.8165569  , 838.3557    , 2.68        , 3           , 255         , 0           , 0
-0.07526529 , -0.134334847, -9.800561   , -0.000130172877, -0.000263704133, -0.000447314756, 0.014079785 , -0.007409652, -0.000310711941, 916.4956    , 31.8165569  , 838.3558    , 2.69        , 3           , 255         , 0           , 0
-0.06956659 , -0.141687542, -9.810949   , 0.000857734 , 0.00022485244, 0.00053718494, 0.0140883215, -0.00740747945, -0.000305308931, 916.4956    , 31.8165569  , 838.355835  , 2.7         , 3           , 255         , 0           , 0
-0.06960767 , -0.138996109, -9.809107   , 0.000410123961, -0.000448051316, -0.000308310729, 0.0140951015, -0.007412547, -0.000308474526, 916.4956    , 31.8165569  , 838.397156  , 2.71        , 3           , 255         , 0           , 0
-0.07173906 , -0.1364784  , -9.816713   , 0.000396189746, 3.946587E-05, 0.000338370184, 0.0140990382, -0.0074122  , -0.000305085559, 916.4956    , 31.8165569  , 838.3975    , 2.72        , 3           , 255         , 0           , 0
-0.0689811558, -0.134308457, -9.795719   , -0.000186049874, -9.805858E-05, -0.00119939866, 0.0140972659, -0.00741301 , -0.0003170922, 916.503     , 31.81487    , 838.3979    , 2.73        , 3           , 255         , 0           , 0
-0.0631849  , -0.142733425, -9.800975   , 8.89333751E-05, -0.000438114424, -0.0009917462, 0.0140982289, -0.007417252, -0.000327070447, 916.503     , 31.81487    , 838.398254  , 2.74        , 3           , 255         , 0           , 0
-0.0661117  , -0.147046059, -9.797511   , 0.000245957635, -9.939089E-06, 0.000117359246, 0.01410068  , -0.007417368, -0.000325898349, 916.503     , 31.81487    , 838.3986    , 2.75        , 3           , 255         , 0           , 0
-0.06796922 , -0.139269769, -9.801245   , -0.000406241626, 0.000274844759, -0.0004883289, 0.0140966522, -0.00741455052, -0.000330742419, 916.503     , 31.81487    , 838.399     , 2.76        , 3           , 255         , 0           , 0
-0.06491717 , -0.13993755 , -9.806939   , -6.56266348E-05, -0.0002887823, -0.0004624761, 0.014096031 , -0.007417373, -0.0003354074, 916.503     , 31.81487    , 838.399353  , 2.77        , 3           , 255         , 0           , 0
-0.07184507 , -0.133008286, -9.81121349 , 0.000151755245, 0.000337297766, 0.000366063468, 0.01409752  , -0.007414052, -0.0003316996, 916.503     , 31.81487    , 838.3997    , 2.78        , 3           , 255         , 0           , 0
-0.07392277 , -0.13469629 , -9.804117   , -0.0006483565, -0.0001790825, 4.79689479E-05, 0.0140910344, -0.007415849, -0.00033124513, 916.503     , 31.81487    , 838.4001    , 2.79        , 3           , 255         , 0           , 0
-0.0727541745, -0.138525933, -9.801849   , 0.00019015836, -0.000330451643, -0.000523404742, 0.0140929753, -0.00741907954, -0.000336525234, 916.503     , 31.81487    , 838.400452  , 2.8         , 3           , 255         , 0           , 0
-0.0728445053, -0.134141654, -9.812193   , -0.000205548436, 0.000179245355, 0.000406761 , 0.0140912514, -0.007412065, -0.0003324355, 916.503     , 31.81487    , 838.4258    , 2.81        , 3           , 255         , 0           , 0
-0.0636401549, -0.134335354, -9.804086   , -0.0004342767, 0.000304784859, 0.0004676499, 0.0140868733, -0.007409083, -0.000327716523, 916.503     , 31.81487    , 838.426331  , 2.82        , 3           , 255         , 0           , 0
-0.0699924454, -0.142900586, -9.793286   , 0.000664327 , 0.000590211945, 2.170146E-05, 0.0140935155, -0.00740318466, -0.000327416346, 916.5204    , 31.8153419  , 838.4269    , 2.83        , 3           , 255         , 0           , 0
-0.06969698 , -0.138808429, -9.800166   , 0.0007977988, -0.0004136358, 7.37983646E-05, 0.0141014876, -0.00740733044, -0.000326736743, 916.5204    , 31.8153419  , 838.4274    , 2.84        , 3           , 255         , 0           , 0
-0.06695292 , -0.139133513, -9.804984   , 0.0003577046, -9.860366E-05, -0.0006037529, 0.0141051095, -0.007408232, -0.0003327876, 916.5204    , 31.8153419  , 838.428     , 2.85        , 3           , 255         , 0           , 0
-0.0694865  , -0.1327574  , -9.804426   , 9.782528E-05, -0.000484189135, -8.359729E-05, 0.014106092 , -0.0074130604, -0.000333691773, 916.5204    , 31.8153419  , 838.4285    , 2.86        , 3           , 255         , 0           , 0
-0.06462239 , -0.140865445, -9.800314   , 0.000163275181, -0.00027361064, 0.0009506115, 0.0141076557, -0.007415931, -0.000324225141, 916.5204    , 31.8153419  , 838.4291    , 2.87        , 3           , 255         , 0           , 0
-0.06415556 , -0.1442298  , -9.797208   , -0.000410745153, -8.702941E-05, -0.000122703379, 0.0141035588, -0.007416783, -0.000325464323, 916.5204    , 31.8153419  , 838.4296    , 2.88        , 3           , 255         , 0           , 0
-0.07071304 , -0.140402287, -9.798988   , -0.000348629022, -0.0005809192, -0.000414585229, 0.0141001046, -0.00742253242, -0.000329691684, 916.5204    , 31.8153419  , 838.4302    , 2.89        , 3           , 255         , 0           , 0
-0.0728741661, -0.142348826, -9.798914   , 9.494946E-05, -0.00049033307, -0.000231609243, 0.0141010694, -0.00742740324, -0.0003320767, 916.5204    , 31.8153419  , 838.4307    , 2.9         , 3           , 255         , 0           , 0
-0.072663866, -0.140339583, -9.806946   , 9.478077E-05, -0.000338588143, 0.0001097612, 0.0141032264, -0.007424085, -0.000331036, 916.5204    , 31.8153419  , 838.4278    , 2.91        , 3           , 255         , 0           , 0
-0.07370104 , -0.135433882, -9.804717   , -0.0003082646, 3.956011E-07, -0.000226375589, 0.01410016  , -0.007424049, -0.000333299453, 916.5204    , 31.8153419  , 838.428345  , 2.92        , 3           , 255         , 0           , 0
-0.06704145 , -0.138832614, -9.80258    , 5.84953377E-05, -3.94778253E-05, 0.000356074539, 0.0141007183, -0.00742449425, -0.000329744624, 916.5229    , 31.8166237  , 838.4289    , 2.93        , 3           , 255         , 0           , 0
-0.06662208 , -0.134432316, -9.798079   , -0.000137437237, -6.36608747E-05, -0.000699936063, 0.0140993968, -0.00742503256, -0.0003367523, 916.5229    , 31.8166237  , 838.429443  , 2.94        , 3           , 255         , 0           , 0
-0.07408221 , -0.131226957, -9.804988   , -0.0004826528, -0.000428000581, 0.0002639223, 0.0140945492, -0.0074293497, -0.000334173645, 916.5229    , 31.8166237  , 838.43      , 2.95        , 3           , 255         , 0           , 0
-0.07337756 , -0.135275289, -9.802033   , -0.0004463595, -0.000126120445, 0.000217518158, 0.0140900714, -0.007430641, -0.000332016469, 916.5229    , 31.8166237  , 838.430542  , 2.96        , 3           , 255         , 0           , 0
-0.0655936  , -0.137923941, -9.806182   , -1.86358884E-05, -0.000750417064, -0.000142992183, 0.0140898973, -0.007438124, -0.000333552, 916.5229    , 31.8166237  , 838.4311    , 2.97        , 3           , 255         , 0           , 0
-0.07612868 , -0.142794937, -9.804179   , 0.00052332104, -0.000216594752, 4.858365E-05, 0.0140951257, -0.007440297, -0.000333096745, 916.5229    , 31.8166237  , 838.431641  , 2.98        , 3           , 255         , 0           , 0
-0.0650990158, -0.1491327  , -9.80367    , 0.000255873834, -0.000345760316, -0.000427534163, 0.0140977157, -0.0074436944, -0.000337420381, 916.5229    , 31.8166237  , 838.4322    , 2.99        , 3           , 255         , 0           , 0
-0.0682771951, -0.1422491  , -9.802905   , -0.000747523445, -0.000317133032, 0.0005060367, 0.0140902046, -0.00744693773, -0.00033240515, 916.5229    , 31.8166237  , 838.432739  , 3           , 3           , 0           , 8.492236    , 300
-0.0613532364, -0.139816284, -9.808716   , -0.000406547479, -0.000422762, -4.34487447E-05, 0.0140869636, -0.00744739268, -0.000332905271, 916.5229    , 31.8166237  , 838.4257    , 3.01        , 3           , 1           , 0           , 0
-0.06515626 , -0.140357643, -9.799772   , -0.000388308137, -8.507757E-05, -2.826724E-06, 0.0140830819, -0.00744824251, -0.000332945521, 916.5229    , 31.8166237  , 838.4262    , 3.02        , 3           , 2           , 0           , 0
-0.06293457 , -0.129820079, -9.802263   , -0.000137227151, 0.000205147022, -0.000474787841, 0.0140817463, -0.00744612468, -0.000337664067, 916.5169    , 31.81568    , 838.4267    , 3.03        , 3           , 3           , 0           , 0
-0.06639083 , -0.149097472, -9.807825   , -6.925946E-05, 0.0001625632, -2.96834187E-05, 0.0140810534, -0.00744449534, -0.000337938, 916.5169    , 31.81568    , 838.4272    , 3.04        , 3           , 4           , 0           , 0
-0.07503881 , -0.1489552  , -9.814758   , -0.000913087744, -0.00037651707, -0.000302848348, 0.0140719442, -0.0074482183, -0.000341019157, 916.5169    , 31.81568    , 838.427734  , 3.05        , 3           , 5           , 0           , 0
-0.0746270642, -0.148567677, -9.806337   , -0.0005311661, -0.0004059593, -0.000252855476, 0.0140666524, -0.00745223975, -0.000343604566, 916.5169    , 31.81568    , 838.4283    , 3.06        , 3           , 6           , 0           , 0
-0.06721561 , -0.140808761, -9.800024   , 6.949426E-05, -4.022292E-05, -0.000428943953, 0.01406738  , -0.00745258154, -0.000347899244, 916.5169    , 31.81568    , 838.428833  , 3.07        , 3           , 7           , 0           , 0
-0.06842103 , -0.134786487, -9.804362   , 8.434082E-05, 0.000290514843, -0.000218090339, 0.0140682384, -0.007449647, -0.0003500391, 916.5169    , 31.81568    , 838.4294    , 3.08        , 3           , 8           , 5           , 5
-0.07996225 , -0.144477576, -9.807276   , -0.000152041379, 0.000339326274, -4.13779926E-05, 0.0140667222, -0.007446248, -0.000350405084, 916.5169    , 31.81568    , 838.429932  , 3.09        , 3           , 9           , 5           , 0.1
-0.07408933 , -0.13663891 , -9.804056   , 0.000374072581, -2.621542E-05, 0.000167068385, 0.0140704494, -0.00744653353, -0.000348738278, 916.5169    , 31.81568    , 838.4305    , 3.1         , 3           , 10          , 0.1         , 0.1
-0.07255207 , -0.135069728, -9.799236   , 0.0001097849, -3.90235E-05, 0.000128441548, 0.0140759721, -0.00744223455, -0.00034749246, 916.5169    , 31.81568    , 838.432434  , 3.11        , 3           , 11          , 0.008490828 , 0.008490824
-0.07594623 , -0.136959419, -9.809931   , 0.000112474663, 0.000451247062, 3.82922735E-05, 0.0140770935, -0.00743772741, -0.000347046065, 916.5169    , 31.81568    , 838.433     , 3.12        , 3           , 12          , 0.174645633 , 0
-0.07136589 , -0.144187838, -9.804231   , 3.52301868E-06, 0.000144825332, -8.998832E-05, 0.0140771354, -0.00743626663, -0.000347925466, 916.523     , 31.8175     , 838.433533  , 3.13        , 3           , 13          , 0           , 0
-0.06424225 , -0.142641336, -9.791852   , 0.000783785945, 0.000507173 , 0.000419218035, 0.0140849417, -0.00743125426, -0.00034366225, 916.523     , 31.8175     , 838.4341    , 3.14        , 3           , 14          , 0.000129459222, 6.253019E-05
-0.06607503 , -0.143917635, -9.793634   , -0.00024876275, -0.000393945957, -0.000676861964, 0.0140825044, -0.007435098, -0.0003504857, 916.523     , 31.8175     , 838.434631  , 3.15        , 3           , 15          , 0           , 0.000175182882
-0.0706272945, -0.142132044, -9.808833   , 3.26096779E-05, 0.0006117057, -0.0007080363, 0.0140828807, -0.007428883, -0.0003574792, 916.523     , 31.8175     , 838.4352    , 3.16        , 3           , 16          , 0           , 1.401298E-45
-0.07075502 , -0.1499528  , -9.807658   , -0.000218841742, 0.000371044152, -0.00058342074, 0.0140807368, -0.00742509 , -0.0003632606, 916.523     , 31.8175     , 838.4357    , 3.17        , 3           , 20          , 0           , 0
-0.07566257 , -0.138902262, -9.805101   , -1.38231553E-06, -1.51866334E-05, -0.000441404176, 0.0140807563, -0.00742517924, -0.000367676344, 916.523     , 31.8175     , 838.4363    , 3.18        , 3           , 21          , 0           , 0
-0.0646820143, -0.1302931  , -9.800875   , -0.0007585158, 0.000212257728, -0.00125212409, 0.0140732639, -0.00742288074, -0.0003801665, 916.523     , 31.8175     , 838.4368    , 3.19        , 3           , 22          , 0           , 0
-0.070459336, -0.131399661, -9.794661   , -8.26402E-05, 0.0003351395, -0.0003864037, 0.0140724657, -0.00741947629, -0.000383983017, 916.523     , 31.8175     , 838.4374    , 3.2         , 3           , 40          , 0           , 0
-0.06492262 , -0.141571313, -9.795478   , 0.000272013975, -0.0003862732, -0.000267979718, 0.014077534 , -0.00741920434, -0.000386734115, 916.523     , 31.8175     , 838.429565  , 3.21        , 3           , 41          , 0           , 0
-0.06721776 , -0.1381841  , -9.81514549 , 0.000197443529, -5.86183924E-05, -0.0004814152, 0.0140795438, -0.007419723, -0.0003915561, 916.523     , 31.8175     , 838.4301    , 3.22        , 3           , 42          , 0           , 0
-0.060945183, -0.137745649, -9.798048   , 0.000280116161, -0.000366892724, -0.0006806315, 0.0140823955, -0.00742329471, -0.0003984134, 916.5228    , 31.8174324  , 838.430664  , 3.23        , 3           , 255         , 0           , 0
-0.0609332919, -0.133825749, -9.80832    , 0.000341470935, -0.000470901083, -0.0008371479, 0.0140858712, -0.00742788473, -0.000406850362, 916.5228    , 31.8174324  , 838.4312    , 3.24        , 3           , 255         , 0           , 0
-0.06115191 , -0.1389213  , -9.801725   , -6.397534E-05, -1.71413776E-05, -0.000152756009, 0.0140852425, -0.00742803467, -0.0004083802, 916.5228    , 31.8174324  , 838.431763  , 3.25        , 3           , 255         , 0           , 0
-0.07217661 , -0.138788968, -9.805799   , -0.00050749036, 0.0004966295, 0.000162481025, 0.0140801566, -0.00742309261, -0.000406685664, 916.5228    , 31.8174324  , 838.4323    , 3.26        , 3           , 255         , 0           , 0
-0.06427316 , -0.137224913, -9.809451   , -0.0005508307, 0.000800278853, 0.000886167167, 0.0140745835, -0.007415217, -0.000397712138, 916.5228    , 31.8174324  , 838.432861  , 3.27        , 3           , 255         , 0           , 0
-0.06608487 , -0.144184843, -9.811552   , 0.0002858639, 4.38411371E-06, 0.0003806363, 0.0140774129, -0.00741522573, -0.0003939055, 916.5228    , 31.8174324  , 838.4334    , 3.28        , 3           , 255         , 0           , 0
-0.0609461  , -0.141657725, -9.808001   , 0.00104875781, 0.0006952199, 9.473156E-05, 0.0140878912, -0.007408288, -0.0003928604, 916.5228    , 31.8174324  , 838.43396   , 3.29        , 3           , 255         , 0           , 0
-0.06581443 , -0.136755228, -9.802824   , -0.0003338523, 0.000406519684, 4.10979264E-05, 0.0140845506, -0.007404229, -0.0003923922, 916.5228    , 31.8174324  , 838.4345    , 3.3         , 3           , 255         , 0           , 0
-0.0616460554, -0.140701622, -9.805036   , -0.000948460947, -0.0001656576, -0.0006306757, 0.0140761053, -0.00739483954, -0.000398728967, 916.5228    , 31.8174324  , 838.427551  , 3.31        , 3           , 255         , 0           , 0
-0.0718271  , -0.145747721, -9.813182   , -0.0004955721, 2.731775E-05, -1.49572734E-05, 0.01407115  , -0.007394564, -0.0003988747, 916.5228    , 31.8174324  , 838.42804   , 3.32        , 3           , 255         , 0           , 0
-0.07386424 , -0.14034012 , -9.804733   , 7.34562054E-05, -0.000112718466, 0.0007074558, 0.0140718333, -0.00739579042, -0.00039181672, 916.5789    , 31.81831    , 838.4285    , 3.33        , 3           , 255         , 0           , 0
-0.07052586 , -0.13804546 , -9.796514   , -0.000116492047, -0.000593646837, 0.000252061785, 0.01407065  , -0.007401762, -0.000389379828, 916.5789    , 31.81831    , 838.429     , 3.34        , 3           , 255         , 0           , 0
-0.06452004 , -0.13561745 , -9.79525    , 0.000169868785, -0.000116948373, 0.00035372292, 0.0140723232, -0.007402981, -0.0003858594, 916.5789    , 31.81831    , 838.4295    , 3.35        , 3           , 255         , 0           , 0
-0.06805936 , -0.130085677, -9.80675    , 0.0008873729, 4.51707165E-05, 0.000171696593, 0.0140811848, -0.00740255555, -0.000384136278, 916.5789    , 31.81831    , 838.43      , 3.36        , 3           , 255         , 0           , 0
-0.07091887 , -0.138533279, -9.809982   , 0.000411537 , -0.000147440209, 0.000403778016, 0.01408527  , -0.00740408525, -0.000380119629, 916.5789    , 31.81831    , 838.4305    , 3.37        , 3           , 255         , 0           , 0
-0.06983479 , -0.145642951, -9.80187    , 0.000913409749, -0.000239603149, 0.000920098741, 0.0140943369, -0.007406611, -0.000370953261, 916.5789    , 31.81831    , 838.430969  , 3.38        , 3           , 255         , 0           , 0
-0.06619299 , -0.1448761  , -9.808522   , 8.05431046E-06, -0.0004011519, 0.000775549444, 0.0140943592, -0.007410731, -0.000363255036, 916.5789    , 31.81831    , 838.4315    , 3.39        , 3           , 255         , 0           , 0
-0.06626254 , -0.145347327, -9.801579   , -0.000402424, 0.000447860977, 0.000109763147, 0.0140903275, -0.00740626827, -0.0003620944, 916.5789    , 31.81831    , 838.432068  , 3.4         , 3           , 255         , 0           , 0
-0.06858437 , -0.1380501  , -9.814199   , 0.00012314324, -8.542538E-05, -0.0008887482, 0.0140950307, -0.00740129035, -0.000371018279, 916.5789    , 31.81831    , 838.345337  , 3.41        , 3           , 255         , 0           , 0
-0.07682248 , -0.1332202  , -9.821118   , -0.000428999017, -0.000200481067, -0.0006019284, 0.0140907876, -0.00740321027, -0.0003770652, 916.5789    , 31.81831    , 838.345337  , 3.42        , 3           , 255         , 0           , 0
-0.067580685, -0.135652453, -9.822096   , -0.000158972121, 2.2825785E-05, 0.000265760522, 0.0140891764, -0.00740301935, -0.000374404684, 916.5116    , 31.8196583  , 838.345337  , 3.43        , 3           , 255         , 0           , 0
-0.07135749 , -0.144277215, -9.817472   , -7.21584438E-05, 1.52023786E-05, 0.000490930048, 0.0140884183, -0.00740293646, -0.0003694937, 916.5116    , 31.8196583  , 838.345337  , 3.44        , 3           , 255         , 0           , 0
-0.07694606 , -0.1354093  , -9.804429   , -0.000181789452, -0.000275573228, -3.47880559E-05, 0.0140866032, -0.00740568666, -0.0003698804, 916.5116    , 31.8196583  , 838.345337  , 3.45        , 3           , 255         , 0           , 0
-0.07300915 , -0.130108848, -9.798012   , -0.001321558, -0.000139999524, -0.00049334747, 0.0140734268, -0.00740701752, -0.000374833064, 916.5116    , 31.8196583  , 838.345337  , 3.46        , 3           , 255         , 0           , 0
-0.0670975  , -0.136207849, -9.79582    , -0.00124644709, -5.9691527E-05, 0.000381664722, 0.0140609331, -0.007407667, -0.000371025177, 916.5116    , 31.8196583  , 838.345337  , 3.47        , 3           , 255         , 0           , 0
-0.06413881 , -0.145884275, -9.797945   , -0.0008125881, -0.0005900984, 7.100079E-05, 0.0140528018, -0.00741357869, -0.0003703982, 916.5116    , 31.8196583  , 838.345337  , 3.48        , 3           , 255         , 0           , 0
-0.06148252 , -0.146843284, -9.806212   , -0.000659993559, 0.000502589741, 0.000106751817, 0.014046195 , -0.007408568, -0.000369260146, 916.5116    , 31.8196583  , 838.345337  , 3.49        , 3           , 255         , 0           , 0
-0.0680564046, -0.140042067, -9.809668   , -0.000680721365, 0.000507146935, 0.000466638536, 0.0140393553, -0.00740356324, -0.000364522974, 916.5116    , 31.8196583  , 838.345337  , 3.5         , 3           , 255         , 0           , 0
-0.06702524 , -0.131848976, -9.804449   , 0.000213254054, -0.0003551889, 0.000245745818, 0.0140419053, -0.00740357349, -0.000362118852, 916.5116    , 31.8196583  , 838.366943  , 3.51        , 3           , 255         , 0           , 0
-0.07202512 , -0.1369603  , -9.811875   , -0.000182343269, -0.000364951557, -0.000194979148, 0.0140400967, -0.007407194, -0.00036411974, 916.5116    , 31.8196583  , 838.367065  , 3.52        , 3           , 255         , 0           , 0
-0.0698237643, -0.141754866, -9.800447   , -0.0004890126, 0.00020805269, -0.000414424518, 0.0140352361, -0.007405055, -0.000368234381, 916.5051    , 31.8184433  , 838.3672    , 3.53        , 3           , 255         , 0           , 0
-0.07109369 , -0.143983126, -9.803224   , 7.14389462E-05, 0.000409177272, -0.0005568963, 0.01403599  , -0.00740088662, -0.000373745366, 916.5051    , 31.8184433  , 838.3674    , 3.54        , 3           , 255         , 0           , 0
-0.0698569939, -0.136005774, -9.8081     , 0.0007713891, -0.0005755205, -0.000809692952, 0.0140437642, -0.007406528, -0.0003819223, 916.5051    , 31.8184433  , 838.367554  , 3.55        , 3           , 255         , 0           , 0
-0.06587666 , -0.134955555, -9.817356   , -5.09923848E-06, -0.000406529056, -0.000453489367, 0.0140437474, -0.0074105286, -0.000386513857, 916.5051    , 31.8184433  , 838.367737  , 3.56        , 3           , 255         , 0           , 0
-0.06983413 , -0.142014638, -9.807005   , 9.547133E-06, 0.0001203862, -0.000316748919, 0.0140438667, -0.00740928 , -0.000389664085, 916.5051    , 31.8184433  , 838.3679    , 3.57        , 3           , 255         , 0           , 0
-0.06376501 , -0.144304663, -9.802106   , -7.1919625E-05, 0.000269962882, -0.000712009845, 0.0140432   , -0.007406481, -0.0003967456, 916.5051    , 31.8184433  , 838.3681    , 3.58        , 3           , 255         , 0           , 0
-0.07283302 , -0.145411581, -9.804169   , -0.000282967463, 0.000220847549, -0.0008316629, 0.0140404319, -0.00740415556, -0.000405030441, 916.5051    , 31.8184433  , 838.3683    , 3.59        , 3           , 255         , 0           , 0
-0.0710632652, -0.140116781, -9.807516   , 6.78534E-06 , -8.735724E-05, -0.000334895129, 0.0140405241, -0.007404982, -0.000408391323, 916.5051    , 31.8184433  , 838.368469  , 3.6         , 3           , 255         , 0           , 0
-0.07168241 , -0.143807337, -9.80663    , -0.0008489019, -0.000598423649, -0.000398333068, 0.0140345329, -0.007406901, -0.0004124765, 916.5051    , 31.8184433  , 838.396057  , 3.61        , 3           , 255         , 0           , 0
-0.06568713 , -0.138607249, -9.807603   , -0.000677384669, 0.000213011968, -0.0006147362, 0.0140278032, -0.00740468455, -0.000418593467, 916.5051    , 31.8184433  , 838.3964    , 3.62        , 3           , 255         , 0           , 0
-0.0667983145, -0.138931021, -9.813475   , -0.0002498313, -0.000224334028, -0.000170992673, 0.0140253184, -0.007406904, -0.0004203347, 916.503052  , 31.8153419  , 838.3968    , 3.63        , 3           , 255         , 0           , 0
-0.0665355846, -0.137657389, -9.810411   , -0.000225042269, -0.0006400213, 0.0003529925, 0.0140230441, -0.00741335331, -0.0004168948, 916.503052  , 31.8153419  , 838.397156  , 3.64        , 3           , 255         , 0           , 0
-0.06616988 , -0.144403473, -9.812709   , -0.000793304644, -0.000218945, 0.000126483632, 0.0140151018, -0.00741556054, -0.000415660819, 916.503052  , 31.8153419  , 838.3975    , 3.65        , 3           , 255         , 0           , 0
-0.0571096  , -0.146942317, -9.808901   , 0.0002755038, -0.000283357571, 0.0006585568, 0.0140178073, -0.007418486, -0.0004091156, 916.503052  , 31.8153419  , 838.3979    , 3.66        , 3           , 255         , 0           , 0
-0.0736709461, -0.140864477, -9.803656   , 0.000392446 , -0.000467604084, 0.000179458424, 0.01402172  , -0.00742318667, -0.000407386746, 916.503052  , 31.8153419  , 838.398254  , 3.67        , 3           , 255         , 0           , 0
-0.07199888 , -0.145769686, -9.800593   , -3.724244E-05, -0.0005078634, -7.131029E-05, 0.0140213519, -0.0074282554, -0.000408171, 916.503052  , 31.8153419  , 838.3986    , 3.68        , 3           , 255         , 0           , 0
-0.0684973747, -0.144579381, -9.806833   , -0.0002345065, -0.000531736063, -8.391155E-05, 0.0140190134, -0.00743355975, -0.000409084576, 916.503052  , 31.8153419  , 838.399     , 3.69        , 3           , 255         , 0           , 0
-0.06488083 , -0.145631284, -9.811802   , 0.000219099937, -0.000727586, -0.000264126662, 0.0140212243, -0.007440797, -0.000411827554, 916.503052  , 31.8153419  , 838.399353  , 3.7         , 3           , 255         , 0           , 0
-0.06813108 , -0.138126165, -9.815521   , 0.000160400188, -0.0007345843, -0.00121325953, 0.01402883  , -0.00744181825, -0.000424105936, 916.503052  , 31.8153419  , 838.4255    , 3.71        , 3           , 255         , 0           , 0
-0.06435093 , -0.140021816, -9.825414   , 0.0004525311, -0.000748129271, -0.0002569139, 0.0140333753, -0.00744926231, -0.000426779821, 916.503052  , 31.8153419  , 838.426     , 3.72        , 3           , 255         , 0           , 0
-0.0634879842, -0.135076076, -9.794927   , 0.000198443755, -0.0006749889, 0.000140641016, 0.0140353506, -0.00745603163, -0.000425468257, 916.57135   , 31.8161526  , 838.4266    , 3.73        , 3           , 255         , 0           , 0
-0.06362312 , -0.134786725, -9.806509   , 0.0007136932, -0.0004777658, 2.32296E-05 , 0.0140424855, -0.00746081164, -0.000425303, 916.57135   , 31.8161526  , 838.4271    , 3.74        , 3           , 255         , 0           , 0
-0.069645144, -0.14158906 , -9.821584   , 0.00118651486, -0.00101513311, -0.0004781597, 0.0140543869, -0.007470895, -0.0004302268, 916.57135   , 31.8161526  , 838.4277    , 3.75        , 3           , 255         , 0           , 0
-0.06623618 , -0.146788135, -9.828985   , 0.000581609434, -0.00134098984, -0.000326535723, 0.0140602281, -0.00748425676, -0.0004336803, 916.57135   , 31.8161526  , 838.4282    , 3.76        , 3           , 255         , 0           , 0
-0.0688185245, -0.153767809, -9.81781    , 0.000533215352, -0.00106595887, -0.000169646388, 0.014065573 , -0.00749489 , -0.000435526454, 916.57135   , 31.8161526  , 838.4288    , 3.77        , 3           , 255         , 0           , 0
-0.0628804341, -0.1409952  , -9.813292   , 0.001490727 , -0.00219349074, 9.563878E-05, 0.014080476 , -0.00751683675, -0.000434878864, 916.57135   , 31.8161526  , 838.4293    , 3.78        , 3           , 255         , 0           , 0
-0.0743301362, -0.140665755, -9.785945   , 0.00127618772, -0.002116757, 7.52895E-05 , 0.0140932351, -0.007538013, -0.000434424233, 916.57135   , 31.8161526  , 838.4299    , 3.79        , 3           , 255         , 0           , 0
-0.07373129 , -0.129894271, -9.78952    , 0.00130427838, -0.00197300874, -0.00039710413, 0.0141063081, -0.00755768362, -0.0004386731, 916.57135   , 31.8161526  , 838.4304    , 3.8         , 3           , 255         , 0           , 0
-0.07198948 , -0.133056432, -9.806726   , 0.00103137118, -0.00168726046, -0.0002104567, 0.01411912  , -0.007568429, -0.000441034324, 916.57135   , 31.8161526  , 838.354858  , 3.81        , 3           , 255         , 0           , 0
-0.07271882 , -0.14773266 , -9.802174   , 0.00118510833, -0.00154082419, -4.410984E-05, 0.0141309761, -0.00758383 , -0.000441693061, 916.57135   , 31.8161526  , 838.355     , 3.82        , 3           , 255         , 0           , 0
-0.07708506 , -0.148003489, -9.793658   , 0.0007364965, -0.000630698865, 0.000600279251, 0.0141382953, -0.00759022031, -0.000435779919, 916.4942    , 31.8175     , 838.3551    , 3.83        , 3           , 255         , 0           , 0
-0.07849463 , -0.143109173, -9.797111   , 0.0005520284, -0.0006313498, 0.000320096733, 0.014143792 , -0.00759657752, -0.000432668545, 916.4942    , 31.8175     , 838.3552    , 3.84        , 3           , 255         , 0           , 0
-0.0723314956, -0.144873828, -9.795615   , 0.0008022471, -0.000314549252, -0.000226884411, 0.0141518321, -0.00759969046, -0.00043498163, 916.4942    , 31.8175     , 838.355347  , 3.85        , 3           , 255         , 0           , 0
-0.0639851242, -0.134843379, -9.798185   , 0.0008063953, -0.0007983811, -0.0007825696, 0.0141599551, -0.007607562, -0.000442919554, 916.4942    , 31.8175     , 838.355469  , 3.86        , 3           , 255         , 0           , 0
-0.07552743 , -0.136786446, -9.796723   , -3.26617665E-05, -0.0005359049, -0.000531203754, 0.01415967  , -0.007612845, -0.000448306935, 916.4942    , 31.8175     , 838.3556    , 3.87        , 3           , 255         , 0           , 0
-0.07075552 , -0.13519235 , -9.800611   , -0.000202273586, -0.000944078143, -0.000347286521, 0.0141576715, -0.007622234, -0.000451913133, 916.4942    , 31.8175     , 838.3557    , 3.88        , 3           , 255         , 0           , 0
-0.0728210062, -0.1444638  , -9.790996   , 0.000362282182, -0.000772045169, -0.000320791441, 0.01416132  , -0.00762990862, -0.000455230038, 916.4942    , 31.8175     , 838.355835  , 3.89        , 3           , 255         , 0           , 0
-0.07399923 , -0.135474578, -9.798871   , 0.000168033963, -0.000297492545, -0.000396487245, 0.01416303  , -0.00763282739, -0.000459236617, 916.4942    , 31.8175     , 838.355957  , 3.9         , 3           , 255         , 0           , 0
-0.06797185 , -0.138679713, -9.809621   , -0.00030605105, -0.000925342552, 1.88268314E-05, 0.0141628785, -0.007639551, -0.000459201663, 916.4942    , 31.8175     , 838.4008    , 3.91        , 3           , 255         , 0           , 0
-0.0691193342, -0.15039894 , -9.814789   , 0.0001613375, -0.000329425326, 0.000360774924, 0.0141644645, -0.007642896, -0.000455640868, 916.4942    , 31.8175     , 838.401245  , 3.92        , 3           , 255         , 0           , 0
-0.07013862 , -0.146954745, -9.792309   , 0.000115266113, 0.000383779523, -0.000334919547, 0.0141656427, -0.00763901137, -0.0004589354, 916.5469    , 31.8170948  , 838.4017    , 3.93        , 3           , 255         , 0           , 0
-0.0678137541, -0.145121485, -9.807356   , -3.93628652E-05, 0.000612171949, 0.000258187 , 0.0141652282, -0.00763292657, -0.000456267066, 916.5469    , 31.8170948  , 838.4021    , 3.94        , 3           , 255         , 0           , 0
-0.06502773 , -0.1432276  , -9.79318    , 0.000326298235, -0.000324537134, -0.0005111325, 0.0141685288, -0.00763609866, -0.0004614238, 916.5469    , 31.8170948  , 838.4025    , 3.95        , 3           , 255         , 0           , 0
-0.06794135 , -0.150957853, -9.801269   , -0.000526576943, -1.59710908E-06, -0.0008513693, 0.0141633283, -0.00763599528, -0.00046993696, 916.5469    , 31.8170948  , 838.402954  , 3.96        , 3           , 255         , 0           , 0
-0.07950065 , -0.1398202  , -9.811431   , -0.000141912053, -0.000300603162, -0.0006930018, 0.0141619621, -0.00763890333, -0.0004769089, 916.5469    , 31.8170948  , 838.4034    , 3.97        , 3           , 255         , 0           , 0
-0.07805218 , -0.144068614, -9.806726   , -0.000126057959, -5.27196826E-05, 4.293659E-05, 0.0141606992, -0.00763943652, -0.000476487039, 916.5469    , 31.8170948  , 838.4038    , 3.98        , 3           , 255         , 0           , 0
-0.0858675838, -0.143312484, -9.804212   , -0.0005895102, -0.0005648066, -0.000233373168, 0.0141548235, -0.00764505 , -0.000478900562, 916.5469    , 31.8170948  , 838.404236  , 3.99        , 3           , 255         , 0           , 0
-0.08611915 , -0.142828137, -9.798715   , -0.0005382894, -0.000354896241, 1.16141746E-05, 0.0141494395, -0.00764860027, -0.000478834641, 916.5469    , 31.8170948  , 838.404663  , 4           , 3           , 0           , 9.492236    , 400
-0.07771467 , -0.144637614, -9.803899   , -0.000225188531, 0.000347142864, 0.0005661141, 0.0141543411, -0.00764379464, -0.000473179971, 916.5469    , 31.8170948  , 838.3675    , 4.01        , 3           , 1           , 0           , 0
-0.08389716 , -0.13698861 , -9.801182   , -0.000141959346, 0.000378244556, -0.000414583774, 0.0141529534, -0.007639954, -0.000477271882, 916.5469    , 31.8170948  , 838.3677    , 4.02        , 3           , 2           , 0           , 0
-0.074687   , -0.142037317, -9.810633   , -0.0006554055, -4.937609E-05, -0.00131479686, 0.0141465   , -0.0076402626, -0.0004904256, 916.5277    , 31.8194561  , 838.367859  , 4.03        , 3           , 3           , 0           , 0
-0.07854814 , -0.142004162, -9.804479   , -0.000193124288, -0.000545553863, -5.976059E-05, 0.0141445752, -0.00764570758, -0.000491100247, 916.5277    , 31.8194561  , 838.368042  , 4.04        , 3           , 4           , 0           , 0
-0.0778691545, -0.145365983, -9.797907   , 0.000213664855, -0.0003796218, -3.09463649E-05, 0.0141467126, -0.007649499, -0.000491463346, 916.5277    , 31.8194561  , 838.3682    , 4.05        , 3           , 5           , 0           , 0
-0.07444534 , -0.139407188, -9.803741   , -0.0006665621, -8.291711E-05, 4.72323736E-05, 0.0141400434, -0.007650335, -0.0004910028, 916.5277    , 31.8194561  , 838.3684    , 4.06        , 3           , 6           , 0           , 0
-0.07642751 , -0.1349684  , -9.817293   , -6.628936E-06, -0.00031483057, -1.49756816E-05, 0.0141399791, -0.0076534804, -0.0004911971, 916.5277    , 31.8194561  , 838.3686    , 4.07        , 3           , 7           , 0           , 0
-0.07109149 , -0.145731181, -9.810256   , 0.000282809022, -0.0008765309, -0.000467850972, 0.014142842 , -0.00766217941, -0.0004959991, 916.5277    , 31.8194561  , 838.3688    , 4.08        , 3           , 8           , 5           , 5
-0.071808964, -0.134478644, -9.802023   , 0.000322124281, -0.000564405636, -0.000598155544, 0.014146111 , -0.00766773755, -0.0005020599, 916.5277    , 31.8194561  , 838.369     , 4.09        , 3           , 9           , 5           , 0.1
-0.07700383 , -0.131125465, -9.807118   , -0.000200762, 0.0003548396, -0.0009152007, 0.0141441738, -0.007664059, -0.0005111609, 916.5277    , 31.8194561  , 838.369263  , 4.1         , 3           , 10          , 0.1         , 0.1
-0.08225182 , -0.154192477, -9.811744   , -0.0007699222, 0.0003942505, -0.0003510599, 0.0141376229, -0.007661651, -0.000514624, 916.5277    , 31.8194561  , 838.3647    , 4.11        , 3           , 11          , 0.00800071  , 0.008000704
-0.08073161 , -0.139282957, -9.808844   , -0.0006291792, 5.23535127E-05, -1.29739637E-05, 0.0141313318, -0.00766112562, -0.0005147463, 916.5277    , 31.8194561  , 838.364868  , 4.12        , 3           , 12          , 0.174648076 , 0
-0.0675130039, -0.141687542, -9.800627   , -0.001280891, -0.0002999497, 0.000249312085, 0.0141185038, -0.00766415941, -0.0005122958, 916.5484    , 31.817028   , 838.365051  , 4.13        , 3           , 13          , 0           , 0
-0.06922503 , -0.142148092, -9.804378   , -0.0009464193, -0.000286510942, -0.0008074698, 0.0141091011, -0.0076669096, -0.000520410133, 916.5484    , 31.817028   , 838.365234  , 4.14        , 3           , 14          , 0.000129307969, 6.232421E-05
-0.0698455349, -0.132213533, -9.80623    , 0.000263617025, -0.000131048379, -0.000480387243, 0.0141117731, -0.007668152, -0.000525232055, 916.5484    , 31.817028   , 838.3654    , 4.15        , 3           , 15          , 0           , 0.0001751869
-0.0725337639, -0.135696888, -9.806616   , 0.0006106675, -0.0004371584, -0.00059993146, 0.0141179264, -0.00767243933, -0.000531292462, 916.5484    , 31.817028   , 838.3656    , 4.16        , 3           , 16          , 0           , 1.401298E-45
-0.08401917 , -0.147270292, -9.809429   , 0.000384812 , 0.000226692253, -0.000124550337, 0.0141217848, -0.00767015433, -0.000532505859, 916.5484    , 31.817028   , 838.3658    , 4.17        , 3           , 20          , 0           , 0
-0.0762719437, -0.136065781, -9.801394   , 0.00018281152, -6.559756E-05, -7.81215858E-05, 0.0141236186, -0.00767079927, -0.000533296261, 916.5484    , 31.817028   , 838.365967  , 4.18        , 3           , 21          , 0           , 0
-0.07821746 , -0.13581495 , -9.806465   , 0.000440514938, 0.000109729284, 0.0003987936, 0.014127994 , -0.007669758, -0.000529293146, 916.5484    , 31.817028   , 838.3662    , 4.19        , 3           , 22          , 0           , 0
-0.07428209 , -0.1506539  , -9.802272   , 0.000170015148, 3.73252478E-05, -3.7692007E-05, 0.0141296964, -0.007669379, -0.0005296648, 916.5484    , 31.817028   , 838.366455  , 4.2         , 3           , 40          , 0           , 0
-0.07334045 , -0.14667128 , -9.800976   , 8.56667757E-05, -0.000448652485, -0.0004445737, 0.0141342338, -0.00767414272, -0.000534201448, 916.5484    , 31.817028   , 838.3327    , 4.21        , 3           , 41          , 0           , 0
-0.07590249 , -0.141900629, -9.815923   , 0.0001045494, -4.864818E-05, -0.000445893646, 0.0141353142, -0.00767456647, -0.000538666849, 916.5484    , 31.817028   , 838.3327    , 4.22        , 3           , 42          , 0           , 0
-0.0740937144, -0.139485955, -9.808118   , -0.000203351578, -0.000670782349, -0.0007592065, 0.01413334  , -0.00768116536, -0.000546353, 916.5057    , 31.8150063  , 838.3327    , 4.23        , 3           , 255         , 0           , 0
-0.0759870037, -0.144225121, -9.804579   , -0.00022414088, -0.000108500419, -0.0002636437, 0.0141311176, -0.007682213, -0.00054900453, 916.5057    , 31.8150063  , 838.3327    , 4.24        , 3           , 255         , 0           , 0
-0.07734463 , -0.138246253, -9.802103   , 0.000138981442, -0.000347267633, -0.0006687242, 0.01413256  , -0.007685591, -0.000555740262, 916.5057    , 31.8150063  , 838.3327    , 4.25        , 3           , 255         , 0           , 0
-0.07201138 , -0.137355611, -9.8080225  , 0.000287346338, 0.000270930555, -0.000529827434, 0.0141354743, -0.00768280774, -0.000560999732, 916.5057    , 31.8150063  , 838.3327    , 4.26        , 3           , 255         , 0           , 0
-0.07489705 , -0.141563624, -9.806346   , -0.000166763, 9.333378E-05, 0.0004463671, 0.0141337728, -0.007681938, -0.0005565232, 916.5057    , 31.8150063  , 838.3327    , 4.27        , 3           , 255         , 0           , 0
-0.07483983 , -0.140063256, -9.80451    , -0.000220867645, -0.000231635408, -0.0009835795, 0.014131641 , -0.007684116, -0.000566390867, 916.5057    , 31.8150063  , 838.332764  , 4.28        , 3           , 255         , 0           , 0
-0.0720153153, -0.141964927, -9.807253   , 5.65513474E-05, 0.000138038216, -0.0003922299, 0.0141322352, -0.00768268 , -0.0005702933, 916.5057    , 31.8150063  , 838.3328    , 4.29        , 3           , 255         , 0           , 0
-0.0683940053, -0.142241448, -9.801453   , -0.000191927538, -0.000154332447, 1.98374328E-05, 0.0141303148, -0.00768422568, -0.000570116739, 916.5057    , 31.8150063  , 838.3329    , 4.3         , 3           , 255         , 0           , 0
-0.07017352 , -0.1372102  , -9.800977   , -0.000437321258, 0.0001807164, -5.561793E-05, 0.0141291479, -0.007680709, -0.0005706719, 916.5057    , 31.8150063  , 838.3648    , 4.31        , 3           , 255         , 0           , 0
-0.0683390349, -0.144022018, -9.818579   , -9.503157E-06, 3.25206056E-05, -2.07677367E-05, 0.0141290547, -0.007680381, -0.000570874952, 916.5057    , 31.8150063  , 838.365051  , 4.32        , 3           , 255         , 0           , 0
-0.07319064 , -0.142586738, -9.797613   , -0.0003599756, 2.68791409E-05, 0.000367789617, 0.0141254282, -0.00768016465, -0.0005671936, 916.5001    , 31.81676    , 838.3653    , 4.33        , 3           , 255         , 0           , 0
-0.06830822 , -0.139848143, -9.802348   , -0.000258488551, 6.795305E-05, 0.000478773582, 0.0141228065, -0.007679553, -0.0005623967, 916.5001    , 31.81676    , 838.36554   , 4.34        , 3           , 255         , 0           , 0
-0.07283236 , -0.143720329, -9.803282   , -0.000134284855, -0.000117877018, -0.000720184762, 0.0141215185, -0.00768062938, -0.0005696145, 916.5001    , 31.81676    , 838.3658    , 4.35        , 3           , 255         , 0           , 0
-0.0722846538, -0.1442409  , -9.807921   , -0.000107320055, -0.000378747121, -0.000373280374, 0.0141204745, -0.007684363, -0.000573400466, 916.5001    , 31.81676    , 838.366     , 4.36        , 3           , 255         , 0           , 0
-0.06527466 , -0.1358561  , -9.807973   , -6.00970525E-05, -0.000104611769, -2.99068633E-05, 0.0141198756, -0.007685405, -0.000573714264, 916.5001    , 31.81676    , 838.3663    , 4.37        , 3           , 255         , 0           , 0
-0.0693684444, -0.133269519, -9.808843   , 0.000154961788, 0.0001832133, 0.000408109423, 0.0141213946, -0.007683631, -0.0005696077, 916.5001    , 31.81676    , 838.3665    , 4.38        , 3           , 255         , 0           , 0
-0.08024944 , -0.137134239, -9.79851    , 0.000121055476, -0.000291870558, 0.000275097118, 0.0141225848, -0.00768658845, -0.0005668983, 916.5001    , 31.81676    , 838.36676   , 4.39        , 3           , 255         , 0           , 0
-0.07654598 , -0.141127154, -9.800779   , -0.0002130182, -0.0002463513, 4.51038941E-05, 0.01412045  , -0.00768905832, -0.000566482, 916.5001    , 31.81676    , 838.367     , 4.4         , 3           , 255         , 0           , 0
-0.07271566 , -0.151675776, -9.81316948 , 0.000126515282, -0.000472632237, 0.000103284314, 0.0141234193, -0.00768943 , -0.000565529161, 916.5001    , 31.81676    , 838.402     , 4.41        , 3           , 255         , 0           , 0
-0.07681159 , -0.153394312, -9.826881   , -0.000211468665, 6.46343542E-05, 0.000315694284, 0.0141212791, -0.00768882828, -0.0005623634, 916.5001    , 31.81676    , 838.402466  , 4.42        , 3           , 255         , 0           , 0
-0.0650873  , -0.144678563, -9.80023    , -0.0003023381, 0.000281215122, 3.76039534E-05, 0.0141182542, -0.00768602174, -0.0005619477, 916.531555  , 31.81932    , 838.402954  , 4.43        , 3           , 255         , 0           , 0
-0.0643539056, -0.14152655 , -9.80423    , -0.000171425869, -0.000219942245, -8.14320156E-05, 0.0141165461, -0.00768820941, -0.000562793, 916.531555  , 31.81932    , 838.403442  , 4.44        , 3           , 255         , 0           , 0
-0.0652424246, -0.145246834, -9.811874   , -0.000360001519, -0.000308019866, 0.000309046765, 0.0141129214, -0.0076913326, -0.0005597463, 916.531555  , 31.81932    , 838.403931  , 4.45        , 3           , 255         , 0           , 0
-0.07081689 , -0.14694564 , -9.818308   , -0.000283682632, -6.01373176E-06, 6.256426E-05, 0.01411008  , -0.00769140152, -0.000559121545, 916.531555  , 31.81932    , 838.4044    , 4.46        , 3           , 255         , 0           , 0
-0.07474407 , -0.144093722, -9.803552   , -9.063618E-05, -0.0004115493, -0.000251848658, 0.0141091943, -0.007695481, -0.0005616979, 916.531555  , 31.81932    , 838.4049    , 4.47        , 3           , 255         , 0           , 0
-0.0744784  , -0.135354444, -9.79563    , -0.000536541338, -0.0007449305, -4.095833E-05, 0.0141038317, -0.00770292338, -0.000562212546, 916.531555  , 31.81932    , 838.4054    , 4.48        , 3           , 255         , 0           , 0
-0.0789871  , -0.1328134  , -9.806019   , 0.000110358378, -0.000650805654, -0.000114981034, 0.0141049447, -0.0077094147, -0.000563454, 916.531555  , 31.81932    , 838.4059    , 4.49        , 3           , 255         , 0           , 0
-0.07802452 , -0.1385132  , -9.803466   , 6.686391E-05, -0.0005386876, -0.000243723029, 0.0141056329, -0.007714767, -0.000565967057, 916.531555  , 31.81932    , 838.4064    , 4.5         , 3           , 255         , 0           , 0
-0.07088503 , -0.145627573, -9.811297   , 0.0006551401, 0.000212432889, -0.000448336184, 0.0141173694, -0.00770915346, -0.000570459641, 916.531555  , 31.81932    , 838.3913    , 4.51        , 3           , 255         , 0           , 0
-0.07375224 , -0.150535554, -9.810986   , 6.75600459E-05, -0.000451049244, 0.000396768533, 0.0141180158, -0.00771371974, -0.000566556, 916.531555  , 31.81932    , 838.3917    , 4.52        , 3           , 255         , 0           , 0
-0.07034762 , -0.143184811, -9.796903   , -0.000151029133, -0.0007124076, 0.0001420794, 0.0141164949, -0.00772086252, -0.000565235852, 916.544067  , 31.8189831  , 838.392151  , 4.53        , 3           , 255         , 0           , 0
-0.07813381 , -0.142857268, -9.800628   , 9.583021E-05, -0.00059094 , 8.5906795E-06, 0.0141174523, -0.00772677176, -0.0005652334, 916.544067  , 31.8189831  , 838.3926    , 4.54        , 3           , 255         , 0           , 0
-0.07233316 , -0.150936991, -9.79804    , -0.000474605156, -0.000303666515, 3.900059E-06, 0.0141127063, -0.007729808, -0.000565237249, 916.544067  , 31.8189831  , 838.393     , 4.55        , 3           , 255         , 0           , 0
-0.07845794 , -0.141191751, -9.802834   , -0.000535071653, 0.000270551245, -0.000135945418, 0.0141073661, -0.00772708375, -0.000566558447, 916.544067  , 31.8189831  , 838.393433  , 4.56        , 3           , 255         , 0           , 0
-0.07425055 , -0.139190033, -9.801951   , -0.000181032621, -3.76627759E-05, -6.111951E-05, 0.0141055612, -0.00772745162, -0.0005671748, 916.544067  , 31.8189831  , 838.39386   , 4.57        , 3           , 255         , 0           , 0
-0.07543915 , -0.139853552, -9.810545   , 0.000386242173, -0.000535529864, -0.000111583984, 0.0141094336, -0.00773279 , -0.0005683661, 916.544067  , 31.8189831  , 838.3943    , 4.58        , 3           , 255         , 0           , 0
-0.0809688  , -0.139742374, -9.807635   , 0.000269623 , -0.000785574841, -0.000554318831, 0.0141121726, -0.007740568, -0.000574019563, 916.544067  , 31.8189831  , 838.3947    , 4.59        , 3           , 255         , 0           , 0
-0.0619297326, -0.1516091  , -9.805743   , -0.000265569484, -0.000113917864, -0.0002826176, 0.0141095407, -0.0077416664, -0.0005768615, 916.544067  , 31.8189831  , 838.395142  , 4.6         , 3           , 255         , 0           , 0
-0.0630110651, -0.150874436, -9.804495   , -0.0004134868, 7.947478E-05, 0.0002868392, 0.0141124949, -0.00773841 , -0.000574037258, 916.544067  , 31.8189831  , 838.3638    , 4.61        , 3           , 255         , 0           , 0
-0.0698351  , -0.137326285, -9.818016   , -7.70584738E-05, -0.000502256269, -0.000227622426, 0.0141117433, -0.0077434  , -0.000576384133, 916.544067  , 31.8189831  , 838.364     , 4.62        , 3           , 255         , 0           , 0
-0.06531234 , -0.140064582, -9.799437   , 0.0006050614, -0.0004866971, -0.0005168403, 0.0141178332, -0.007748193, -0.000581620669, 916.5486    , 31.8183765  , 838.364258  , 4.63        , 3           , 255         , 0           , 0
-0.06432991 , -0.144973487, -9.807624   , 0.00011150325, -0.00024122707, 0.00038924173, 0.0141189173, -0.00775065972, -0.000577762665, 916.5486    , 31.8183765  , 838.3645    , 4.64        , 3           , 255         , 0           , 0
-0.076902926, -0.147416756, -9.807137   , 1.029417E-05, -0.000238808891, -0.000218260713, 0.0141190374, -0.007753017, -0.0005799788, 916.5486    , 31.8183765  , 838.364746  , 4.65        , 3           , 255         , 0           , 0
-0.07484081 , -0.147033557, -9.801691   , 0.000482296047, -0.000321689353, -0.000606840069, 0.0141239045, -0.007756148, -0.000586092, 916.5486    , 31.8183765  , 838.365     , 4.66        , 3           , 255         , 0           , 0
-0.06882381 , -0.152175859, -9.803291   , 0.0006204285, -0.000424360216, 0.000260383531, 0.0141300894, -0.007760427, -0.0005835483, 916.5486    , 31.8183765  , 838.365234  , 4.67        , 3           , 255         , 0           , 0
-0.06942918 , -0.142526492, -9.813619   , 0.00119331968, -0.0005364394, 0.00039108604, 0.0141419936, -0.00776584772, -0.0005797136, 916.5486    , 31.8183765  , 838.3655    , 4.68        , 3           , 255         , 0           , 0
-0.06704785 , -0.128090188, -9.803344   , 0.00050075457, -0.000293112942, 0.000320532359, 0.0141469762, -0.007768823, -0.0005765501, 916.5486    , 31.8183765  , 838.3657    , 4.69        , 3           , 255         , 0           , 0
-0.06908747 , -0.136404887, -9.807281   , 0.0003853927, -0.000420049677, 0.000644723943, 0.0141507816, -0.007773114, -0.0005701628, 916.5486    , 31.8183765  , 838.365967  , 4.7         , 3           , 255         , 0           , 0
-0.0802209  , -0.144092262, -9.810289   , 0.0009104391, -7.735614E-05, 0.0004159726, 0.0141644133, -0.00776619976, -0.0005660499, 916.5486    , 31.8183765  , 838.332153  , 4.71        , 3           , 255         , 0           , 0
-0.07347626 , -0.1500876  , -9.806959   , 0.0004083119, 0.000244561 , 0.000481006457, 0.014168459 , -0.00776382163, -0.000561205554, 916.5486    , 31.8183765  , 838.3322    , 4.72        , 3           , 255         , 0           , 0
-0.07518075 , -0.149849132, -9.805939   , -0.000164370722, 8.917021E-05, -0.000167249818, 0.0141668282, -0.007762906, -0.0005628653, 916.5105    , 31.8174324  , 838.3323    , 4.73        , 3           , 255         , 0           , 0
-0.07561146 , -0.1494561  , -9.807706   , -6.811632E-05, -0.0002538953, -0.000189274113, 0.0141661605, -0.00776541838, -0.0005647938, 916.5105    , 31.8174324  , 838.332336  , 4.74        , 3           , 255         , 0           , 0
-0.0745112151, -0.148592234, -9.801775   , -0.0004099607, 0.000141817014, -0.000898326049, 0.01416213  , -0.007763874, -0.0005737561, 916.5105    , 31.8174324  , 838.3324    , 4.75        , 3           , 255         , 0           , 0
-0.06945595 , -0.137993887, -9.80466652 , -0.0006882188, 0.0008826501, -0.00065290177, 0.0141552985, -0.007754957, -0.0005801596, 916.5105    , 31.8174324  , 838.332458  , 4.76        , 3           , 255         , 0           , 0
-0.06642208 , -0.139786452, -9.809363   , -0.000432245433, 0.000272314646, 1.12366251E-05, 0.0141509771, -0.00775223458, -0.0005800086, 916.5105    , 31.8174324  , 838.3325    , 4.77        , 3           , 255         , 0           , 0
-0.0600011349, -0.137823522, -9.806817   , 2.12704472E-05, -0.000127769134, -0.0006327631, 0.0141512379, -0.007753423, -0.000586353766, 916.5105    , 31.8174324  , 838.3326    , 4.78        , 3           , 255         , 0           , 0
-0.06616195 , -0.14366506 , -9.80829048 , 0.000168710176, 0.0001874176, -0.0006510875, 0.0141529748, -0.007751457, -0.0005928375, 916.5105    , 31.8174324  , 838.332642  , 4.79        , 3           , 255         , 0           , 0
-0.06504859 , -0.1474022  , -9.81241    , 0.000806495431, -6.686345E-05, -0.00062835624, 0.0141610876, -0.00775203574, -0.00059912994, 916.5105    , 31.8174324  , 838.332764  , 4.8         , 3           , 255         , 0           , 0
-0.0703810453, -0.1478812  , -9.803583   , 0.0004947883, -0.0005348673, -0.000403008773, 0.01417225  , -0.00775156636, -0.0006032833, 916.5105    , 31.8174324  , 838.3581    , 4.81        , 3           , 255         , 0           , 0
-0.06707472 , -0.136034191, -9.809359   , -0.000318830542, -0.00051824 , 4.20827128E-05, 0.0141690588, -0.00775675429, -0.000602935965, 916.5105    , 31.8174324  , 838.358337  , 4.82        , 3           , 255         , 0           , 0
-0.0707511157, -0.140675157, -9.79711    , -0.000136334755, -0.000124637329, -0.000549952267, 0.0141677381, -0.00775792263, -0.0006084526, 916.522339  , 31.8217468  , 838.3586    , 4.83        , 3           , 255         , 0           , 0
-0.07811404 , -0.1426657  , -9.807741   , 0.000611915544, -3.317456E-05, -0.000388743239, 0.0141738877, -0.00775819924, -0.00061234436, 916.522339  , 31.8217468  , 838.3588    , 4.84        , 3           , 255         , 0           , 0
-0.07358487 , -0.138625264, -9.803714   , 0.000780871545, -0.000264398957, -0.000200279843, 0.0141817117, -0.00776081346, -0.000614384364, 916.522339  , 31.8217468  , 838.3591    , 4.85        , 3           , 255         , 0           , 0
-0.0680473  , -0.142894119, -9.806521   , -0.000323845015, -0.000121331934, -0.000322217325, 0.0141784986, -0.007761981, -0.000617623446, 916.522339  , 31.8217468  , 838.3593    , 4.86        , 3           , 255         , 0           , 0
-0.07843818 , -0.141927987, -9.804365   , -7.099866E-05, -0.000287596777, -0.000330388168, 0.0141778141, -0.00776481 , -0.0006209678, 916.522339  , 31.8217468  , 838.359558  , 4.87        , 3           , 255         , 0           , 0
-0.084974274, -0.1393362  , -9.805168   , 0.000123493664, -0.0004952895, -0.000195724977, 0.014179064 , -0.007769735, -0.0006229951, 916.522339  , 31.8217468  , 838.3598    , 4.88        , 3           , 255         , 0           , 0
-0.0749756247, -0.144272044, -9.805731   , -0.000530945, -0.000292952929, 0.000477009366, 0.0141737172, -0.00777273159, -0.000618267, 916.522339  , 31.8217468  , 838.3601    , 4.89        , 3           , 255         , 0           , 0
-0.07950504 , -0.148796111, -9.806781   , -0.0006005619, -0.0003546129, -6.554125E-05, 0.0141677186, -0.00777626736, -0.0006189725, 916.522339  , 31.8217468  , 838.3604    , 4.9         , 3           , 255         , 0           , 0
-0.075911805, -0.150351256, -9.796072   , -2.0165462E-06, 0.000166905913, -0.000364701584, 0.0141714113, -0.007772848, -0.0006226243, 916.522339  , 31.8217468  , 838.364868  , 4.91        , 3           , 255         , 0           , 0
-0.07473336 , -0.14339298 , -9.805371   , -2.88937663E-05, -6.279799E-05, -0.0002415447, 0.0141711412, -0.00777344173, -0.000625048357, 916.522339  , 31.8217468  , 838.3652    , 4.92        , 3           , 255         , 0           , 0
-0.07254945 , -0.1379272  , -9.810969   , -0.000320632069, 0.0003968061, -4.69928927E-05, 0.0141679393, -0.007769468, -0.000625462, 916.5311    , 31.81622    , 838.3655    , 4.93        , 3           , 255         , 0           , 0
-0.07023243 , -0.1426005  , -9.807048   , -0.000482934323, -9.465451E-05, -0.0002921315, 0.0141631328, -0.00777037442, -0.0006283965, 916.5311    , 31.81622    , 838.3658    , 4.94        , 3           , 255         , 0           , 0
-0.0748294741, -0.142197818, -9.806052   , -0.000935703749, 8.93615652E-06, 0.00018235734, 0.0141537618, -0.00777031 , -0.0006265718, 916.5311    , 31.81622    , 838.3661    , 4.95        , 3           , 255         , 0           , 0
-0.06214598 , -0.140450552, -9.801944   , -0.000228617049, 0.0003258455, -0.000267221767, 0.0141514968, -0.007767014, -0.000629197631, 916.5311    , 31.81622    , 838.3664    , 4.96        , 3           , 255         , 0           , 0
-0.0757935345, -0.154695988, -9.811262   , 0.000468803133, 5.4924225E-05, 8.387318E-05, 0.0141561776, -0.0077664773, -0.000628351234, 916.5311    , 31.81622    , 838.3667    , 4.97        , 3           , 255         , 0           , 0
-0.08080082 , -0.144243717, -9.808765   , 0.000364915672, -0.0005341613, -0.00102002185, 0.0141599048, -0.00777167268, -0.00063862605, 916.5311    , 31.81622    , 838.367     , 4.98        , 3           , 255         , 0           , 0
-0.0874647945, -0.145276949, -9.80544    , -0.000386843749, -0.0007480845, -0.00081197574, 0.0141561031, -0.00777903851, -0.000646850851, 916.5311    , 31.81622    , 838.3673    , 4.99        , 3           , 255         , 0           , 0
-0.0837964639, -0.141724989, -9.797471   , 0.0001766115, -0.00023948001, 0.00025385106, 0.0141578475, -0.00778146833, -0.0006443464, 916.5311    , 31.81622    , 838.3676    , 5           , 3           , 0           , -1          , 500
-0.085661754, -0.141071185, -9.801047   , 0.000377091666, -0.000125194609, 0.0005117985, 0.0141676487, -0.007782378, -0.000639293867, 916.5311    , 31.81622    , 838.358643  , 5.01        , 3           , 1           , 0           , 0
-0.08680786 , -0.135412857, -9.80984    , 5.035312E-06, -0.0003460931, -0.000730286934, 0.0141677568, -0.007785735, -0.00064664497, 916.5311    , 31.81622    , 838.358948  , 5.02        , 3           , 2           , 0           , 0
-0.07793841 , -0.133849412, -9.80686    , -0.000674236, 9.209951E-05, 0.000467961829, 0.0141609786, -0.00778488 , -0.000641952851, 916.5115    , 31.819994   , 838.359253  , 5.03        , 3           , 3           , 0           , 0
-0.07496021 , -0.144045711, -9.806121   , -0.000220573333, 0.000560979766, 0.000106331296, 0.0141587649, -0.007779286, -0.0006408103, 916.5115    , 31.819994   , 838.359558  , 5.04        , 3           , 4           , 0           , 0
-0.07830559 , -0.148035035, -9.802042   , 0.0001656498, 0.000250097073, -0.000609664654, 0.0141604682, -0.007776699, -0.0006468709, 916.5115    , 31.819994   , 838.359863  , 5.05        , 3           , 5           , 0           , 0
-0.0725544542, -0.142495632, -9.80450249 , 0.000618024729, 0.000473652151, -2.43181566E-05, 0.0141666485, -0.00777196 , -0.000647046953, 916.5115    , 31.819994   , 838.360168  , 5.06        , 3           , 6           , 0           , 0
-0.0726418942, -0.141782567, -9.799283   , 0.0006110305, 0.0006731232, 0.0006455138, 0.01417271  , -0.007765322, -0.000640497, 916.5115    , 31.819994   , 838.3605    , 5.07        , 3           , 7           , 0           , 0
-0.07720461 , -0.141788051, -9.817435   , 0.000287068571, 0.0005487132, -0.000309923955, 0.0141756032, -0.00775979133, -0.0006435182, 916.5115    , 31.819994   , 838.3608    , 5.08        , 3           , 8           , 5           , 5
