Acc X       , Acc Y       , Acc Z       , Gyro X      , Gyro Y      , Gyro Z      , Euler X     , Euler Y     , Euler Z     , Pres X      , Pres Y      , Pres Z      , Time        , Status      , LowRate X   , LowRate Y   , LowRate Z    
-0.041475784, -0.208187357, -9.836247   , 0.000247621327, 0.0131392172, 0.00205351855, 0.0211621635, -0.00421565725, 0           , 920.465332  , 30.4035511  , 802.8397    , 0           , 2           , 0           , 4.0022316   , 0
-0.03501773 , -0.210236758, -9.819363   , -0.00069342315, 0.0128192576, 0.00216453359, 0.0211551823, -0.00408769026, 2.43522354E-05, 920.465332  , 30.4035511  , 802.8397    , 0.01        , 3           , 1           , 0           , 0
-0.040512532, -0.207833961, -9.831116   , -0.000172624335, 0.0127408477, 0.0012586948, 0.0211533941, -0.00396058057, 3.963111E-05, 920.465332  , 30.4035511  , 802.8397    , 0.02        , 3           , 2           , 0           , 0
-0.04403293 , -0.202618554, -9.815916   , 8.543442E-05, 0.0132013727, 0.00135641755, 0.0211541858, -0.0038288855, 5.59843647E-05, 920.381531  , 29.9605484  , 802.8397    , 0.03        , 3           , 3           , 0           , 0
-0.0419095159, -0.2014637  , -9.831804   , 0.0002481109, 0.0128297908, 0.001812848 , 0.0211565848, -0.0037010035, 7.68223254E-05, 920.381531  , 29.9605484  , 802.8397    , 0.04        , 3           , 4           , 0           , 0
-0.04356727 , -0.201929361, -9.824541   , 0.000671771937, 0.0133418124, 0.002558351 , 0.0211632   , -0.00356816 , 0.000105222491, 920.381531  , 29.9605484  , 802.8397    , 0.05        , 3           , 5           , 0           , 0
-0.0456906855, -0.199172646, -9.8148365  , 0.000674112642, 0.0133453235, 0.001843277 , 0.0211698674, -0.00343512953, 0.000126475323, 920.381531  , 29.9605484  , 802.8397    , 0.06        , 3           , 6           , 0           , 0
-0.04645437 , -0.206194833, -9.815824   , 0.0002627401, 0.0125758294, 0.00207968452, 0.0211724155, -0.00330984266, 0.000149929328, 920.381531  , 29.9605484  , 802.8398    , 0.07        , 3           , 7           , 0           , 0
-0.0394880772, -0.208504483, -9.820629   , 0.000156824812, 0.0125518385, 0.0022136874, 0.0211739   , -0.00318482448, 0.00017471824, 920.381531  , 29.9605484  , 802.839844  , 0.08        , 3           , 8           , 5           , 5
-0.03768131 , -0.206381083, -9.829103   , 0.00016209131, 0.0133377165, 0.00212825323, 0.0211754441, -0.00305193081, 0.000198819485, 920.381531  , 29.9605484  , 802.8399    , 0.09        , 3           , 9           , 5           , 0.1
-0.0378675759, -0.203754753, -9.822193   , 0.000378018041, 0.0130117787, 0.002403867 , 0.0211791433, -0.002922354, 0.000225607524, 920.381531  , 29.9605484  , 802.839966  , 0.1         , 3           , 10          , 0.1         , 0.1
-0.04293397 , -0.202488154, -9.824783   , 0.000610914431, 0.01331314  , 0.00233657286, 0.0211810973, -0.0027973305, 0.000251798658, 920.381531  , 29.9605484  , 803.5932    , 0.11        , 3           , 11          , 0.0109544508, 0.0109544508
-0.0323914  , -0.210851431, -9.812769   , 0.0007560359, 0.01264956  , 0.00234535  , 0.0211885851, -0.0026713633, 0.000277926039, 920.381531  , 29.9605484  , 803.593262  , 0.12        , 3           , 12          , 0.174642488 , 0
-0.0394880772, -0.210180879, -9.821057   , -0.0005512278, 0.012562369 , 0.00187780173, 0.02118302  , -0.00254616886, 0.000299360661, 920.474243  , 30.0007973  , 803.5933    , 0.13        , 3           , 13          , 0           , 0
-0.046286732, -0.203754753, -9.81735    , 0.000231140846, 0.0126723815, 0.002732731 , 0.0211852547, -0.002420055, 0.0003293654, 920.474243  , 30.0007973  , 803.5934    , 0.14        , 3           , 14          , 1.91742927E-10, 3.579677E-10
-0.0421144068, -0.206567332, -9.816028   , 0.0009128607, 0.0132996794, 0.00219671777, 0.0211943258, -0.002287557, 0.000354145071, 920.474243  , 30.0007973  , 803.593445  , 0.15        , 3           , 15          , 0           , -8.143049E-12
-0.03764406 , -0.211652368, -9.8312645  , 0.0005717082, 0.01324526  , 0.00290945126, 0.0211999733, -0.002155754, 0.0003860399, 920.474243  , 30.0007973  , 803.5935    , 0.16        , 3           , 16          , 0           , 4.203895E-45
-0.0378675759, -0.210348517, -9.82348    , -0.000236407737, 0.0133453235, 0.00240035588, 0.02119755  , -0.00202284241, 0.000412866269, 920.474243  , 30.0007973  , 803.593567  , 0.17        , 3           , 20          , 0           , 0
-0.0413507223, -0.218544155, -9.826477   , -2.75030525E-05, 0.0134132029, 0.00214054179, 0.0211972259, -0.00188919785, 0.00043710944, 920.474243  , 30.0007973  , 803.5936    , 0.18        , 3           , 21          , 0           , 0
-0.0401958823, -0.210795552, -9.813719   , -0.0001246408, 0.0128526138, 0.00194041454, 0.0211959388, -0.00176111457, 0.000459232746, 920.474243  , 30.0007973  , 803.5937    , 0.19        , 3           , 22          , 0           , 0
-0.0415556133, -0.2091378  , -9.820275   , 0.000515532156, 0.0126747219, 0.00169230369, 0.0212010574, -0.00163475785, 0.000478838221, 920.474243  , 30.0007973  , 803.5938    , 0.2         , 3           , 40          , 0           , 0
-0.04451722 , -0.208392739, -9.822119   , 7.782731E-05, 0.01283798  , 0.00176135346, 0.0212035589, -0.00153029629, 0.000499166257, 920.474243  , 30.0007973  , 803.1769    , 0.21        , 3           , 41          , 0           , 0
-0.0453367829, -0.2063252  , -9.82046    , -0.00016735775, 0.0127777094, 0.0018672687, 0.02120185  , -0.00140294724, 0.000520543254, 920.474243  , 30.0007973  , 803.177     , 0.22        , 3           , 42          , 0           , 0
-0.0410527  , -0.208336875, -9.819046   , 0.000407276442, 0.0128695779, 0.00213937159, 0.0212058891, -0.00127473718, 0.000544660143, 920.446045  , 30.0227757  , 803.1771    , 0.23        , 3           , 255         , 0           , 0
-0.0361353159, -0.2074987  , -9.811558   , 0.000401424768, 0.01295911  , 0.00201414572, 0.0212098751, -0.00114560523, 0.0005675447, 920.446045  , 30.0227757  , 803.177246  , 0.24        , 3           , 255         , 0           , 0
-0.0435486436, -0.205952674, -9.814911   , 0.000448823324, 0.0131059866, 0.00273799757, 0.02121433  , -0.00101515884, 0.0005976975, 920.446045  , 30.0227757  , 803.177368  , 0.25        , 3           , 255         , 0           , 0
-0.03447756 , -0.203568488, -9.817556   , 0.000587507966, 0.0135079976, 0.0015752702, 0.0212201886, -0.0008804468, 0.000616312143, 920.446045  , 30.0227757  , 803.1775    , 0.26        , 3           , 255         , 0           , 0
-0.03701076 , -0.210274011, -9.821615   , 0.000565856753, 0.0130451284, 0.00166655646, 0.02122583  , -0.000750381849, 0.0006357418, 920.446045  , 30.0227757  , 803.1776    , 0.27        , 3           , 255         , 0           , 0
-0.03984198 , -0.206008583, -9.817946   , 0.0005465463, 0.0132493535, 0.0022856635, 0.0212312769, -0.00061840663, 0.0006614052, 920.446045  , 30.0227757  , 803.177734  , 0.28        , 3           , 255         , 0           , 0
-0.04509464 , -0.21295622 , -9.81506    , -0.0006272992, 0.01283915  , 0.00192285958, 0.02122499  , -0.0004904553, 0.0006833543, 920.446045  , 30.0227757  , 803.177856  , 0.29        , 3           , 255         , 0           , 0
-0.0318326056, -0.206567332, -9.826943   , 9.538233E-05, 0.0129948044, 0.00173268036, 0.021225933 , -0.000360907521, 0.000703434634, 920.446045  , 30.0227757  , 803.178     , 0.3         , 3           , 255         , 0           , 0
-0.0325217843, -0.197403148, -9.824987   , -1.22886959E-05, 0.013204284 , 0.00251095276, 0.0212247744, -0.000271017576, 0.0007313407, 920.446045  , 30.0227757  , 803.123535  , 0.31        , 3           , 255         , 0           , 0
-0.0356137753, -0.195112079, -9.816363   , -3.21843763E-05, 0.0135665033, 0.00170108152, 0.0212244485, -0.000135747381, 0.0007512262, 920.446045  , 30.0227757  , 803.123657  , 0.32        , 3           , 255         , 0           , 0
-0.0396929681, -0.206399709, -9.816028   , 0.0010860702, 0.0132557778, 0.002214858 , 0.0212353021, -3.69290683E-06, 0.0007761832, 920.421     , 30.04226    , 803.1238    , 0.33        , 3           , 255         , 0           , 0
-0.04483387 , -0.2018735  , -9.817854   , 0.000901742547, 0.0134576615, 0.00223943545, 0.0212443229, 0.000130374421, 0.00080143  , 920.421     , 30.04226    , 803.123962  , 0.34        , 3           , 255         , 0           , 0
-0.0429525971, -0.2044067  , -9.829775   , 0.000651290931, 0.0141943861, 0.00219203671, 0.0212508384, 0.0002718171, 0.000826360541, 920.421     , 30.04226    , 803.124146  , 0.35        , 3           , 255         , 0           , 0
-0.04151836 , -0.206567362, -9.823144   , 0.0005658565, 0.0135185178, 0.00244073267, 0.0212565083, 0.0004064497, 0.000853634847, 920.421     , 30.04226    , 803.1243    , 0.36        , 3           , 255         , 0           , 0
-0.046864152, -0.201016665, -9.82383251 , -0.000160921176, 0.0129889427, 0.00264261547, 0.02125491  , 0.0005357449, 0.000882814929, 920.421     , 30.04226    , 803.1245    , 0.37        , 3           , 255         , 0           , 0
-0.0426732  , -0.201854855, -9.826887   , -2.92602181E-06, 0.0128561091, 0.00207207724, 0.0212548953, 0.0006638334, 0.0009062628, 920.421     , 30.04226    , 803.1247    , 0.38        , 3           , 255         , 0           , 0
-0.04829839 , -0.203363612, -9.823981   , 9.538206E-05, 0.01282919  , 0.00235178741, 0.0212558638, 0.0007915933, 0.0009325014, 920.421     , 30.04226    , 803.1249    , 0.39        , 3           , 255         , 0           , 0
-0.0390224159, -0.210180879, -9.814798   , 0.000145706465, 0.0129304258, 0.00233657286, 0.0212573428, 0.0009203685, 0.0009586096, 920.421     , 30.04226    , 803.125061  , 0.4         , 3           , 255         , 0           , 0
-0.0459142029, -0.209603459, -9.819641   , 0.000609741255, 0.012830928 , 0.00210835831, 0.0212557726, 0.0009915869, 0.0009824078, 920.421     , 30.04226    , 803.154541  , 0.41        , 3           , 255         , 0           , 0
-0.04056841 , -0.210665181, -9.817481   , 0.000649532652, 0.0128250765, 0.0014523858, 0.0212622881, 0.001119497 , 0.0009996543, 920.421     , 30.04226    , 803.1547    , 0.42        , 3           , 255         , 0           , 0
-0.04572794 , -0.208821148, -9.82109451 , 0.0007021977, 0.0128625259, 0.00189418718, 0.0212693382, 0.00124768727, 0.00102132664, 920.4334    , 30.0541916  , 803.1549    , 0.43        , 3           , 255         , 0           , 0
-0.04082918 , -0.217463821, -9.821169   , 0.0005962825, 0.01343482  , 0.00266602263, 0.0212753378, 0.00138143462, 0.0010508378, 920.4334    , 30.0541916  , 803.1551    , 0.44        , 3           , 255         , 0           , 0
-0.0375509262, -0.20749867 , -9.819884   , 0.000346416055, 0.0132440552, 0.00249749445, 0.0212788414, 0.00151331071, 0.00107862381, 920.4334    , 30.0541916  , 803.1553    , 0.45        , 3           , 255         , 0           , 0
-0.03390014 , -0.201761723, -9.822157   , 0.000395570125, 0.0129678557, 0.0023394993, 0.02128284  , 0.00164245872, 0.00110477221, 920.4334    , 30.0541916  , 803.155457  , 0.46        , 3           , 255         , 0           , 0
-0.03779307 , -0.203363612, -9.826161   , 0.000901739753, 0.0130872307, 0.00285327621, 0.02129191  , 0.00177269115, 0.00113608362, 920.4334    , 30.0541916  , 803.1557    , 0.47        , 3           , 255         , 0           , 0
-0.03932044 , -0.200886279, -9.820387   , 0.0009514789, 0.0131281922, 0.00243254076, 0.0213014763, 0.00190342183, 0.00116319861, 920.4334    , 30.0541916  , 803.155945  , 0.48        , 3           , 255         , 0           , 0
-0.04345551 , -0.2077967  , -9.821653   , 0.000419561984, 0.0131469173, 0.00264788256, 0.0213057287, 0.00203429372, 0.00119247125, 920.4334    , 30.0541916  , 803.1562    , 0.49        , 3           , 255         , 0           , 0
-0.0550411642, -0.209342673, -9.816345   , 0.00106558669, 0.0129719526, 0.00312303822, 0.0213164538, 0.002163315 , 0.00122645812, 920.4334    , 30.0541916  , 803.156433  , 0.5         , 3           , 255         , 0           , 0
-0.0434741378, -0.2081506  , -9.81452    , -5.20835965E-05, 0.0128109967, 0.00230380474, 0.0213143062, 0.002216738 , 0.00125221745, 920.4334    , 30.0541916  , 803.151245  , 0.51        , 3           , 255         , 0           , 0
-0.0391714275, -0.208169222, -9.820573   , -0.0004675523, 0.0134014292, 0.00160335971, 0.0213096738, 0.00235037715, 0.00127110293, 920.4334    , 30.0541916  , 803.1515    , 0.52        , 3           , 255         , 0           , 0
-0.03270805 , -0.201556832, -9.821542   , 0.000189005325, 0.0131562445, 0.00235822517, 0.021311624 , 0.002481404 , 0.00129748264, 920.4629    , 30.0607319  , 803.151733  , 0.53        , 3           , 255         , 0           , 0
-0.0446289778, -0.2107583  , -9.821711   , 0.0003271048, 0.0135407   , 0.002468822 , 0.0213149674, 0.002616251 , 0.00132505037, 920.4629    , 30.0607319  , 803.152     , 0.54        , 3           , 255         , 0           , 0
-0.03790483 , -0.209324077, -9.822603   , -6.495727E-05, 0.0129432445, 0.00266192737, 0.0213143956, 0.002745083 , 0.00135442126, 920.4629    , 30.0607319  , 803.1522    , 0.55        , 3           , 255         , 0           , 0
-0.03926456 , -0.2044067  , -9.817425   , 0.0009105165, 0.0127115175, 0.0025238276, 0.0213235766, 0.00287162839, 0.001382363 , 920.4629    , 30.0607319  , 803.152466  , 0.56        , 3           , 255         , 0           , 0
-0.03926456 , -0.2113916  , -9.820219   , 0.000606229471, 0.013308974 , 0.00175667356, 0.0213297009, 0.00300431042, 0.00140276377, 920.4629    , 30.0607319  , 803.1527    , 0.57        , 3           , 255         , 0           , 0
-0.0323727727, -0.212006286, -9.827242   , 0.000601548236, 0.0132697672, 0.00205042725, 0.0213357881, 0.003136537 , 0.0014260934, 920.4629    , 30.0607319  , 803.152954  , 0.58        , 3           , 255         , 0           , 0
-0.0336579978, -0.205561519, -9.821001   , 0.000908760936, 0.0131246466, 0.00166597252, 0.0213449355, 0.00326739531, 0.00144554989, 920.4629    , 30.0607319  , 803.1532    , 0.59        , 3           , 255         , 0           , 0
-0.0428594649, -0.208579019, -9.81735    , 0.0006565539, 0.012933882 , 0.00253728637, 0.0213515963, 0.0033961602, 0.00147367711, 920.4629    , 30.0607319  , 803.153442  , 0.6         , 3           , 255         , 0           , 0
-0.04824251 , -0.203754753, -9.81858    , 0.0006313907, 0.0127670607, 0.00255133142, 0.02135622  , 0.00343845086, 0.00150190433, 920.4629    , 30.0607319  , 803.1031    , 0.61        , 3           , 255         , 0           , 0
-0.04215166 , -0.2030097  , -9.820312   , 0.000501483562, 0.0130163422, 0.00224763  , 0.0213613231, 0.00356810121, 0.00152715528, 920.4629    , 30.0607319  , 803.103333  , 0.62        , 3           , 255         , 0           , 0
-0.0371411443, -0.202190116, -9.822213   , -0.000224123753, 0.0129502174, 0.002342427 , 0.0213591754, 0.00369707029, 0.00155333953, 920.403564  , 30.066328   , 803.1036    , 0.63        , 3           , 255         , 0           , 0
-0.0254996121, -0.202152878, -9.826887   , 0.0005044095, 0.0128384512, 0.00176603731, 0.0213642977, 0.00382504542, 0.001573738 , 920.403564  , 30.066328   , 803.1038    , 0.64        , 3           , 255         , 0           , 0
-0.03643334 , -0.202674419, -9.832346   , -0.000686405867, 0.01290165  , 0.00154894032, 0.0213575028, 0.003953698 , 0.00159197918, 920.403564  , 30.066328   , 803.1041    , 0.65        , 3           , 255         , 0           , 0
-0.0371970236, -0.206083059, -9.822045   , 0.000189589482, 0.0131597081, 0.00178183685, 0.0213594791, 0.004084881 , 0.00161260366, 920.403564  , 30.066328   , 803.104431  , 0.66        , 3           , 255         , 0           , 0
-0.0321492553, -0.200066715, -9.814165   , 0.000428922853, 0.0134751117, 0.002066813 , 0.0213638656, 0.00421915576, 0.00163614459, 920.403564  , 30.066328   , 803.104736  , 0.67        , 3           , 255         , 0           , 0
-0.031888485, -0.202711672, -9.814538   , 0.0005049946, 0.013655345 , 0.00172156445, 0.021368999 , 0.00435530674, 0.00165627338, 920.403564  , 30.066328   , 803.105042  , 0.68        , 3           , 255         , 0           , 0
-0.0402331352, -0.207461432, -9.821989   , -7.607644E-05, 0.0136682177, 0.00128795567, 0.02136831  , 0.00449167937, 0.00167207036, 920.403564  , 30.066328   , 803.105347  , 0.69        , 3           , 255         , 0           , 0
-0.0381469727, -0.21064654 , -9.826832   , 0.000392642483, 0.0133235538, 0.00164432242, 0.0213723239, 0.00462452928, 0.00169135665, 920.403564  , 30.066328   , 803.105652  , 0.7         , 3           , 255         , 0           , 0
-0.0410154462, -0.216364861, -9.821653   , 0.0001650076, 0.0132901361, 0.00175726111, 0.0213668961, 0.0046633305, 0.001711732 , 920.403564  , 30.066328   , 803.1507    , 0.71        , 3           , 255         , 0           , 0
-0.0343099236, -0.203251839, -9.821114   , 0.000454080233, 0.01341302  , 0.00202351226, 0.0213715453, 0.00479699438, 0.001734828 , 920.403564  , 30.066328   , 803.151062  , 0.72        , 3           , 255         , 0           , 0
-0.0414438546, -0.200811774, -9.818132   , -0.000412552443, 0.0132567817, 0.00218677381, 0.0213675387, 0.004929062 , 0.00175952329, 920.4626    , 30.0700359  , 803.1514    , 0.73        , 3           , 255         , 0           , 0
-0.0369735062, -0.204369426, -9.823422   , -0.000561184948, 0.0128852   , 0.00216336735, 0.0213620476, 0.005057419 , 0.00178390439, 920.4626    , 30.0700359  , 803.1518    , 0.74        , 3           , 255         , 0           , 0
-0.03149733 , -0.212173909, -9.830408   , 5.842121E-06, 0.0130373426, 0.002036386 , 0.0213622227, 0.005187325 , 0.001807048 , 920.4626    , 30.0700359  , 803.152161  , 0.75        , 3           , 255         , 0           , 0
-0.03663823 , -0.20679085 , -9.82383251 , 0.000575209851, 0.0138314152, 0.00244366215, 0.02136812  , 0.00532508176, 0.00183443364, 920.4626    , 30.0700359  , 803.1525    , 0.76        , 3           , 255         , 0           , 0
-0.03727153 , -0.207256511, -9.821616   , 0.000324758264, 0.0133193936, 0.00189770118, 0.02137148  , 0.00545783527, 0.0018562522, 920.4626    , 30.0700359  , 803.1529    , 0.77        , 3           , 255         , 0           , 0
-0.03701076 , -0.207051635, -9.830799   , 0.000486849633, 0.0132585373, 0.002116554 , 0.0213764813, 0.005589936 , 0.00188024621, 920.4626    , 30.0700359  , 803.153259  , 0.78        , 3           , 255         , 0           , 0
-0.0433251262, -0.209510326, -9.822827   , -0.000163856384, 0.0126160225, 0.00283338386, 0.0213750154, 0.00571545772, 0.00191127  , 920.4626    , 30.0700359  , 803.1536    , 0.79        , 3           , 255         , 0           , 0
-0.04367903 , -0.2063252  , -9.814575   , -0.000386219879, 0.0124006812, 0.00218618871, 0.0213712957, 0.00583896553, 0.00193577679, 920.4626    , 30.0700359  , 803.154     , 0.8         , 3           , 255         , 0           , 0
-0.0465475023, -0.201482326, -9.82128048 , 0.000145694765, 0.0130185327, 0.0011598072, 0.0213698316, 0.005861885 , 0.00195013674, 920.4626    , 30.0700359  , 803.1146    , 0.81        , 3           , 255         , 0           , 0
-0.0404380262, -0.198036432, -9.823721   , -0.000454101624, 0.0133187231, 0.00224295165, 0.0213654377, 0.00599456  , 0.00197540666, 920.4626    , 30.0700359  , 803.115     , 0.82        , 3           , 255         , 0           , 0
-0.0354088843, -0.207964331, -9.820592   , -0.000120556339, 0.0130156083, 0.00217507221, 0.0213643834, 0.006124219 , 0.00199993281, 920.4441    , 30.07226    , 803.115356  , 0.83        , 3           , 255         , 0           , 0
-0.03758818 , -0.2109632  , -9.822194   , -0.000433620822, 0.0133789964, 0.00208027521, 0.02136019  , 0.00625753123, 0.00202358817, 920.4441    , 30.07226    , 803.1157    , 0.84        , 3           , 255         , 0           , 0
-0.0382959843, -0.2088584  , -9.825602   , 1.40321426E-05, 0.0132368011, 0.00246590027, 0.0213605035, 0.006389338 , 0.00205106847, 920.4441    , 30.07226    , 803.1161    , 0.85        , 3           , 255         , 0           , 0
-0.04125759 , -0.20602718 , -9.825882   , 0.000226447824, 0.0132724969, 0.0022505587, 0.0213629324, 0.006521548 , 0.00207640347, 920.4441    , 30.07226    , 803.116455  , 0.86        , 3           , 255         , 0           , 0
-0.0351853669, -0.204835087, -9.822398   , -0.000125822829, 0.0132531859, 0.00230205362, 0.0213618446, 0.00665355567, 0.00210224977, 920.4441    , 30.07226    , 803.1168    , 0.87        , 3           , 255         , 0           , 0
-0.0380724669, -0.2018735  , -9.826887   , 0.00017612346, 0.0130536435, 0.00225992152, 0.0213637762, 0.00678357575, 0.0021276318, 920.4441    , 30.07226    , 803.1172    , 0.88        , 3           , 255         , 0           , 0
-0.0326707959, -0.214483589, -9.814575   , 0.0005599932, 0.013009171 , 0.00219379761, 0.0213695411, 0.006913166 , 0.00215234421, 920.4441    , 30.07226    , 803.117554  , 0.89        , 3           , 255         , 0           , 0
-0.0426359475, -0.202059746, -9.820144   , 0.000390879868, 0.0131970085, 0.002083201 , 0.0213736128, 0.007044657 , 0.00217599142, 920.4441    , 30.07226    , 803.1179    , 0.9         , 3           , 255         , 0           , 0
-0.0377185643, -0.207014367, -9.81925    , 0.000114091272, 0.0133665968, 0.00272045052, 0.021369908 , 0.00705584139, 0.002206011 , 920.4441    , 30.07226    , 803.1075    , 0.91        , 3           , 255         , 0           , 0
-0.0387616456, -0.216364861, -9.831116   , -0.0002955258, 0.0131705664, 0.00200362061, 0.0213671178, 0.00718708476, 0.00222885655, 920.4441    , 30.07226    , 803.107849  , 0.92        , 3           , 255         , 0           , 0
-0.0425986946, -0.207535937, -9.806938   , 1.73914657E-06, 0.0134104835, 0.00209373655, 0.0213673078, 0.00732070953, 0.00225265441, 920.446167  , 30.0753613  , 803.1082    , 0.93        , 3           , 255         , 0           , 0
-0.0403821468, -0.206138924, -9.821318   , 0.000256872037, 0.013721209 , 0.002130017 , 0.0213700533, 0.007457431 , 0.00227688137, 920.446167  , 30.0753613  , 803.1086    , 0.94        , 3           , 255         , 0           , 0
-0.0317953527, -0.211615115, -9.827204   , 0.0002439984, 0.013184025 , 0.00276667881, 0.0213727225, 0.00758864637, 0.00230735913, 920.446167  , 30.0753613  , 803.108948  , 0.95        , 3           , 255         , 0           , 0
-0.04498288 , -0.2138503  , -9.825081   , 0.000147445782, 0.0127673866, 0.002255828 , 0.0213743877, 0.007715805 , 0.00233264081, 920.446167  , 30.0753613  , 803.1093    , 0.96        , 3           , 255         , 0           , 0
-0.0521540642, -0.207573175, -9.820815   , -0.0002668526, 0.0134859718, 0.00185557327, 0.021371888 , 0.007850236 , 0.00235407474, 920.446167  , 30.0753613  , 803.109741  , 0.97        , 3           , 255         , 0           , 0
-0.0487267971, -0.210125   , -9.820406   , 0.000143934783, 0.0138353156, 0.00227162731, 0.021373529 , 0.007988067 , 0.00237974268, 920.446167  , 30.0753613  , 803.110168  , 0.98        , 3           , 255         , 0           , 0
-0.0440515578, -0.201314688, -9.82223    , 6.084104E-05, 0.013346117 , 0.00225933851, 0.021374343 , 0.008121012 , 0.00240518362, 920.446167  , 30.0753613  , 803.1106    , 0.99        , 3           , 255         , 0           , 0
-0.04256144 , -0.206213444, -9.825472   , -0.0002539789, 0.0134532   , 0.002060967 , 0.0213719979, 0.00825507  , 0.00242866413, 920.446167  , 30.0753613  , 803.111     , 1           , 3           , 0           , 5.00223637  , 100
-0.04403293 , -0.215321779, -9.821095   , 4.26995648E-05, 0.0134343337, 0.00210076151, 0.0213711988, 0.008249357 , 0.00245252671, 920.446167  , 30.0753613  , 803.0998    , 1.01        , 3           , 1           , 0           , 0
-0.03715977 , -0.20628795 , -9.820646   , -4.50755033E-05, 0.0133746471, 0.00176429027, 0.0213709176, 0.008382693 , 0.00247302349, 920.446167  , 30.0753613  , 803.1002    , 1.02        , 3           , 2           , 0           , 0
-0.04477799 , -0.20461157 , -9.82141    , 0.0007788399, 0.0124530084, 0.0013318517, 0.02137884  , 0.008506906 , 0.002489001 , 920.4364    , 30.0774517  , 803.100647  , 1.03        , 3           , 3           , 0           , 0
-0.03941357 , -0.2062507  , -9.824763   , 0.000375659729, 0.0131458454, 0.00241441117, 0.0213828254, 0.008637815 , 0.00251595024, 920.4364    , 30.0774517  , 803.1011    , 1.04        , 3           , 4           , 0           , 0
-0.0322051346, -0.212006286, -9.826981   , 0.000370978378, 0.012690587 , 0.00219848426, 0.0213867463, 0.00876421947, 0.00254064449, 920.4364    , 30.0774517  , 803.1015    , 1.05        , 3           , 5           , 0           , 0
-0.0478513539, -0.202972442, -9.825863   , 0.0001655847, 0.013166911 , 0.00204224465, 0.0213886071, 0.008895417 , 0.00256387843, 920.4364    , 30.0774517  , 803.1019    , 1.06        , 3           , 6           , 0           , 0
-0.03537163 , -0.200308844, -9.824652   , 0.000333527656, 0.0128000136, 0.00173269131, 0.0213921182, 0.009023012 , 0.00258393981, 920.4364    , 30.0774517  , 803.102356  , 1.07        , 3           , 7           , 0           , 0
-0.0363588333, -0.207778066, -9.82495    , -8.795156E-06, 0.0129632754, 0.00230674027, 0.0213922635, 0.00915212  , 0.00260977517, 920.4364    , 30.0774517  , 803.1028    , 1.08        , 3           , 8           , 5           , 5
-0.0312179327, -0.204686075, -9.821728   , 0.00033118698, 0.0122558065, 0.00252500782, 0.0213958323, 0.009274107 , 0.00263764174, 920.4364    , 30.0774517  , 803.1032    , 1.09        , 3           , 9           , 5           , 0.1
-0.0358745456, -0.200029463, -9.817965   , 0.000328261172, 0.0122166006, 0.00289892917, 0.0213994067, 0.009395618 , 0.00266923872, 920.4364    , 30.0774517  , 803.103638  , 1.1         , 3           , 10          , 0.1         , 0.1
-0.0380910933, -0.217203066, -9.821393   , 0.0005283832, 0.01310472  , 0.002717531 , 0.0214002226, 0.009382108 , 0.00269916817, 920.4364    , 30.0774517  , 803.104     , 1.11        , 3           , 11          , 0.0102878092, 0.0102878334
-0.03496185 , -0.2132915  , -9.82646    , -7.37539E-05, 0.01389294  , 0.00185792055, 0.0213996861, 0.009520607 , 0.00272071618, 920.4364    , 30.0774517  , 803.104431  , 1.12        , 3           , 12          , 0.174642846 , 0
-0.0437535346, -0.201072544, -9.81014252 , 0.0005061468, 0.0134166144, 0.00139446813, 0.021404909 , 0.00965444  , 0.002737529 , 920.47      , 30.08109    , 803.104858  , 1.13        , 3           , 13          , 0           , 0
-0.037252903, -0.209193677, -9.817611   , 0.000113499613, 0.0134634282, 0.00188600854, 0.0214062519, 0.009788637 , 0.00275926688, 920.47      , 30.08109    , 803.1053    , 1.14        , 3           , 14          , 2.28282389E-08, 6.846378E-07
-0.037252903, -0.21180138 , -9.813365   , -0.0005143848, 0.013081315 , 0.00214874838, 0.02140135  , 0.009918956 , 0.00278354972, 920.47      , 30.08109    , 803.1057    , 1.15        , 3           , 15          , 0           , -1.45421737E-08
-0.04561618 , -0.206548735, -9.822007   , -0.000228823221, 0.0127928266, 0.00169582909, 0.0213992558, 0.0100464886, 0.0028032416, 920.47      , 30.08109    , 803.1062    , 1.16        , 3           , 16          , 0           , 4.203895E-45
-0.04919246 , -0.200066715, -9.823647   , 0.000173186665, 0.0133598549, 0.00176663441, 0.0214011967, 0.010179678 , 0.00282376376, 920.47      , 30.08109    , 803.1067    , 1.17        , 3           , 20          , 0           , 0
-0.0428594649, -0.205989927, -9.83119    , 0.000112914451, 0.01303216  , 0.0016244388, 0.02140252  , 0.010309617 , 0.00284279324, 920.47      , 30.08109    , 803.1072    , 1.18        , 3           , 21          , 0           , 0
-0.0365450978, -0.205170363, -9.82387    , 0.0006284468, 0.0122913383, 0.0005834263, 0.0214088932, 0.0104323728, 0.00285125757, 920.47      , 30.08109    , 803.107666  , 1.19        , 3           , 22          , 0           , 0
-0.0408478081, -0.2159551  , -9.824298   , 0.000167334991, 0.0131088179, 0.00201884122, 0.0214108061, 0.0105629964, 0.0028742482, 920.47      , 30.08109    , 803.108154  , 1.2         , 3           , 40          , 0           , 0
-0.038780272, -0.20429492 , -9.82264    , -0.0002264847, 0.0129670007, 0.00223418744, 0.0214068722, 0.0105287023, 0.00289934152, 920.47      , 30.08109    , 803.0735    , 1.21        , 3           , 41          , 0           , 0
-0.0374950469, -0.2048537  , -9.822026   , -0.000340007129, 0.0132379336, 0.00187957613, 0.0214037038, 0.0106606446, 0.0029209666, 920.47      , 30.08109    , 803.073853  , 1.22        , 3           , 42          , 0           , 0
-0.0441819429, -0.207778066, -9.818468   , 0.0007132939, 0.0133028878, 0.00269763987, 0.0214111526, 0.0107930638, 0.00295078545, 920.4557    , 30.078867   , 803.0742    , 1.23        , 3           , 255         , 0           , 0
-0.0470504165, -0.207256526, -9.831171   , -0.000114717754, 0.0131448908, 0.00197437312, 0.02141025  , 0.0109240552, 0.00297333975, 920.4557    , 30.078867   , 803.0746    , 1.24        , 3           , 255         , 0           , 0
-0.04399568 , -0.2110563  , -9.821207   , 0.000129882159, 0.0133853955, 0.00232547335, 0.0214118324, 0.0110573759, 0.00299945544, 920.4557    , 30.078867   , 803.074951  , 1.25        , 3           , 255         , 0           , 0
-0.0402331352, -0.209864229, -9.825117   , 0.000807505858, 0.0137242079, 0.0023986192, 0.021420205 , 0.0111940717, 0.003026376 , 920.4557    , 30.078867   , 803.0754    , 1.26        , 3           , 255         , 0           , 0
-0.0385195  , -0.207629055, -9.82685    , 0.0004803973, 0.01308579  , 0.00183217751, 0.0214252453, 0.0113245016, 0.00304749724, 920.4557    , 30.078867   , 803.0758    , 1.27        , 3           , 255         , 0           , 0
-0.0367127359, -0.214576721, -9.824782   , 0.000117593641, 0.0133672571, 0.00172275119, 0.0214266479, 0.01145777  , 0.00306758564, 920.4557    , 30.078867   , 803.076233  , 1.28        , 3           , 255         , 0           , 0
-0.0370852649, -0.209454447, -9.820666   , 0.000809846446, 0.0134427426, 0.002222484 , 0.0214350373, 0.0115916878, 0.00309268734, 920.4557    , 30.078867   , 803.07666   , 1.29        , 3           , 255         , 0           , 0
-0.02849847 , -0.212583691, -9.817611   , 0.000256278261, 0.0138611365, 0.00243841065, 0.0214379169, 0.0117297405, 0.00312003843, 920.4557    , 30.078867   , 803.0771    , 1.3         , 3           , 255         , 0           , 0
-0.033993274, -0.201892108, -9.828135   , 3.74238261E-05, 0.0131955743, 0.00281233736, 0.021437021 , 0.0116942395, 0.003150966 , 920.4557    , 30.078867   , 803.060852  , 1.31        , 3           , 255         , 0           , 0
-0.03233552 , -0.203903764, -9.833387   , 7.78003741E-05, 0.0128795849, 0.00193166069, 0.0214380566, 0.0118225878, 0.00317304  , 920.4557    , 30.078867   , 803.0612    , 1.32        , 3           , 255         , 0           , 0
-0.03496185 , -0.212471917, -9.810608   , 0.0002720759, 0.013633864 , 0.00175611069, 0.0214410238, 0.0119585162, 0.003193521 , 920.4258    , 30.08116    , 803.0616    , 1.33        , 3           , 255         , 0           , 0
-0.03620982 , -0.210255384, -9.8259     , 0.0002592022, 0.0135671552, 0.001481082 , 0.0214438234, 0.0120938364, 0.00321123842, 920.4258    , 30.08116    , 803.061951  , 1.34        , 3           , 255         , 0           , 0
-0.0438466668, -0.2013892  , -9.821653   , 0.000304260117, 0.0129334182, 0.00186261092, 0.0214471258, 0.0122227371, 0.00323263463, 920.4258    , 30.08116    , 803.0623    , 1.35        , 3           , 255         , 0           , 0
-0.046864152, -0.206567362, -9.829997   , 0.000366287859, 0.0131253544, 0.00222599972, 0.0214510933, 0.0123534808, 0.0032577056, 920.4258    , 30.08116    , 803.0627    , 1.36        , 3           , 255         , 0           , 0
-0.0503286719, -0.20975247 , -9.822584   , 0.000162649609, 0.0134196933, 0.00191059476, 0.021452995 , 0.0124872327, 0.00327968667, 920.4258    , 30.08116    , 803.063049  , 1.37        , 3           , 255         , 0           , 0
-0.033788383, -0.211410239, -9.819287   , 0.000349903159, 0.0130364094, 0.002064494 , 0.0214567836, 0.0126171187, 0.0033031248, 920.4258    , 30.08116    , 803.0634    , 1.38        , 3           , 255         , 0           , 0
-0.035520643, -0.204574317, -9.823927   , 0.000164405123, 0.0129223019, 0.00219030469, 0.0214587376, 0.0127458423, 0.003327797 , 920.4258    , 30.08116    , 803.063843  , 1.39        , 3           , 255         , 0           , 0
-0.03779307 , -0.200103968, -9.828825   , 0.0002381362, 0.0128444731, 0.00182633055, 0.02146139  , 0.01287386  , 0.00334881316, 920.4258    , 30.08116    , 803.0643    , 1.4         , 3           , 255         , 0           , 0
-0.0322423875, -0.20127745 , -9.830632   , -0.000358741323, 0.0131900515, 0.002025293 , 0.0214531869, 0.0128331678, 0.00337183033, 920.4258    , 30.08116    , 803.0803    , 1.41        , 3           , 255         , 0           , 0
-0.0426918268, -0.203661636, -9.835846   , 0.000213552237, 0.0126932431, 0.00164610462, 0.0214555673, 0.012959715 , 0.00339101162, 920.4258    , 30.08116    , 803.0808    , 1.42        , 3           , 255         , 0           , 0
-0.0418163836, -0.210702419, -9.835101   , 0.0006266804, 0.0135452468, 0.00168121478, 0.0214620922, 0.0130947726, 0.00341072725, 920.4397    , 30.0823727  , 803.0813    , 1.43        , 3           , 255         , 0           , 0
-0.038202852, -0.214744374, -9.82442951 , 7.954897E-05, 0.0132866036, 0.00226638163, 0.0214632172, 0.0132271172, 0.003436239 , 920.4397    , 30.0823727  , 803.0818    , 1.44        , 3           , 255         , 0           , 0
-0.03937632 , -0.202003866, -9.8183     , 0.000138065661, 0.0131596215, 0.00172217633, 0.0214648638, 0.0133583089, 0.00345628243, 920.4397    , 30.0823727  , 803.0823    , 1.45        , 3           , 255         , 0           , 0
-0.03490597 , -0.205375239, -9.821672   , 0.0006260952, 0.0129589085, 0.001910015 , 0.0214714184, 0.0134874526, 0.003478161 , 920.4397    , 30.0823727  , 803.082764  , 1.46        , 3           , 255         , 0           , 0
-0.0490993261, -0.204723328, -9.831171   , 0.000393198628, 0.0130180111, 0.002053381 , 0.021475669 , 0.0136171579, 0.00350148673, 920.4397    , 30.0823727  , 803.083252  , 1.47        , 3           , 255         , 0           , 0
-0.04671514 , -0.209044665, -9.830315   , 0.000331756019, 0.0131689841, 0.0018579351, 0.0214792751, 0.0137484167, 0.003522891 , 920.4397    , 30.0823727  , 803.08374   , 1.48        , 3           , 255         , 0           , 0
-0.0479072332, -0.205393881, -9.8221     , 0.000314201025, 0.0131373843, 0.002330165 , 0.0214827769, 0.0138792554, 0.00354901142, 920.4397    , 30.0823727  , 803.0842    , 1.49        , 3           , 255         , 0           , 0
-0.0381283462, -0.206790879, -9.815432   , -0.000247559539, 0.0130425878, 0.00201651524, 0.02148062  , 0.0140092159, 0.003571975 , 920.4397    , 30.0823727  , 803.0848    , 1.5         , 3           , 255         , 0           , 0
-0.0442191958, -0.2048537  , -9.817389   , 0.0003364302, 0.0128275473, 0.00105509174, 0.021479426 , 0.0139600048, 0.00358521333, 920.4397    , 30.0823727  , 803.084167  , 1.51        , 3           , 255         , 0           , 0
-0.04446134 , -0.20692125 , -9.819101   , 3.27284361E-05, 0.0135291629, 0.00148343411, 0.0214800015, 0.0140949422, 0.0036029513, 920.4397    , 30.0823727  , 803.0847    , 1.52        , 3           , 255         , 0           , 0
-0.0479444861, -0.205859572, -9.817927   , 0.0001205035, 0.01342383  , 0.001185584 , 0.0214814153, 0.0142288934, 0.00361768855, 920.455261  , 30.0823727  , 803.085266  , 1.53        , 3           , 255         , 0           , 0
-0.0447407365, -0.213123843, -9.829719   , 0.0007085966, 0.0134571865, 0.00129442522, 0.02148873  , 0.014363152 , 0.003633522 , 920.455261  , 30.0823727  , 803.0858    , 1.54        , 3           , 255         , 0           , 0
-0.0460073352, -0.211186722, -9.833406   , 0.000156198716, 0.0133167477, 0.00224707718, 0.021490654 , 0.0144958049, 0.003658851 , 920.455261  , 30.0823727  , 803.086365  , 1.55        , 3           , 255         , 0           , 0
-0.04313886 , -0.200066715, -9.823256   , 0.000640132 , 0.0132991914, 0.00206626067, 0.0214973986, 0.0146283172, 0.00368236937, 920.455261  , 30.0823727  , 803.0869    , 1.56        , 3           , 255         , 0           , 0
-0.0332668424, -0.204518437, -9.81561852 , 0.000121088677, 0.0130212372, 0.00194279058, 0.0214989334, 0.0147580765, 0.00370459328, 920.455261  , 30.0823727  , 803.087463  , 1.57        , 3           , 255         , 0           , 0
-0.0354088843, -0.206697747, -9.818319   , 0.000593318662, 0.0128240362, 0.00196795235, 0.0215051975, 0.0148858614, 0.00372702768, 920.455261  , 30.0823727  , 803.088     , 1.58        , 3           , 255         , 0           , 0
-0.0353530049, -0.204015523, -9.826048   , 0.000132206857, 0.0133647295, 0.00180586136, 0.021506831 , 0.0150190853, 0.00374795776, 920.455261  , 30.0823727  , 803.088562  , 1.59        , 3           , 255         , 0           , 0
-0.03768131 , -0.217128545, -9.829905   , 9.70968E-05 , 0.0127895121, 0.0019486422, 0.0215081368, 0.0151465284, 0.00377019239, 920.455261  , 30.0823727  , 803.0891    , 1.6         , 3           , 255         , 0           , 0
-0.0438466668, -0.2127327  , -9.819418   , -0.0003926946, 0.0129705658, 0.00144365011, 0.0215003919, 0.0150748435, 0.003787354 , 920.455261  , 30.0823727  , 803.0713    , 1.61        , 3           , 255         , 0           , 0
-0.037252903, -0.202227384, -9.830501   , 6.724685E-05, 0.0132760229, 0.00224942551, 0.0215014461, 0.0152070848, 0.00381270051, 920.455261  , 30.0823727  , 803.0718    , 1.62        , 3           , 255         , 0           , 0
-0.0475719571, -0.200774521, -9.812433   , -0.000211292761, 0.0130624371, 0.00276320241, 0.0214997958, 0.0153370807, 0.00384313683, 920.443     , 30.08116    , 803.072266  , 1.63        , 3           , 255         , 0           , 0
-0.0434368849, -0.208765268, -9.820443   , 0.00024162668, 0.0132549573, 0.00215345784, 0.0215025861, 0.0154691311, 0.00386751816, 920.443     , 30.08116    , 803.072754  , 1.64        , 3           , 255         , 0           , 0
-0.04053116 , -0.206064433, -9.826515   , 9.06535352E-05, 0.0128324656, 0.00237523648, 0.0215039048, 0.015596915 , 0.00389402686, 920.443     , 30.08116    , 803.073242  , 1.65        , 3           , 255         , 0           , 0
-0.0435486436, -0.205375269, -9.822008   , 0.0006764059, 0.0132818744, 0.00262393244, 0.0215111226, 0.015729133 , 0.003923119 , 920.443     , 30.08116    , 803.0737    , 1.66        , 3           , 255         , 0           , 0
-0.034943223, -0.202599913, -9.823813   , 0.000756573863, 0.0128506068, 0.00207094941, 0.0215190575, 0.01585716  , 0.003946591 , 920.443     , 30.08116    , 803.0742    , 1.67        , 3           , 255         , 0           , 0
-0.0431574881, -0.199489281, -9.818394   , 7.602436E-05, 0.0125574367, 0.00233837077, 0.0215202328, 0.0159821976, 0.003972674 , 920.443     , 30.08116    , 803.0747    , 1.68        , 3           , 255         , 0           , 0
-0.0489316881, -0.214483574, -9.824205   , 0.000253330043, 0.0131455306, 0.00246652239, 0.0215232074, 0.0161130913, 0.004000165 , 920.443     , 30.08116    , 803.0752    , 1.69        , 3           , 255         , 0           , 0
-0.0412203372, -0.205785036, -9.82836    , 0.000187206126, 0.0134228989, 0.00151738129, 0.0215253718, 0.0162469577, 0.00401822664, 920.443     , 30.08116    , 803.0757    , 1.7         , 3           , 255         , 0           , 0
-0.04829839 , -0.215992332, -9.830463   , -5.974478E-05, 0.0127284955, 0.00147467235, 0.0215190724, 0.016159514 , 0.004035615 , 920.443     , 30.08116    , 803.0725    , 1.71        , 3           , 255         , 0           , 0
-0.0476837158, -0.214744359, -9.834134   , -0.000242902141, 0.0127957892, 0.00220262026, 0.0215170477, 0.0162869655, 0.00406039134, 920.443     , 30.08116    , 803.073     , 1.72        , 3           , 255         , 0           , 0
-0.0459700823, -0.212769955, -9.814966   , 0.000334072771, 0.0129344743, 0.002393385 , 0.0215208214, 0.0164157581, 0.00408710539, 920.4616    , 30.0851364  , 803.0735    , 1.73        , 3           , 255         , 0           , 0
-0.03848225 , -0.2075173  , -9.816381   , 0.0006687884, 0.0131433783, 0.00239397027, 0.0215279479, 0.01654664  , 0.00411387067, 920.4616    , 30.0851364  , 803.074     , 1.74        , 3           , 255         , 0           , 0
-0.03658235 , -0.218246132, -9.828005   , 0.00050026027, 0.01309832  , 0.001612772 , 0.0215332657, 0.0166772418, 0.00413281657, 920.4616    , 30.0851364  , 803.074463  , 1.75        , 3           , 255         , 0           , 0
-0.0385567546, -0.207480043, -9.824634   , 0.000439402851, 0.0132054063, 0.00187024544, 0.021538021 , 0.01680886  , 0.004154361 , 920.4616    , 30.0851364  , 803.075     , 1.76        , 3           , 255         , 0           , 0
-0.0390782952, -0.20461157 , -9.819641   , -0.000422548474, 0.0129467621, 0.00174501957, 0.02153414  , 0.0169379171, 0.004174597 , 920.4616    , 30.0851364  , 803.075562  , 1.77        , 3           , 255         , 0           , 0
-0.0349991024, -0.202097014, -9.823814   , -0.000190237057, 0.0129684135, 0.001882534 , 0.0215326   , 0.0170671623, 0.00419621263, 920.4616    , 30.0851364  , 803.0761    , 1.78        , 3           , 255         , 0           , 0
-0.0412203372, -0.210888669, -9.823461   , 0.000482705276, 0.0127513157, 0.00236997823, 0.0215378813, 0.01719413  , 0.004222655 , 920.4616    , 30.0851364  , 803.07666   , 1.79        , 3           , 255         , 0           , 0
-0.03848225 , -0.216942266, -9.82109451 , 0.000911632844, 0.0128449425, 0.00275267777, 0.0215475187, 0.01732195  , 0.004252946 , 920.4616    , 30.0851364  , 803.0772    , 1.8         , 3           , 255         , 0           , 0
-0.0450760126, -0.20718202 , -9.822975   , 0.0006799065, 0.0131306611, 0.00181993027, 0.0215542056, 0.0172363222, 0.00427396456, 920.4616    , 30.0851364  , 803.0528    , 1.81        , 3           , 255         , 0           , 0
-0.04319474 , -0.21552667 , -9.828898   , 9.88354441E-05, 0.0128246183, 0.00143254956, 0.0215554871, 0.0173642281, 0.00429105246, 920.4616    , 30.0851364  , 803.0532    , 1.82        , 3           , 255         , 0           , 0
-0.0365450978, -0.215023756, -9.82428    , 0.000217039225, 0.0138685573, 0.00221959921, 0.0215580948, 0.0175023973, 0.004316236 , 920.4373    , 30.0848675  , 803.05365   , 1.83        , 3           , 255         , 0           , 0
-0.0421330333, -0.199507922, -9.818413   , 0.000375619536, 0.0134156384, 0.00267837034, 0.0215623714, 0.01763594  , 0.0043459083, 920.4373    , 30.0848675  , 803.0541    , 1.84        , 3           , 255         , 0           , 0
-0.039562583, -0.1958385  , -9.826254   , 0.0006412855, 0.0131786456, 0.002326685 , 0.0215692427, 0.0177671853, 0.0043720156, 920.4373    , 30.0848675  , 803.0545    , 1.85        , 3           , 255         , 0           , 0
-0.03937632 , -0.209864229, -9.830949   , -0.0002821084, 0.0127912648, 0.00179359782, 0.0215667915, 0.0178946815, 0.00439270865, 920.4373    , 30.0848675  , 803.054932  , 1.86        , 3           , 255         , 0           , 0
-0.04215166 , -0.204630181, -9.83024    , -0.000235880216, 0.012608693 , 0.00145244517, 0.0215647426, 0.0180204213, 0.00440995069, 920.4373    , 30.0848675  , 803.055359  , 1.87        , 3           , 255         , 0           , 0
-0.0443123281, -0.197291374, -9.823777   , 0.0004985047, 0.012752058 , 0.00196563685, 0.021570133 , 0.0181474891, 0.00443235552, 920.4373    , 30.0848675  , 803.0558    , 1.88        , 3           , 255         , 0           , 0
-0.038780272, -0.204090029, -9.819977   , 0.0005283482, 0.0132254595, 0.00180061988, 0.0215757955, 0.0182793215, 0.00445321249, 920.4373    , 30.0848675  , 803.0562    , 1.89        , 3           , 255         , 0           , 0
-0.0483170152, -0.2056174  , -9.813141   , -0.000208377358, 0.0131523125, 0.00177545752, 0.02157409  , 0.0184104256, 0.004473803 , 920.4373    , 30.0848675  , 803.056641  , 1.9         , 3           , 255         , 0           , 0
-0.05280599 , -0.216066837, -9.824671   , -0.000464693818, 0.0131073659, 0.00275562285, 0.0215632282, 0.0183147788, 0.00450406037, 920.4373    , 30.0848675  , 803.0621    , 1.91        , 3           , 255         , 0           , 0
-0.04677102 , -0.212490559, -9.822771   , -8.609063E-05, 0.0132091837, 0.00252799271, 0.0215628855, 0.0184462946, 0.004532186 , 920.4373    , 30.0848675  , 803.062561  , 1.92        , 3           , 255         , 0           , 0
-0.03883615 , -0.203512624, -9.823385   , -7.029111E-05, 0.012932986 , 0.0024671352, 0.02156269  , 0.0185750555, 0.004559644 , 920.443     , 30.082777   , 803.063049  , 1.93        , 3           , 255         , 0           , 0
-0.0416114926, -0.201147035, -9.819977   , -0.000149873842, 0.0133712757, 0.00253911084, 0.02156172  , 0.0187081881, 0.00458791573, 920.443     , 30.082777   , 803.063538  , 1.94        , 3           , 255         , 0           , 0
-0.0370852649, -0.204499811, -9.824708   , 0.000330548472, 0.0128557431, 0.00214295276, 0.0215654764, 0.0188362487, 0.004612115 , 920.443     , 30.082777   , 803.064     , 1.95        , 3           , 255         , 0           , 0
-0.031311065, -0.2081506  , -9.828265   , 2.26962652E-06, 0.0130219311, 0.001780734 , 0.0215658862, 0.01896605  , 0.004632729 , 920.443     , 30.082777   , 803.0645    , 1.96        , 3           , 255         , 0           , 0
-0.03680587 , -0.210255384, -9.82454    , 0.000479180948, 0.01335138  , 0.00192351465, 0.0215710942, 0.0190991145, 0.004654843 , 920.443     , 30.082777   , 803.065     , 1.97        , 3           , 255         , 0           , 0
-0.0402331352, -0.209100559, -9.821058   , 0.000510194746, 0.013552092 , 0.00108731084, 0.0215764623, 0.0192343723, 0.00466863858, 920.443     , 30.082777   , 803.0655    , 1.98        , 3           , 255         , 0           , 0
-0.0489503145, -0.207610413, -9.822474   , 0.0005300905, 0.0134660741, 0.00274801557, 0.0215823483, 0.0193684027, 0.00469902344, 920.443     , 30.082777   , 803.066     , 1.99        , 3           , 255         , 0           , 0
-0.0489875674, -0.207666308, -9.817872   , 0.000178404967, 0.0137077468, 0.00254554767, 0.0215846859, 0.0195048936, 0.004727435 , 920.443     , 30.082777   , 803.066467  , 2           , 3           , 0           , 6.00223637  , 200
-0.0539794564, -0.210963175, -9.822845   , 0.0006026434, 0.0132191852, 0.002713502 , 0.0215872452, 0.01939679  , 0.00475734426, 920.443     , 30.082777   , 803.064148  , 2.01        , 3           , 1           , 0           , 0
-0.0511482358, -0.2057664  , -9.83068752 , 0.000276705221, 0.012988043 , 0.00318807247, 0.0215906873, 0.0195259489, 0.004792027 , 920.443     , 30.082777   , 803.064636  , 2.02        , 3           , 2           , 0           , 0
-0.0450573862, -0.20699577 , -9.820293   , -5.50846053E-05, 0.0127416868, 0.00169297052, 0.0215905216, 0.0196529664, 0.00481170742, 920.447144  , 30.0897884  , 803.0651    , 2.03        , 3           , 3           , 0           , 0
-0.04351139 , -0.206399724, -9.826626   , 4.67345053E-05, 0.0128827123, 0.002220791 , 0.021591479 , 0.0197812859, 0.00483669573, 920.447144  , 30.0897884  , 803.0656    , 2.04        , 3           , 4           , 0           , 0
-0.0368617475, -0.203493983, -9.82401848 , -1.5293228E-05, 0.0129938945, 0.00271642767, 0.0215919223, 0.0199106019, 0.00486666476, 920.447144  , 30.0897884  , 803.066162  , 2.05        , 3           , 5           , 0           , 0
-0.0298209488, -0.210013241, -9.81953049 , 0.0006131764, 0.012918408 , 0.00187320192, 0.0215984825, 0.02003935  , 0.00488818577, 920.447144  , 30.0897884  , 803.0667    , 2.06        , 3           , 6           , 0           , 0
-0.0344030559, -0.203829259, -9.817705   , 0.000379694626, 0.0131864147, 0.00164089061, 0.0216026679, 0.0201708246, 0.00490744272, 920.447144  , 30.0897884  , 803.067261  , 2.07        , 3           , 7           , 0           , 0
-0.04382804 , -0.212006286, -9.824745   , 0.00050433533, 0.0129851168, 0.001660201 , 0.0216081   , 0.0203002822, 0.00492684962, 920.447144  , 30.0897884  , 803.0678    , 2.08        , 3           , 8           , 5           , 5
-0.04408881 , -0.212397426, -9.816028   , 0.000719676842, 0.0131401867, 0.00188958668, 0.021615738 , 0.0204312429, 0.004948585 , 920.447144  , 30.0897884  , 803.068359  , 2.09        , 3           , 9           , 5           , 0.1
-0.0346079469, -0.205840915, -9.823422   , -0.0005548174, 0.013019057 , 0.00201598275, 0.0216106642, 0.0205609575, 0.00497155776, 920.447144  , 30.0897884  , 803.0689    , 2.1         , 3           , 10          , 0.1         , 0.1
-0.0418536365, -0.207927078, -9.819941   , 0.0001754618, 0.0131981149, 0.00136411877, 0.0216081385, 0.0204427317, 0.004987956 , 920.447144  , 30.0897884  , 803.0612    , 2.11        , 3           , 11          , 0.009764939 , 0.009764986
-0.0405870378, -0.211279839, -9.822008   , 0.000424157828, 0.0133467475, 0.0016713317, 0.0216127783, 0.0205758   , 0.005007553 , 920.447144  , 30.0897884  , 803.0617    , 2.12        , 3           , 12          , 0.174643889 , 0
-0.0414066  , -0.208802536, -9.82752    , -0.000123558653, 0.0135620888, 0.00250519486, 0.0216121227, 0.0207108483, 0.005035536 , 920.4494    , 30.0880356  , 803.0622    , 2.13        , 3           , 13          , 0           , 0
-0.04922971 , -0.210106373, -9.829476   , 0.000343404769, 0.0130881052, 0.00252392  , 0.0216161385, 0.020841144 , 0.005063603 , 920.4494    , 30.0880356  , 803.0627    , 2.14        , 3           , 14          , 8.837412E-08, 4.427349E-06
-0.04278496 , -0.208467245, -9.827744   , 0.00055582053, 0.01323498  , 0.0024817884, 0.0216222778, 0.0209729224, 0.00509128254, 920.4494    , 30.0880356  , 803.0632    , 2.15        , 3           , 15          , 0           , -9.405098E-08
-0.0325776637, -0.209193677, -9.82048    , -0.000131165827, 0.013201043 , 0.00184922258, 0.0216214173, 0.0211044978, 0.00511262845, 920.4494    , 30.0880356  , 803.06366   , 2.16        , 3           , 16          , 0           , 4.203895E-45
-0.0366568565, -0.218711779, -9.809622   , 8.103967E-06, 0.0129786767, 0.00238465052, 0.02162206  , 0.0212337337, 0.00513928151, 920.4494    , 30.0880356  , 803.0642    , 2.17        , 3           , 20          , 0           , 0
-0.0365078449, -0.219810754, -9.81342    , 3.6191992E-05, 0.0129605383, 0.00217282  , 0.0216229428, 0.0213628374, 0.00516381161, 920.4494    , 30.0880356  , 803.064758  , 2.18        , 3           , 21          , 0           , 0
-0.0433810055, -0.214446351, -9.824783   , 0.000575131038, 0.0127013084, 0.0019925884, 0.02162918  , 0.0214893855, 0.005186484 , 920.4494    , 30.0880356  , 803.0653    , 2.19        , 3           , 22          , 0           , 0
-0.0404007733, -0.205151752, -9.824577   , 0.0009619266, 0.0129277688, 0.00195396738, 0.0216392782, 0.02161821  , 0.005208821 , 920.4494    , 30.0880356  , 803.065857  , 2.2         , 3           , 40          , 0           , 0
-0.0387616456, -0.20397827 , -9.822343   , 0.000164927667, 0.0130909691, 0.0023027407, 0.0216404   , 0.0214882437, 0.00523465732, 920.4494    , 30.0880356  , 803.0554    , 2.21        , 3           , 41          , 0           , 0
-0.0388547778, -0.199303031, -9.81189251 , 0.000618432241, 0.0131436344, 0.001903657 , 0.0216470547, 0.0216192342, 0.00525653875, 920.4494    , 30.0880356  , 803.0559    , 2.22        , 3           , 42          , 0           , 0
-0.0349245965, -0.197980553, -9.826385   , 0.000713229354, 0.0132009815, 0.00269070663, 0.021654835 , 0.0217506327, 0.00528630428, 920.44      , 30.0870247  , 803.0564    , 2.23        , 3           , 255         , 0           , 0
-0.042449683, -0.201947972, -9.817369   , 0.000548212149, 0.0127790747, 0.00290897419, 0.0216610134, 0.0218777563, 0.005318161 , 920.44      , 30.0870247  , 803.0569    , 2.24        , 3           , 255         , 0           , 0
-0.0373460352, -0.210534766, -9.823292   , 0.0007424877, 0.0134350471, 0.00203766022, 0.0216689464, 0.0220116265, 0.00534144836, 920.44      , 30.0870247  , 803.0574    , 2.25        , 3           , 255         , 0           , 0
-0.0386498868, -0.2079457  , -9.817518   , 0.000381439546, 0.0134561146, 0.00156777084, 0.0216731727, 0.0221458115, 0.00536004128, 920.44      , 30.0870247  , 803.057861  , 2.26        , 3           , 255         , 0           , 0
-0.0420212746, -0.206362441, -9.81794548 , 0.0008823427, 0.0135310153, 0.00146244094, 0.0216823854, 0.0222807713, 0.00537759857, 920.44      , 30.0870247  , 803.05835   , 2.27        , 3           , 255         , 0           , 0
-0.04215166 , -0.210814163, -9.819959   , 0.000527146156, 0.0132097593, 0.00120613759, 0.0216879882, 0.02241257  , 0.00539252441, 920.44      , 30.0870247  , 803.058838  , 2.28        , 3           , 255         , 0           , 0
-0.0437349081, -0.2101995  , -9.817761   , -0.00039566253, 0.0126245907, 0.0017058705, 0.0216844752, 0.0225384124, 0.00541232154, 920.44      , 30.0870247  , 803.0593    , 2.29        , 3           , 255         , 0           , 0
-0.04440546 , -0.206474215, -9.82156    , 0.0003603735, 0.0131963   , 0.00192238227, 0.02168858  , 0.0226699281, 0.005434407 , 920.44      , 30.0870247  , 803.0598    , 2.3         , 3           , 255         , 0           , 0
-0.0470504165, -0.207815334, -9.827204   , 0.0005084017, 0.013293867 , 0.001723441 , 0.0216860641, 0.0225183368, 0.00545434374, 920.44      , 30.0870247  , 803.0621    , 2.31        , 3           , 255         , 0           , 0
-0.0381842256, -0.2027303  , -9.833369   , 9.059229E-05, 0.0135700656, 0.00127227709, 0.0216873214, 0.0226537287, 0.005470009 , 920.44      , 30.0870247  , 803.0626    , 2.32        , 3           , 255         , 0           , 0
-0.0373460352, -0.2065301  , -9.813755   , -6.62325256E-05, 0.013135286 , 0.00151570665, 0.021687068 , 0.0227847155, 0.00548801525, 920.4497    , 30.085743   , 803.0632    , 2.33        , 3           , 255         , 0           , 0
-0.039562583, -0.207424164, -9.82187748 , 0.000453981134, 0.0130516067, 0.00162103679, 0.0216920432, 0.0229148511, 0.00550705567, 920.4497    , 30.085743   , 803.0637    , 2.34        , 3           , 255         , 0           , 0
-0.0363588333, -0.211857274, -9.815321   , -9.666122E-05, 0.0127443941, 0.00186095515, 0.0216915663, 0.0230418555, 0.00552843  , 920.4497    , 30.085743   , 803.0643    , 2.35        , 3           , 255         , 0           , 0
-0.0476278365, -0.2066046  , -9.819231   , -0.000203746822, 0.0133348284, 0.00203592051, 0.021690065 , 0.0231747255, 0.005551683 , 920.4497    , 30.085743   , 803.0648    , 2.36        , 3           , 255         , 0           , 0
-0.04399568 , -0.2040714  , -9.81938    , 0.0007266691, 0.0135443183, 0.00216816831, 0.0216979049, 0.0233096648, 0.0055763023, 920.4497    , 30.085743   , 803.065369  , 2.37        , 3           , 255         , 0           , 0
-0.037252903, -0.211205333, -9.818914   , 0.00091509294, 0.0130018685, 0.00223838841, 0.02170764  , 0.0234391615, 0.00560150854, 920.4497    , 30.085743   , 803.0659    , 2.38        , 3           , 255         , 0           , 0
-0.0469572842, -0.213403255, -9.822231   , 0.000434670656, 0.01325232  , 0.002426812 , 0.0217126235, 0.0235711224, 0.00562865473, 920.4497    , 30.085743   , 803.066467  , 2.39        , 3           , 255         , 0           , 0
-0.0441819429, -0.2137013  , -9.8230505  , 0.0009010489, 0.0132294986, 0.00226413575, 0.0217222385, 0.0237028953, 0.00565417  , 920.4497    , 30.085743   , 803.067     , 2.4         , 3           , 255         , 0           , 0
-0.0433251262, -0.209398553, -9.82441    , 0.000121595011, 0.01311813  , 0.00189023  , 0.0217191558, 0.0235523488, 0.00567581039, 920.4497    , 30.085743   , 803.0556    , 2.41        , 3           , 255         , 0           , 0
-0.0392831862, -0.209901482, -9.824969   , 0.000482058036, 0.0125429109, 0.002790217 , 0.0217247   , 0.0236771386, 0.005706438 , 920.4497    , 30.085743   , 803.0561    , 2.42        , 3           , 255         , 0           , 0
-0.0321492553, -0.202972442, -9.817034   , 0.000342203 , 0.0135230683, 0.00258716429, 0.0217288043, 0.02381177  , 0.00573524833, 920.458252  , 30.0879688  , 803.0566    , 2.43        , 3           , 255         , 0           , 0
-0.036470592, -0.212918952, -9.823814   , 0.001044989 , 0.013013971 , 0.001973909 , 0.0217397921, 0.0239414461, 0.0057578166, 920.458252  , 30.0879688  , 803.057068  , 2.44        , 3           , 255         , 0           , 0
-0.0323168933, -0.206809476, -9.822622   , 0.0006260092, 0.0126482416, 0.00230920967, 0.0217466746, 0.0240673963, 0.005783661 , 920.458252  , 30.0879688  , 803.057556  , 2.45        , 3           , 255         , 0           , 0
-0.0455230474, -0.200923532, -9.816848   , 0.000163727047, 0.0132211214, 0.00251928484, 0.02174899  , 0.0241990276, 0.0058117304, 920.458252  , 30.0879688  , 803.058044  , 2.46        , 3           , 255         , 0           , 0
-0.0400096178, -0.209491685, -9.817518   , -0.00012710107, 0.0128869908, 0.00209269812, 0.0217482932, 0.0243274085, 0.005835461 , 920.458252  , 30.0879688  , 803.058533  , 2.47        , 3           , 255         , 0           , 0
-0.0391341746, -0.19909814 , -9.81573    , 0.000484983844, 0.0133077251, 0.00202189269, 0.0217537   , 0.0244600084, 0.00585857546, 920.458252  , 30.0879688  , 803.059     , 2.48        , 3           , 255         , 0           , 0
-0.0432319939, -0.198800117, -9.818674   , -0.0004869789, 0.0131754773, 0.00207982445, 0.0217494126, 0.024591282 , 0.00588224176, 920.458252  , 30.0879688  , 803.0595    , 2.49        , 3           , 255         , 0           , 0
-0.0443682075, -0.201314688, -9.820964   , -0.000814672559, 0.0130163124, 0.00202306313, 0.0217418335, 0.02472097  , 0.005905303 , 920.458252  , 30.0879688  , 803.060059  , 2.5         , 3           , 255         , 0           , 0
-0.0367313623, -0.209007412, -9.827539   , 7.65135046E-05, 0.0128943371, 0.0026328254, 0.0217342712, 0.0245541558, 0.00593421469, 920.458252  , 30.0879688  , 803.0379    , 2.51        , 3           , 255         , 0           , 0
-0.0403821468, -0.202618554, -9.817556   , 0.000307069422, 0.0125449914, 0.00259478949, 0.0217380486, 0.024679007 , 0.005962891 , 920.458252  , 30.0879688  , 803.038269  , 2.52        , 3           , 255         , 0           , 0
-0.04125759 , -0.202991053, -9.822324   , 6.87861E-06 , 0.0128200194, 0.00212138915, 0.02173871  , 0.0248067118, 0.005986893 , 920.4794    , 30.08662    , 803.038635  , 2.53        , 3           , 255         , 0           , 0
-0.0377558172, -0.205077246, -9.824652   , 6.598049E-05, 0.0131354248, 0.00224954076, 0.02174     , 0.0249375384, 0.006012246 , 920.4794    , 30.08662    , 803.039     , 2.54        , 3           , 255         , 0           , 0
-0.0410713255, -0.199973583, -9.81668    , -0.00037582076, 0.0128498627, 0.00268666074, 0.0217369851, 0.0250654221, 0.00604190771, 920.4794    , 30.08662    , 803.0394    , 2.55        , 3           , 255         , 0           , 0
-0.04729256 , -0.210702419, -9.822566   , 0.000342179439, 0.0124308839, 0.0021249   , 0.0217410084, 0.0251892339, 0.00606586132, 920.4794    , 30.08662    , 803.039856  , 2.56        , 3           , 255         , 0           , 0
-0.0374019146, -0.210292652, -9.827688   , 0.000234508654, 0.0129276905, 0.00147126825, 0.0217437986, 0.0253181569, 0.006083387 , 920.4794    , 30.08662    , 803.0403    , 2.57        , 3           , 255         , 0           , 0
-0.04241243 , -0.196117908, -9.820536   , 0.000287758856, 0.01267841  , 0.00189317379, 0.0217472222, 0.0254444927, 0.006105076 , 920.4794    , 30.08662    , 803.0407    , 2.58        , 3           , 255         , 0           , 0
-0.0382959843, -0.201594085, -9.820909   , 0.000129763735, 0.0129780145, 0.00275454018, 0.0217492953, 0.0255736429, 0.00613544742, 920.4794    , 30.08662    , 803.041138  , 2.59        , 3           , 255         , 0           , 0
-0.0396184623, -0.2063252  , -9.827036   , -1.24319E-05, 0.0133724166, 0.00187093753, 0.0217497237, 0.0257069245, 0.00615706667, 920.4794    , 30.08662    , 803.041565  , 2.6         , 3           , 255         , 0           , 0
-0.0428967178, -0.202674434, -9.825714   , -0.000333713717, 0.0129121989, 0.002211523 , 0.0217378736, 0.025548866 , 0.00618175836, 920.4794    , 30.08662    , 802.9929    , 2.61        , 3           , 255         , 0           , 0
-0.0371970236, -0.21673739 , -9.827725   , 0.000616012665, 0.0134324152, 0.00275455834, 0.0217448138, 0.02568256  , 0.006212227 , 920.4794    , 30.08662    , 802.993042  , 2.62        , 3           , 255         , 0           , 0
-0.03285706 , -0.208560377, -9.818728   , 0.0007628897, 0.0128057   , 0.00222732266, 0.0217530932, 0.0258101   , 0.00623728754, 920.4412    , 30.0868225  , 802.993164  , 2.63        , 3           , 255         , 0           , 0
-0.036470592, -0.213235617, -9.819846   , 0.000187670288, 0.013205369 , 0.00208688225, 0.0217555817, 0.0259416625, 0.00626103161, 920.4412    , 30.0868225  , 802.9933    , 2.64        , 3           , 255         , 0           , 0
-0.0383891165, -0.212416053, -9.817108   , 0.000701447134, 0.01365946  , 0.00188558479, 0.0217631646, 0.0260778144, 0.006282862 , 920.4412    , 30.0868225  , 802.9934    , 2.65        , 3           , 255         , 0           , 0
-0.0407733023, -0.2134964  , -9.822883   , 0.000461528543, 0.0128864525, 0.00152804761, 0.02176825  , 0.026206309 , 0.00630094949, 920.4412    , 30.0868225  , 802.9935    , 2.66        , 3           , 255         , 0           , 0
-0.05286187 , -0.208057448, -9.822939   , 0.000522386 , 0.013530137 , 0.00198447821, 0.0217740722, 0.0263411384, 0.006323743 , 920.4412    , 30.0868225  , 802.993652  , 2.67        , 3           , 255         , 0           , 0
-0.0369176269, -0.204239041, -9.82148552 , -0.0002828042, 0.0135629056, 0.00200671447, 0.0217718538, 0.0264763   , 0.00634676637, 920.4412    , 30.0868225  , 802.9938    , 2.68        , 3           , 255         , 0           , 0
-0.03853813 , -0.206772238, -9.823628   , 7.005167E-05, 0.0136331264, 0.00180190592, 0.0217731073, 0.026612198 , 0.00636775559, 920.4412    , 30.0868225  , 802.9939    , 2.69        , 3           , 255         , 0           , 0
-0.0395998359, -0.205822274, -9.823479   , 0.000291244854, 0.01347162  , 0.002009055 , 0.0217766371, 0.0267464444, 0.00639078254, 920.4412    , 30.0868225  , 802.994     , 2.7         , 3           , 255         , 0           , 0
-0.03868714 , -0.202115625, -9.817164   , 8.349884E-05, 0.0130850682, 0.00198625354, 0.0217734668, 0.0265815519, 0.00641337549, 920.4412    , 30.0868225  , 803.0039    , 2.71        , 3           , 255         , 0           , 0
-0.032838434, -0.2095476  , -9.8259     , -8.03479852E-05, 0.0130523   , 0.00205764384, 0.021773288 , 0.0267115962, 0.00643679732, 920.4412    , 30.0868225  , 803.00415   , 2.72        , 3           , 255         , 0           , 0
-0.0421702862, -0.213701278, -9.823608   , 0.0001718591, 0.0133337639, 0.0019347585, 0.0217756052, 0.0268444829, 0.00645904941, 920.439     , 30.0877666  , 803.0044    , 2.73        , 3           , 255         , 0           , 0
-0.0476278365, -0.208523124, -9.836107   , 0.000156644732, 0.0132594481, 0.00131506647, 0.0217776019, 0.0269767549, 0.00647508958, 920.439     , 30.0877666  , 803.004639  , 2.74        , 3           , 255         , 0           , 0
-0.0434927642, -0.205934048, -9.823442   , 0.000601957 , 0.013294559 , 0.001866879 , 0.0217842031, 0.027109256 , 0.00649665669, 920.439     , 30.0877666  , 803.0049    , 2.75        , 3           , 255         , 0           , 0
-0.0430829823, -0.206567332, -9.821543   , 0.0008354387, 0.0131195942, 0.002146004 , 0.0217932183, 0.0272399541, 0.00652097864, 920.439     , 30.0877666  , 803.0051    , 2.76        , 3           , 255         , 0           , 0
-0.04550442 , -0.205505639, -9.813067   , -7.449631E-05, 0.013016019 , 0.001943536 , 0.0217930842, 0.0273696575, 0.006543253 , 920.439     , 30.0877666  , 803.0054    , 2.77        , 3           , 255         , 0           , 0
-0.05060807 , -0.207610413, -9.818617   , -3.8801114E-05, 0.0126947621, 0.00166909257, 0.02179323  , 0.0274962038, 0.006562713 , 920.439     , 30.0877666  , 803.0056    , 2.78        , 3           , 255         , 0           , 0
-0.03779307 , -0.211559251, -9.821001   , 0.000252612168, 0.0127977515, 0.00215887767, 0.0217964314, 0.0276236814, 0.0065870937, 920.439     , 30.0877666  , 803.005859  , 2.79        , 3           , 255         , 0           , 0
-0.0335089862, -0.20833686 , -9.818785   , 0.0007230866, 0.0124109564, 0.002186966 , 0.0218043458, 0.027747279 , 0.0066116727, 920.439     , 30.0877666  , 803.0061    , 2.8         , 3           , 255         , 0           , 0
-0.0340491533, -0.208616257, -9.825267   , 0.001724291 , 0.0131771043, 0.00212261872, 0.0218161754, 0.0275709443, 0.006635609 , 920.439     , 30.0877666  , 803.0177    , 2.81        , 3           , 255         , 0           , 0
-0.0361353159, -0.204332158, -9.818878   , -8.15351159E-05, 0.0131613044, 0.00267501641, 0.02181618  , 0.0277019441, 0.006665235 , 920.439     , 30.0877666  , 803.018     , 2.82        , 3           , 255         , 0           , 0
-0.0370852649, -0.202599913, -9.817202   , 0.000433997222, 0.01307119  , 0.00297403662, 0.02182142  , 0.0278319679, 0.00669783074, 920.4385    , 30.0908     , 803.0183    , 2.83        , 3           , 255         , 0           , 0
-0.03533438 , -0.2018921  , -9.818077   , 0.0003058456, 0.01331345  , 0.00214661029, 0.0218251627, 0.0279646013, 0.006722207 , 920.4385    , 30.0908     , 803.0187    , 2.84        , 3           , 255         , 0           , 0
-0.0464916229, -0.207126141, -9.81558    , 0.000376065669, 0.01347671  , 0.00251760636, 0.0218297113, 0.0280987788, 0.00675032847, 920.4385    , 30.0908     , 803.019043  , 2.85        , 3           , 255         , 0           , 0
-0.0473856926, -0.2032146  , -9.82265949 , -0.000322038832, 0.0128950551, 0.0025181917, 0.02182728  , 0.0282271467, 0.00677832961, 920.4385    , 30.0908     , 803.0194    , 2.86        , 3           , 255         , 0           , 0
-0.0388547778, -0.200960785, -9.821729   , -0.000336668018, 0.013294722 , 0.00225077  , 0.0218246337, 0.0283595733, 0.00680374354, 920.4385    , 30.0908     , 803.0198    , 2.87        , 3           , 255         , 0           , 0
-0.0350363553, -0.202823445, -9.822603   , 0.000357925484, 0.0134591544, 0.00167789159, 0.02182877  , 0.028493762 , 0.00682346337, 920.4385    , 30.0908     , 803.020142  , 2.88        , 3           , 255         , 0           , 0
-0.029578805, -0.212006286, -9.830446   , 0.000103377759, 0.0132724866, 0.00106112543, 0.0218301881, 0.0286262184, 0.006836974 , 920.4385    , 30.0908     , 803.0205    , 2.89        , 3           , 255         , 0           , 0
-0.0360421836, -0.209901482, -9.822194   , -2.94552228E-05, 0.0133070126, 0.00201143674, 0.0218305569, 0.0287588164, 0.00685999775, 920.4385    , 30.0908     , 803.0209    , 2.9         , 3           , 255         , 0           , 0
-0.0402890146, -0.207740828, -9.821765   , 0.000130852874, 0.0129437223, 0.00131101417, 0.0218231715, 0.0285735969, 0.00687567331, 920.4385    , 30.0908     , 803.031     , 2.91        , 3           , 255         , 0           , 0
-0.0327453  , -0.203382209, -9.820051   , 0.000180006929, 0.0130279865, 0.00184819766, 0.02182558  , 0.0287034437, 0.00689700246, 920.4385    , 30.0908     , 803.031433  , 2.92        , 3           , 255         , 0           , 0
-0.0453926623, -0.205803677, -9.821896   , 0.000136119386, 0.0128518511, 0.00204774  , 0.0218276139, 0.0288314819, 0.00692028925, 920.4382    , 30.0844631  , 803.03186   , 2.93        , 3           , 255         , 0           , 0
-0.03617257 , -0.2139248  , -9.823031   , 0.00083832  , 0.0128717478, 0.00189676671, 0.0218366273, 0.028959753 , 0.00694207149, 920.4382    , 30.0844631  , 803.0323    , 2.94        , 3           , 255         , 0           , 0
-0.03909692 , -0.214446336, -9.827315   , 0.000531692465, 0.0128682358, 0.00223908969, 0.0218426753, 0.02908791  , 0.00696727727, 920.4382    , 30.0844631  , 803.0327    , 2.95        , 3           , 255         , 0           , 0
-0.0406056643, -0.207684949, -9.828769   , -8.390349E-05, 0.01318364  , 0.00219169119, 0.0218425635, 0.0292192344, 0.00699207839, 920.4382    , 30.0844631  , 803.033142  , 2.96        , 3           , 255         , 0           , 0
-0.0428967178, -0.21182    , -9.819678   , 0.000287092524, 0.0131432638, 0.00148071279, 0.02184595  , 0.0293503068, 0.007009759 , 920.4382    , 30.0844631  , 803.033569  , 2.97        , 3           , 255         , 0           , 0
-0.0339373946, -0.199377537, -9.820387   , 0.000188199279, 0.0131614041, 0.00200443738, 0.0218485035, 0.0294814445, 0.007032683 , 920.4382    , 30.0844631  , 803.034058  , 2.98        , 3           , 255         , 0           , 0
-0.0471808  , -0.203736141, -9.822008   , 0.000253738 , 0.0127880676, 0.0020611987, 0.0218517333, 0.0296088438, 0.00705609471, 920.4382    , 30.0844631  , 803.034546  , 2.99        , 3           , 255         , 0           , 0
-0.0460632145, -0.2061203  , -9.828098   , 0.0006855915, 0.013049053 , 0.0022168532, 0.0218593329, 0.0297388174, 0.00708112  , 920.4382    , 30.0844631  , 803.035034  , 3           , 3           , 0           , 7.00223637  , 300
-0.0429712236, -0.208038852, -9.821616   , -0.000151218483, 0.0130028939, 0.00251765247, 0.021851765 , 0.0295576882, 0.00710894028, 920.4382    , 30.0844631  , 803.0437    , 3.01        , 3           , 1           , 0           , 0
-0.0495277345, -0.213123843, -9.82253    , -0.000617011567, 0.0133311721, 0.00174230593, 0.0218462   , 0.0296905786, 0.00712928036, 920.4382    , 30.0844631  , 803.04425   , 3.02        , 3           , 2           , 0           , 0
-0.0480003655, -0.203792   , -9.822194   , 0.0003918167, 0.0125991274, 0.00256271032, 0.0218509622, 0.0298159812, 0.00715766475, 920.436     , 30.0883064  , 803.0448    , 3.03        , 3           , 3           , 0           , 0
-0.04839152 , -0.212322921, -9.819418   , 0.000920222665, 0.0127980849, 0.0024158333, 0.0218609646, 0.0299433935, 0.007184627 , 920.436     , 30.0883064  , 803.045349  , 3.04        , 3           , 4           , 0           , 0
-0.0439398  , -0.2127327  , -9.818245   , 0.000485443481, 0.0130713582, 0.00243338849, 0.0218666382, 0.0300735477, 0.007211823 , 920.436     , 30.0883064  , 803.0459    , 3.05        , 3           , 5           , 0           , 0
-0.0338442624, -0.209268183, -9.815079   , 0.0005936994, 0.0132527594, 0.00202494161, 0.0218732748, 0.0302055981, 0.007234977 , 920.436     , 30.0883064  , 803.046448  , 3.06        , 3           , 6           , 0           , 0
-0.0355578959, -0.2091378  , -9.823312   , 0.0008663873, 0.0133896889, 0.002621227 , 0.021882819 , 0.0303388834, 0.00726412563, 920.436     , 30.0883064  , 803.047     , 3.07        , 3           , 7           , 0           , 0
-0.0383332372, -0.208895653, -9.82454    , 0.00114843785, 0.0134324059, 0.00197929866, 0.0218949951, 0.0304727387, 0.007286863 , 920.436     , 30.0883064  , 803.047546  , 3.08        , 3           , 8           , 5           , 5
-0.032056123, -0.212080762, -9.814948   , 0.00142697745, 0.0136167333, 0.00242578122, 0.0219100956, 0.03060834  , 0.00731410924, 920.436     , 30.0883064  , 803.0481    , 3.09        , 3           , 9           , 5           , 0.1
-0.037457794, -0.209230945, -9.822081   , 0.0006036472, 0.0128542623, 0.00290386286, 0.0219171122, 0.0307362117, 0.007345972 , 920.436     , 30.0883064  , 803.048645  , 3.1         , 3           , 10          , 0.1         , 0.1
-0.0417046249, -0.202618554, -9.821543   , 0.0007358809, 0.0131830489, 0.00229824148, 0.02192028  , 0.0305287577, 0.00737169851, 920.436     , 30.0883064  , 803.0587    , 3.11        , 3           , 11          , 0.00931034  , 0.00931041
-0.045709312, -0.207480043, -9.815898   , 0.0006890676, 0.0128377993, 0.0023321812, 0.0219279714, 0.0306565948, 0.00739784073, 920.436     , 30.0883064  , 803.0593    , 3.12        , 3           , 12          , 0.174645633 , 0
-0.04220754 , -0.2048351  , -9.821057   , 0.000343233754, 0.0130829848, 0.00157731539, 0.0219319742, 0.0307870414, 0.007416487 , 920.4471    , 30.0864849  , 803.059937  , 3.13        , 3           , 13          , 0           , 0
-0.04015863 , -0.20718202 , -9.819623   , 1.67104281E-05, 0.01367693  , 0.00181957474, 0.0219328   , 0.03092338  , 0.007437688 , 920.4471    , 30.0864849  , 803.060547  , 3.14        , 3           , 14          , 2.59421654E-07, 1.36425961E-05
-0.0381469727, -0.207219273, -9.818896   , -3.712496E-05, 0.0131063918, 0.00104773918, 0.0219328385, 0.0310541745, 0.00745104253, 920.4471    , 30.0864849  , 803.061157  , 3.15        , 3           , 15          , 0           , -2.89712347E-07
-0.03810972 , -0.201351956, -9.81694    , -1.25479346E-05, 0.0130513851, 0.00192958617, 0.021933401 , 0.0311842337, 0.007473207 , 920.4471    , 30.0864849  , 803.0618    , 3.16        , 3           , 16          , 0           , 4.203895E-45
-0.03222376 , -0.203494   , -9.820498   , 2.78286061E-05, 0.013380249 , 0.001596626 , 0.02193427  , 0.0313176438, 0.007492112 , 920.4471    , 30.0864849  , 803.0625    , 3.17        , 3           , 20          , 0           , 0
-0.0310316682, -0.207647681, -9.823758   , 0.0004813332, 0.0129325958, 0.0016487058, 0.0219396912, 0.0314465724, 0.007511441 , 920.4471    , 30.0864849  , 803.0632    , 3.18        , 3           , 21          , 0           , 0
-0.0407546759, -0.20410867 , -9.829271   , 1.6710439E-05, 0.0131760258, 0.002549278 , 0.0219407529, 0.0315777361, 0.007539832 , 920.4471    , 30.0864849  , 803.063843  , 3.19        , 3           , 22          , 0           , 0
-0.03738329 , -0.214781612, -9.827148   , 0.0009816512, 0.0130946878, 0.002146683 , 0.0219513383, 0.0317081735, 0.00756417867, 920.4471    , 30.0864849  , 803.0645    , 3.2         , 3           , 40          , 0           , 0
-0.0430643559, -0.206548735, -9.818208   , -0.000197491419, 0.0128716286, 0.00217772415, 0.02194094  , 0.031500984 , 0.007588498 , 920.4471    , 30.0864849  , 803.0566    , 3.21        , 3           , 41          , 0           , 0
-0.03842637 , -0.207759455, -9.823143   , 0.000112062029, 0.0129822269, 0.00235151872, 0.02194289  , 0.0316302553, 0.00761486869, 920.4471    , 30.0864849  , 803.0572    , 3.22        , 3           , 42          , 0           , 0
-0.0339373946, -0.204741955, -9.822119   , 0.000622913 , 0.0131969824, 0.00228656526, 0.0219499413, 0.0317616835, 0.007640637 , 920.4799    , 30.0856762  , 803.0578    , 3.23        , 3           , 255         , 0           , 0
-0.037830323, -0.199712828, -9.827278   , 0.00107934349, 0.0129418494, 0.00252882461, 0.02196163  , 0.03189052  , 0.007668773 , 920.4799    , 30.0856762  , 803.0584    , 3.24        , 3           , 255         , 0           , 0
-0.04336238 , -0.20237641 , -9.822119   , -0.000414588518, 0.0130863842, 0.002411206 , 0.02195835  , 0.03202082  , 0.007695767 , 920.4799    , 30.0856762  , 803.059     , 3.25        , 3           , 255         , 0           , 0
-0.04287809 , -0.20621343 , -9.819157   , -0.0004842234, 0.0132086854, 0.00231933477, 0.0219543464, 0.0321523622, 0.00772186834, 920.4799    , 30.0856762  , 803.059631  , 3.26        , 3           , 255         , 0           , 0
-0.0423379242, -0.218767673, -9.812638   , 0.00032740357, 0.0129915876, 0.0020963857, 0.0219583884, 0.0322817825, 0.00774569064, 920.4799    , 30.0856762  , 803.060242  , 3.27        , 3           , 255         , 0           , 0
-0.04004687 , -0.210274011, -9.824261   , 8.163334E-05, 0.0132660316, 0.00241822773, 0.02196008  , 0.0324138738, 0.00777279446, 920.4799    , 30.0856762  , 803.060852  , 3.28        , 3           , 255         , 0           , 0
-0.0391341746, -0.2066046  , -9.819735   , 0.000290538039, 0.0132391136, 0.00205308339, 0.0219637454, 0.0325457752, 0.007796239 , 920.4799    , 30.0856762  , 803.061462  , 3.29        , 3           , 255         , 0           , 0
-0.0376626849, -0.20025298 , -9.822827   , 0.0006328609, 0.0132227289, 0.00134912727, 0.0219706073, 0.03267767  , 0.007812639 , 920.4799    , 30.0856762  , 803.062134  , 3.3         , 3           , 255         , 0           , 0
-0.04466623 , -0.19825995 , -9.825472   , 0.000456694135, 0.0131634306, 0.00184069667, 0.0219666734, 0.032463707 , 0.007833647 , 920.4799    , 30.0856762  , 803.0079    , 3.31        , 3           , 255         , 0           , 0
-0.0521540642, -0.205207616, -9.823572   , 0.000319179817, 0.01342266  , 0.00193256792, 0.0219705887, 0.03259747  , 0.007855927 , 920.4799    , 30.0856762  , 803.0082    , 3.32        , 3           , 255         , 0           , 0
-0.0449083745, -0.203046948, -9.823385   , 0.0006176151, 0.01299022  , 0.00184245221, 0.0219774637, 0.0327269323, 0.007877212 , 920.437866  , 30.0892487  , 803.0085    , 3.33        , 3           , 255         , 0           , 0
-0.04939735 , -0.205729157, -9.816401   , 0.00135434058, 0.013104328 , 0.002205256 , 0.0219918247, 0.03285745  , 0.007902154 , 920.437866  , 30.0892487  , 803.0088    , 3.34        , 3           , 255         , 0           , 0
-0.0246427953, -0.214148313, -9.826161   , 0.000498241 , 0.0131599195, 0.002668123 , 0.02199778  , 0.0329884328, 0.007931737 , 920.437866  , 30.0892487  , 803.0091    , 3.35        , 3           , 255         , 0           , 0
-0.02482906 , -0.204443932, -9.827464   , -0.00011911046, 0.0131335864, 0.00284308824, 0.021997625 , 0.03311911  , 0.007963067 , 920.437866  , 30.0892487  , 803.0094    , 3.36        , 3           , 255         , 0           , 0
-0.0359304249, -0.206120327, -9.815376   , -0.000366051, 0.0133752609, 0.00162769575, 0.0219946019, 0.0332524627, 0.007982292 , 920.437866  , 30.0892487  , 803.0097    , 3.37        , 3           , 255         , 0           , 0
-0.045709312, -0.20833686 , -9.815394   , 0.000103253093, 0.0127725387, 0.00184128177, 0.0219963435, 0.03337975  , 0.008003522 , 920.437866  , 30.0892487  , 803.01      , 3.38        , 3           , 255         , 0           , 0
-0.04529953 , -0.211708263, -9.812265   , 0.00034843816, 0.012508044 , 0.001918524 , 0.0220005624, 0.03350438  , 0.00802546553, 920.437866  , 30.0892487  , 803.0103    , 3.39        , 3           , 255         , 0           , 0
-0.04576519 , -0.203195959, -9.817109   , 0.00130226067, 0.0127298217, 0.00293554482, 0.0220146645, 0.03363099  , 0.00805763248, 920.437866  , 30.0892487  , 803.0106    , 3.4         , 3           , 255         , 0           , 0
-0.0387989  , -0.205375239, -9.8213     , 0.000444955484, 0.0132649438, 0.00189573353, 0.0220099036, 0.0334030576, 0.008079185 , 920.437866  , 30.0892487  , 803.0233    , 3.41        , 3           , 255         , 0           , 0
-0.0267289579, -0.203959629, -9.828806   , 0.000165245612, 0.01351364  , 0.00176933757, 0.0220122486, 0.03353778  , 0.00809986  , 920.437866  , 30.0892487  , 803.023743  , 3.42        , 3           , 255         , 0           , 0
-0.0345148146, -0.208746642, -9.815488   , 0.00102544145, 0.013047846 , 0.00159554277, 0.0220231339, 0.0336678624, 0.008118694 , 920.427856  , 30.0858784  , 803.0242    , 3.43        , 3           , 255         , 0           , 0
-0.03932044 , -0.200942159, -9.816625   , 3.88494736E-05, 0.0127020124, 0.00206133584, 0.0220243149, 0.0337943956, 0.008142113 , 920.427856  , 30.0858784  , 803.0246    , 3.44        , 3           , 255         , 0           , 0
-0.03984198 , -0.208057448, -9.823702   , -9.573899E-05, 0.0129875736, 0.002123949 , 0.0220241733, 0.0339237638, 0.00816622  , 920.427856  , 30.0858784  , 803.025     , 3.45        , 3           , 255         , 0           , 0
-0.0383891165, -0.206232071, -9.825044   , 0.00108746928, 0.0127295153, 0.00165522983, 0.0220357068, 0.03405066  , 0.008185584 , 920.427856  , 30.0858784  , 803.025452  , 3.46        , 3           , 255         , 0           , 0
-0.03989786 , -0.201649949, -9.828247   , 0.000621676038, 0.0128980428, 0.00230710628, 0.0220428072, 0.03417909  , 0.008211506 , 920.427856  , 30.0858784  , 803.0259    , 3.47        , 3           , 255         , 0           , 0
-0.03837049 , -0.206138939, -9.823627   , 0.0004601699, 0.0127213225, 0.00203851447, 0.0220482051, 0.0343058258, 0.008234702 , 920.427856  , 30.0858784  , 803.0263    , 3.48        , 3           , 255         , 0           , 0
-0.03507361 , -0.2086535  , -9.828955   , 0.000820632849, 0.0124269836, 0.002585646 , 0.0220573954, 0.0344294831, 0.008263309 , 920.427856  , 30.0858784  , 803.026733  , 3.49        , 3           , 255         , 0           , 0
-0.031683594, -0.212043524, -9.835306   , 0.00087797927, 0.0132087665, 0.00244520558, 0.0220671222, 0.034561    , 0.008290684 , 920.427856  , 30.0858784  , 803.027161  , 3.5         , 3           , 255         , 0           , 0
-0.0391714275, -0.2044812  , -9.819902   , -0.00062534865, 0.0130008161, 0.00181325432, 0.0220524743, 0.0343635753, 0.008311379 , 920.427856  , 30.0858784  , 803.0521    , 3.51        , 3           , 255         , 0           , 0
-0.0446289778, -0.204127282, -9.830147   , -0.000209294769, 0.0129580991, 0.00212631887, 0.0220512133, 0.03449265  , 0.00833550747, 920.427856  , 30.0858784  , 803.052734  , 3.52        , 3           , 255         , 0           , 0
-0.0363960862, -0.207703546, -9.817388   , 0.000563711161, 0.0128773451, 0.00199933746, 0.0220576413, 0.0346209556, 0.008358349 , 920.5007    , 30.0858116  , 803.053345  , 3.53        , 3           , 255         , 0           , 0
-0.0317581  , -0.205803663, -9.824      , 0.0008211847, 0.013078643 , 0.00193789508, 0.0220666286, 0.03475127  , 0.00838062  , 920.5007    , 30.0858116  , 803.053955  , 3.54        , 3           , 255         , 0           , 0
-0.03254041 , -0.199899077, -9.820629   , 0.000627494359, 0.01265615  , 0.0021134452, 0.0220737346, 0.0348773375, 0.008404558 , 920.5007    , 30.0858116  , 803.054565  , 3.55        , 3           , 255         , 0           , 0
-0.0440701842, -0.204332158, -9.81912    , 0.000925929751, 0.0129926223, 0.00210759323, 0.0220838338, 0.03500676  , 0.008428509 , 920.5007    , 30.0858116  , 803.0552    , 3.56        , 3           , 255         , 0           , 0
-0.0385940075, -0.207759455, -9.817295   , 0.000416249037, 0.01322669  , 0.002386718 , 0.0220889337, 0.035138458 , 0.008455306 , 920.5007    , 30.0858116  , 803.0558    , 3.57        , 3           , 255         , 0           , 0
-0.0484474  , -0.1960434  , -9.817276   , 0.000908959832, 0.01298443  , 0.00154056645, 0.0220986679, 0.035267923 , 0.008473587 , 920.5007    , 30.0858116  , 803.0564    , 3.58        , 3           , 255         , 0           , 0
-0.04913658 , -0.202357769, -9.819809   , 0.00114536728, 0.0130511392, 0.00215265132, 0.0221109856, 0.03539793  , 0.008498007 , 920.5007    , 30.0858116  , 803.057068  , 3.59        , 3           , 255         , 0           , 0
-0.0484846532, -0.212881714, -9.822175   , 0.000194470616, 0.0129867718, 0.00184543862, 0.0221136846, 0.03552735  , 0.008519341 , 920.5007    , 30.0858116  , 803.057739  , 3.6         , 3           , 255         , 0           , 0
-0.04272908 , -0.206176192, -9.822864   , 0.000557814 , 0.0137669416, 0.00183376938, 0.02210821  , 0.0352965035, 0.008540314 , 920.5007    , 30.0858116  , 802.9748    , 3.61        , 3           , 255         , 0           , 0
-0.04015863 , -0.209826976, -9.812806   , 0.000438439951, 0.0136177223, 0.00172375783, 0.0221133083, 0.0354322679, 0.008560569 , 920.5007    , 30.0858116  , 802.9749    , 3.62        , 3           , 255         , 0           , 0
-0.03999099 , -0.206846759, -9.817779   , 0.000676603 , 0.01332514  , 0.00223460887, 0.0221209731, 0.03556498  , 0.008585873 , 920.4473    , 30.0886421  , 802.975037  , 3.63        , 3           , 255         , 0           , 0
-0.0455789268, -0.2094172  , -9.824391   , -0.000176570815, 0.0136270868, 0.00159677665, 0.0221198834, 0.0357008725, 0.008604864 , 920.4473    , 30.0886421  , 802.975159  , 3.64        , 3           , 255         , 0           , 0
-0.0426732  , -0.207982972, -9.821075   , -0.000507190358, 0.0130834654, 0.0016705076, 0.0221155174, 0.0358313024, 0.008624469 , 920.4473    , 30.0886421  , 802.9753    , 3.65        , 3           , 255         , 0           , 0
-0.0369362533, -0.207703561, -9.812937   , -5.66115377E-05, 0.0120067578, 0.00152655656, 0.0221155956, 0.035951    , 0.008642398 , 920.4473    , 30.0886421  , 802.9754    , 3.66        , 3           , 255         , 0           , 0
-0.0310130417, -0.2095662  , -9.822026   , 0.000268741482, 0.0132051809, 0.0025634726, 0.02211931  , 0.036082454 , 0.008670964 , 920.4473    , 30.0886421  , 802.9755    , 3.67        , 3           , 255         , 0           , 0
-0.0370293856, -0.215899184, -9.824094   , 6.74439143E-05, 0.0135439932, 0.00217258115, 0.02212088  , 0.036217384 , 0.008695695 , 920.4473    , 30.0886421  , 802.975647  , 3.68        , 3           , 255         , 0           , 0
-0.04010275 , -0.210627913, -9.816755   , 0.000381678721, 0.0134404181, 0.00121232169, 0.0221252441, 0.0363514721, 0.008710797 , 920.4473    , 30.0886421  , 802.9758    , 3.69        , 3           , 255         , 0           , 0
-0.04220754 , -0.2010539  , -9.819437   , 0.000186232879, 0.0128406212, 0.002060229 , 0.0221279636, 0.03647939  , 0.00873425  , 920.4473    , 30.0886421  , 802.976     , 3.7         , 3           , 255         , 0           , 0
-0.0281259418, -0.203344986, -9.822696   , 0.000393935334, 0.0126557257, 0.00182912487, 0.02212408  , 0.03622165  , 0.00875503849, 920.4473    , 30.0886421  , 802.980347  , 3.71        , 3           , 255         , 0           , 0
-0.0322051346, -0.207070261, -9.815638   , 3.62878654E-06, 0.0130191147, 0.00156872545, 0.02212479  , 0.03635145  , 0.008773613 , 920.4473    , 30.0886421  , 802.9805    , 3.72        , 3           , 255         , 0           , 0
-0.0336766243, -0.208839774, -9.81411    , -0.000145588856, 0.0130009726, 0.00183731737, 0.0221241135, 0.0364810228, 0.008794872 , 920.478638  , 30.08871    , 802.9807    , 3.73        , 3           , 255         , 0           , 0
-0.0250153244, -0.206977129, -9.81886    , 1.28812439E-06, 0.0130589055, 0.00139083457, 0.0221247356, 0.0366112664, 0.008811676 , 920.478638  , 30.08871    , 802.9809    , 3.74        , 3           , 255         , 0           , 0
-0.0332482159, -0.211577863, -9.825769   , -8.23907758E-05, 0.0132999942, 0.001832636 , 0.0221246984, 0.0367438346, 0.008832952 , 920.478638  , 30.08871    , 802.9811    , 3.75        , 3           , 255         , 0           , 0
-0.0316277146, -0.20602718 , -9.824894   , 0.000174497618, 0.0136031108, 0.001738424 , 0.0221271962, 0.0368794464, 0.008853356 , 920.478638  , 30.08871    , 802.981262  , 3.76        , 3           , 255         , 0           , 0
-0.0382773578, -0.206846744, -9.823069   , 0.0007953601, 0.0129670333, 0.001826199 , 0.0221359283, 0.03700868  , 0.008874495 , 920.478638  , 30.08871    , 802.981445  , 3.77        , 3           , 255         , 0           , 0
-0.03900379 , -0.205561519, -9.809565   , 0.00043255635, 0.01250007  , 0.00163250871, 0.0221409611, 0.03713329  , 0.008893595 , 920.478638  , 30.08871    , 802.9817    , 3.78        , 3           , 255         , 0           , 0
-0.0426359475, -0.201165676, -9.808447   , 0.000647897949, 0.0129518192, 0.002136923 , 0.0221483447, 0.0372623056, 0.008917844 , 920.478638  , 30.08871    , 802.981934  , 3.79        , 3           , 255         , 0           , 0
-0.03475696 , -0.203866512, -9.815786   , -0.0002444821, 0.0130846528, 0.00215740362, 0.0221468117, 0.0373926423, 0.00894232653, 920.478638  , 30.08871    , 802.9822    , 3.8         , 3           , 255         , 0           , 0
-0.0298023224, -0.214539453, -9.823423   , 0.000342395419, 0.0128879277, 0.00277655013, 0.02214006  , 0.0371220671, 0.00897254  , 920.478638  , 30.08871    , 802.9414    , 3.81        , 3           , 255         , 0           , 0
-0.02624467 , -0.2146326  , -9.825229   , -0.000156167051, 0.0125625739, 0.00226569921, 0.0221394487, 0.0372471623, 0.008997989 , 920.478638  , 30.08871    , 802.9414    , 3.82        , 3           , 255         , 0           , 0
-0.0432878733, -0.207982972, -9.828061   , 9.95510345E-05, 0.0134637319, 0.00242018327, 0.0221414566, 0.03738123  , 0.009025183 , 920.459167  , 30.0892487  , 802.9414    , 3.83        , 3           , 255         , 0           , 0
-0.04487112 , -0.21090731 , -9.822771   , -0.000107013009, 0.0134725105, 0.00234645233, 0.0221413784, 0.0375153981, 0.009051641 , 920.459167  , 30.0892487  , 802.9414    , 3.84        , 3           , 255         , 0           , 0
-0.0470131636, -0.207051635, -9.821318   , -3.620777E-05, 0.013617631 , 0.00158397935, 0.0221417267, 0.0376511961, 0.009070504 , 920.459167  , 30.0892487  , 802.9414    , 3.85        , 3           , 255         , 0           , 0
-0.05947426 , -0.211670965, -9.82148552 , 0.000402082485, 0.0132741369, 0.00199067034, 0.02214661  , 0.0377834626, 0.009093362 , 920.459167  , 30.0892487  , 802.9414    , 3.86        , 3           , 255         , 0           , 0
-0.0535137951, -0.202432245, -9.821523   , -0.000161433563, 0.0131816817, 0.00178703223, 0.0221457854, 0.03791485  , 0.009114161 , 920.459167  , 30.0892487  , 802.9414    , 3.87        , 3           , 255         , 0           , 0
-0.0562518835, -0.206939861, -9.82401848 , 0.000633223564, 0.0128358481, 0.00223175925, 0.0221530721, 0.0380426869, 0.009139332 , 920.459167  , 30.0892487  , 802.9414    , 3.88        , 3           , 255         , 0           , 0
-0.0446476042, -0.212378815, -9.824709   , 0.0003780906, 0.012855744 , 0.0021632947, 0.0221577864, 0.0381707251, 0.009163826 , 920.459167  , 30.0892487  , 802.9414    , 3.89        , 3           , 255         , 0           , 0
-0.0395998359, -0.2108328  , -9.81573    , -0.0004803497, 0.0131085366, 0.00201992877, 0.0221538674, 0.0383013338, 0.009186938 , 920.459167  , 30.0892487  , 802.9414    , 3.9         , 3           , 255         , 0           , 0
-0.0429153442, -0.206641838, -9.819418   , 0.000111229048, 0.0130499993, 0.00174610864, 0.0221489482, 0.038063053 , 0.00920704  , 920.459167  , 30.0892487  , 802.9341    , 3.91        , 3           , 255         , 0           , 0
-0.04420057 , -0.211484715, -9.827018   , 0.000214803644, 0.0127416169, 0.00226632226, 0.0221520681, 0.0381899327, 0.009232536 , 920.459167  , 30.0892487  , 802.934     , 3.92        , 3           , 255         , 0           , 0
-0.04099682 , -0.212155268, -9.826664   , 0.001262253 , 0.0134824375, 0.00172504259, 0.0221654661, 0.0383243449, 0.009252785 , 920.4239    , 30.08554    , 802.93396   , 3.93        , 3           , 255         , 0           , 0
-0.0442937  , -0.214763   , -9.823385   , 0.000225921816, 0.0128410943, 0.00233946787, 0.0221687332, 0.0384521969, 0.00927904  , 920.4239    , 30.08554    , 802.93396   , 3.94        , 3           , 255         , 0           , 0
-0.0471249223, -0.20287931 , -9.822827   , -0.000177258378, 0.0131740533, 0.00213348912, 0.022167895 , 0.03858344  , 0.009303307 , 920.4239    , 30.08554    , 802.93396   , 3.95        , 3           , 255         , 0           , 0
-0.03946945 , -0.208541751, -9.822884   , -0.000125763661, 0.01331742  , 0.00199129339, 0.0221675262, 0.03871614  , 0.009326184 , 920.4239    , 30.08554    , 802.93396   , 3.96        , 3           , 255         , 0           , 0
-0.0326707959, -0.203866512, -9.826552   , 0.0002815127, 0.0132893333, 0.00226281118, 0.0221713334, 0.0388484932, 0.009351772 , 920.4239    , 30.08554    , 802.93396   , 3.97        , 3           , 255         , 0           , 0
-0.03678724 , -0.208299592, -9.825751   , 0.000469936553, 0.0137334745, 0.00231020944, 0.02217705  , 0.03898529  , 0.009377932 , 920.4239    , 30.08554    , 802.93396   , 3.98        , 3           , 255         , 0           , 0
-0.0327266753, -0.20487234 , -9.828657   , -0.0002931215, 0.0127995471, 0.00209252746, 0.02217505  , 0.03911278  , 0.009401707 , 920.4239    , 30.08554    , 802.93396   , 3.99        , 3           , 255         , 0           , 0
-0.03196299 , -0.20237641 , -9.829663   , 0.00019490796, 0.0133917369, 0.00314582838, 0.0221783463, 0.0392459668, 0.009436153 , 920.4239    , 30.08554    , 802.93396   , 4           , 3           , 0           , 8.002236    , 400
-0.02650544 , -0.203363612, -9.825359   , 2.10778453E-05, 0.0127281714, 0.00261043734, 0.0221710242, 0.0390219837, 0.009464758 , 920.4239    , 30.08554    , 802.9779    , 4.01        , 3           , 1           , 0           , 0
-0.0276230276, -0.207480043, -9.820665   , -0.0001439393, 0.0130266054, 0.00265549519, 0.0221707337, 0.0391516276, 0.009494215 , 920.4239    , 30.08554    , 802.9782    , 4.02        , 3           , 2           , 0           , 0
-0.0428967178, -0.200234368, -9.822733   , -0.000948544359, 0.0131026758, 0.00211363053, 0.0221621934, 0.0392821543, 0.00951826852, 920.446533  , 30.08662    , 802.9785    , 4.03        , 3           , 3           , 0           , 0
-0.0458396971, -0.206585974, -9.821393   , -1.461735E-05, 0.013112626 , 0.0025794236, 0.0221631788, 0.0394126773, 0.009546985 , 920.446533  , 30.08662    , 802.9788    , 4.04        , 3           , 4           , 0           , 0
-0.0376999378, -0.208262354, -9.821169   , 0.000446494465, 0.0130283609, 0.002287425 , 0.0221686587, 0.039542418 , 0.009572761 , 920.446533  , 30.08662    , 802.9791    , 4.05        , 3           , 5           , 0           , 0
-0.03669411 , -0.202637166, -9.818244   , -0.000283794274, 0.0132372668, 0.00220023538, 0.02216681  , 0.03967427  , 0.009597712 , 920.446533  , 30.08662    , 802.979431  , 4.06        , 3           , 6           , 0           , 0
-0.03632158 , -0.214967877, -9.814482   , -0.000433597073, 0.013155927 , 0.001622675 , 0.0221632384, 0.0398054421, 0.009616867 , 920.446533  , 30.08662    , 802.979736  , 4.07        , 3           , 7           , 0           , 0
-0.0454299152, -0.205654651, -9.816997   , -0.000124628787, 0.0130798547, 0.00236993376, 0.0221630521, 0.0399356745, 0.00964348  , 920.446533  , 30.08662    , 802.980042  , 4.08        , 3           , 8           , 5           , 5
-0.0470131636, -0.214539453, -9.82713    , -0.000308371324, 0.0127351927, 0.002469412 , 0.02216107  , 0.0400624536, 0.009671011 , 920.446533  , 30.08662    , 802.980347  , 4.09        , 3           , 9           , 5           , 0.1
-0.03738329 , -0.206846759, -9.81193    , -0.00013984312, 0.0134227639, 0.00235120836, 0.022160735 , 0.0401961245, 0.009697514 , 920.446533  , 30.08662    , 802.980652  , 4.1         , 3           , 10          , 0.1         , 0.1
-0.0444985926, -0.2081506  , -9.81331    , -0.000115893519, 0.0136190923, 0.001932272 , 0.0221504234, 0.03993234  , 0.009719464 , 920.446533  , 30.08662    , 802.9859    , 4.11        , 3           , 11          , 0.008923853 , 0.008923951
-0.04928559 , -0.213067979, -9.828564   , 0.000558804255, 0.0129759936, 0.002006003 , 0.0221569315, 0.04006162  , 0.009742414 , 920.446533  , 30.08662    , 802.986267  , 4.12        , 3           , 12          , 0.174648076 , 0
-0.0440515578, -0.19986181 , -9.812974   , 0.00110008393, 0.013237563 , 0.00287848734, 0.0221692026, 0.0401933268, 0.00977415  , 920.447632  , 30.0879688  , 802.986633  , 4.13        , 3           , 13          , 0           , 0
-0.0510551035, -0.201072544, -9.825491   , 0.0006091286, 0.0137729915, 0.00224182545, 0.022176316 , 0.04033052  , 0.009799637 , 920.447632  , 30.0879688  , 802.987     , 4.14        , 3           , 14          , 6.155868E-07, 2.99335388E-05
-0.0501610339, -0.207219273, -9.82265949 , 0.000355751254, 0.012990036 , 0.00182928261, 0.0221807323, 0.0404599719, 0.009820823 , 920.447632  , 30.0879688  , 802.987366  , 4.15        , 3           , 15          , 0           , -6.35018353E-07
-0.0483728945, -0.213049367, -9.823479   , 0.0003645288, 0.013500303 , 0.00143897592, 0.02218508  , 0.0405946225, 0.00983822  , 920.447632  , 30.0879688  , 802.987732  , 4.16        , 3           , 16          , 0           , 4.203895E-45
-0.0366196036, -0.209435821, -9.821261   , 9.710733E-05, 0.0130901011, 0.00166192476, 0.0221868437, 0.040725112 , 0.009857754 , 920.447632  , 30.0879688  , 802.9881    , 4.17        , 3           , 20          , 0           , 0
-0.0397488475, -0.215321779, -9.832698   , 4.97087967E-05, 0.0131685138, 0.00268187118, 0.02218856  , 0.0408561677, 0.009887513 , 920.447632  , 30.0879688  , 802.988464  , 4.18        , 3           , 21          , 0           , 0
-0.04099682 , -0.211019069, -9.815843   , 0.0003370259, 0.0133481594, 0.00250398018, 0.0221930724, 0.0409890525, 0.009915531 , 920.447632  , 30.0879688  , 802.988831  , 4.19        , 3           , 22          , 0           , 0
-0.0438652933, -0.2127327  , -9.81835651 , 0.000474540226, 0.0131217   , 0.00206451979, 0.022198787 , 0.04111978  , 0.009939103 , 920.447632  , 30.0879688  , 802.9892    , 4.2         , 3           , 40          , 0           , 0
-0.0396929681, -0.210870057, -9.819902   , 8.244597E-05, 0.0130511494, 0.00182406045, 0.0221925471, 0.0408534072, 0.009959928 , 920.447632  , 30.0879688  , 802.9916    , 4.21        , 3           , 41          , 0           , 0
-0.04786998 , -0.210087746, -9.821915   , -0.000510328449, 0.0132267   , 0.0018199645, 0.0221883114, 0.0409852341, 0.009981076 , 920.447632  , 30.0879688  , 802.991943  , 4.22        , 3           , 42          , 0           , 0
-0.038985163, -0.201649949, -9.81306648 , 0.000269699522, 0.0136725958, 0.00177900272, 0.0221918616, 0.04112152  , 0.0100019146, 920.414246  , 30.088913   , 802.9923    , 4.23        , 3           , 255         , 0           , 0
-0.0428967178, -0.200867653, -9.823162   , 0.000474507979, 0.0137176542, 0.002035306 , 0.0221975669, 0.04125821  , 0.0100253262, 920.414246  , 30.088913   , 802.992737  , 4.24        , 3           , 255         , 0           , 0
-0.0417046249, -0.195074826, -9.827223   , 0.000136281364, 0.0135783851, 0.00252918713, 0.0222001038, 0.0413934   , 0.0100536486, 920.414246  , 30.088913   , 802.993164  , 4.25        , 3           , 255         , 0           , 0
-0.0431574881, -0.205077216, -9.823963   , 0.000449931 , 0.0133928861, 0.002739262 , 0.0222058613, 0.04152668  , 0.0100840339, 920.414246  , 30.088913   , 802.9936    , 4.26        , 3           , 255         , 0           , 0
-0.0333040953, -0.2037175  , -9.8197155  , 0.000100000987, 0.0134742241, 0.00291598286, 0.022208197 , 0.04166073  , 0.0101162065, 920.414246  , 30.088913   , 802.994     , 4.27        , 3           , 255         , 0           , 0
-0.0343471766, -0.210311264, -9.82074    , -0.0004711222, 0.0133718206, 0.00173453  , 0.0222043339, 0.0417940244, 0.0101365354, 920.414246  , 30.088913   , 802.994446  , 4.28        , 3           , 255         , 0           , 0
-0.03248453 , -0.200867653, -9.81763    , -0.000110074034, 0.0135818953, 0.00158121623, 0.0222040229, 0.04192946  , 0.0101553751, 920.414246  , 30.088913   , 802.9949    , 4.29        , 3           , 255         , 0           , 0
-0.03559515 , -0.204276279, -9.818505   , 0.000685753359, 0.01300258  , 0.001765544 , 0.0222117454, 0.0420590565, 0.0101759313, 920.414246  , 30.088913   , 802.9953    , 4.3         , 3           , 255         , 0           , 0
-0.0300072134, -0.207405537, -9.826142   , 0.00058329117, 0.0134135112, 0.00154030079, 0.0222057384, 0.04178714  , 0.0101937987, 920.414246  , 30.088913   , 803.0443    , 4.31        , 3           , 255         , 0           , 0
-0.0391528  , -0.206809491, -9.83024    , 0.000369705172, 0.0135720922, 0.002044715 , 0.0222104155, 0.0419223644, 0.0102172755, 920.414246  , 30.088913   , 803.045044  , 4.32        , 3           , 255         , 0           , 0
-0.0439398  , -0.208523124, -9.816755   , 0.0004030597, 0.0131378993, 0.002478909 , 0.02221561  , 0.0420531519, 0.0102450009, 920.4544    , 30.0893173  , 803.0458    , 4.33        , 3           , 255         , 0           , 0
-0.0455975533, -0.21154061 , -9.813942   , -0.0003330807, 0.0135445893, 0.00206695148, 0.0222132765, 0.0421881042, 0.0102686957, 920.4544    , 30.0893173  , 803.0465    , 4.34        , 3           , 255         , 0           , 0
-0.04891306 , -0.207610413, -9.820647   , 0.000221072667, 0.0133163752, 0.0028335203, 0.0222168136, 0.0423206054, 0.0103000086, 920.4544    , 30.0893173  , 803.047241  , 4.35        , 3           , 255         , 0           , 0
-0.03822148 , -0.208709389, -9.822435   , 0.000374971627, 0.0132578583, 0.002257716 , 0.0222216416, 0.0424526446, 0.0103255482, 920.4544    , 30.0893173  , 803.048     , 4.36        , 3           , 255         , 0           , 0
-0.0387989  , -0.214930624, -9.819418   , 0.000548766344, 0.013529961 , 0.00194874755, 0.0222280864, 0.04258747  , 0.0103480583, 920.4544    , 30.0893173  , 803.0487    , 4.37        , 3           , 255         , 0           , 0
-0.0432692468, -0.211894512, -9.818375   , 0.0004211999, 0.0131753488, 0.002306285 , 0.0222334061, 0.042718675 , 0.0103740674, 920.4544    , 30.0893173  , 803.049438  , 4.38        , 3           , 255         , 0           , 0
-0.0375136733, -0.20589681 , -9.82187748 , 0.000678673445, 0.0133187147, 0.0020768994, 0.0222412087, 0.0428513661, 0.0103978151, 920.4544    , 30.0893173  , 803.0502    , 4.39        , 3           , 255         , 0           , 0
-0.0404566526, -0.199191272, -9.830352   , -0.000168648708, 0.012984    , 0.00189900829, 0.02224046  , 0.04298074  , 0.0104197077, 920.4544    , 30.0893173  , 803.0509    , 4.4         , 3           , 255         , 0           , 0
-0.04235655 , -0.211447477, -9.8255825  , -0.0004940399, 0.0133293746, 0.002439165 , 0.0222279113, 0.042715434 , 0.0104467068, 920.4544    , 30.0893173  , 803.035     , 4.41        , 3           , 255         , 0           , 0
-0.047441572, -0.210609287, -9.81519    , -0.000392220856, 0.0131860087, 0.00273116329, 0.0222252849, 0.0428466536, 0.0104769692, 920.4544    , 30.0893173  , 803.035645  , 4.42        , 3           , 255         , 0           , 0
-0.0469386578, -0.206194833, -9.814184   , 0.00034918607, 0.0132357478, 0.00239820313, 0.022229936 , 0.0429784358, 0.0105039123, 920.4174    , 30.08844    , 803.0363    , 4.43        , 3           , 255         , 0           , 0
-0.03732741 , -0.207647681, -9.812769   , 0.000474997069, 0.0129911462, 0.00279962784, 0.02223601  , 0.0431076922, 0.0105348183, 920.4174    , 30.08844    , 803.037     , 4.44        , 3           , 255         , 0           , 0
-0.0423938036, -0.200923532, -9.814482   , 0.000685072038, 0.013288998 , 0.00290963938, 0.0222442467, 0.0432399027, 0.01056689  , 920.4174    , 30.08844    , 803.037659  , 4.45        , 3           , 255         , 0           , 0
-0.0414811075, -0.203698874, -9.818878   , 0.0006751242, 0.0132825607, 0.00197395682, 0.0222519822, 0.04337226  , 0.0105896005, 920.4174    , 30.08844    , 803.0383    , 4.46        , 3           , 255         , 0           , 0
-0.037048012, -0.201594085, -9.820574   , 0.0004691454, 0.0134405568, 0.00156199909, 0.02225748  , 0.0435062721, 0.0106082251, 920.4174    , 30.08844    , 803.039     , 4.47        , 3           , 255         , 0           , 0
-0.0384636223, -0.2088025  , -9.820293   , -0.0002547065, 0.0129238525, 0.00191309955, 0.0222558957, 0.0436350554, 0.0106302481, 920.4174    , 30.08844    , 803.0397    , 4.48        , 3           , 255         , 0           , 0
-0.0444240868, -0.209864229, -9.820629   , 0.000376688957, 0.0133814542, 0.00204885821, 0.022260692 , 0.0437683836, 0.0106537305, 920.4174    , 30.08844    , 803.040344  , 4.49        , 3           , 255         , 0           , 0
-0.0489316881, -0.204220444, -9.827204   , 0.000614852 , 0.0135967955, 0.002450868 , 0.02226805  , 0.04390376  , 0.0106812855, 920.4174    , 30.08844    , 803.041     , 4.5         , 3           , 255         , 0           , 0
-0.046864152, -0.20692125 , -9.821765   , -1.60098425E-05, 0.0125351595, 0.002087532 , 0.022257749 , 0.0435938351, 0.010704482 , 920.4174    , 30.08844    , 803.078857  , 4.51        , 3           , 255         , 0           , 0
-0.0417046249, -0.207386926, -9.829142   , -0.000557874737, 0.0126949083, 0.00243395125, 0.0222533569, 0.0437201969, 0.0107316663, 920.4174    , 30.08844    , 803.0798    , 4.52        , 3           , 255         , 0           , 0
-0.0399723649, -0.2099201  , -9.809659   , 0.000377807679, 0.0125737805, 0.00303316233, 0.0222585853, 0.04384522  , 0.0107648168, 920.4423    , 30.0873623  , 803.0807    , 4.53        , 3           , 255         , 0           , 0
-0.04356727 , -0.20744279 , -9.829943   , 0.000105704938, 0.0130173368, 0.00236431626, 0.0222608075, 0.0439748354, 0.0107913762, 920.4423    , 30.0873623  , 803.0816    , 4.54        , 3           , 255         , 0           , 0
-0.04477799 , -0.20429492 , -9.826962   , 0.0002063537, 0.0134398267, 0.00168727769, 0.0222637448, 0.04410882  , 0.0108112553, 920.4423    , 30.0873623  , 803.0825    , 4.55        , 3           , 255         , 0           , 0
-0.03479421 , -0.2066791  , -9.822584   , 0.000627088943, 0.0129582342, 0.00128702342, 0.0222707149, 0.0442380868, 0.0108270217, 920.4423    , 30.0873623  , 803.083435  , 4.56        , 3           , 255         , 0           , 0
-0.03213063 , -0.20198524 , -9.814874   , 0.000270722085, 0.0132753951, 0.00193655887, 0.0222744141, 0.04437038  , 0.01084936  , 920.4423    , 30.0873623  , 803.084351  , 4.57        , 3           , 255         , 0           , 0
-0.0391714275, -0.210180879, -9.817108   , -3.883137E-05, 0.0128973769, 0.00174286868, 0.0222749282, 0.04449892  , 0.0108696762, 920.4423    , 30.0873623  , 803.085266  , 4.58        , 3           , 255         , 0           , 0
-0.0424869359, -0.211969018, -9.831153   , 0.0002917881, 0.0128575861, 0.00176451972, 0.02227876  , 0.0446270742, 0.0108902017, 920.4423    , 30.0873623  , 803.086243  , 4.59        , 3           , 255         , 0           , 0
-0.03768131 , -0.21442771 , -9.829961   , -3.707587E-05, 0.013855882 , 0.002474913 , 0.0222796332, 0.0447650328, 0.0109180566, 920.4423    , 30.0873623  , 803.0872    , 4.6         , 3           , 255         , 0           , 0
-0.03695488 , -0.205039978, -9.813439   , 0.000218016386, 0.0137131214, 0.00310226181, 0.0222744122, 0.04450611  , 0.01095176  , 920.4423    , 30.0873623  , 803.0831    , 4.61        , 3           , 255         , 0           , 0
-0.04261732 , -0.208877042, -9.81519    , 0.0006036416, 0.0131045477, 0.00190266874, 0.0222814269, 0.0446367   , 0.0109737227, 920.4423    , 30.0873623  , 803.084045  , 4.62        , 3           , 255         , 0           , 0
-0.0344216824, -0.206492856, -9.817128   , 0.000184076693, 0.012987514 , 0.00195474853, 0.0222842712, 0.0447661   , 0.0109961815, 920.443     , 30.0872936  , 803.084961  , 4.63        , 3           , 255         , 0           , 0
-0.0310502946, -0.20410867 , -9.823274   , 0.00064167747, 0.0135165052, 0.00179441285, 0.0222916268, 0.04490082  , 0.011017153 , 920.443     , 30.0872936  , 803.0859    , 4.64        , 3           , 255         , 0           , 0
-0.0278279185, -0.213962033, -9.830128   , 0.000356115866, 0.01318413  , 0.00129877613, 0.0222959053, 0.0450323373, 0.0110330908, 920.443     , 30.0872936  , 803.0868    , 4.65        , 3           , 255         , 0           , 0
-0.0350363553, -0.208709389, -9.824987   , 0.000424580416, 0.013154286 , 0.00174994  , 0.0223010741, 0.04516345  , 0.0110535407, 920.443     , 30.0872936  , 803.0877    , 4.66        , 3           , 255         , 0           , 0
-0.0392459333, -0.207852557, -9.819418   , 0.000441550277, 0.0134714469, 0.00249310234, 0.0223067533, 0.0452975743, 0.0110814963, 920.443     , 30.0872936  , 803.0886    , 4.67        , 3           , 255         , 0           , 0
-0.0393949449, -0.207256526, -9.824113   , 0.000103323626, 0.0133421263, 0.00252177566, 0.0223090649, 0.0454303958, 0.0111097107, 920.443     , 30.0872936  , 803.0896    , 4.68        , 3           , 255         , 0           , 0
-0.04544854 , -0.210776925, -9.811427   , 0.0002589781, 0.0136680631, 0.00212620245, 0.02231276  , 0.0455665551, 0.0111340415, 920.443     , 30.0872936  , 803.0906    , 4.69        , 3           , 255         , 0           , 0
-0.0458024442, -0.206232071, -9.823125   , -0.000182823147, 0.0131782768, 0.001140781 , 0.0223115869, 0.0456980541, 0.0111484015, 920.443     , 30.0872936  , 803.091553  , 4.7         , 3           , 255         , 0           , 0
-0.0340491533, -0.213123843, -9.83063    , -0.000192817373, 0.0129492478, 0.00163237634, 0.0223006383, 0.0454000719, 0.0111671789, 920.443     , 30.0872936  , 803.085938  , 4.71        , 3           , 255         , 0           , 0
-0.03533438 , -0.212304279, -9.829253   , -8.339111E-05, 0.0129668042, 0.001600192 , 0.0223006681, 0.0455293581, 0.0111860875, 920.443     , 30.0872936  , 803.086853  , 4.72        , 3           , 255         , 0           , 0
-0.03909692 , -0.202171519, -9.811986   , -1.14155355E-05, 0.0126671968, 0.00206364435, 0.0223016255, 0.0456555262, 0.0112095671, 920.4805    , 30.0876312  , 803.087769  , 4.73        , 3           , 255         , 0           , 0
-0.03889203 , -0.199191257, -9.822566   , 0.000546833966, 0.0129820183, 0.00154343073, 0.0223079324, 0.0457849726, 0.01122791  , 920.4805    , 30.0876312  , 803.0887    , 4.74        , 3           , 255         , 0           , 0
-0.0406987965, -0.20749867 , -9.817854   , 0.0002472284, 0.0130826673, 0.00226669759, 0.0223115776, 0.0459152572, 0.0112535171, 920.4805    , 30.0876312  , 803.0896    , 4.75        , 3           , 255         , 0           , 0
-0.03883615 , -0.205039978, -9.820312   , -0.000679676537, 0.0128772734, 0.00283840578, 0.0223062169, 0.04604337  , 0.0112847993, 920.4805    , 30.0876312  , 803.0905    , 4.76        , 3           , 255         , 0           , 0
-0.036899   , -0.21064654 , -9.827278   , -0.00025016375, 0.0128725916, 0.00209524343, 0.022304818 , 0.0461715832, 0.0113086412, 920.4805    , 30.0876312  , 803.091431  , 4.77        , 3           , 255         , 0           , 0
-0.0421702862, -0.208392739, -9.823256   , 0.000420437864, 0.0130850067, 0.00184303639, 0.0223100074, 0.046302    , 0.0113300066, 920.4805    , 30.0876312  , 803.092346  , 4.78        , 3           , 255         , 0           , 0
-0.0525638461, -0.209230945, -9.822212   , 0.000306915434, 0.0131844869, 0.00177106087, 0.0223140344, 0.0464334   , 0.0113506773, 920.4805    , 30.0876312  , 803.093262  , 4.79        , 3           , 255         , 0           , 0
-0.04850328 , -0.202022478, -9.823814   , 0.000281753251, 0.0128971683, 0.00174121733, 0.0223177969, 0.0465619527, 0.0113709839, 920.4805    , 30.0876312  , 803.094238  , 4.8         , 3           , 255         , 0           , 0
-0.0358745456, -0.210441634, -9.827334   , 0.000222601389, 0.0126488777, 0.001686265 , 0.0223107077, 0.0462796465, 0.011390212 , 920.4805    , 30.0876312  , 803.035034  , 4.81        , 3           , 255         , 0           , 0
-0.04703179 , -0.203419477, -9.831209   , 5.5828732E-05, 0.0126436111, 0.00222695968, 0.02231243  , 0.0464055426, 0.0114153232, 920.4805    , 30.0876312  , 803.035645  , 4.82        , 3           , 255         , 0           , 0
-0.0429525971, -0.2120249  , -9.812341   , 0.000541517569, 0.0128378868, 0.00232409732, 0.0223190617, 0.0465333723, 0.0114414506, 920.4421    , 30.0864182  , 803.036255  , 4.83        , 3           , 255         , 0           , 0
-0.03533438 , -0.2163276  , -9.814631   , 0.000389374036, 0.0123644862, 0.001982945 , 0.0223240051, 0.0466565453, 0.0114640594, 920.4421    , 30.0864182  , 803.036865  , 4.84        , 3           , 255         , 0           , 0
-0.0403262675, -0.212360173, -9.817873   , 0.0005099185, 0.0127471862, 0.00179920229, 0.02233008  , 0.04678358  , 0.0114849154, 920.4421    , 30.0864182  , 803.0375    , 4.85        , 3           , 255         , 0           , 0
-0.0361353159, -0.205095857, -9.820723   , -0.0005006653, 0.01330017  , 0.0027372255, 0.0223264974, 0.0469159447, 0.011515283 , 920.4421    , 30.0864182  , 803.0381    , 4.86        , 3           , 255         , 0           , 0
-0.0351853669, -0.196378678, -9.823461   , -0.000189941507, 0.0127840517, 0.00269977469, 0.022326    , 0.0470431447, 0.01154516  , 920.4421    , 30.0864182  , 803.0387    , 4.87        , 3           , 255         , 0           , 0
-0.0416487455, -0.205338   , -9.816084   , 0.000605300767, 0.0127319722, 0.002588593 , 0.02233341  , 0.0471698567, 0.0115739135, 920.4421    , 30.0864182  , 803.0393    , 4.88        , 3           , 255         , 0           , 0
-0.0441633165, -0.212416053, -9.818524   , 0.000233719562, 0.0129239066, 0.00236330368, 0.022337    , 0.04729853  , 0.0116004553, 920.4421    , 30.0864182  , 803.0399    , 4.89        , 3           , 255         , 0           , 0
-0.04025176 , -0.210590675, -9.814669   , 0.00102428044, 0.0125909476, 0.0017523889, 0.0223482046, 0.0474240147, 0.01162081  , 920.4421    , 30.0864182  , 803.0405    , 4.9         , 3           , 255         , 0           , 0
-0.02834946 , -0.209789723, -9.81925    , 0.0002559094, 0.0131323459, 0.00179926213, 0.0223420355, 0.0471115559, 0.0116412966, 920.4421    , 30.0864182  , 803.0433    , 4.91        , 3           , 255         , 0           , 0
-0.0336207449, -0.209920123, -9.822883   , -0.00035676072, 0.013309652 , 0.00228904723, 0.0223396849, 0.0472441055, 0.0116671827, 920.4421    , 30.0864182  , 803.0439    , 4.92        , 3           , 255         , 0           , 0
-0.03678724 , -0.204518437, -9.821766   , -0.0006013606, 0.0126291029, 0.00178521825, 0.02233465  , 0.0473699644, 0.0116878748, 920.4716    , 30.0893173  , 803.0445    , 4.93        , 3           , 255         , 0           , 0
-0.0411644578, -0.203941017, -9.824801   , -0.0003526645, 0.0128169423, 0.001794581 , 0.0223321132, 0.0474977046, 0.011708701 , 920.4716    , 30.0893173  , 803.0451    , 4.94        , 3           , 255         , 0           , 0
-0.04403293 , -0.2126582  , -9.823107   , -0.000147270825, 0.0134003544, 0.00204795832, 0.0223317575, 0.04763122  , 0.0117321955, 920.4716    , 30.0893173  , 803.0457    , 4.95        , 3           , 255         , 0           , 0
-0.0397674739, -0.217854977, -9.817798   , -0.00010864978, 0.0130510079, 0.00193326548, 0.0223317351, 0.0477612577, 0.0117544625, 920.4716    , 30.0893173  , 803.0463    , 4.96        , 3           , 255         , 0           , 0
-0.0376999378, -0.21565704 , -9.81658649 , 0.0006134465, 0.0129070571, 0.0022656403, 0.0223390926, 0.0478897952, 0.0117800236, 920.4716    , 30.0893173  , 803.047     , 4.97        , 3           , 255         , 0           , 0
-0.0426732  , -0.20345673 , -9.82847    , 0.0010295005, 0.0129093984, 0.00206375774, 0.0223505143, 0.0480183922, 0.0118035674, 920.4716    , 30.0893173  , 803.047668  , 4.98        , 3           , 255         , 0           , 0
-0.04125759 , -0.208113343, -9.81804    , 0.000197977832, 0.0136180362, 0.00216850266, 0.0223536827, 0.0481540561, 0.01182832  , 920.4716    , 30.0893173  , 803.04834   , 4.99        , 3           , 255         , 0           , 0
-0.03349036 , -0.212974861, -9.823572   , 0.000536789652, 0.013058031 , 0.001871823 , 0.022360092 , 0.0482841842, 0.0118499752, 920.4716    , 30.0893173  , 803.049     , 5           , 3           , 0           , 9.002236    , 500
-0.0290200114, -0.209286809, -9.825621   , 0.000382853439, 0.0130950622, 0.00215568836, 0.0223570373, 0.0479888432, 0.0118740927, 920.4716    , 30.0893173  , 803.008667  , 5.01        , 3           , 1           , 0           , 0
-0.03291294 , -0.211577848, -9.823553   , 0.000366468768, 0.0132711986, 0.00208488316, 0.0223618466, 0.04812105  , 0.01189793  , 920.4716    , 30.0893173  , 803.0091    , 5.02        , 3           , 2           , 0           , 0
-0.0321120024, -0.209435821, -9.818207   , 0.000652615563, 0.0125034591, 0.00158046884, 0.02236927  , 0.04824571  , 0.011916548 , 920.536     , 30.0879     , 803.0095    , 5.03        , 3           , 3           , 0           , 0
-0.03952533 , -0.212490559, -9.821915   , 0.000300344866, 0.0129955839, 0.00174373051, 0.0223732553, 0.048375234 , 0.01193691  , 920.536     , 30.0879     , 803.009949  , 5.04        , 3           , 4           , 0           , 0
-0.0437907875, -0.207051635, -9.818878   , 0.0008878528, 0.0128896693, 0.00192513235, 0.0223832075, 0.0485036671, 0.0119590675, 920.536     , 30.0879     , 803.0104    , 5.05        , 3           , 5           , 0           , 0
-0.0393949449, -0.21744521 , -9.821411   , 0.0008972155, 0.0123407813, 0.002452953 , 0.0223935042, 0.04862649  , 0.0119863851, 920.536     , 30.0879     , 803.0108    , 5.06        , 3           , 6           , 0           , 0
-0.0352598727, -0.21545215 , -9.817798   , 9.787698E-05, 0.012484733 , 0.00223293016, 0.02239571  , 0.04875081  , 0.0120115345, 920.536     , 30.0879     , 803.0112    , 5.07        , 3           , 7           , 0           , 0
-0.0485405326, -0.211484745, -9.817258   , -0.000283652043, 0.0130722392, 0.00180458778, 0.022393899 , 0.0488811024, 0.0120325284, 920.536     , 30.0879     , 803.011658  , 5.08        , 3           , 8           , 5           , 5
-0.0321492553, -0.209156439, -9.82305    , 8.734398E-05, 0.0132747088, 0.00178352185, 0.0223957915, 0.04901341  , 0.0120533565, 920.536     , 30.0879     , 803.0121    , 5.09        , 3           , 9           , 5           , 0.1
-0.03412366 , -0.211857274, -9.822398   , 0.0006081429, 0.0124876583, 0.00217968016, 0.0224030837, 0.0491377637, 0.0120779723, 920.536     , 30.0879     , 803.0125    , 5.1         , 3           , 10          , 0.1         , 0.1
-0.0385567546, -0.209156424, -9.821802   , 0.000325475761, 0.01347429  , 0.0026982   , 0.0224007   , 0.04883706  , 0.0121076545, 920.536     , 30.0879     , 802.8865    , 5.11        , 3           , 11          , 0.008594666 , 0.008594796
-0.0434927642, -0.208355471, -9.822454   , -9.350397E-05, 0.013455566 , 0.00203462038, 0.0224009063, 0.04897112  , 0.0121310353, 920.536     , 30.0879     , 802.8861    , 5.12        , 3           , 12          , 0.1746512   , 0
-0.0392831862, -0.212509185, -9.817909   , 0.0005969933, 0.0131629827, 0.00239800918, 0.0224081986, 0.0491021834, 0.0121579915, 920.4369    , 30.0862827  , 802.885742  , 5.13        , 3           , 13          , 0           , 0
-0.0468455255, -0.203121468, -9.812955   , 0.000432561385, 0.0129599292, 0.00290183816, 0.02241409  , 0.0492310971, 0.0121899433, 920.4369    , 30.0862827  , 802.8854    , 5.14        , 3           , 14          , 1.04755213E-06, 5.477518E-05
-0.04624948 , -0.212341547, -9.820928   , 0.0005911417, 0.0133672059, 0.00263266149, 0.02242145  , 0.0493641421, 0.0122192949, 920.4369    , 30.0862827  , 802.885     , 5.15        , 3           , 15          , 0           , -1.16449382E-06
-0.0375323  , -0.202581286, -9.819045   , 0.000896598969, 0.012813637 , 0.00228975317, 0.0224316884, 0.0494917221, 0.0122450907, 920.4369    , 30.0862827  , 802.8847    , 5.16        , 3           , 16          , 0           , 4.203895E-45
-0.0357627869, -0.200811774, -9.817108   , 0.0002710552, 0.0134754619, 0.00149568159, 0.0224352926, 0.0496261045, 0.0122630885, 920.4369    , 30.0862827  , 802.8844    , 5.17        , 3           , 20          , 0           , 0
-0.0420399  , -0.19999221 , -9.820014   , 0.000225997341, 0.0134947719, 0.00238162442, 0.0224388838, 0.04976048  , 0.012289959 , 920.4369    , 30.0862827  , 802.8841    , 5.18        , 3           , 21          , 0           , 0
-0.04310161 , -0.207331032, -9.822622   , 0.000858563057, 0.0133063486, 0.00239683921, 0.0224488135, 0.049892962 , 0.01231694  , 920.4369    , 30.0862827  , 802.8838    , 5.19        , 3           , 22          , 0           , 0
