Acc X       , Acc Y       , Acc Z       , Gyro X      , Gyro Y      , Gyro Z      , Euler X     , Euler Y     , Euler Z     , Pres X      , Pres Y      , Pres Z      , Time        , Status      , LowRate X   , LowRate Y   , LowRate Z    
-0.0258056186, -0.207319245, -9.84674    , 0.0002985907, 0.01324363  , 0.00203995174, 0.0210514981, -0.00262014056, 0           , 920.4507    , 30.3773251  , 802.971863  , 0           , 2           , 0           , 4.42423153  , 0
-0.0309944153, -0.206045792, -9.820928   , -3.276937E-05, 0.0127958525, 0.00131311524, 0.0210511852, -0.002492355, 1.58214552E-05, 920.4507    , 30.3773251  , 802.971863  , 0.01        , 3           , 1           , 0           , 0
-0.0308454037, -0.2044812  , -9.818468   , 0.000170283674, 0.0131826475, 0.00234418  , 0.0210528243, -0.0023610543, 4.20325341E-05, 920.4507    , 30.3773251  , 802.971863  , 0.02        , 3           , 2           , 0           , 0
-0.026486814, -0.2066046  , -9.833649   , 3.10138639E-05, 0.0137736667, 0.00232486939, 0.0210530739, -0.00222384138, 6.8175E-05  , 920.464     , 29.9333115  , 802.971863  , 0.03        , 3           , 3           , 0           , 0
-0.0239163637, -0.204890966, -9.839293   , 0.000755450863, 0.0130831692, 0.0020989948, 0.0210605748, -0.00209348439, 9.191443E-05, 920.464     , 29.9333115  , 802.971863  , 0.04        , 3           , 4           , 0           , 0
-0.0301189721, -0.206753612, -9.83201    , 0.0001732095, 0.0132657411, 0.00210894248, 0.0210622586, -0.00196130341, 0.000115792471, 920.464     , 29.9333115  , 802.971863  , 0.05        , 3           , 5           , 0           , 0
-0.0259839  , -0.20429492 , -9.830707   , -0.000105915264, 0.0129877869, 0.00210426142, 0.0210611522, -0.00183190091, 0.0001395651, 920.464     , 29.9333115  , 802.9719    , 0.06        , 3           , 6           , 0           , 0
-0.0312179327, -0.211112216, -9.832792   , -0.0002445999, 0.0128251109, 0.00194041466, 0.0210586675, -0.00170408969, 0.000161665215, 920.464     , 29.9333115  , 802.972     , 0.07        , 3           , 7           , 0           , 0
-0.0254996121, -0.210255384, -9.834152   , -0.000268591742, 0.013219513 , 0.002032871 , 0.0210559424, -0.0015723554, 0.0001847723, 920.464     , 29.9333115  , 802.972046  , 0.08        , 3           , 8           , 5           , 5
-0.0301934779, -0.212900355, -9.837634   , 0.0002949243, 0.0136747714, 0.00155244861, 0.0210588612, -0.00143596786, 0.000203172182, 920.464     , 29.9333115  , 802.9721    , 0.09        , 3           , 9           , 5           , 0.1
-0.0262074172, -0.208057448, -9.843334   , 0.0009105202, 0.0134793269, 0.0016648008, 0.0210679416, -0.00130155846, 0.000222654984, 920.464     , 29.9333115  , 802.972168  , 0.1         , 3           , 10          , 0.1         , 0.1
-0.0186637044, -0.206381083, -9.839273   , 0.0007437476, 0.0125875324, 0.00177715288, 0.021075815 , -0.00118524639, 0.0002430738, 920.464     , 29.9333115  , 802.8536    , 0.11        , 3           , 11          , 0.0109544508, 0.0109544508
-0.0275485218, -0.216159984, -9.829142   , 0.000311308977, 0.0133523466, 0.00124757655, 0.0210789088, -0.00105201884, 0.0002583604, 920.464     , 29.9333115  , 802.853638  , 0.12        , 3           , 12          , 0.174642488 , 0
-0.0276789069, -0.211056322, -9.822435   , 0.0005664419, 0.0133148953, 0.00133535161, 0.0210845545, -0.00091918424, 0.0002745177, 920.431335  , 29.9711342  , 802.8537    , 0.13        , 3           , 13          , 0           , 0
-0.0142492354, -0.206977129, -9.83404    , -0.000567027, 0.0135273114, 0.00242025172, 0.0210788622, -0.0007844546, 0.0003015655, 920.431335  , 29.9711342  , 802.85376   , 0.14        , 3           , 14          , -2.18411175E-11, 4.32456515E-10
-0.01784414 , -0.209081918, -9.837095   , -0.000379188336, 0.0138491541, 0.00322193047, 0.0210750438, -0.0006466763, 0.000336695666, 920.431335  , 29.9711342  , 802.8538    , 0.15        , 3           , 15          , 0           , -9.083884E-12
-0.0255182385, -0.207219288, -9.834487   , 0.0002516219, 0.01270515  , 0.00267596962, 0.0210775379, -0.00052022 , 0.000366126042, 920.431335  , 29.9711342  , 802.8539    , 0.16        , 3           , 16          , 0           , 4.203895E-45
-0.0221282244, -0.207554549, -9.834431   , 0.0009040834, 0.0133148935, 0.00174613891, 0.0210865717, -0.000387471955, 0.00038639002, 920.431335  , 29.9711342  , 802.854     , 0.17        , 3           , 20          , 0           , 0
-0.02965331 , -0.208094716, -9.826067   , 0.0002644956, 0.0130363554, 0.00223767944, 0.0210892055, -0.0002576125, 0.000411510235, 920.431335  , 29.9711342  , 802.8541    , 0.18        , 3           , 21          , 0           , 0
-0.03349036 , -0.212378815, -9.831134   , -0.00040552087, 0.01321132  , 0.00188833475, 0.0210851468, -0.000125930048, 0.000433174573, 920.431335  , 29.9711342  , 802.854248  , 0.19        , 3           , 22          , 0           , 0
-0.031106174, -0.211354345, -9.825659   , -0.000367484958, 0.01381053  , 0.0016642157, 0.02108147  , 1.17903746E-05, 0.0004527239, 920.431335  , 29.9711342  , 802.8544    , 0.2         , 3           , 40          , 0           , 0
-0.0287033617, -0.195577741, -9.834115   , 0.000691082852, 0.0129643762, 0.00155947078, 0.02109099  , 0.000121393816, 0.0004710483, 920.431335  , 29.9711342  , 803.0012    , 0.21        , 3           , 41          , 0           , 0
-0.0243447721, -0.201426461, -9.832457   , 0.00101702113, 0.0131767923, 0.00192812621, 0.0211011637, 0.000252722442, 0.0004931043, 920.431335  , 29.9711342  , 803.001343  , 0.22        , 3           , 42          , 0           , 0
-0.0246055424, -0.208318233, -9.845308   , 0.000699275231, 0.0127712721, 0.00188306847, 0.0211081635, 0.00038000624, 0.0005146254, 920.4562    , 29.9983025  , 803.001465  , 0.23        , 3           , 255         , 0           , 0
-0.0230595469, -0.2061203  , -9.830091   , 0.000614426 , 0.0129462369, 0.00256244722, 0.0211143177, 0.0005088955, 0.0005429763, 920.4562    , 29.9983025  , 803.0016    , 0.24        , 3           , 255         , 0           , 0
-0.01816079 , -0.209584832, -9.835306   , 0.0007062972, 0.0134085184, 0.002067396 , 0.0211213939, 0.000642511062, 0.000566476432, 920.4562    , 29.9983025  , 803.0017    , 0.25        , 3           , 255         , 0           , 0
-0.0318512321, -0.203847885, -9.836201   , 0.0006659207, 0.0129778348, 0.00176720519, 0.0211280677, 0.0007718839, 0.000586885551, 920.4562    , 29.9983025  , 803.001831  , 0.26        , 3           , 255         , 0           , 0
-0.0360794365, -0.20140782 , -9.834692   , 0.0002621553, 0.0130796544, 0.00211128336, 0.021130709 , 0.000902202039, 0.0006107565, 920.4562    , 29.9983025  , 803.002     , 0.27        , 3           , 255         , 0           , 0
-0.0346452  , -0.205039978, -9.83717    , 0.000110011846, 0.0128373941, 0.00181226293, 0.0211318266, 0.00103016128, 0.000631587056, 920.4562    , 29.9983025  , 803.0022    , 0.28        , 3           , 255         , 0           , 0
-0.0252574682, -0.201724485, -9.836182   , 5.38357963E-05, 0.0131902508, 0.00192695588, 0.0211323872, 0.00116162351, 0.0006536391, 920.4562    , 29.9983025  , 803.0024    , 0.29        , 3           , 255         , 0           , 0
-0.028219074, -0.211130828, -9.828881   , -8.48488344E-05, 0.0135360844, 0.001479888 , 0.0211315621, 0.00129663839, 0.0006712942, 920.4562    , 29.9983025  , 803.002563  , 0.3         , 3           , 255         , 0           , 0
-0.0266358256, -0.208728   , -9.830948   , 0.000758376264, 0.013470538 , 0.00218735519, 0.0211358   , 0.00139692961, 0.000696004543, 920.4562    , 29.9983025  , 802.976135  , 0.31        , 3           , 255         , 0           , 0
-0.0241585076, -0.206418321, -9.826403   , 0.0001474617, 0.0132007748, 0.00174730946, 0.0211373065, 0.00152853539, 0.00071626337, 920.4562    , 29.9983025  , 802.9763    , 0.32        , 3           , 255         , 0           , 0
-0.0165961683, -0.205636024, -9.835306   , 0.000126980856, 0.013292646 , 0.00269879145, 0.0211386178, 0.00166085828, 0.000746054051, 920.4273    , 30.0125961  , 802.9765    , 0.33        , 3           , 255         , 0           , 0
-0.027846545, -0.205338   , -9.824839   , 0.000304286543, 0.0131375771, 0.00255601062, 0.02114171  , 0.001791661 , 0.0007743848, 920.4273    , 30.0125961  , 802.9767    , 0.34        , 3           , 255         , 0           , 0
-0.0286847353, -0.204890966, -9.830315   , 8.718947E-05, 0.0127215236, 0.00160335843, 0.021142615 , 0.00191850611, 0.0007931039, 920.4273    , 30.0125961  , 802.976868  , 0.35        , 3           , 255         , 0           , 0
-0.0254996121, -0.1998432  , -9.826832   , 5.617561E-05, 0.0128344605, 0.00258760969, 0.0211432315, 0.00204627146, 0.000821686757, 920.4273    , 30.0125961  , 802.977051  , 0.36        , 3           , 255         , 0           , 0
-0.0259839  , -0.209342688, -9.82657051 , 0.000373336254, 0.0140744308, 0.00280529214, 0.0211470257, 0.002186387 , 0.000852708647, 920.4273    , 30.0125961  , 802.977234  , 0.37        , 3           , 255         , 0           , 0
-0.0242702663, -0.210702419, -9.82888    , 0.0005886777, 0.013891858 , 0.002805877 , 0.0211529825, 0.00232467824, 0.000883698347, 920.4273    , 30.0125961  , 802.9774    , 0.38        , 3           , 255         , 0           , 0
-0.0263750553, -0.1978688  , -9.8419     , 0.0011451717, 0.0136156585, 0.00272746477, 0.0211645085, 0.002460224 , 0.00091384683, 920.4273    , 30.0125961  , 802.977661  , 0.39        , 3           , 255         , 0           , 0
-0.01899898 , -0.198706985, -9.842515   , 0.0008935499, 0.01365077  , 0.00182806258, 0.0211734958, 0.00259631081, 0.000935012533, 920.4273    , 30.0125961  , 802.9779    , 0.4         , 3           , 255         , 0           , 0
-0.02792105 , -0.2013892  , -9.832252   , -0.000234068531, 0.0132581051, 0.00183391478, 0.0211678259, 0.002682343 , 0.000956145 , 920.4273    , 30.0125961  , 803.030151  , 0.41        , 3           , 255         , 0           , 0
-0.0217370689, -0.209305435, -9.831153   , 0.000167356178, 0.0137560824, 0.00197962136, 0.0211695619, 0.0028194508, 0.000978848 , 920.4273    , 30.0125961  , 803.0304    , 0.42        , 3           , 255         , 0           , 0
-0.0250712037, -0.215955064, -9.827875   , 0.000569366035, 0.0130503708, 0.0020469157, 0.0211753249, 0.00294948928, 0.001002075 , 920.4842    , 30.0262814  , 803.03064   , 0.43        , 3           , 255         , 0           , 0
-0.0215135515, -0.2159737  , -9.840522   , 0.0005576628, 0.01297547  , 0.00225699064, 0.0211809743, 0.00307873334, 0.00102738733, 920.4842    , 30.0262814  , 803.0309    , 0.44        , 3           , 255         , 0           , 0
-0.022482127, -0.206828117, -9.83676    , -7.899922E-05, 0.01308314  , 0.00163671339, 0.0211802442, 0.003209186 , 0.00104652112, 920.4842    , 30.0262814  , 803.0311    , 0.45        , 3           , 255         , 0           , 0
-0.03311783 , -0.202842042, -9.822809   , -2.98451741E-05, 0.0133692874, 0.00213878672, 0.0211800262, 0.00334239216, 0.001070735 , 920.4842    , 30.0262814  , 803.0314    , 0.46        , 3           , 255         , 0           , 0
-0.03291294 , -0.207144767, -9.832494   , -0.0005804875, 0.0135307936, 0.002575907 , 0.0211743172, 0.00347712124, 0.00109935284, 920.4842    , 30.0262814  , 803.0316    , 0.47        , 3           , 255         , 0           , 0
-0.03034249 , -0.210888669, -9.828694   , 6.37815756E-05, 0.0131135685, 0.0025051015, 0.021175053 , 0.00360769383, 0.00112717424, 920.4842    , 30.0262814  , 803.03186   , 0.48        , 3           , 255         , 0           , 0
-0.0261329114, -0.209789723, -9.82482    , 0.00036104655, 0.012477492 , 0.00187195058, 0.021178741 , 0.003732041 , 0.00114853133, 920.4842    , 30.0262814  , 803.032166  , 0.49        , 3           , 255         , 0           , 0
-0.0304542482, -0.210106373, -9.828656   , -8.30954E-05, 0.0133365178, 0.0016712381, 0.0211779829, 0.00386501872, 0.00116806349, 920.4842    , 30.0262814  , 803.0325    , 0.5         , 3           , 255         , 0           , 0
-0.02387911 , -0.2096221  , -9.835437   , 0.0004201488, 0.0136401914, 0.00167240913, 0.0211830866, 0.00393819157, 0.00118767575, 920.4842    , 30.0262814  , 802.9589    , 0.51        , 3           , 255         , 0           , 0
-0.0216066837, -0.204462558, -9.82988548 , 2.3990613E-05, 0.0133862272, 0.002266939 , 0.0211834274, 0.00407154066, 0.00121317513, 920.4842    , 30.0262814  , 802.9592    , 0.52        , 3           , 255         , 0           , 0
-0.0304915011, -0.198557973, -9.835846   , 0.000103573351, 0.0130719934, 0.00196148152, 0.0211845543, 0.004201812 , 0.00123555411, 920.4585    , 30.0322819  , 802.959534  , 0.53        , 3           , 255         , 0           , 0
-0.0261701643, -0.1967326  , -9.83400249 , 0.000526064134, 0.0129116569, 0.00218150462, 0.02118992  , 0.00433043344, 0.00126009923, 920.4585    , 30.0322819  , 802.959839  , 0.54        , 3           , 255         , 0           , 0
-0.03732741 , -0.2001226  , -9.831935   , -0.000435365684, 0.012725574 , 0.00204399019, 0.0211856682, 0.00445722369, 0.00128323049, 920.4585    , 30.0322819  , 802.960144  , 0.55        , 3           , 255         , 0           , 0
-0.036675483, -0.206045792, -9.827614   , -4.271845E-05, 0.0127571737, 0.00179470889, 0.0211853329, 0.004584384 , 0.00130387547, 920.4585    , 30.0322819  , 802.960449  , 0.56        , 3           , 255         , 0           , 0
-0.0287406147, -0.208113343, -9.831526   , 0.0003745058, 0.0130684823, 0.0023143373, 0.0211891979, 0.00471454626, 0.00132978207, 920.4585    , 30.0322819  , 802.960754  , 0.57        , 3           , 255         , 0           , 0
-0.0303611159, -0.207033   , -9.832829   , 0.000358706253, 0.0128695257, 0.00234769215, 0.021192912 , 0.00484271254, 0.00135598017, 920.4585    , 30.0322819  , 802.96106   , 0.58        , 3           , 255         , 0           , 0
-0.02278015 , -0.216010958, -9.839758   , 0.000124639366, 0.0135506587, 0.00223007333, 0.0211942811, 0.00497771241, 0.0013811473, 920.4585    , 30.0322819  , 802.961365  , 0.59        , 3           , 255         , 0           , 0
-0.0194646418, -0.209175035, -9.832959   , 0.000259813 , 0.01308077  , 0.00171220046, 0.0211969782, 0.00510812551, 0.00140103733, 920.4585    , 30.0322819  , 802.9617    , 0.6         , 3           , 255         , 0           , 0
-0.0182911754, -0.204965472, -9.82564    , 0.000877162733, 0.0126155224, 0.00179470982, 0.02120301  , 0.00516137  , 0.00142164016, 920.4585    , 30.0322819  , 802.951843  , 0.61        , 3           , 255         , 0           , 0
-0.0127404928, -0.20749867 , -9.816345   , 0.000240500885, 0.012887625 , 0.00197435636, 0.0212055277, 0.00528979534, 0.00144411146, 920.4585    , 30.0322819  , 802.952148  , 0.62        , 3           , 255         , 0           , 0
-0.0286288559, -0.213123873, -9.824262   , 0.000355193653, 0.0131784528, 0.00189360324, 0.021209199 , 0.00542114442, 0.00146583759, 920.4324    , 30.0384846  , 802.9525    , 0.63        , 3           , 255         , 0           , 0
-0.03132969 , -0.210069135, -9.835753   , 0.0008713112, 0.013119936 , 0.002098997 , 0.0212180372, 0.00555186672, 0.00148960564, 920.4324    , 30.0384846  , 802.9529    , 0.64        , 3           , 255         , 0           , 0
-0.02829358 , -0.205300763, -9.843185   , 0.00045993863, 0.0132662281, 0.00140147761, 0.02122273  , 0.00568419835, 0.001506432 , 920.4324    , 30.0384846  , 802.953247  , 0.65        , 3           , 255         , 0           , 0
-0.0276789069, -0.201165676, -9.842328   , -0.000135761642, 0.0132393092, 0.00136929343, 0.0212214682, 0.00581626827, 0.00152293115, 920.4324    , 30.0384846  , 802.9536    , 0.66        , 3           , 255         , 0           , 0
-0.0256299973, -0.199824572, -9.83616352 , 0.0007103901, 0.0126752071, 0.00245068222, 0.0212287325, 0.005942468 , 0.0015501224, 920.4324    , 30.0384846  , 802.954     , 0.67        , 3           , 255         , 0           , 0
-0.0263750553, -0.212993473, -9.825155   , 0.00088886614, 0.0135465218, 0.002228904 , 0.02123777  , 0.00607742555, 0.00157528243, 920.4324    , 30.0384846  , 802.954346  , 0.68        , 3           , 255         , 0           , 0
-0.0213459134, -0.211689621, -9.826813   , 0.0008332753, 0.0137595236, 0.00192286156, 0.0212462358, 0.006214579 , 0.00159742928, 920.4324    , 30.0384846  , 802.9547    , 0.69        , 3           , 255         , 0           , 0
-0.0294111669, -0.21154061 , -9.840354   , 0.000597452861, 0.0136372233, 0.00199366687, 0.0212523546, 0.00635049446, 0.001620259 , 920.4324    , 30.0384846  , 802.9551    , 0.7         , 3           , 255         , 0           , 0
-0.02477318 , -0.209845588, -9.850393   , 0.000357533747, 0.012915655 , 0.00185849436, 0.0212551672, 0.00639576325, 0.00164157862, 920.4324    , 30.0384846  , 802.983765  , 0.71        , 3           , 255         , 0           , 0
-0.0222213566, -0.211168081, -9.847972   , 0.000913442636, 0.0125516811, 0.00222890521, 0.0212644637, 0.006520775 , 0.001666531 , 920.4324    , 30.0384846  , 802.9842    , 0.72        , 3           , 255         , 0           , 0
-0.0273622572, -0.21513553 , -9.825621   , 0.0002720993, 0.012780481 , 0.00230029575, 0.02126735  , 0.00664805854, 0.00169224641, 920.4056    , 30.04273    , 802.9846    , 0.73        , 3           , 255         , 0           , 0
-0.030528754, -0.202208757, -9.82836    , -0.000402598467, 0.01329426  , 0.00148866873, 0.0212634448, 0.006780652 , 0.00170995656, 920.4056    , 30.04273    , 802.985046  , 0.74        , 3           , 255         , 0           , 0
-0.0298209488, -0.2047606  , -9.837709   , 0.0002861434, 0.0134241665, 0.00140733039, 0.0212664213, 0.00691455929, 0.001726881 , 920.4056    , 30.04273    , 802.9855    , 0.75        , 3           , 255         , 0           , 0
-0.03380701 , -0.200793147, -9.833351   , 0.000454671535, 0.0130765773, 0.00158639147, 0.0212710984, 0.007044956 , 0.00174552237, 920.4056    , 30.04273    , 802.9859    , 0.76        , 3           , 255         , 0           , 0
-0.0356324  , -0.210013241, -9.835064   , 0.000523721334, 0.0131151965, 0.00181226607, 0.0212764814, 0.007175689 , 0.0017664308, 920.4056    , 30.04273    , 802.9863    , 0.77        , 3           , 255         , 0           , 0
-0.026486814, -0.2094917  , -9.829961   , 9.771953E-05, 0.0124247009, 0.00267772865, 0.0212776735, 0.007299335 , 0.00179584546, 920.4056    , 30.04273    , 802.986755  , 0.78        , 3           , 255         , 0           , 0
-0.0261515379, -0.19878149 , -9.824372   , 0.000387962471, 0.0128179332, 0.002231831 , 0.0212817378, 0.00742700836, 0.00182088616, 920.4056    , 30.04273    , 802.9872    , 0.79        , 3           , 255         , 0           , 0
-0.0216625631, -0.20571053 , -9.831377   , 0.0005137734, 0.0132971844, 0.00236407877, 0.0212870687, 0.007559443 , 0.00184735155, 920.4056    , 30.04273    , 802.9876    , 0.8         , 3           , 255         , 0           , 0
-0.0205077231, -0.209659338, -9.83853    , 0.000156819617, 0.0130887916, 0.002155176 , 0.0212864932, 0.00759666041, 0.00187166687, 920.4056    , 30.04273    , 803.042847  , 0.81        , 3           , 255         , 0           , 0
-0.0233761966, -0.212080762, -9.84786    , -2.22415329E-05, 0.0134036113, 0.00235120673, 0.02128647  , 0.007730162 , 0.00189802668, 920.4056    , 30.04273    , 803.0434    , 0.82        , 3           , 255         , 0           , 0
-0.02918765 , -0.215917826, -9.833295   , -0.000187843834, 0.0137061421, 0.002266358 , 0.0212847926, 0.007866706 , 0.00192360242, 920.42      , 30.0446186  , 803.043945  , 0.83        , 3           , 255         , 0           , 0
-0.0256299973, -0.214651227, -9.846986   , 0.000371576025, 0.0129612256, 0.00205394183, 0.02128869  , 0.007995848 , 0.001946896 , 920.42      , 30.0446186  , 803.0445    , 0.84        , 3           , 255         , 0           , 0
-0.028423965, -0.206846759, -9.834245   , 0.0008057701, 0.0130700665, 0.00155713491, 0.021296896 , 0.008126184 , 0.00196524663, 920.42      , 30.0446186  , 803.045044  , 0.85        , 3           , 255         , 0           , 0
-0.02630055 , -0.211726874, -9.830147   , 0.000622027554, 0.0128675969, 0.00245185569, 0.0213033389, 0.00825430453, 0.00199250039, 920.42      , 30.0446186  , 803.0456    , 0.86        , 3           , 255         , 0           , 0
-0.0289455056, -0.203065559, -9.829216   , 0.000567607 , 0.0131988041, 0.002341259 , 0.0213092323, 0.008385761 , 0.00201872014, 920.42      , 30.0446186  , 803.046143  , 0.87        , 3           , 255         , 0           , 0
-0.0289082527, -0.202674419, -9.839889   , 0.00044238125, 0.0130097941, 0.00199718052, 0.02131385  , 0.008515401 , 0.00204146  , 920.42      , 30.0446186  , 803.0467    , 0.88        , 3           , 255         , 0           , 0
-0.0258535147, -0.201519579, -9.8337965  , 0.000361628132, 0.0126943886, 0.00164373964, 0.02131763  , 0.008641964 , 0.00206059963, 920.42      , 30.0446186  , 803.047241  , 0.89        , 3           , 255         , 0           , 0
-0.02572313 , -0.207237884, -9.830333   , -0.0005389442, 0.01285999  , 0.00158873387, 0.0213124   , 0.00877019  , 0.00207922445, 920.42      , 30.0446186  , 803.0478    , 0.9         , 3           , 255         , 0           , 0
-0.0241026282, -0.211689621, -9.828619   , -2.80939221E-05, 0.0135240676, 0.001809929 , 0.0213114042, 0.008806216 , 0.00210019387, 920.42      , 30.0446186  , 803.0746    , 0.91        , 3           , 255         , 0           , 0
-0.0310875475, -0.20802021 , -9.832514   , -0.000342328742, 0.0134193227, 0.00135408377, 0.0213081259, 0.008940084 , 0.002116591 , 920.42      , 30.0446186  , 803.0752    , 0.92        , 3           , 255         , 0           , 0
-0.0306218863, -0.203419477, -9.827782   , 0.000197195463, 0.0133046294, 0.00125284982, 0.0213102363, 0.009072833 , 0.00213195174, 920.4167    , 30.0466423  , 803.0758    , 0.93        , 3           , 255         , 0           , 0
-0.032261014, -0.202469543, -9.831731   , -2.516809E-05, 0.0128522944, 0.00200888584, 0.0213101935, 0.009200894 , 0.0021547752, 920.4167    , 30.0466423  , 803.0764    , 0.94        , 3           , 255         , 0           , 0
-0.0316649675, -0.209547564, -9.832586   , 0.000410196342, 0.0129488483, 0.00210894947, 0.0213145148, 0.0093299   , 0.00217861938, 920.4167    , 30.0466423  , 803.077     , 0.95        , 3           , 255         , 0           , 0
-0.0317953527, -0.2134964  , -9.83201    , 0.0007291125, 0.01356269  , 0.00228742533, 0.0213220455, 0.009465007 , 0.00220438  , 920.4167    , 30.0466423  , 803.0777    , 0.96        , 3           , 255         , 0           , 0
-0.0279583037, -0.205840915, -9.83342552 , -0.000158001043, 0.0134743284, 0.001837432 , 0.0213206653, 0.009599324 , 0.002225623 , 920.4167    , 30.0466423  , 803.078369  , 0.97        , 3           , 255         , 0           , 0
-0.02892688 , -0.204313546, -9.832587   , 0.0006109087, 0.0129453372, 0.00220784266, 0.0213270131, 0.009728276 , 0.00225045718, 920.4167    , 30.0466423  , 803.079041  , 0.98        , 3           , 255         , 0           , 0
-0.0266544521, -0.212844461, -9.832886   , -0.00031307037, 0.0130120451, 0.00178476691, 0.0213240813, 0.00985798147, 0.00227107573, 920.4167    , 30.0466423  , 803.0797    , 0.99        , 3           , 255         , 0           , 0
-0.0218674541, -0.2043508  , -9.82813549 , -5.793745E-05, 0.0126422206, 0.00147930952, 0.0213236772, 0.009984056 , 0.00228856131, 920.4167    , 30.0466423  , 803.0804    , 1           , 3           , 0           , 5.4242363   , 100
-0.0260025263, -0.205095857, -9.828601   , -0.000832115649, 0.0128814317, 0.0026636906, 0.0213136338, 0.009990361 , 0.0023179187, 920.4167    , 30.0466423  , 803.1059    , 1.01        , 3           , 1           , 0           , 0
-0.02361834 , -0.203903764, -9.831451   , -5.61838569E-05, 0.0130575662, 0.001955053 , 0.0213132966, 0.0101204906, 0.002340248 , 920.4167    , 30.0466423  , 803.1066    , 1.02        , 3           , 2           , 0           , 0
-0.0294670463, -0.206828117, -9.834897   , 0.000660646 , 0.0127690779, 0.00254139048, 0.0213201866, 0.0102476059, 0.00236837845, 920.455139  , 30.0494728  , 803.107361  , 1.03        , 3           , 3           , 0           , 0
-0.0219605863, -0.20589681 , -9.839032   , 0.000683467544, 0.0133226458, 0.00185147824, 0.02132724  , 0.0103804031, 0.00238973042, 920.455139  , 30.0494728  , 803.1081    , 1.04        , 3           , 4           , 0           , 0
-0.0148080289, -0.209063292, -9.843204   , -0.000365152169, 0.0128275966, 0.00161331543, 0.0213237889, 0.0105083007, 0.002408596 , 920.455139  , 30.0494728  , 803.1088    , 1.05        , 3           , 5           , 0           , 0
-0.0227428973, -0.218581408, -9.830744   , 1.74770128E-06, 0.01331621  , 0.001615071 , 0.021324005 , 0.010641085 , 0.002427583 , 920.455139  , 30.0494728  , 803.109558  , 1.06        , 3           , 6           , 0           , 0
-0.0200793147, -0.206884   , -9.832327   , 0.000383276754, 0.0129253184, 0.00214172131, 0.0213280953, 0.0107698487, 0.00245175231, 920.455139  , 30.0494728  , 803.1103    , 1.07        , 3           , 7           , 0           , 0
-0.0173039734, -0.206716374, -9.822679   , 0.0007267699, 0.0133308386, 0.00235238159, 0.02133565  , 0.0109026227, 0.00247811479, 920.455139  , 30.0494728  , 803.111     , 1.08        , 3           , 8           , 5           , 5
-0.02393499 , -0.207554549, -9.831209   , 0.0008028416, 0.0132576935, 0.0017215712, 0.0213438962, 0.011034796 , 0.00249815686, 920.455139  , 30.0494728  , 803.1118    , 1.09        , 3           , 9           , 5           , 0.1
-0.0253133476, -0.203251839, -9.833481   , 0.00017846821, 0.012130077 , 0.00179471727, 0.021345906 , 0.0111556817, 0.00251869  , 920.455139  , 30.0494728  , 803.1126    , 1.1         , 3           , 10          , 0.1         , 0.1
-0.0246986747, -0.2092123  , -9.835903   , -2.57575666E-05, 0.0126495669, 0.00185850332, 0.0213435832, 0.0111590186, 0.00253994553, 920.455139  , 30.0494728  , 803.09314   , 1.11        , 3           , 11          , 0.0104173636, 0.0104173878
-0.0295601785, -0.217333436, -9.841528   , -1.52245648E-05, 0.0129731651, 0.001877814 , 0.02134367  , 0.011288316 , 0.002561489 , 920.455139  , 30.0494728  , 803.0939    , 1.12        , 3           , 12          , 0.174642846 , 0
-0.0300630927, -0.2094917  , -9.82401848 , 0.0002796997, 0.0129515138, 0.001651354 , 0.0213466827, 0.0114174448, 0.00258076377, 920.418457  , 30.0504169  , 803.0946    , 1.13        , 3           , 13          , 0           , 0
-0.0346265733, -0.210944563, -9.827782   , 0.000213575811, 0.01341789  , 0.00171981857, 0.0213490482, 0.0115512218, 0.0026008233, 920.418457  , 30.0504169  , 803.095337  , 1.14        , 3           , 14          , 1.02141282E-08, 5.78488937E-07
-0.0154785812, -0.202842042, -9.83634949 , 0.000478071423, 0.01378128  , 0.00224295817, 0.02135412  , 0.011688523 , 0.00262619113, 920.418457  , 30.0504169  , 803.096069  , 1.15        , 3           , 15          , 0           , -1.22186892E-08
-0.0286847353, -0.2013892  , -9.838697   , -4.155709E-05, 0.0134647042, 0.00206974871, 0.0213539843, 0.011822693 , 0.00264976  , 920.418457  , 30.0504169  , 803.0968    , 1.16        , 3           , 16          , 0           , 4.203895E-45
-0.03034249 , -0.207405537, -9.84041    , -8.787725E-06, 0.0130416285, 0.00189068762, 0.0213541519, 0.0119526731, 0.002671448 , 920.418457  , 30.0504169  , 803.097534  , 1.17        , 3           , 20          , 0           , 0
-0.026486814, -0.214576721, -9.834282   , 0.000149207423, 0.0127221271, 0.00150330679, 0.0213558543, 0.01207954  , 0.00268919487, 920.418457  , 30.0504169  , 803.0983    , 1.18        , 3           , 21          , 0           , 0
-0.03233552 , -0.1967512  , -9.829457   , 0.000406095874, 0.013445979 , 0.00193633058, 0.0213601869, 0.0122135561, 0.002711426 , 920.418457  , 30.0504169  , 803.0991    , 1.19        , 3           , 22          , 0           , 0
-0.0314041972, -0.206083059, -9.831507   , 0.0005681873, 0.0136285527, 0.00207325956, 0.0213661566, 0.0123493634, 0.00273506669, 920.418457  , 30.0504169  , 803.0999    , 1.2         , 3           , 40          , 0           , 0
-0.02913177 , -0.198762864, -9.827353   , 0.0007507567, 0.0135043282, 0.00190590532, 0.0213716384, 0.0123485541, 0.00275697955, 920.418457  , 30.0504169  , 803.119934  , 1.21        , 3           , 41          , 0           , 0
-0.0274926424, -0.205691889, -9.842087   , 0.000245172239, 0.0128735192, 0.00180818245, 0.0213743467, 0.012476868 , 0.00277780974, 920.418457  , 30.0504169  , 803.1208    , 1.22        , 3           , 42          , 0           , 0
-0.0317394733, -0.208504483, -9.828173   , -0.0006436968, 0.0133299492, 0.002623906 , 0.02136827  , 0.012609574 , 0.00280689262, 920.4366    , 30.05372    , 803.121643  , 1.23        , 3           , 255         , 0           , 0
-0.0267475843, -0.21353364 , -9.826924   , 0.000311296142, 0.0129203312, 0.00188952056, 0.021371657 , 0.0127383387, 0.0028285454, 920.4366    , 30.05372    , 803.1225    , 1.24        , 3           , 255         , 0           , 0
-0.0221095979, -0.209175035, -9.824391   , 5.38225468E-05, 0.0133943176, 0.002030546 , 0.02137249  , 0.012871814 , 0.00285170972, 920.4366    , 30.05372    , 803.123352  , 1.25        , 3           , 255         , 0           , 0
-0.0247918069, -0.197254121, -9.822697   , 0.0006425007, 0.0130104469, 0.002138217 , 0.0213792268, 0.0130014289, 0.00287586963, 920.4366    , 30.05372    , 803.1242    , 1.26        , 3           , 255         , 0           , 0
-0.0217929482, -0.205878168, -9.831003   , -0.000215354376, 0.0131339179, 0.00233892933, 0.0213774145, 0.0131322332, 0.00290206284, 920.4366    , 30.05372    , 803.125061  , 1.27        , 3           , 255         , 0           , 0
-0.0258721411, -0.2056919  , -9.832252   , 0.000136331117, 0.013013958 , 0.00180408626, 0.0213790536, 0.0132619534, 0.00292288233, 920.4366    , 30.05372    , 803.1259    , 1.28        , 3           , 255         , 0           , 0
-0.0312738121, -0.212546438, -9.838026   , 0.000411359739, 0.0137278624, 0.00165194285, 0.0213834271, 0.0133988457, 0.00294233439, 920.4366    , 30.05372    , 803.1268    , 1.29        , 3           , 255         , 0           , 0
-0.026114285, -0.209938735, -9.837318   , -1.63975183E-05, 0.0133703249, 0.00200830982, 0.0213835686, 0.0135320826, 0.002965273 , 920.4366    , 30.05372    , 803.1277    , 1.3         , 3           , 255         , 0           , 0
-0.0290572643, -0.202488154, -9.83214    , 0.0005131745, 0.0129458746, 0.0018813326, 0.0213855524, 0.0135094747, 0.00298680528, 920.4366    , 30.05372    , 803.1263    , 1.31        , 3           , 255         , 0           , 0
-0.0292249024, -0.20461157 , -9.831171   , 0.000212983665, 0.0129681118, 0.00230733422, 0.0213880334, 0.0136386286, 0.003012648 , 920.4366    , 30.05372    , 803.1272    , 1.32        , 3           , 255         , 0           , 0
-0.025164336, -0.20910053 , -9.835978   , -3.454205E-05, 0.0128850183, 0.002201419 , 0.0213880278, 0.0137669751, 0.00303741451, 920.458862  , 30.0537872  , 803.1281    , 1.33        , 3           , 255         , 0           , 0
-0.024754554, -0.203643009, -9.837151   , 0.0002615526, 0.012371826 , 0.00177483214, 0.0213909224, 0.0138902832, 0.00305780582, 920.458862  , 30.0537872  , 803.129     , 1.34        , 3           , 255         , 0           , 0
-0.0187568367, -0.21182    , -9.834748   , 0.000159733478, 0.013122011 , 0.00224472163, 0.0213928726, 0.0140209906, 0.00308305654, 920.458862  , 30.0537872  , 803.129944  , 1.35        , 3           , 255         , 0           , 0
-0.03222376 , -0.2056174  , -9.830668   , 0.000401992729, 0.0129136909, 0.002417931 , 0.0213972721, 0.0141495755, 0.003109995 , 920.458862  , 30.0537872  , 803.130859  , 1.36        , 3           , 255         , 0           , 0
-0.0231154263, -0.204741955, -9.832867   , 0.000169681312, 0.012669676 , 0.00217684219, 0.0213993136, 0.0142757734, 0.00313447136, 920.458862  , 30.0537872  , 803.1318    , 1.37        , 3           , 255         , 0           , 0
-0.02482906 , -0.2075173  , -9.831284   , 0.0008320907, 0.0133168707, 0.00179706863, 0.0214079339, 0.0144085241, 0.00315528945, 920.458862  , 30.0537872  , 803.1327    , 1.38        , 3           , 255         , 0           , 0
-0.0234693289, -0.205449775, -9.828694   , 0.000180214323, 0.0129417786, 0.00138745166, 0.0214099735, 0.014537612 , 0.003171933 , 920.458862  , 30.0537872  , 803.1336    , 1.39        , 3           , 255         , 0           , 0
-0.03207475 , -0.206343845, -9.831563   , 0.0003487425, 0.0134807173, 0.00161683722, 0.021413736 , 0.0146720381, 0.00319098542, 920.458862  , 30.0537872  , 803.1345    , 1.4         , 3           , 255         , 0           , 0
-0.0224076211, -0.202748924, -9.838063   , -2.94862E-06, 0.0127601475, 0.002432565 , 0.0214100331, 0.0146428356, 0.0032179805, 920.458862  , 30.0537872  , 803.1093    , 1.41        , 3           , 255         , 0           , 0
-0.02687797 , -0.205058619, -9.837374   , -0.0007712732, 0.0131264627, 0.00259465631, 0.0214027446, 0.01477351  , 0.00324673322, 920.458862  , 30.0537872  , 803.110168  , 1.42        , 3           , 255         , 0           , 0
-0.0220164657, -0.204034135, -9.830165   , -0.000261007372, 0.0129204839, 0.0017016913, 0.0214004256, 0.014902317 , 0.00326651265, 920.4695    , 30.0533829  , 803.111     , 1.43        , 3           , 255         , 0           , 0
-0.0258162618, -0.193379819, -9.830016   , 0.000101796308, 0.0127700949, 0.00177893334, 0.02140175  , 0.0150296064, 0.003287032 , 920.4695    , 30.0533829  , 803.1119    , 1.44        , 3           , 255         , 0           , 0
-0.0221095979, -0.200290233, -9.8289175  , 0.0003908689, 0.01294038  , 0.00193809881, 0.02140599  , 0.0151585611, 0.0033091798, 920.4695    , 30.0533829  , 803.112732  , 1.45        , 3           , 255         , 0           , 0
-0.0223703682, -0.2044067  , -9.827391   , 0.000826233241, 0.0132200895, 0.00209082733, 0.0214146115, 0.0152902808, 0.00333291572, 920.4695    , 30.0533829  , 803.1136    , 1.46        , 3           , 255         , 0           , 0
-0.0251084566, -0.197626665, -9.830744   , 0.000355758879, 0.0132136522, 0.00281116832, 0.0214186441, 0.0154217808, 0.00336385355, 920.4695    , 30.0533829  , 803.114441  , 1.47        , 3           , 255         , 0           , 0
-0.03086403 , -0.209081918, -9.833406   , 0.000367462228, 0.013105982 , 0.0017075428, 0.0214226227, 0.0155524407, 0.00338373356, 920.4695    , 30.0533829  , 803.1153    , 1.48        , 3           , 255         , 0           , 0
-0.0266730785, -0.204686075, -9.831171   , 0.000322404347, 0.0128877144, 0.001791807 , 0.0214261711, 0.0156809   , 0.00340440986, 920.4695    , 30.0533829  , 803.11615   , 1.49        , 3           , 255         , 0           , 0
-0.02708286 , -0.204145908, -9.831451   , -4.09844943E-05, 0.01257465  , 0.001620353 , 0.0214260537, 0.0158062652, 0.00342330569, 920.4695    , 30.0533829  , 803.117     , 1.5         , 3           , 255         , 0           , 0
-0.0267848372, -0.204090029, -9.82957    , 0.0003013267, 0.0136288581, 0.002024124 , 0.021421792 , 0.0157751814, 0.00344634335, 920.4695    , 30.0533829  , 803.0822    , 1.51        , 3           , 255         , 0           , 0
-0.02572313 , -0.20518899 , -9.826962   , 0.0007682902, 0.01300975  , 0.00164200959, 0.0214297827, 0.015904896 , 0.00346554886, 920.4695    , 30.0533829  , 803.082947  , 1.52        , 3           , 255         , 0           , 0
-0.0288896263, -0.202339128, -9.830855   , 0.0003457994, 0.0127926543, 0.00200832426, 0.021433603 , 0.0160323568, 0.00348837115, 920.470154  , 30.0541248  , 803.0837    , 1.53        , 3           , 255         , 0           , 0
-0.0302493572, -0.206269309, -9.831246   , -6.195997E-07, 0.0131513625, 0.00210604724, 0.02143398  , 0.0161633883, 0.00351224816, 920.470154  , 30.0541248  , 803.0844    , 1.54        , 3           , 255         , 0           , 0
-0.03065914 , -0.213868931, -9.833518   , -0.000596904953, 0.0128055271, 0.00118733465, 0.0214282479, 0.0162911545, 0.00352686434, 920.470154  , 30.0541248  , 803.085144  , 1.55        , 3           , 255         , 0           , 0
-0.0153668225, -0.203177333, -9.829029   , 0.000186633915, 0.0140215056, 0.0010521611, 0.0214303341, 0.0164311081, 0.00354038924, 920.470154  , 30.0541248  , 803.0859    , 1.56        , 3           , 255         , 0           , 0
-0.0139325857, -0.209342688, -9.836069   , 0.000569333264, 0.0132362107, 0.00211599539, 0.0214364231, 0.0165629815, 0.00356438383, 920.470154  , 30.0541248  , 803.0866    , 1.57        , 3           , 255         , 0           , 0
-0.02393499 , -0.203121454, -9.82901    , 0.000223499432, 0.01250007  , 0.0022494134, 0.0214390736, 0.016687464 , 0.00358955562, 920.470154  , 30.0541248  , 803.087341  , 1.58        , 3           , 255         , 0           , 0
-0.0314041972, -0.2018735  , -9.826551   , 5.67267925E-05, 0.01293953  , 0.00259290636, 0.02144012  , 0.0168162733, 0.00361825549, 920.470154  , 30.0541248  , 803.0881    , 1.59        , 3           , 255         , 0           , 0
-0.02194196 , -0.213067979, -9.830893   , 0.000425967359, 0.0133988867, 0.00166190532, 0.0214447062, 0.01694987  , 0.00363774574, 920.470154  , 30.0541248  , 803.088867  , 1.6         , 3           , 255         , 0           , 0
-0.0301934779, -0.2066046  , -9.830761   , -1.64260346E-05, 0.0129175736, 0.00109839579, 0.0214403849, 0.01689826  , 0.003651424 , 920.470154  , 30.0541248  , 803.0554    , 1.61        , 3           , 255         , 0           , 0
-0.02855435 , -0.21090731 , -9.83553    , 0.00020769304, 0.0130802514, 0.00170053286, 0.0214427952, 0.0170286633, 0.00367123215, 920.470154  , 30.0541248  , 803.056     , 1.62        , 3           , 255         , 0           , 0
-0.0284425914, -0.208411366, -9.831693   , 0.0002942978, 0.0131931882, 0.00224824925, 0.0214461684, 0.0171600785, 0.00369654084, 920.40686   , 30.0548668  , 803.056641  , 1.63        , 3           , 255         , 0           , 0
-0.02965331 , -0.200048089, -9.830781   , 3.038735E-05, 0.0137403207, 0.002386934 , 0.02144693  , 0.01729693  , 0.00372335478, 920.40686   , 30.0548668  , 803.057251  , 1.64        , 3           , 255         , 0           , 0
-0.0258907676, -0.200793147, -9.8392     , 0.000287275761, 0.01374266  , 0.00101939822, 0.0214500353, 0.0174341016, 0.003736495 , 920.40686   , 30.0548668  , 803.057861  , 1.65        , 3           , 255         , 0           , 0
-0.021904707, -0.203680247, -9.830929   , 9.592607E-05, 0.013263409 , 0.00238166749, 0.0214514565, 0.0175661948, 0.00376315485, 920.40686   , 30.0548668  , 803.0585    , 1.66        , 3           , 255         , 0           , 0
-0.0253878534, -0.210143611, -9.828117   , -0.0006940497, 0.0133933155, 0.00235416461, 0.02144498  , 0.0176995881, 0.00378956646, 920.40686   , 30.0548668  , 803.0591    , 1.67        , 3           , 255         , 0           , 0
-0.0155158341, -0.20056963 , -9.829979   , 0.0002170557, 0.0129187452, 0.00214057835, 0.0214475766, 0.0178282782, 0.00381374126, 920.40686   , 30.0548668  , 803.0597    , 1.68        , 3           , 255         , 0           , 0
-0.0263936818, -0.202041119, -9.827093   , 0.000399627868, 0.013201965 , 0.001729791 , 0.0214519352, 0.01795989  , 0.00383386947, 920.40686   , 30.0548668  , 803.060364  , 1.69        , 3           , 255         , 0           , 0
-0.02572313 , -0.203140065, -9.83132    , 0.0001509318, 0.0127320765, 0.001340655 , 0.0214537326, 0.0180868935, 0.003850006 , 920.40686   , 30.0548668  , 803.061035  , 1.7         , 3           , 255         , 0           , 0
-0.0224262476, -0.199880451, -9.825304   , 0.00120831875, 0.0128920721, 0.00151738257, 0.0214601662, 0.0180289112, 0.003867838 , 920.40686   , 30.0548668  , 803.0998    , 1.71        , 3           , 255         , 0           , 0
-0.009834766, -0.209268183, -9.823665   , 0.000966059451, 0.0131571535, 0.002179792 , 0.0214702711, 0.01815998  , 0.00389245828, 920.40686   , 30.0548668  , 803.100647  , 1.72        , 3           , 255         , 0           , 0
-0.0194646418, -0.203941017, -9.826218   , 0.000827374868, 0.0131793907, 0.002655533 , 0.0214790776, 0.0182911716, 0.00392184174, 920.45      , 30.0559444  , 803.1015    , 1.73        , 3           , 255         , 0           , 0
-0.0265799463, -0.203903764, -9.835921   , 0.000421268836, 0.0132741872, 0.00182869157, 0.0214836765, 0.01842349  , 0.00394297857, 920.45      , 30.0559444  , 803.102356  , 1.74        , 3           , 255         , 0           , 0
-0.029578805, -0.211372972, -9.834747   , -0.000158046721, 0.0131296506, 0.00248349388, 0.0214826036, 0.0185542181, 0.0039706314, 920.45      , 30.0559444  , 803.1032    , 1.75        , 3           , 255         , 0           , 0
-0.036880374, -0.207852572, -9.830725   , 0.000482126256, 0.0134310117, 0.0021043052, 0.0214878712, 0.0186880417, 0.00399455847, 920.45      , 30.0559444  , 803.1041    , 1.76        , 3           , 255         , 0           , 0
-0.0347755849, -0.20410867 , -9.826273   , 0.000647728564, 0.01396878  , 0.0025519582, 0.02149488  , 0.0188271459, 0.004023079 , 920.45      , 30.0559444  , 803.105042  , 1.77        , 3           , 255         , 0           , 0
-0.0328943133, -0.201966614, -9.831562   , -8.490082E-05, 0.0132215219, 0.0025174336, 0.02149456  , 0.0189587865, 0.00405109255, 920.45      , 30.0559444  , 803.105957  , 1.78        , 3           , 255         , 0           , 0
-0.0264681876, -0.199433416, -9.826328   , 0.000407809974, 0.0128604732, 0.002404496 , 0.0214991439, 0.01908684  , 0.00407790067, 920.45      , 30.0559444  , 803.1069    , 1.79        , 3           , 255         , 0           , 0
-0.02503395 , -0.209454447, -9.826068   , 0.000161454576, 0.013069964 , 0.00143604435, 0.0215010867, 0.0192171969, 0.00409507  , 920.45      , 30.0559444  , 803.1078    , 1.8         , 3           , 255         , 0           , 0
-0.0212155282, -0.207033008, -9.832903   , 0.000587445451, 0.0132585727, 0.00218097074, 0.0215013884, 0.0191425011, 0.00411961367, 920.45      , 30.0559444  , 803.093262  , 1.81        , 3           , 255         , 0           , 0
-0.0204332173, -0.206418321, -9.849053   , 0.000352793344, 0.012630688 , 0.00144365989, 0.0215052422, 0.0192684624, 0.00413676538, 920.45      , 30.0559444  , 803.0941    , 1.82        , 3           , 255         , 0           , 0
-0.0154413283, -0.2065301  , -9.822734   , 0.000245707779, 0.0131070158, 0.0013921652, 0.0215080231, 0.0193992052, 0.0041535045, 920.4201    , 30.0557423  , 803.095     , 1.83        , 3           , 255         , 0           , 0
-0.0226311386, -0.200085357, -9.832922   , 0.000373859366, 0.013489129 , 0.00264910422, 0.02151233  , 0.01953349  , 0.00418289565, 920.4201    , 30.0557423  , 803.0958    , 1.84        , 3           , 255         , 0           , 0
-0.0226870179, -0.195596367, -9.83989    , 0.00046924167, 0.01359914  , 0.00250924937, 0.0215175711, 0.0196689088, 0.004210912 , 920.4201    , 30.0557423  , 803.0967    , 1.85        , 3           , 255         , 0           , 0
-0.032056123, -0.203046948, -9.832066   , -0.000168590661, 0.0130122174, 0.00210372871, 0.0215163548, 0.0197985433, 0.004234748 , 920.4201    , 30.0557423  , 803.097534  , 1.86        , 3           , 255         , 0           , 0
-0.0308267772, -0.211037681, -9.828043   , 0.00121942593, 0.0134967361, 0.00253675226, 0.0215291083, 0.0199329313, 0.004263019 , 920.4201    , 30.0557423  , 803.0984    , 1.87        , 3           , 255         , 0           , 0
-0.02367422 , -0.211689621, -9.834134   , 0.0002035757, 0.0135025876, 0.0027643824, 0.0215317514, 0.0200673249, 0.004293568 , 920.4201    , 30.0557423  , 803.099243  , 1.88        , 3           , 255         , 0           , 0
-0.0121444464, -0.204704717, -9.832438   , 0.0001842652, 0.0125944084, 0.00234774337, 0.0215341225, 0.020192733 , 0.00431975536, 920.4201    , 30.0557423  , 803.1001    , 1.89        , 3           , 255         , 0           , 0
-0.0136718154, -0.204052761, -9.839422   , 0.0002304934, 0.0128220394, 0.00168299349, 0.02153682  , 0.0203205552, 0.00433934666, 920.4201    , 30.0557423  , 803.100952  , 1.9         , 3           , 255         , 0           , 0
-0.0142306089, -0.205729157, -9.830948   , 1.16296069E-05, 0.0130949225, 0.00270587369, 0.0215316676, 0.0202611163, 0.004369105 , 920.4201    , 30.0557423  , 803.1218    , 1.91        , 3           , 255         , 0           , 0
-0.0189058483, -0.210162252, -9.836983   , -0.0005969443, 0.0132078584, 0.00214879448, 0.0215261951, 0.0203926973, 0.004393435 , 920.4201    , 30.0557423  , 803.1228    , 1.92        , 3           , 255         , 0           , 0
-0.0295974314, -0.1999177  , -9.816717   , -2.87469247E-05, 0.0127853677, 0.00213358039, 0.0215264   , 0.02052006  , 0.00441752141, 920.4563    , 30.0574284  , 803.12384   , 1.93        , 3           , 255         , 0           , 0
-0.02687797 , -0.202115625, -9.821467   , 2.74291178E-05, 0.0131949857, 0.00230561942, 0.0215272028, 0.0206514765, 0.0044434173, 920.4563    , 30.0574284  , 803.1249    , 1.94        , 3           , 255         , 0           , 0
-0.02829358 , -0.2044812  , -9.830948   , 0.000169624764, 0.0135162426, 0.00166076515, 0.0215293039, 0.0207862444, 0.004462934 , 920.4563    , 30.0574284  , 803.1259    , 1.95        , 3           , 255         , 0           , 0
-0.0312738121, -0.204890966, -9.840056   , 0.0005962117, 0.0135794412, 0.00183631538, 0.0215357076, 0.0209216084, 0.00448422041, 920.4563    , 30.0574284  , 803.126953  , 1.96        , 3           , 255         , 0           , 0
-0.0275485218, -0.214930624, -9.835921   , 0.0003849663, 0.0131101366, 0.00143840152, 0.02153992  , 0.0210523643, 0.004501428 , 920.4563    , 30.0574284  , 803.128     , 1.97        , 3           , 255         , 0           , 0
-0.0308267772, -0.210870057, -9.834897   , 0.000731385255, 0.0136789186, 0.00240626815, 0.0215478018, 0.0211886   , 0.00452843728, 920.4563    , 30.0574284  , 803.129     , 1.98        , 3           , 255         , 0           , 0
-0.024959445, -0.199861839, -9.825099   , 0.000362144754, 0.0132178068, 0.00122188975, 0.0215517431, 0.021320479 , 0.004543504 , 920.4563    , 30.0574284  , 803.130066  , 1.99        , 3           , 255         , 0           , 0
-0.0275485218, -0.196099281, -9.820145   , -0.000158654046, 0.01371637  , 0.00140270637, 0.0215505175, 0.0214573015, 0.004560487 , 920.4563    , 30.0574284  , 803.1311    , 2           , 3           , 0           , 6.4242363   , 200
-0.0211782753, -0.196602181, -9.825621   , 6.779254E-05, 0.0134923542, 0.002334303 , 0.0215452388, 0.0213702172, 0.00458659837, 920.4563    , 30.0574284  , 803.105469  , 2.01        , 3           , 1           , 0           , 0
-0.022277236, -0.205338   , -9.831339   , -0.0006051498, 0.0132787675, 0.00231148116, 0.021539744 , 0.02150247  , 0.00461257249, 920.4563    , 30.0574284  , 803.1064    , 2.02        , 3           , 2           , 0           , 0
-0.0240840018, -0.21353364 , -9.825564   , -5.860357E-05, 0.0128088789, 0.00201538671, 0.02153965  , 0.0216300879, 0.00463548442, 920.473938  , 30.0568218  , 803.1073    , 2.03        , 3           , 3           , 0           , 0
-0.0246241689, -0.204946846, -9.827316   , 0.000254460872, 0.0119469278, 0.001880798 , 0.0215426572, 0.0217491239, 0.004656866 , 920.473938  , 30.0568218  , 803.1082    , 2.04        , 3           , 4           , 0           , 0
-0.0254809856, -0.2087839  , -9.831003   , -0.000125897815, 0.0129756527, 0.002748016 , 0.0215420611, 0.0218782574, 0.004687141 , 920.473938  , 30.0568218  , 803.109131  , 2.05        , 3           , 5           , 0           , 0
-0.0224262476, -0.208578989, -9.824038   , 0.000157908289, 0.0129317641, 0.00181057816, 0.0215440989, 0.02200715  , 0.004708033 , 920.473938  , 30.0568218  , 803.110046  , 2.06        , 3           , 6           , 0           , 0
-0.0217184424, -0.206176192, -9.830893   , -8.31806E-05, 0.0127813751, 0.001750891 , 0.021543717 , 0.0221345536, 0.004728296 , 920.473938  , 30.0568218  , 803.110962  , 2.07        , 3           , 7           , 0           , 0
-0.014398247, -0.201240182, -9.835437   , 0.000381442165, 0.0129387872, 0.00191064167, 0.021548016 , 0.0222634971, 0.004750189 , 920.473938  , 30.0568218  , 803.1119    , 2.08        , 3           , 8           , 5           , 5
-0.0226125121, -0.207237884, -9.824987   , -6.52370545E-06, 0.0132916421, 0.00211428013, 0.0215484872, 0.0223959219, 0.00477419561, 920.473938  , 30.0568218  , 803.1128    , 2.09        , 3           , 9           , 5           , 0.1
-0.0227987766, -0.208113343, -9.823739   , 0.000393145543, 0.0127152512, 0.002348932 , 0.0215530042, 0.0225225333, 0.00480042538, 920.473938  , 30.0568218  , 803.1137    , 2.1         , 3           , 10          , 0.1         , 0.1
-0.03164634 , -0.2045743  , -9.831227   , 0.00024157553, 0.0134924073, 0.00229042652, 0.0215503871, 0.0224249475, 0.00482611265, 920.473938  , 30.0568218  , 803.067749  , 2.11        , 3           , 11          , 0.00995397  , 0.009954017
-0.02592802 , -0.202842072, -9.833071   , 0.000477397931, 0.0133812241, 0.00252858968, 0.0215557925, 0.0225581788, 0.004854283 , 920.473938  , 30.0568218  , 803.0684    , 2.12        , 3           , 12          , 0.174643889 , 0
-0.02572313 , -0.202115625, -9.832829   , -0.000138783173, 0.0132296672, 0.00246422132, 0.021555027 , 0.02268991  , 0.004881778 , 920.4416    , 30.0554066  , 803.0691    , 2.13        , 3           , 13          , 0           , 0
-0.02168119 , -0.206083059, -9.822789   , 0.000614912249, 0.0130324652, 0.00143257133, 0.0215615667, 0.02281989  , 0.004898913 , 920.4416    , 30.0554066  , 803.069763  , 2.14        , 3           , 14          , 9.853048E-08, 3.89051274E-06
-0.0182911754, -0.20589681 , -9.825769   , 0.000589164847, 0.0135011841, 0.00178952329, 0.0215679314, 0.0229544863, 0.004919721 , 920.4416    , 30.0554066  , 803.070435  , 2.15        , 3           , 15          , 0           , -8.193891E-08
-0.0152364373, -0.199060887, -9.823088   , 0.00040834822, 0.0135251768, 0.002666689 , 0.0215726979, 0.023089122 , 0.004949307 , 920.4416    , 30.0554066  , 803.0711    , 2.16        , 3           , 16          , 0           , 4.203895E-45
-0.0153109431, -0.212397426, -9.83400249 , 0.0002480124, 0.0133993644, 0.00310029788, 0.0215759631, 0.0232224166, 0.004983201 , 920.4416    , 30.0554066  , 803.0718    , 2.17        , 3           , 20          , 0           , 0
-0.0242330134, -0.2120249  , -9.836107   , 0.000446969236, 0.0129651716, 0.00214472  , 0.0215809979, 0.02335157  , 0.005007447 , 920.4416    , 30.0554066  , 803.072449  , 2.18        , 3           , 21          , 0           , 0
-0.0317767262, -0.19717963 , -9.830538   , -0.000177404188, 0.01296166  , 0.00212248345, 0.0215797834, 0.0234806947, 0.00503147  , 920.4416    , 30.0554066  , 803.0731    , 2.19        , 3           , 22          , 0           , 0
-0.0328198075, -0.202003866, -9.827875   , 8.533589E-05, 0.012542095 , 0.00228457479, 0.0215812363, 0.02360559  , 0.005057024 , 920.4416    , 30.0554066  , 803.0738    , 2.2         , 3           , 40          , 0           , 0
-0.0306963921, -0.200830385, -9.833387   , -0.000213115389, 0.013012589 , 0.00205695652, 0.0215724818, 0.023501    , 0.00508023426, 920.4416    , 30.0554066  , 803.0726    , 2.21        , 3           , 41          , 0           , 0
-0.0287033617, -0.212434679, -9.844955   , -0.000326052628, 0.013016684 , 0.0027925116, 0.0215699486, 0.0236305334, 0.00511096837, 920.4416    , 30.0554066  , 803.073242  , 2.22        , 3           , 42          , 0           , 0
-0.0238604844, -0.212416053, -9.828694   , 0.00067867944, 0.0135409934, 0.00177315064, 0.0215772241, 0.0237655267, 0.005131622 , 920.4447    , 30.0553379  , 803.0739    , 2.23        , 3           , 255         , 0           , 0
-0.02881512 , -0.2049096  , -9.837076   , 0.000876466 , 0.0135023724, 0.002212026 , 0.0215865839, 0.02390004  , 0.005156658 , 920.4447    , 30.0553379  , 803.0746    , 2.24        , 3           , 255         , 0           , 0
-0.027846545, -0.200737283, -9.840746   , 0.000115748611, 0.0129798185, 0.00214005029, 0.021588318 , 0.0240293369, 0.005180862 , 920.4447    , 30.0553379  , 803.0753    , 2.25        , 3           , 255         , 0           , 0
-0.02682209 , -0.21038577 , -9.831004   , 0.000370296359, 0.0128698079, 0.00191183528, 0.02159255  , 0.02415759  , 0.00520276  , 920.4447    , 30.0553379  , 803.07605   , 2.26        , 3           , 255         , 0           , 0
-0.0334717333, -0.209026054, -9.833704   , -0.000151672808, 0.0128265033, 0.00203764625, 0.0215915926, 0.02428539  , 0.005225907 , 920.4447    , 30.0553379  , 803.0768    , 2.27        , 3           , 255         , 0           , 0
-0.02734363 , -0.217203051, -9.835884   , -0.000177420166, 0.0130114183, 0.00159350422, 0.0215902738, 0.0244151223, 0.00524465274, 920.4447    , 30.0553379  , 803.0775    , 2.28        , 3           , 255         , 0           , 0
-0.0187568367, -0.2148375  , -9.826533   , 0.0002620404, 0.0135263652, 0.0017245817, 0.0215933882, 0.0245499816, 0.00526482053, 920.4447    , 30.0553379  , 803.078247  , 2.29        , 3           , 255         , 0           , 0
-0.0255927444, -0.207703546, -9.834375   , 0.000176605987, 0.0134631656, 0.00202828343, 0.02159572  , 0.0246841367, 0.00528801233, 920.4447    , 30.0553379  , 803.079     , 2.3         , 3           , 255         , 0           , 0
-0.03386289 , -0.212267041, -9.830426   , 0.00057509914, 0.013081654 , 0.00207393849, 0.02159923  , 0.0245911554, 0.005311509 , 920.4447    , 30.0553379  , 803.0729    , 2.31        , 3           , 255         , 0           , 0
-0.032838434, -0.20859763 , -9.8324     , 0.00128022558, 0.013213316 , 0.00192706147, 0.0216125771, 0.0247228332, 0.00533363549, 920.4447    , 30.0553379  , 803.073547  , 2.32        , 3           , 255         , 0           , 0
-0.0264309347, -0.2113357  , -9.837021   , 0.000461576681, 0.0131770382, 0.00192003977, 0.0216177385, 0.0248541534, 0.005355686 , 920.4441    , 30.0587082  , 803.0743    , 2.33        , 3           , 255         , 0           , 0
-0.03216788 , -0.213887542, -9.833948   , -0.000116568517, 0.0126310755, 0.00210436736, 0.0216171648, 0.0249799788, 0.00537946168, 920.4441    , 30.0587082  , 803.075     , 2.34        , 3           , 255         , 0           , 0
-0.01737848 , -0.214055181, -9.823181   , -0.000145241735, 0.0129400436, 0.001599368 , 0.0216161832, 0.0251089949, 0.005398253 , 920.4441    , 30.0587082  , 803.075745  , 2.35        , 3           , 255         , 0           , 0
-0.0195018947, -0.209044665, -9.828378   , 0.000365024083, 0.0131056467, 0.00196392718, 0.0216203984, 0.02523959  , 0.00542072672, 920.4441    , 30.0587082  , 803.0765    , 2.36        , 3           , 255         , 0           , 0
-0.0130571425, -0.208672136, -9.826776   , 0.000237457643, 0.0132203391, 0.002292206 , 0.0216234233, 0.0253712609, 0.005446509 , 920.4441    , 30.0587082  , 803.0772    , 2.37        , 3           , 255         , 0           , 0
-0.0195391476, -0.213067979, -9.827949   , -0.000211950784, 0.0138751408, 0.00257718237, 0.02162204  , 0.02550942  , 0.005475284 , 920.4441    , 30.0587082  , 803.077942  , 2.38        , 3           , 255         , 0           , 0
-0.0294670463, -0.202506781, -9.828229   , 0.0005171676, 0.0132057108, 0.00180183584, 0.0216277428, 0.02564105  , 0.005496159 , 920.4441    , 30.0587082  , 803.0787    , 2.39        , 3           , 255         , 0           , 0
-0.0290572643, -0.201631337, -9.829328   , 0.00023628732, 0.0132261906, 0.002034147 , 0.021630697 , 0.0257728379, 0.005519363 , 920.4441    , 30.0587082  , 803.0794    , 2.4         , 3           , 255         , 0           , 0
-0.02367422 , -0.2130866  , -9.833817   , 0.00103796076, 0.0132618034, 0.001664921 , 0.0216387715, 0.0256547537, 0.00553881  , 920.4441    , 30.0587082  , 803.074     , 2.41        , 3           , 255         , 0           , 0
-0.03218651 , -0.2039969  , -9.8377285  , 0.000462156138, 0.0132261077, 0.002284613 , 0.0216440521, 0.0257864818, 0.005564522 , 920.4441    , 30.0587082  , 803.0747    , 2.42        , 3           , 255         , 0           , 0
-0.0253133476, -0.204592943, -9.838026   , -0.000190305349, 0.01263509  , 0.001476497 , 0.021642603 , 0.0259124842, 0.00558202248, 920.4344    , 30.05716    , 803.075439  , 2.43        , 3           , 255         , 0           , 0
-0.0167638063, -0.2057664  , -9.833351   , -2.87991825E-05, 0.013089763 , 0.002158217 , 0.0216429476, 0.0260428786, 0.00560644  , 920.4344    , 30.05716    , 803.0762    , 2.44        , 3           , 255         , 0           , 0
-0.0171363354, -0.211819977, -9.826719   , -0.00022717088, 0.013700678 , 0.00167369843, 0.0216411911, 0.026179485 , 0.005626144 , 920.4344    , 30.05716    , 803.0769    , 2.45        , 3           , 255         , 0           , 0
-0.02283603 , -0.204667449, -9.829103   , -0.000344204338, 0.0131863169, 0.00147357129, 0.0216382127, 0.0263109971, 0.00564373424, 920.4344    , 30.05716    , 803.077637  , 2.46        , 3           , 255         , 0           , 0
-0.0224262476, -0.199191257, -9.829048   , 0.000121588804, 0.0134701226, 0.002021873 , 0.0216400363, 0.0264452249, 0.00566687062, 920.4344    , 30.05716    , 803.078369  , 2.47        , 3           , 255         , 0           , 0
-0.02592802 , -0.203903764, -9.836815   , 7.067925E-05, 0.0137036042, 0.00184515247, 0.0216413084, 0.0265818238, 0.00568828965, 920.4344    , 30.05716    , 803.0791    , 2.48        , 3           , 255         , 0           , 0
-0.0253506  , -0.213943437, -9.834301   , 0.0003000648, 0.0133999027, 0.00194404554, 0.0216449033, 0.0267153643, 0.00571063254, 920.4344    , 30.05716    , 803.079834  , 2.49        , 3           , 255         , 0           , 0
-0.0251084566, -0.2104044  , -9.825937   , 0.000338100683, 0.0128363864, 0.00229339069, 0.0216489714, 0.0268432032, 0.005736348 , 920.4344    , 30.05716    , 803.080566  , 2.5         , 3           , 255         , 0           , 0
-0.0271014869, -0.206884   , -9.831525   , 0.000387827837, 0.01398673  , 0.00219685235, 0.021648543 , 0.0267387126, 0.00576121453, 920.4344    , 30.05716    , 803.0878    , 2.51        , 3           , 255         , 0           , 0
-0.0301934779, -0.209547564, -9.833351   , 0.000120406432, 0.01358238  , 0.00233963318, 0.0216504559, 0.0268739965, 0.005787554 , 920.4344    , 30.05716    , 803.0886    , 2.52        , 3           , 255         , 0           , 0
-0.02734363 , -0.216122717, -9.835902   , -0.000239471425, 0.0137093607, 0.00192357937, 0.0216486584, 0.0270106327, 0.00580976065, 920.457     , 30.0606651  , 803.0894    , 2.53        , 3           , 255         , 0           , 0
-0.0158697367, -0.214986488, -9.837542   , -0.000479975162, 0.0138527267, 0.00215764623, 0.0216445252, 0.0271486528, 0.00583433872, 920.457     , 30.0606651  , 803.0902    , 2.54        , 3           , 255         , 0           , 0
-0.019185245, -0.206772238, -9.834804   , 0.000215203516, 0.0131364819, 0.002510502 , 0.0216474365, 0.027279444 , 0.005862291 , 920.457     , 30.0606651  , 803.091     , 2.55        , 3           , 255         , 0           , 0
-0.0185705721, -0.209677979, -9.834674   , 0.0008255329, 0.01377607  , 0.00218339358, 0.0216563717, 0.0274166986, 0.005887111 , 920.457     , 30.0606651  , 803.091858  , 2.56        , 3           , 255         , 0           , 0
-0.021699816, -0.212136656, -9.833239   , 0.000460388546, 0.0137596857, 0.00295405881, 0.021661872 , 0.0275536235, 0.00591963669, 920.457     , 30.0606651  , 803.0927    , 2.57        , 3           , 255         , 0           , 0
-0.021904707, -0.198278576, -9.830948   , 5.07715231E-05, 0.0133594293, 0.002622854 , 0.02166318  , 0.0276866127, 0.005948763 , 920.457     , 30.0606651  , 803.093567  , 2.58        , 3           , 255         , 0           , 0
-0.0215508044, -0.203475356, -9.834282   , 0.000509542646, 0.0136104664, 0.00209620339, 0.0216689352, 0.0278222263, 0.00597267644, 920.457     , 30.0606651  , 803.0944    , 2.59        , 3           , 255         , 0           , 0
-0.0276044011, -0.215936467, -9.834114   , 0.0005756665, 0.0135548767, 0.00231505628, 0.02167542  , 0.02795724  , 0.00599876931, 920.457     , 30.0606651  , 803.0953    , 2.6         , 3           , 255         , 0           , 0
-0.0261515379, -0.211261228, -9.831414   , 0.000816748769, 0.0130795939, 0.00296343677, 0.02168151  , 0.0278436765, 0.00603116164, 920.457     , 30.0606651  , 803.0699    , 2.61        , 3           , 255         , 0           , 0
-0.0167265534, -0.205226228, -9.834897   , 0.000299460924, 0.0130263446, 0.002020147 , 0.0216851458, 0.02797347  , 0.00605419045, 920.457     , 30.0606651  , 803.070557  , 2.62        , 3           , 255         , 0           , 0
-0.0162608922, -0.207666308, -9.833277   , 0.00054523116, 0.0132030649, 0.00249705813, 0.0216913763, 0.0281049237, 0.00608202955, 920.4491    , 30.05999    , 803.0712    , 2.63        , 3           , 255         , 0           , 0
-0.02220273 , -0.208988786, -9.83027649 , 0.000164872457, 0.0136647616, 0.00164973608, 0.0216935743, 0.028241178 , 0.00610149326, 920.4491    , 30.05999    , 803.0719    , 2.64        , 3           , 255         , 0           , 0
-0.0311434269, -0.203289077, -9.835028   , -0.000261714449, 0.0134780947, 0.00119564624, 0.0216913763, 0.028375661 , 0.00611637626, 920.4491    , 30.05999    , 803.072632  , 2.65        , 3           , 255         , 0           , 0
-0.0265985727, -0.210180879, -9.835251   , -0.000183302065, 0.0135395359, 0.00170649716, 0.0216901135, 0.0285106562, 0.00613638153, 920.4491    , 30.05999    , 803.073364  , 2.66        , 3           , 255         , 0           , 0
-0.0260025263, -0.2062507  , -9.826365   , 0.0001408806, 0.0125587955, 0.00209914451, 0.0216922   , 0.0286357533, 0.00616010046, 920.4491    , 30.05999    , 803.0741    , 2.67        , 3           , 255         , 0           , 0
-0.029169023, -0.2095662  , -9.826924   , 0.0007003005, 0.0130234184, 0.00197508931, 0.0216998514, 0.0287655275, 0.006182682 , 920.4491    , 30.05999    , 803.0748    , 2.68        , 3           , 255         , 0           , 0
-0.02829358 , -0.195093468, -9.824913   , 0.000572734 , 0.0129531976, 0.00235018134, 0.021706339 , 0.0288945157, 0.00620899955, 920.4491    , 30.05999    , 803.075562  , 2.69        , 3           , 255         , 0           , 0
-0.0311434269, -0.200849026, -9.835978   , 0.00111869513, 0.0134699   , 0.00223607384, 0.021718258 , 0.0290286932, 0.00623428961, 920.4491    , 30.05999    , 803.0763    , 2.7         , 3           , 255         , 0           , 0
-0.02508983 , -0.204741955, -9.835529   , 0.000489037542, 0.0133467922, 0.002167041 , 0.0217173137, 0.0288964361, 0.00625867536, 920.4491    , 30.05999    , 803.064148  , 2.71        , 3           , 255         , 0           , 0
-0.0176019967, -0.207275152, -9.827632   , 0.000453927525, 0.0129307378, 0.00257782848, 0.02172268  , 0.0290251467, 0.00628726743, 920.4491    , 30.05999    , 803.0648    , 2.72        , 3           , 255         , 0           , 0
-0.0276044011, -0.203140065, -9.828675   , -0.0004349415, 0.0127733294, 0.00245201727, 0.0217191242, 0.0291523132, 0.00631456776, 920.458435  , 30.0589123  , 803.0655    , 2.73        , 3           , 255         , 0           , 0
-0.0319257379, -0.20340085 , -9.83282852 , -0.000121877041, 0.0133444527, 0.00239642663, 0.021718692 , 0.0292852055, 0.00634143455, 920.458435  , 30.0589123  , 803.066162  , 2.74        , 3           , 255         , 0           , 0
-0.0321120024, -0.212509185, -9.818842   , 0.000401847617, 0.0129120136, 0.00181418518, 0.0217233244, 0.0294138957, 0.00636238558, 920.458435  , 30.0589123  , 803.066833  , 2.75        , 3           , 255         , 0           , 0
-0.0340305269, -0.200346082, -9.83201    , 0.0005060074, 0.0135235125, 0.00115177559, 0.02172881  , 0.0295488425, 0.006376844 , 920.458435  , 30.0589123  , 803.0675    , 2.76        , 3           , 255         , 0           , 0
-0.03270805 , -0.2113916  , -9.840466   , 0.0002900807, 0.0134234494, 0.00151282386, 0.02173224  , 0.02968271  , 0.006394894 , 920.458435  , 30.0589123  , 803.0682    , 2.77        , 3           , 255         , 0           , 0
-0.0303611159, -0.199526548, -9.837076   , 0.0005534059, 0.0130904894, 0.00265448517, 0.02173865  , 0.0298130084, 0.00642428966, 920.458435  , 30.0589123  , 803.068848  , 2.78        , 3           , 255         , 0           , 0
-0.0309757888, -0.201109812, -9.832587   , 0.000489037542, 0.0130542079, 0.00191424869, 0.0217441954, 0.0299431   , 0.006446274 , 920.458435  , 30.0589123  , 803.0695    , 2.79        , 3           , 255         , 0           , 0
-0.0234879553, -0.204797834, -9.837449   , 0.000455682981, 0.0130448472, 0.00136653206, 0.0217492469, 0.0300732143, 0.00646278  , 920.458435  , 30.0589123  , 803.0702    , 2.8         , 3           , 255         , 0           , 0
-0.0135786831, -0.207833961, -9.831171   , 0.000349746522, 0.0130106332, 0.002093328 , 0.0217459351, 0.02993237  , 0.006486323 , 920.458435  , 30.0589123  , 803.0458    , 2.81        , 3           , 255         , 0           , 0
-0.01983717 , -0.206194833, -9.832476   , 0.0001303088, 0.012744382 , 0.00155614445, 0.0217477847, 0.0300594456, 0.00650465954, 920.458435  , 30.0589123  , 803.0463    , 2.82        , 3           , 255         , 0           , 0
-0.02341345 , -0.207424164, -9.82752    , 0.0008535755, 0.0125711728, 0.00200964883, 0.0217570141, 0.03018469  , 0.00652749557, 920.4445    , 30.0572929  , 803.0469    , 2.83        , 3           , 255         , 0           , 0
-0.0227987766, -0.199526548, -9.838603   , 0.000364375679, 0.0132166119, 0.0022905292, 0.0217614379, 0.03031632  , 0.00655328156, 920.4445    , 30.0572929  , 803.0474    , 2.84        , 3           , 255         , 0           , 0
-0.0299140811, -0.207033008, -9.826943   , 0.0007897923, 0.0134196645, 0.00190782989, 0.0217700042, 0.0304500721, 0.00657528546, 920.4445    , 30.0572929  , 803.048     , 2.85        , 3           , 255         , 0           , 0
-0.033583492, -0.19762665 , -9.836461   , 0.0007944737, 0.0127847586, 0.002220309 , 0.021778712 , 0.030577397 , 0.0066002775, 920.4445    , 30.0572929  , 803.0485    , 2.86        , 3           , 255         , 0           , 0
-0.0331364572, -0.2018735  , -9.83281    , -6.221123E-05, 0.0124512129, 0.00235080137, 0.0217788927, 0.0307013653, 0.00662650354, 920.4445    , 30.0572929  , 803.0491    , 2.87        , 3           , 255         , 0           , 0
-0.0384636223, -0.2030097  , -9.830986   , 0.000147278653, 0.0124962721, 0.0016017874, 0.0217809416, 0.0308259483, 0.00664524641, 920.4445    , 30.0572929  , 803.0496    , 2.88        , 3           , 255         , 0           , 0
-0.02156943 , -0.208541751, -9.824243   , -0.000379371835, 0.0130369654, 0.00213897112, 0.0217778962, 0.0309558138, 0.00666948175, 920.4445    , 30.0572929  , 803.050232  , 2.89        , 3           , 255         , 0           , 0
-0.0197812915, -0.2122298  , -9.831059   , -0.000355379976, 0.0126887923, 0.00188149733, 0.0217750128, 0.0310822632, 0.006691066 , 920.4445    , 30.0572929  , 803.050842  , 2.9         , 3           , 255         , 0           , 0
-0.0239722431, -0.202041119, -9.831116   , -0.000393438444, 0.012914909 , 0.00193476724, 0.02176405  , 0.0309309382, 0.00671299128, 920.4445    , 30.0572929  , 803.048645  , 2.91        , 3           , 255         , 0           , 0
-0.0252388418, -0.203270465, -9.84149    , 0.000178269969, 0.0129599674, 0.00171942567, 0.02176645  , 0.0310601257, 0.00673301052, 920.4445    , 30.0572929  , 803.049255  , 2.92        , 3           , 255         , 0           , 0
-0.01737848 , -0.211130813, -9.823999   , 0.0001062944, 0.0130553516, 0.00200966839, 0.02176823  , 0.0311902072, 0.006755955 , 920.429749  , 30.058506   , 803.049866  , 2.93        , 3           , 255         , 0           , 0
-0.0232644379, -0.19935891 , -9.831749   , -2.06036873E-07, 0.0133262826, 0.00193886319, 0.0217689257, 0.031323012 , 0.00677824952, 920.429749  , 30.058506   , 803.0505    , 2.94        , 3           , 255         , 0           , 0
-0.0256299973, -0.207480043, -9.836871   , -0.00025885 , 0.0131870136, 0.00214659772, 0.0217671022, 0.03145438  , 0.00680259336, 920.429749  , 30.058506   , 803.0511    , 2.95        , 3           , 255         , 0           , 0
-0.02734363 , -0.206064433, -9.832699   , 0.000353234966, 0.0131173786, 0.00166441966, 0.0217712484, 0.0315851569, 0.00682209758, 920.429749  , 30.058506   , 803.0517    , 2.96        , 3           , 255         , 0           , 0
-0.0266172  , -0.201705843, -9.828192   , -5.40414367E-05, 0.0133122383, 0.00191896746, 0.02177141  , 0.03171783  , 0.00684419135, 920.429749  , 30.058506   , 803.0523    , 2.97        , 3           , 255         , 0           , 0
-0.03684312 , -0.209026054, -9.825956   , 0.0008137615, 0.0131928651, 0.00178554934, 0.0217802059, 0.0318493359, 0.00686492445, 920.429749  , 30.058506   , 803.0529    , 2.98        , 3           , 255         , 0           , 0
-0.02834946 , -0.202115625, -9.824504   , 0.0013281235, 0.0133221867, 0.00162462844, 0.0217940975, 0.03198216  , 0.006884078 , 920.429749  , 30.058506   , 803.0535    , 2.99        , 3           , 255         , 0           , 0
-0.018235296, -0.209789723, -9.82659    , 0.0005498511, 0.0131805763, 0.00223437278, 0.0218004063, 0.03211345  , 0.006909303 , 920.429749  , 30.058506   , 803.054138  , 3           , 3           , 0           , 7.4242363   , 300
-0.0275112689, -0.208839774, -9.827092   , -6.63531755E-05, 0.0121941548, 0.00203836267, 0.0217927583, 0.0319439061, 0.00693210447, 920.429749  , 30.058506   , 803.072144  , 3.01        , 3           , 1           , 0           , 0
-0.02214685 , -0.203289077, -9.833388   , 7.935347E-05, 0.0133129945, 0.00240292167, 0.021794416 , 0.03207648  , 0.00695904251, 920.429749  , 30.058506   , 803.0729    , 3.02        , 3           , 2           , 0           , 0
-0.0218302011, -0.214166924, -9.830444   , 0.000483118842, 0.0131965466, 0.00229232525, 0.0218000766, 0.03220791  , 0.00698484946, 920.4475    , 30.0583725  , 803.0736    , 3.03        , 3           , 3           , 0           , 0
-0.02451241 , -0.204313561, -9.831377   , 0.000175906054, 0.0130514251, 0.001769771 , 0.0218024962, 0.0323380046, 0.007005398 , 920.4475    , 30.0583725  , 803.074341  , 3.04        , 3           , 4           , 0           , 0
-0.028871   , -0.205207616, -9.834543   , 0.000191705563, 0.0128460322, 0.00236254535, 0.0218052715, 0.03246591  , 0.00703183142, 920.4475    , 30.0583725  , 803.0751    , 3.05        , 3           , 5           , 0           , 0
-0.03537163 , -0.209342688, -9.830836   , 6.999078E-05, 0.0132825663, 0.00170832837, 0.0218066219, 0.0325983241, 0.00705181668, 920.4475    , 30.0583725  , 803.0758    , 3.06        , 3           , 6           , 0           , 0
-0.0362657  , -0.222697854, -9.834301   , 0.00020282375, 0.0132339979, 0.00181424362, 0.0218093377, 0.03273024  , 0.00707285153, 920.4475    , 30.0583725  , 803.0766    , 3.07        , 3           , 7           , 0           , 0
-0.0294670463, -0.2139248  , -9.834543   , 0.00072537805, 0.0130765876, 0.00237424881, 0.0218174625, 0.03286045  , 0.007099454 , 920.4475    , 30.0583725  , 803.0774    , 3.08        , 3           , 8           , 5           , 5
-0.0282749534, -0.214707091, -9.834599   , 0.0007710211, 0.012475621 , 0.00232158345, 0.0218260251, 0.0329846628, 0.0071254   , 920.4475    , 30.0583725  , 803.0782    , 3.09        , 3           , 9           , 5           , 0.1
-0.0241212547, -0.206939891, -9.83037    , 0.0002467113, 0.0127208056, 0.002053577 , 0.0218292642, 0.03311139  , 0.00714871939, 920.4475    , 30.0583725  , 803.079     , 3.1         , 3           , 10          , 0.1         , 0.1
-0.0250712037, -0.210274011, -9.82847    , -0.000387033564, 0.01284149  , 0.0022905916, 0.02182281  , 0.032950405 , 0.00717432331, 920.4475    , 30.0583725  , 803.0687    , 3.11        , 3           , 11          , 0.009557958 , 0.009558031
-0.0278651714, -0.2075173  , -9.84054    , 0.0005556708, 0.0133464886, 0.00254748  , 0.0218293052, 0.03308328  , 0.00720272027, 920.4475    , 30.0583725  , 803.069458  , 3.12        , 3           , 12          , 0.174645633 , 0
-0.0377744436, -0.215191409, -9.826533   , -0.000151796354, 0.0139960265, 0.00240938063, 0.021828685 , 0.03322267  , 0.0072298767, 920.4487    , 30.0585747  , 803.0702    , 3.13        , 3           , 13          , 0           , 0
-0.03008172 , -0.211950392, -9.832922   , 0.0005931215, 0.0131013039, 0.00180022151, 0.021835316 , 0.0333532579, 0.00725074625, 920.4487    , 30.0585747  , 803.0709    , 3.14        , 3           , 14          , 2.3804219E-07, 1.1707818E-05
-0.0298209488, -0.209882855, -9.83029652 , 0.0008061223, 0.013549543 , 0.00238363328, 0.0218442734, 0.0334881954, 0.00727755064, 920.4487    , 30.0585747  , 803.071655  , 3.15        , 3           , 15          , 0           , -2.47145323E-07
-0.0413507223, -0.208616257, -9.834524   , 0.000103921717, 0.0134096881, 0.00273473351, 0.02184633  , 0.03362165  , 0.007307837 , 920.4487    , 30.0585747  , 803.0724    , 3.16        , 3           , 16          , 0           , 4.203895E-45
-0.035315752, -0.21904707 , -9.835157   , 0.000144883437, 0.012868993 , 0.00248662266, 0.0218487084, 0.0337497666, 0.007335523 , 920.4487    , 30.0585747  , 803.0731    , 3.17        , 3           , 20          , 0           , 0
-0.0201351941, -0.207629055, -9.837748   , 6.47155248E-05, 0.0127385007, 0.00196582358, 0.0218501166, 0.0338766836, 0.007357972 , 920.4487    , 30.0585747  , 803.073853  , 3.18        , 3           , 21          , 0           , 0
-0.019967556, -0.207033008, -9.823665   , 0.0004948134, 0.01269637  , 0.0019921565, 0.021855833 , 0.03400318  , 0.00738067552, 920.4487    , 30.0585747  , 803.0746    , 3.19        , 3           , 22          , 0           , 0
-0.020749867, -0.2018176  , -9.819846   , 0.000185845143, 0.0127753662, 0.00192193629, 0.0218584444, 0.03413048  , 0.007402695 , 920.4487    , 30.0585747  , 803.0753    , 3.2         , 3           , 40          , 0           , 0
-0.0263936818, -0.198148191, -9.830035   , 0.00026717197, 0.0136104515, 0.00226018671, 0.0218578335, 0.0339636542, 0.00742813945, 920.4487    , 30.0585747  , 803.0634    , 3.21        , 3           , 41          , 0           , 0
-0.0286661088, -0.212322921, -9.832811   , -0.000102653721, 0.0132587664, 0.00230290415, 0.0218576882, 0.0340957046, 0.007454075 , 920.4487    , 30.0585747  , 803.0641    , 3.22        , 3           , 42          , 0           , 0
-0.024009496, -0.20166859 , -9.834151   , 0.000477247 , 0.01264083  , 0.001383021 , 0.0218630284, 0.03422178  , 0.007470674 , 920.420044  , 30.0573616  , 803.064758  , 3.23        , 3           , 255         , 0           , 0
-0.0299140811, -0.208169222, -9.835921   , 0.0007733416, 0.0129240518, 0.002016172 , 0.02187155  , 0.03435054  , 0.00749367  , 920.420044  , 30.0573616  , 803.0654    , 3.24        , 3           , 255         , 0           , 0
-0.0271014869, -0.203195959, -9.83201    , 0.0007674899, 0.0137760555, 0.0014672851, 0.0218798351, 0.0344879366, 0.007511363 , 920.420044  , 30.0573616  , 803.066162  , 3.25        , 3           , 255         , 0           , 0
-0.0271014869, -0.200867653, -9.830687   , 0.0008675535, 0.0133898444, 0.00148718071, 0.0218891278, 0.0346214734, 0.00752917072, 920.420044  , 30.0573616  , 803.0669    , 3.26        , 3           , 255         , 0           , 0
-0.02546236 , -0.207759425, -9.837356   , 0.000768075057, 0.0130838016, 0.00202377932, 0.0218976121, 0.03475183  , 0.00755228242, 920.420044  , 30.0573616  , 803.0676    , 3.27        , 3           , 255         , 0           , 0
-0.0228174031, -0.204127282, -9.831488   , 8.752562E-05, 0.0134758642, 0.00146026316, 0.0218991   , 0.0348862372, 0.007569841 , 920.420044  , 30.0573616  , 803.068359  , 3.28        , 3           , 255         , 0           , 0
-0.0209361315, -0.21038577 , -9.83512    , 0.000717165531, 0.0139434123, 0.00207351847, 0.0219071042, 0.0350251757, 0.00759364059, 920.420044  , 30.0573616  , 803.0691    , 3.29        , 3           , 255         , 0           , 0
-0.0214390457, -0.207852557, -9.826609   , 0.000416974828, 0.0130293807, 0.00182833325, 0.021912016 , 0.0351550356, 0.00761478627, 920.420044  , 30.0573616  , 803.0698    , 3.3         , 3           , 255         , 0           , 0
-0.0275671482, -0.205300763, -9.827391   , 0.000188733262, 0.0129106259, 0.00195475318, 0.0219067447, 0.03498675  , 0.00763689354, 920.420044  , 30.0573616  , 803.099548  , 3.31        , 3           , 255         , 0           , 0
-0.02892688 , -0.205617383, -9.833836   , -0.000158856084, 0.0137058664, 0.00196821219, 0.0219059475, 0.03512333  , 0.00765958754, 920.420044  , 30.0573616  , 803.100464  , 3.32        , 3           , 255         , 0           , 0
-0.0295974314, -0.2108142  , -9.836218   , -4.416331E-05, 0.0136578837, 0.00163174106, 0.0219061859, 0.0352595225, 0.007678903 , 920.406555  , 30.0559444  , 803.1014    , 3.33        , 3           , 255         , 0           , 0
-0.03620982 , -0.209659338, -9.836088   , 0.000333854725, 0.0135695236, 0.00238836231, 0.0219104718, 0.0353946574, 0.0077057695, 920.406555  , 30.0559444  , 803.1023    , 3.34        , 3           , 255         , 0           , 0
-0.02618879 , -0.201798961, -9.83255    , 0.000376571959, 0.0132599706, 0.00250773644, 0.0219152346, 0.0355266742, 0.00773376273, 920.406555  , 30.0559444  , 803.1032    , 3.35        , 3           , 255         , 0           , 0
-0.0344216824, -0.202711672, -9.826924   , 0.0005819656, 0.0131446915, 0.00214083656, 0.0219219234, 0.0356576256, 0.00775806326, 920.406555  , 30.0559444  , 803.1041    , 3.36        , 3           , 255         , 0           , 0
-0.0267103314, -0.205170348, -9.832457   , -0.0001231609, 0.012608679 , 0.00210572663, 0.0219215415, 0.0357832126, 0.00778189441, 920.406555  , 30.0559444  , 803.105042  , 3.37        , 3           , 255         , 0           , 0
-0.0144913793, -0.204592943, -9.831768   , -0.0005667177, 0.0132037941, 0.00242756843, 0.02191685  , 0.0359146856, 0.007809074 , 920.406555  , 30.0559444  , 803.106     , 3.38        , 3           , 255         , 0           , 0
-0.02430752 , -0.211671   , -9.835548   , 0.000498871843, 0.0134021658, 0.0022192488, 0.0219227411, 0.03604818  , 0.007834214 , 920.406555  , 30.0559444  , 803.107     , 3.39        , 3           , 255         , 0           , 0
-0.0251084566, -0.216178611, -9.833685   , 0.000415192975, 0.013386366 , 0.00212737778, 0.0219277665, 0.0361815467, 0.007858433 , 920.406555  , 30.0559444  , 803.108     , 3.4         , 3           , 255         , 0           , 0
-0.0309944153, -0.205971316, -9.834041   , -9.660267E-06, 0.013198493 , 0.00242759427, 0.02192201  , 0.0360086933, 0.007885375 , 920.406555  , 30.0559444  , 803.1515    , 3.41        , 3           , 255         , 0           , 0
-0.03727153 , -0.2065301  , -9.825564   , 7.694449E-05, 0.0130048012, 0.00233923388, 0.02192373  , 0.0361382   , 0.007911629 , 920.406555  , 30.0559444  , 803.1527    , 3.42        , 3           , 255         , 0           , 0
-0.034570694, -0.2063252  , -9.822398   , -0.000160633412, 0.01345304  , 0.00214320282, 0.0219230056, 0.03627222  , 0.007936021 , 920.4854    , 30.0572262  , 803.153931  , 3.43        , 3           , 255         , 0           , 0
-0.0355020165, -0.203717515, -9.823963   , 0.000233184124, 0.0135220895, 0.00257388572, 0.0219263826, 0.0364068449, 0.007964736 , 920.4854    , 30.0572262  , 803.155151  , 3.44        , 3           , 255         , 0           , 0
-0.0380724669, -0.203065559, -9.832085   , 0.000426874525, 0.0132406242, 0.00232050824, 0.0219316017, 0.0365387052, 0.007990856 , 920.4854    , 30.0572262  , 803.1564    , 3.45        , 3           , 255         , 0           , 0
-0.032838434, -0.2074614  , -9.842329   , 0.000114395181, 0.0127964821, 0.00166629162, 0.0219334587, 0.0366662741, 0.008010334 , 920.4854    , 30.0572262  , 803.157654  , 3.46        , 3           , 255         , 0           , 0
-0.0290945172, -0.199954957, -9.831617   , 0.0002729755, 0.0134922471, 0.00215607649, 0.0219370928, 0.0368006974, 0.008034864 , 920.4854    , 30.0572262  , 803.158936  , 3.47        , 3           , 255         , 0           , 0
-0.030323863, -0.211372972, -9.830725   , -2.78004372E-05, 0.0127765872, 0.00286295847, 0.0219379738, 0.0369278   , 0.00806631148, 920.4854    , 30.0572262  , 803.1602    , 3.48        , 3           , 255         , 0           , 0
-0.03412366 , -0.212602332, -9.841528   , 0.0008634093, 0.0128093567, 0.00258675963, 0.0219476689, 0.037055295 , 0.008095003 , 920.4854    , 30.0572262  , 803.1615    , 3.49        , 3           , 255         , 0           , 0
-0.026691705, -0.211875886, -9.832512   , -7.461383E-05, 0.0131434863, 0.00254813861, 0.0219479781, 0.0371861346, 0.008123381 , 920.4854    , 30.0572262  , 803.1628    , 3.5         , 3           , 255         , 0           , 0
-0.0294856727, -0.210236758, -9.834246   , 9.096405E-05, 0.0128817735, 0.00257976516, 0.02194274  , 0.03699414  , 0.008151751 , 920.4854    , 30.0572262  , 803.0866    , 3.51        , 3           , 255         , 0           , 0
-0.026896596, -0.205803677, -9.839609   , 0.00022028602, 0.0127893193, 0.00269621355, 0.0219460428, 0.037121404 , 0.008181534 , 920.4854    , 30.0572262  , 803.0874    , 3.52        , 3           , 255         , 0           , 0
-0.02944842 , -0.211372972, -9.838938   , 0.000114370727, 0.01249381  , 0.00286064553, 0.0219483543, 0.0372456834, 0.008212896 , 920.452759  , 30.061      , 803.0882    , 3.53        , 3           , 255         , 0           , 0
-0.0220164657, -0.214260072, -9.830817   , 0.000181079784, 0.013227609 , 0.00181436643, 0.021950949 , 0.03737753  , 0.008233952 , 920.452759  , 30.061      , 803.089     , 3.54        , 3           , 255         , 0           , 0
-0.0196695328, -0.207331032, -9.83087349 , 0.000136607108, 0.0134435352, 0.00190331182, 0.0219531413, 0.0375115126, 0.008255946 , 920.452759  , 30.061      , 803.0898    , 3.55        , 3           , 255         , 0           , 0
-0.0257976353, -0.205338   , -9.833387   , 0.0005274988, 0.0130128535, 0.0021040244, 0.0219593141, 0.0376411527, 0.008279854 , 920.452759  , 30.061      , 803.0906    , 3.56        , 3           , 255         , 0           , 0
-0.0214762986, -0.208094716, -9.835046   , 0.0005895265, 0.0132779349, 0.00200103479, 0.0219660737, 0.03777346  , 0.008302792 , 920.452759  , 30.061      , 803.091431  , 3.57        , 3           , 255         , 0           , 0
-0.011138618, -0.202395   , -9.827167   , 0.0006954418, 0.0128817754, 0.00279744738, 0.0219741929, 0.03790163  , 0.008333611 , 920.452759  , 30.061      , 803.0923    , 3.58        , 3           , 255         , 0           , 0
-0.0210106373, -0.206436962, -9.829625   , 0.0007709284, 0.0125523265, 0.00219414  , 0.0219828468, 0.03802664  , 0.008358323 , 920.452759  , 30.061      , 803.09314   , 3.59        , 3           , 255         , 0           , 0
-0.0216625631, -0.202655792, -9.827242   , 0.00076858775, 0.0126652624, 0.00139714219, 0.0219911635, 0.03815295  , 0.008375087 , 920.452759  , 30.061      , 803.094     , 3.6         , 3           , 255         , 0           , 0
-0.0275857747, -0.203419477, -9.843484   , -0.000235582833, 0.0132063935, 0.00101798179, 0.0219824966, 0.0379730165, 0.008387918 , 920.452759  , 30.061      , 803.0739    , 3.61        , 3           , 255         , 0           , 0
-0.0248104334, -0.201519579, -9.830445   , 0.00024015813, 0.0128652416, 0.00163942948, 0.0219856314, 0.0381012671, 0.008407148 , 920.452759  , 30.061      , 803.074646  , 3.62        , 3           , 255         , 0           , 0
-0.0281445682, -0.204648808, -9.827632   , -0.000118549382, 0.0131080858, 0.002422383 , 0.0219854824, 0.0382317863, 0.008434268 , 920.463867  , 30.05999    , 803.0754    , 3.63        , 3           , 255         , 0           , 0
-0.03201887 , -0.207275152, -9.825285   , 3.71050955E-05, 0.0131783057, 0.00172018236, 0.0219866261, 0.0383631624, 0.008454377 , 920.463867  , 30.05999    , 803.0761    , 3.64        , 3           , 255         , 0           , 0
-0.0289827585, -0.210460275, -9.842142   , -0.00016360727, 0.013428757 , 0.00250138063, 0.0219860636, 0.0384968556, 0.008482356 , 920.463867  , 30.05999    , 803.076843  , 3.65        , 3           , 255         , 0           , 0
-0.0208802521, -0.213049337, -9.835884   , 0.000210899743, 0.0133643886, 0.0024001468, 0.0219892152, 0.03862994  , 0.008509308 , 920.463867  , 30.05999    , 803.0776    , 3.66        , 3           , 255         , 0           , 0
-0.0264681876, -0.2056919  , -9.831842   , -0.000208079975, 0.0128289619, 0.00212921458, 0.0219880678, 0.038757734 , 0.008533434 , 920.463867  , 30.05999    , 803.0783    , 3.67        , 3           , 255         , 0           , 0
-0.0293180346, -0.20975247 , -9.834319   , 0.000162330878, 0.0126270773, 0.00225970661, 0.0219906773, 0.0388834774, 0.008558821 , 920.463867  , 30.05999    , 803.079041  , 3.68        , 3           , 255         , 0           , 0
-0.027436763, -0.205207616, -9.83404    , 0.0006076432, 0.0127821481, 0.00217953883, 0.0219977126, 0.03901079  , 0.00858344  , 920.463867  , 30.05999    , 803.0798    , 3.69        , 3           , 255         , 0           , 0
-0.0247918069, -0.208709389, -9.837952   , -0.000301706721, 0.0133327907, 0.002256781 , 0.0219956934, 0.0391435847, 0.008608954 , 920.463867  , 30.05999    , 803.0805    , 3.7         , 3           , 255         , 0           , 0
-0.03201887 , -0.212248415, -9.829103   , -0.0003543976, 0.01313774  , 0.0021491386, 0.021985922 , 0.03896299  , 0.008633067 , 920.463867  , 30.05999    , 803.046448  , 3.71        , 3           , 255         , 0           , 0
-0.0358372927, -0.212360173, -9.848419   , -0.000421691831, 0.013408673 , 0.00255290419, 0.0219828188, 0.03909648  , 0.008661557 , 920.463867  , 30.05999    , 803.047     , 3.72        , 3           , 255         , 0           , 0
-0.0272318721, -0.205319375, -9.83417    , 0.00013480222, 0.01318982  , 0.00219712243, 0.0219851416, 0.0392278619, 0.008686441 , 920.4322    , 30.058506   , 803.047546  , 3.73        , 3           , 255         , 0           , 0
-0.0263750553, -0.205114484, -9.829402   , 0.000165816091, 0.012921229 , 0.00192619022, 0.02198767  , 0.0393566154, 0.008708555 , 920.4322    , 30.058506   , 803.0481    , 3.74        , 3           , 255         , 0           , 0
-0.025741756, -0.209882826, -9.822584   , 0.000257102161, 0.0129142078, 0.00172196666, 0.02199103  , 0.039485354 , 0.008728625 , 920.4322    , 30.058506   , 803.048645  , 3.75        , 3           , 255         , 0           , 0
-0.0316649675, -0.201780349, -9.82226849 , 0.000777901034, 0.0131494431, 0.00240953825, 0.0219998769, 0.0396162868, 0.008755626 , 920.4322    , 30.058506   , 803.0492    , 3.76        , 3           , 255         , 0           , 0
-0.0251084566, -0.205915421, -9.825136   , 0.00103186362, 0.013512833 , 0.002272609 , 0.0220112149, 0.0397508852, 0.008781339 , 920.4322    , 30.058506   , 803.049744  , 3.77        , 3           , 255         , 0           , 0
-0.0266544521, -0.207554549, -9.834413   , 0.000683103863, 0.013845792 , 0.00153003191, 0.0220187753, 0.0398889631, 0.008799698 , 920.4322    , 30.058506   , 803.0503    , 3.78        , 3           , 255         , 0           , 0
-0.0304356217, -0.203307718, -9.832028   , -0.000346790417, 0.0140909776, 0.00175883237, 0.0220161416, 0.040029455 , 0.0088204   , 920.4322    , 30.058506   , 803.0509    , 3.79        , 3           , 255         , 0           , 0
-0.0238977373, -0.20602718 , -9.829849   , 0.00113368267, 0.0133729782, 0.00203912728, 0.0220284164, 0.0401627049, 0.008843749 , 920.4322    , 30.058506   , 803.0515    , 3.8         , 3           , 255         , 0           , 0
-0.029746443, -0.212807223, -9.833369   , 0.0008053761, 0.0131719075, 0.0023522242, 0.0220299289, 0.0399545841, 0.008869884 , 920.4322    , 30.058506   , 803.0667    , 3.81        , 3           , 255         , 0           , 0
-0.0342354178, -0.213123843, -9.835195   , 0.0005350288, 0.0137676066, 0.00247335364, 0.0220363941, 0.04009168  , 0.008897666 , 920.4322    , 30.058506   , 803.0674    , 3.82        , 3           , 255         , 0           , 0
-0.0346824527, -0.2039969  , -9.830259   , 0.000317346567, 0.0135487542, 0.00209533586, 0.02204053  , 0.0402266681, 0.008921618 , 920.4288    , 30.0588436  , 803.068054  , 3.83        , 3           , 255         , 0           , 0
-0.033210963, -0.203177333, -9.830649   , 0.000176906484, 0.013263193 , 0.00180216692, 0.02204314  , 0.0403588638, 0.008942574 , 920.4288    , 30.0588436  , 803.0687    , 3.84        , 3           , 255         , 0           , 0
-0.02272427 , -0.211093575, -9.831079   , -0.000249095319, 0.0129869943, 0.00201458274, 0.02204158  , 0.0404882543, 0.008965597 , 920.4288    , 30.0588436  , 803.069458  , 3.85        , 3           , 255         , 0           , 0
-0.0267475843, -0.211559221, -9.841342   , 0.000139455762, 0.0130033782, 0.002067833 , 0.02204393  , 0.0406177975, 0.008989153 , 920.4288    , 30.0588436  , 803.0702    , 3.86        , 3           , 255         , 0           , 0
-0.0252015889, -0.2086535  , -9.83918    , 0.0006368479, 0.0130010368, 0.00194670318, 0.02205121  , 0.0407473445, 0.00901150052, 920.4288    , 30.0588436  , 803.0709    , 3.87        , 3           , 255         , 0           , 0
-0.0192038715, -0.208541721, -9.826403   , 0.000670787646, 0.0131379683, 0.00229019648, 0.0220589712, 0.0408781841, 0.009037314 , 920.4288    , 30.0588436  , 803.071655  , 3.88        , 3           , 255         , 0           , 0
-0.0229105353, -0.208318233, -9.824801   , -0.000226858931, 0.0132473931, 0.002795196 , 0.0220579654, 0.0410100035, 0.009068207 , 920.4288    , 30.0588436  , 803.0724    , 3.89        , 3           , 255         , 0           , 0
-0.03028661 , -0.2088584  , -9.82903    , -0.000922622741, 0.0130109861, 0.00277588516, 0.0220499951, 0.0411394648, 0.009098851 , 920.4288    , 30.0588436  , 803.0731    , 3.9         , 3           , 255         , 0           , 0
-0.0394880772, -0.219531342, -9.829049   , -0.000885193935, 0.0131194424, 0.00181448867, 0.0220358521, 0.04093489  , 0.009119651 , 920.4288    , 30.0588436  , 803.0903    , 3.91        , 3           , 255         , 0           , 0
-0.02976507 , -0.209771112, -9.838603   , -0.00117660721, 0.013121197 , 0.00152424548, 0.02202483  , 0.0410657339, 0.00913779251, 920.4288    , 30.0588436  , 803.0911    , 3.92        , 3           , 255         , 0           , 0
-0.0288896263, -0.21206215 , -9.814352   , -0.0002748645, 0.0126928547, 0.00175363116, 0.02202292  , 0.04119224  , 0.009158136 , 920.4579    , 30.0590458  , 803.092     , 3.93        , 3           , 255         , 0           , 0
-0.0209547579, -0.2049841  , -9.824783   , 0.0001148569, 0.0130410288, 0.00177235634, 0.0220249183, 0.0413222238, 0.009178745 , 920.4579    , 30.0590458  , 803.092834  , 3.94        , 3           , 255         , 0           , 0
-0.0323168933, -0.203624338, -9.828657   , 0.000558998843, 0.01307965  , 0.00241545518, 0.02203163  , 0.0414524563, 0.009205798 , 920.4579    , 30.0590458  , 803.0937    , 3.95        , 3           , 255         , 0           , 0
-0.02976507 , -0.213906169, -9.831861   , 0.00098266  , 0.0128379771, 0.002523126 , 0.0220426191, 0.04158024  , 0.009233873 , 920.4579    , 30.0590458  , 803.094543  , 3.96        , 3           , 255         , 0           , 0
-0.0196136534, -0.2078712  , -9.830594   , 0.0005320811, 0.0132124852, 0.0020666956, 0.0220489241, 0.04171188  , 0.009257468 , 920.4579    , 30.0590458  , 803.0954    , 3.97        , 3           , 255         , 0           , 0
-0.0214762986, -0.201947972, -9.822826   , -0.000168364044, 0.0129725644, 0.00201520068, 0.0220482033, 0.0418411233, 0.009280495 , 920.4579    , 30.0590458  , 803.096252  , 3.98        , 3           , 255         , 0           , 0
-0.0151619315, -0.201445073, -9.823256   , -6.36190962E-05, 0.0126085915, 0.00224517146, 0.0220486224, 0.04196667  , 0.0093057435, 920.4579    , 30.0590458  , 803.0971    , 3.99        , 3           , 255         , 0           , 0
-0.0306963921, -0.209324047, -9.833761   , 0.00113889959, 0.0127542978, 0.00169218867, 0.022060845 , 0.0420938134, 0.009325492 , 920.4579    , 30.0590458  , 803.097961  , 4           , 3           , 0           , 8.424236    , 400
-0.0274181366, -0.208504513, -9.832494   , 0.000675421732, 0.013100123 , 0.00230665156, 0.0220617466, 0.04185503  , 0.00935117248, 920.4579    , 30.0590458  , 803.0698    , 4.01        , 3           , 1           , 0           , 0
-0.0332668424, -0.205598786, -9.840857   , 0.000184466451, 0.0125208078, 0.0017185586, 0.0220644269, 0.041979827 , 0.009371134 , 920.4579    , 30.0590458  , 803.0705    , 4.02        , 3           , 2           , 0           , 0
-0.0250712037, -0.213198349, -9.828397   , 0.0002137248, 0.0131434239, 0.0018794795, 0.0220674761, 0.0421108045, 0.009392843 , 920.4286    , 30.0591812  , 803.0712    , 4.03        , 3           , 3           , 0           , 0
-0.0322423875, -0.214260072, -9.833947   , 6.1581326E-05, 0.01319492  , 0.00253018574, 0.0220692847, 0.0422421619, 0.009421075 , 920.4286    , 30.0591812  , 803.07196   , 4.04        , 3           , 4           , 0           , 0
-0.0266730785, -0.216271728, -9.831022   , 0.00067893276, 0.0135618187, 0.002198981 , 0.02207713  , 0.0423772521, 0.009446075 , 920.4286    , 30.0591812  , 803.0727    , 4.05        , 3           , 5           , 0           , 0
-0.0208616257, -0.207573175, -9.822826   , -0.000470335654, 0.01361273  , 0.00263785617, 0.0220736787, 0.0425127633, 0.009475477 , 920.4286    , 30.0591812  , 803.0734    , 4.06        , 3           , 6           , 0           , 0
-0.0290200114, -0.207703546, -9.826086   , 2.99822914E-05, 0.0131159229, 0.002440655 , 0.0220751371, 0.0426433422, 0.009502797 , 920.4286    , 30.0591812  , 803.074158  , 4.07        , 3           , 7           , 0           , 0
-0.02965331 , -0.207163408, -9.821057   , -0.0001291832, 0.0128695676, 0.00194209232, 0.0220747963, 0.04277157  , 0.009525075 , 920.4286    , 30.0591812  , 803.0749    , 4.08        , 3           , 8           , 5           , 5
-0.027641654, -0.20621343 , -9.828005   , 0.000410926179, 0.0132388063, 0.00240613  , 0.02208006  , 0.04290339  , 0.00955207553, 920.4286    , 30.0591812  , 803.0756    , 4.09        , 3           , 9           , 5           , 0.1
-0.03632158 , -0.193472952, -9.831545   , 0.000314958743, 0.01379296  , 0.00196608435, 0.022084184 , 0.043040853 , 0.009574797 , 920.4286    , 30.0591812  , 803.076355  , 4.1         , 3           , 10          , 0.1         , 0.1
-0.03207475 , -0.2049841  , -9.838789   , 0.000489310245, 0.0128958728, 0.00216683443, 0.0220827218, 0.0428067222, 0.009599013 , 920.4286    , 30.0591812  , 803.093     , 4.11        , 3           , 11          , 0.00922211  , 0.00922220852
-0.03360212 , -0.208392739, -9.843409   , 0.0006016623, 0.0133698573, 0.002546608 , 0.0220899563, 0.0429398268, 0.009627453 , 920.4286    , 30.0591812  , 803.0939    , 4.12        , 3           , 12          , 0.174648061 , 0
-0.0264681876, -0.203810647, -9.816326   , -0.000345723442, 0.0131270131, 0.002533734 , 0.0220877174, 0.04307051  , 0.009655708 , 920.453064  , 30.0587082  , 803.0947    , 4.13        , 3           , 13          , 0           , 0
-0.0229105353, -0.219438225, -9.827501   , 0.000373447139, 0.0127782542, 0.00227626064, 0.0220925547, 0.04319775  , 0.0096813105, 920.453064  , 30.0587082  , 803.0956    , 4.14        , 3           , 14          , 4.74738243E-07, 2.57902E-05
-0.0212155282, -0.211093575, -9.832364   , 0.000478777249, 0.0130450912, 0.001951493 , 0.02209831  , 0.0433277451, 0.009703725 , 920.453064  , 30.0587082  , 803.096436  , 4.15        , 3           , 15          , 0           , -5.45355761E-07
-0.0147894025, -0.209473088, -9.835196   , 0.000469414575, 0.012655369 , 0.00194037461, 0.022103969 , 0.0434538275, 0.009725942 , 920.453064  , 30.0587082  , 803.0973    , 4.16        , 3           , 16          , 0           , 4.203895E-45
-0.0214017928, -0.213310122, -9.834319   , 0.000416749477, 0.0132633578, 0.00210773246, 0.02210918  , 0.0435859561, 0.009749967 , 920.453064  , 30.0587082  , 803.098145  , 4.17        , 3           , 20          , 0           , 0
-0.0347755849, -0.212006286, -9.825918   , 0.000111877373, 0.0136080217, 0.00241436  , 0.0221114866, 0.04372147  , 0.009777139 , 920.453064  , 30.0587082  , 803.099     , 4.18        , 3           , 21          , 0           , 0
-0.0312738121, -0.205505639, -9.829011   , 0.000101929516, 0.0126975011, 0.00286962045, 0.0221138839, 0.04384777  , 0.009808665 , 920.453064  , 30.0587082  , 803.099854  , 4.19        , 3           , 22          , 0           , 0
-0.02540648 , -0.2070889  , -9.819026   , 0.000516227854, 0.0124488054, 0.00202932023, 0.02212006  , 0.043971777 , 0.009831728 , 920.453064  , 30.0587082  , 803.1007    , 4.2         , 3           , 40          , 0           , 0
-0.0319443643, -0.2042763  , -9.826701   , 0.0004494958, 0.0126365721, 0.00219379086, 0.022119388 , 0.0437360443, 0.009856205 , 920.453064  , 30.0587082  , 803.0793    , 4.21        , 3           , 41          , 0           , 0
-0.0355020165, -0.205878168, -9.83797    , 0.000499235059, 0.0135137364, 0.00263149617, 0.0221256632, 0.0438705571, 0.009885531 , 920.453064  , 30.0587082  , 803.08      , 4.22        , 3           , 42          , 0           , 0
-0.02792105 , -0.206641868, -9.834505   , 0.000242931768, 0.013310099 , 0.00214346661, 0.0221291669, 0.0440031551, 0.009909929 , 920.413757  , 30.0587082  , 803.08075   , 4.23        , 3           , 255         , 0           , 0
-0.0214576721, -0.207554549, -9.8257885  , 0.00109200948, 0.0128273359, 0.001973768 , 0.0221410841, 0.0441309549, 0.009932524 , 920.413757  , 30.0587082  , 803.0815    , 4.24        , 3           , 255         , 0           , 0
-0.02162531 , -0.201221555, -9.830929   , 0.00068590336, 0.0128484033, 0.00248930044, 0.02214917  , 0.0442588478, 0.009960282 , 920.413757  , 30.0587082  , 803.0822    , 4.25        , 3           , 255         , 0           , 0
-0.022072345, -0.204853728, -9.83376    , 0.000205481076, 0.0130731063, 0.00196967181, 0.0221522246, 0.04438912  , 0.009982892 , 920.413757  , 30.0587082  , 803.083     , 4.26        , 3           , 255         , 0           , 0
-0.0229477882, -0.204686075, -9.83361149 , 0.0009135334, 0.0132527538, 0.002151659 , 0.02216245  , 0.04452114  , 0.0100073628, 920.413757  , 30.0587082  , 803.0838    , 4.27        , 3           , 255         , 0           , 0
-0.0301003456, -0.200178474, -9.832457   , 0.0009486435, 0.01252773  , 0.00270756776, 0.0221732687, 0.0446457826, 0.0100372387, 920.413757  , 30.0587082  , 803.0846    , 4.28        , 3           , 255         , 0           , 0
-0.0332482159, -0.205729157, -9.831284   , 0.0004974795, 0.0133182919, 0.002830453 , 0.0221796371, 0.0447782949, 0.0100685209, 920.413757  , 30.0587082  , 803.0854    , 4.29        , 3           , 255         , 0           , 0
-0.0327266753, -0.2164021  , -9.82440948 , 0.000403852755, 0.0132685518, 0.00189594086, 0.0221846569, 0.0449105129, 0.01009044  , 920.413757  , 30.0587082  , 803.0862    , 4.3         , 3           , 255         , 0           , 0
-0.0293180346, -0.208672136, -9.836462   , 0.000202515148, 0.0130642047, 0.00213063252, 0.0221783072, 0.0446790345, 0.0101142395, 920.413757  , 30.0587082  , 803.122131  , 4.31        , 3           , 255         , 0           , 0
-0.01911074 , -0.204890966, -9.823256   , 0.00037572463, 0.0126662916, 0.00194454927, 0.0221830625, 0.04480524  , 0.0101365112, 920.413757  , 30.0587082  , 803.123169  , 4.32        , 3           , 255         , 0           , 0
-0.0281818211, -0.208709389, -9.833072   , 0.00105919992, 0.0133070508, 0.002378158 , 0.0221948549, 0.04493774  , 0.0101632662, 920.4256    , 30.0589123  , 803.1242    , 4.33        , 3           , 255         , 0           , 0
-0.0231340528, -0.208821148, -9.825808   , 0.0006191542, 0.0137271993, 0.00232081185, 0.0222022329, 0.0450744629, 0.0101895435, 920.4256    , 30.0589123  , 803.125244  , 4.34        , 3           , 255         , 0           , 0
-0.0115297735, -0.2018735  , -9.838491   , 0.000204270662, 0.0132163493, 0.00209610746, 0.0222053491, 0.0452061333, 0.0102134589, 920.4256    , 30.0589123  , 803.1263    , 4.35        , 3           , 255         , 0           , 0
-0.023804605, -0.193174928, -9.830277   , 0.00028619403, 0.0132713551, 0.00167244661, 0.0222091042, 0.0453384332, 0.0102331452, 920.4256    , 30.0589123  , 803.1273    , 4.36        , 3           , 255         , 0           , 0
-0.0257790089, -0.200215727, -9.827446   , 0.0001533611, 0.0125691546, 0.00184331567, 0.0222116038, 0.04546369  , 0.0102543877, 920.4256    , 30.0589123  , 803.128357  , 4.37        , 3           , 255         , 0           , 0
-0.0306777656, -0.2035871  , -9.830502   , 0.0002891199, 0.0127540668, 0.00232607825, 0.0222156812, 0.0455906764, 0.010280503 , 920.4256    , 30.0589123  , 803.1294    , 4.38        , 3           , 255         , 0           , 0
-0.0162608922, -0.1999177  , -9.830576   , 0.000210122322, 0.012722468 , 0.001638507 , 0.02221866  , 0.0457174964, 0.0102997292, 920.4256    , 30.0589123  , 803.130432  , 4.39        , 3           , 255         , 0           , 0
-0.0223331153, -0.206958488, -9.83595848 , 0.0003587548, 0.0129577061, 0.00204578321, 0.0222233161, 0.04584659  , 0.0103230849, 920.4256    , 30.0589123  , 803.1315    , 4.4         , 3           , 255         , 0           , 0
-0.0275485218, -0.211186692, -9.83581    , 0.000564096961, 0.0134274149, 0.00173919625, 0.0222184584, 0.04561771  , 0.0103429565, 920.4256    , 30.0589123  , 803.1443    , 4.41        , 3           , 255         , 0           , 0
-0.01758337 , -0.203177333, -9.843893   , -1.05372246E-05, 0.0127626639, 0.00195161172, 0.0222193748, 0.0457448661, 0.010365325 , 920.4256    , 30.0589123  , 803.145447  , 4.42        , 3           , 255         , 0           , 0
-0.0151060522, -0.207778066, -9.826924   , 0.00080226  , 0.012584188 , 0.00222195941, 0.0222285427, 0.04587019  , 0.0103903627, 920.4453    , 30.0576973  , 803.1466    , 4.43        , 3           , 255         , 0           , 0
-0.0204332173, -0.202581286, -9.834022   , 0.000424242084, 0.0130300866, 0.002035291 , 0.0222338531, 0.0459999964, 0.0104136318, 920.4453    , 30.0576973  , 803.147766  , 4.44        , 3           , 255         , 0           , 0
-0.02026558 , -0.20943585 , -9.82657051 , 0.000391472655, 0.0127995312, 0.001752655 , 0.0222387053, 0.0461275764, 0.0104340212, 920.4453    , 30.0576973  , 803.1489    , 4.45        , 3           , 255         , 0           , 0
-0.0238418579, -0.2092123  , -9.824373   , 0.000221774171, 0.0128709208, 0.00156072027, 0.02224178  , 0.046255894 , 0.0104525071, 920.4453    , 30.0576973  , 803.1501    , 4.46        , 3           , 255         , 0           , 0
-0.0340305269, -0.209771082, -9.832904   , 0.000292579381, 0.0131880818, 0.00187085883, 0.022245707 , 0.046387326 , 0.0104741678, 920.4453    , 30.0576973  , 803.151245  , 4.47        , 3           , 255         , 0           , 0
-0.0263564289, -0.209789723, -9.827577   , 5.50015029E-05, 0.0133150639, 0.00225238781, 0.02224744  , 0.04651994  , 0.0104996758, 920.4453    , 30.0576973  , 803.1524    , 4.48        , 3           , 255         , 0           , 0
-0.02834946 , -0.2107583  , -9.835642   , 0.000118199569, 0.0133308629, 0.00199608481, 0.0222496912, 0.04665277  , 0.0105226217, 920.4453    , 30.0576973  , 803.153564  , 4.49        , 3           , 255         , 0           , 0
-0.0241212547, -0.212900326, -9.831078   , 0.00048275874, 0.0131324911, 0.00235420722, 0.0222557541, 0.0467835367, 0.0105491094, 920.4453    , 30.0576973  , 803.1547    , 4.5         , 3           , 255         , 0           , 0
-0.0203587115, -0.208113343, -9.828173   , 0.0007039199, 0.0132762128, 0.00172168331, 0.0222560726, 0.0465533547, 0.0105689382, 920.4453    , 30.0576973  , 803.136353  , 4.51        , 3           , 255         , 0           , 0
-0.0246986747, -0.211056322, -9.834059   , 0.000321220519, 0.0136156091, 0.0019978825, 0.0222603586, 0.0466890223, 0.0105919689, 920.4453    , 30.0576973  , 803.1374    , 4.52        , 3           , 255         , 0           , 0
-0.02047047 , -0.206455588, -9.825323   , 0.00015737371, 0.0133967567, 0.00227876287, 0.0222631376, 0.0468224548, 0.01061776  , 920.475342  , 30.0587769  , 803.1384    , 4.53        , 3           , 255         , 0           , 0
-0.0206753612, -0.202041119, -9.826627   , -7.31821856E-05, 0.0128911724, 0.00238760374, 0.022263661 , 0.0469507948, 0.0106445281, 920.475342  , 30.0587769  , 803.139465  , 4.54        , 3           , 255         , 0           , 0
-0.0328198075, -0.200215727, -9.825808   , 0.000225838288, 0.0130187385, 0.00170471356, 0.0222668573, 0.0470805727, 0.0106644891, 920.475342  , 30.0587769  , 803.1405    , 4.55        , 3           , 255         , 0           , 0
-0.0377558172, -0.202786162, -9.82500648 , 0.000204772252, 0.01279462  , 0.00163332315, 0.0222698078, 0.04720812  , 0.0106836893, 920.475342  , 30.0587769  , 803.141541  , 4.56        , 3           , 255         , 0           , 0
-0.029746443, -0.205226228, -9.825285   , 5.7310117E-05, 0.0130327828, 0.00156953989, 0.0222712643, 0.04733807  , 0.0107023008, 920.475342  , 30.0587769  , 803.142639  , 4.57        , 3           , 255         , 0           , 0
-0.03248453 , -0.2027303  , -9.825677   , 0.000458149618, 0.0131228985, 0.00182057661, 0.0222768467, 0.0474688523, 0.0107234493, 920.475342  , 30.0587769  , 803.143738  , 4.58        , 3           , 255         , 0           , 0
-0.030156225, -0.209156424, -9.828154   , 0.000112315814, 0.0138607938, 0.0012781265, 0.022278728 , 0.0476071462, 0.010739333 , 920.475342  , 30.0587769  , 803.144836  , 4.59        , 3           , 255         , 0           , 0
-0.0292249024, -0.2048537  , -9.83204651 , -0.000332996453, 0.0131322611, 0.00157071021, 0.022276286 , 0.0477380864, 0.01075798  , 920.475342  , 30.0587769  , 803.145935  , 4.6         , 3           , 255         , 0           , 0
-0.0344030559, -0.199042246, -9.841006   , 0.0002743556, 0.0132435216, 0.00233147526, 0.0222690571, 0.0474675074, 0.0107837338, 920.475342  , 30.0587769  , 803.0864    , 4.61        , 3           , 255         , 0           , 0
-0.0258162618, -0.210665181, -9.82957    , -0.000384542655, 0.012823957 , 0.00209272676, 0.0222663451, 0.04759525  , 0.0108075384, 920.475342  , 30.0587769  , 803.087158  , 4.62        , 3           , 255         , 0           , 0
-0.0311993062, -0.214725733, -9.835233   , 0.0007220085, 0.0126782507, 0.00167667307, 0.0222745016, 0.0477216356, 0.0108271446, 920.4545    , 30.0602589  , 803.0879    , 4.63        , 3           , 255         , 0           , 0
-0.0286847353, -0.209026054, -9.826254   , -0.000183245167, 0.013268684 , 0.00207166118, 0.0222738031, 0.0478538238, 0.0108508375, 920.4545    , 30.0602589  , 803.0886    , 4.64        , 3           , 255         , 0           , 0
-0.023804605, -0.2056919  , -9.831022   , 0.00029074034, 0.0136461165, 0.001361853 , 0.0222775061, 0.0479899459, 0.0108675119, 920.4545    , 30.0602589  , 803.089355  , 4.65        , 3           , 255         , 0           , 0
-0.0293366611, -0.205505639, -9.831935   , -0.000112439913, 0.0133833764, 0.002041232 , 0.0222775079, 0.04812329  , 0.0108909262, 920.4545    , 30.0602589  , 803.0901    , 4.66        , 3           , 255         , 0           , 0
-0.030528754, -0.20345673 , -9.837598   , 0.000489112 , 0.0127192112, 0.001845201 , 0.0222834237, 0.0482500345, 0.01091223  , 920.4545    , 30.0602589  , 803.0908    , 4.67        , 3           , 255         , 0           , 0
-0.0269338489, -0.206977129, -9.824968   , 7.07174258E-05, 0.0128485337, 0.001578365 , 0.0222850367, 0.04837814  , 0.010930893 , 920.4545    , 30.0602589  , 803.091553  , 4.68        , 3           , 255         , 0           , 0
-0.0153668225, -0.2044067  , -9.83663    , -0.000376350334, 0.0129263606, 0.00212491117, 0.0222824439, 0.0485068932, 0.0109550459, 920.4545    , 30.0602589  , 803.0923    , 4.69        , 3           , 255         , 0           , 0
-0.0241585076, -0.19909814 , -9.833164   , 0.0008419678, 0.0123926895, 0.00204298762, 0.02229199  , 0.0486303344, 0.0109782582, 920.4545    , 30.0602589  , 803.093     , 4.7         , 3           , 255         , 0           , 0
-0.01994893 , -0.200923532, -9.8373     , 0.000434060668, 0.012955253 , 0.00241285819, 0.0222878177, 0.04839086  , 0.0110048233, 920.4545    , 30.0602589  , 803.070435  , 4.71        , 3           , 255         , 0           , 0
-0.0238232315, -0.205952674, -9.826794   , 0.000678075361, 0.0127399117, 0.00250824029, 0.0222959518, 0.0485176742, 0.0110327713, 920.4545    , 30.0602589  , 803.071045  , 4.72        , 3           , 255         , 0           , 0
-0.023227185, -0.208131954, -9.828024   , 0.000277235842, 0.0122881634, 0.00203835126, 0.0222998485, 0.0486400723, 0.0110559156, 920.4349    , 30.0602589  , 803.071655  , 4.73        , 3           , 255         , 0           , 0
-0.0276789069, -0.204443932, -9.829179   , -0.000204941956, 0.0128510939, 0.00184641639, 0.0222988352, 0.0487681329, 0.0110772653, 920.4349    , 30.0602589  , 803.072266  , 4.74        , 3           , 255         , 0           , 0
-0.02546236 , -0.203251839, -9.832754   , -3.99248165E-05, 0.0125590954, 0.00130630692, 0.0222992133, 0.0488934   , 0.0110931443, 920.4349    , 30.0602589  , 803.0729    , 4.75        , 3           , 255         , 0           , 0
-0.023599714, -0.200811774, -9.836778   , 0.000380225247, 0.01322326  , 0.00169602828, 0.0223039929, 0.04902522  , 0.0111130718, 920.4349    , 30.0602589  , 803.0735    , 4.76        , 3           , 255         , 0           , 0
-0.0214762986, -0.2061576  , -9.83499    , -0.000480555726, 0.01338418  , 0.00148244225, 0.0223000664, 0.0491586924, 0.0111308983, 920.4349    , 30.0602589  , 803.0741    , 4.77        , 3           , 255         , 0           , 0
-0.03155321 , -0.206884   , -9.828545   , -0.000257021835, 0.013399981 , 0.0015596844, 0.0222984124, 0.0492923148, 0.0111495024, 920.4349    , 30.0602589  , 803.074768  , 4.78        , 3           , 255         , 0           , 0
-0.024009496, -0.202506781, -9.823889   , -8.556785E-05, 0.0128955683, 0.0022490113, 0.02229881  , 0.0494207256, 0.0111748911, 920.4349    , 30.0602589  , 803.075439  , 4.79        , 3           , 255         , 0           , 0
-0.0244937837, -0.212918952, -9.838268   , 0.000304738671, 0.0130166961, 0.00195993879, 0.0223029684, 0.04955042  , 0.0111974142, 920.4349    , 30.0602589  , 803.0761    , 4.8         , 3           , 255         , 0           , 0
-0.0272132456, -0.207927078, -9.837635   , 0.000319902145, 0.01306303  , 0.00211973651, 0.0222967453, 0.0493019745, 0.0112210233, 920.4349    , 30.0602589  , 803.08374   , 4.81        , 3           , 255         , 0           , 0
-0.0333599746, -0.20872803 , -9.829719   , 0.000630040769, 0.0126838414, 0.001806672 , 0.0223040786, 0.0494283773, 0.0112419389, 920.4349    , 30.0602589  , 803.0844    , 4.82        , 3           , 255         , 0           , 0
-0.0315718353, -0.211894512, -9.833201   , 0.000316976337, 0.0127271432, 0.00192838674, 0.022308344 , 0.04955518  , 0.011264083 , 920.447754  , 30.0589123  , 803.085144  , 4.83        , 3           , 255         , 0           , 0
-0.0242143869, -0.20628795 , -9.824877   , 0.0005785461, 0.012964136 , 0.0011395812, 0.0223148391, 0.049684532 , 0.0112783853, 920.447754  , 30.0589123  , 803.0859    , 4.84        , 3           , 255         , 0           , 0
-0.0183843076, -0.207573175, -9.824354   , -4.64125478E-05, 0.0133380583, 0.00203020568, 0.022315532 , 0.04981741  , 0.0113016861, 920.447754  , 30.0589123  , 803.0866    , 4.85        , 3           , 255         , 0           , 0
-0.027846545, -0.21513553 , -9.832754   , 0.00026957778, 0.0130191417, 0.00213378062, 0.0223194361, 0.0499470942, 0.0113259545, 920.447754  , 30.0589123  , 803.087341  , 4.86        , 3           , 255         , 0           , 0
-0.0273063779, -0.214669853, -9.833239   , 0.00113972137, 0.0128412517, 0.00223501422, 0.0223320946, 0.0500749648, 0.0113511961, 920.447754  , 30.0589123  , 803.0881    , 4.87        , 3           , 255         , 0           , 0
-0.02624467 , -0.215377659, -9.836256   , 0.000148448133, 0.0130361123, 0.00239652046, 0.02233493  , 0.05020475  , 0.0113780983, 920.447754  , 30.0589123  , 803.0888    , 4.88        , 3           , 255         , 0           , 0
-0.0199861825, -0.20576641 , -9.840261   , -5.1679046E-05, 0.0126539981, 0.00224262173, 0.0223356839, 0.05033075  , 0.0114033762, 920.447754  , 30.0589123  , 803.089539  , 4.89        , 3           , 255         , 0           , 0
-0.0170990825, -0.209659338, -9.830073   , 0.000328094466, 0.0128014609, 0.00220868178, 0.0223402213, 0.0504582338, 0.0114283487, 920.447754  , 30.0589123  , 803.0903    , 4.9         , 3           , 255         , 0           , 0
-0.0204890966, -0.2013892  , -9.827446   , 0.000458557945, 0.012879339 , 0.00243109418, 0.022339385 , 0.0502077453, 0.0114552211, 920.447754  , 30.0589123  , 803.0777    , 4.91        , 3           , 255         , 0           , 0
-0.0270269811, -0.200681373, -9.831134   , 1.61715161E-05, 0.01300398  , 0.0024831742, 0.0223409384, 0.05033719  , 0.0114829848, 920.447754  , 30.0589123  , 803.078369  , 4.92        , 3           , 255         , 0           , 0
-0.0254437327, -0.207554549, -9.833891   , 0.000226831718, 0.0128143849, 0.00242641266, 0.0223445781, 0.0504647568, 0.0115101384, 920.4376    , 30.0595856  , 803.079041  , 4.93        , 3           , 255         , 0           , 0
-0.02315268 , -0.21180138 , -9.834543   , 0.000349131646, 0.0132948086, 0.00243460527, 0.02234945  , 0.05059712  , 0.011537483 , 920.4376    , 30.0595856  , 803.0797    , 4.94        , 3           , 255         , 0           , 0
-0.0246427953, -0.2086535  , -9.828881   , -0.000639215752, 0.0133152883, 0.00225671427, 0.0223443527, 0.05072973  , 0.0115630534, 920.4376    , 30.0595856  , 803.0804    , 4.95        , 3           , 255         , 0           , 0
-0.0295974314, -0.211428851, -9.828713   , -0.0006427267, 0.0129378559, 0.002587919 , 0.0223393869, 0.0508584939, 0.01159185  , 920.4376    , 30.0595856  , 803.081055  , 4.96        , 3           , 255         , 0           , 0
-0.0269524753, -0.2092123  , -9.830389   , -0.000178689166, 0.01267804  , 0.00224969257, 0.02233889  , 0.05098474  , 0.011617207 , 920.4376    , 30.0595856  , 803.0817    , 4.97        , 3           , 255         , 0           , 0
-0.0254809856, -0.205431134, -9.83147    , 0.000294125959, 0.0130753713, 0.0017523003, 0.0223428719, 0.0511150546, 0.0116376719, 920.4376    , 30.0595856  , 803.0824    , 4.98        , 3           , 255         , 0           , 0
-0.022482127, -0.202264622, -9.826366   , 0.00043573638, 0.0132105434, 0.00184358633, 0.0223483238, 0.0512467064, 0.0116590811, 920.4376    , 30.0595856  , 803.083069  , 4.99        , 3           , 255         , 0           , 0
-0.0290200114, -0.20558016 , -9.825844   , 0.0008371612, 0.0131327165, 0.00193487236, 0.022357842 , 0.0513775721, 0.01168139  , 920.4376    , 30.0595856  , 803.08374   , 5           , 3           , 0           , 9.424236    , 500
-0.0340305269, -0.20859763 , -9.824131   , 0.0006545391, 0.0129166478, 0.001977642 , 0.0223552957, 0.051105164 , 0.0117035527, 920.4376    , 30.0595856  , 803.0862    , 5.01        , 3           , 1           , 0           , 0
-0.0357814133, -0.205449745, -9.833798   , 0.000965848 , 0.0134304231, 0.00129358168, 0.02236577  , 0.05123914  , 0.01171951  , 920.4376    , 30.0595856  , 803.0869    , 5.02        , 3           , 2           , 0           , 0
-0.03946945 , -0.2095662  , -9.838305   , 0.0006276214, 0.01330988  , 0.00253589172, 0.0223735031, 0.05137164  , 0.0117478771, 920.4368    , 30.0595856  , 803.087646  , 5.03        , 3           , 3           , 0           , 0
-0.0282004476, -0.210925937, -9.834152   , 0.000538675929, 0.01273466  , 0.002369704 , 0.0223802589, 0.0514984168, 0.0117744515, 920.4368    , 30.0595856  , 803.0884    , 5.04        , 3           , 4           , 0           , 0
-0.0254437327, -0.208690763, -9.827818   , 0.000376584649, 0.0124239363, 0.00173011643, 0.0223850589, 0.051622238 , 0.011794555 , 920.4368    , 30.0595856  , 803.0891    , 5.05        , 3           , 5           , 0           , 0
-0.0303611159, -0.2044812  , -9.82659    , 0.000614747754, 0.0126550775, 0.002180695 , 0.0223924816, 0.051748272 , 0.011819222 , 920.4368    , 30.0595856  , 803.089844  , 5.06        , 3           , 6           , 0           , 0
-0.0249221921, -0.204239041, -9.82808    , 6.469052E-05, 0.0134286694, 0.00244519068, 0.0223945528, 0.0518819652, 0.01184671  , 920.4368    , 30.0595856  , 803.0906    , 5.07        , 3           , 7           , 0           , 0
-0.0262632966, -0.2125278  , -9.836834   , -4.298026E-05, 0.0131507134, 0.00178863306, 0.0223952048, 0.0520130433, 0.011867566 , 920.4368    , 30.0595856  , 803.0913    , 5.08        , 3           , 8           , 5           , 5
-0.0267289579, -0.215377659, -9.834432   , -0.0001635247, 0.0130418744, 0.00156919542, 0.0223945417, 0.0521430671, 0.0118862   , 920.4368    , 30.0595856  , 803.092041  , 5.09        , 3           , 9           , 5           , 0.1
-0.0159628689, -0.205338   , -9.828341   , 0.000236729684, 0.0125122974, 0.00198056782, 0.02239809  , 0.05226772  , 0.011908832 , 920.4368    , 30.0595856  , 803.0928    , 5.1         , 3           , 10          , 0.1         , 0.1
-0.0237301  , -0.209584832, -9.834375   , 9.800433E-05, 0.01327284  , 0.00184954389, 0.0223915521, 0.0520030856, 0.0119298715, 920.4368    , 30.0595856  , 803.095154  , 5.11        , 3           , 11          , 0.008927727 , 0.008927858
-0.0340864062, -0.209510326, -9.831339   , 0.0004871405, 0.01334423  , 0.00186300278, 0.0223975517, 0.0521360822, 0.0119515155, 920.4368    , 30.0595856  , 803.095947  , 5.12        , 3           , 12          , 0.1746512   , 0
-0.0299140811, -0.198390335, -9.833779   , 0.000155935879, 0.0132236872, 0.00225096871, 0.0224004425, 0.05226778  , 0.0119770141, 920.4357    , 30.0578327  , 803.096741  , 5.13        , 3           , 13          , 0           , 0
-0.0209361315, -0.204164535, -9.839572   , 0.000285257818, 0.0130709577, 0.00207834435, 0.0224045329, 0.0523979738, 0.0120007517, 920.4357    , 30.0578327  , 803.097534  , 5.14        , 3           , 14          , 8.889327E-07, 4.732132E-05
-0.0241026282, -0.213608146, -9.847339   , 5.52871279E-05, 0.0130686164, 0.00226793881, 0.0224064328, 0.0525281243, 0.0120263873, 920.4357    , 30.0578327  , 803.0983    , 5.15        , 3           , 15          , 0           , -1.00064369E-06
-0.0202842057, -0.2185069  , -9.820815   , 0.000357233424, 0.01334423  , 0.0022024   , 0.0224113185, 0.0526610278, 0.0120514315, 920.4357    , 30.0578327  , 803.0991    , 5.16        , 3           , 16          , 0           , 4.203895E-45
-0.0206008554, -0.2177246  , -9.834543   , 0.000373032934, 0.0128474236, 0.00178634573, 0.0224161427, 0.052789066 , 0.0120721962, 920.4357    , 30.0578327  , 803.0999    , 5.17        , 3           , 20          , 0           , 0
-0.025331974, -0.205375239, -9.831804   , 0.0005029401, 0.0128269438, 0.00226267218, 0.0224225167, 0.0529167876, 0.0120977266, 920.4357    , 30.0578327  , 803.1007    , 5.18        , 3           , 21          , 0           , 0
-0.0237673521, -0.195223838, -9.834878   , 0.000669712666, 0.013240071 , 0.00248269481, 0.0224306881, 0.05304859  , 0.0121255526, 920.4357    , 30.0578327  , 803.1015    , 5.19        , 3           , 22          , 0           , 0
