Acc X       , Acc Y       , Acc Z       , Gyro X      , Gyro Y      , Gyro Z      , Euler X     , Euler Y     , Euler Z     , Pres X      , Pres Y      , Pres Z      , Time        , Status      , LowRate X   , LowRate Y   , LowRate Z    
-0.113861367, -0.138880655, -9.787443   , 0.000164071855, 0.000365783664, -0.000659075158, 0.0130539425, -0.009758254, -5.49972465E-05, 916.385559  , 31.8715019  , 839.4863    , 14.64       , 3           , 255         , 0           , 0
-0.107478164, -0.129946679, -9.781666   , 0.00111929257, -0.0003178723, 0.00019809384, 0.0130651183, -0.009761458, -5.30579528E-05, 916.385559  , 31.8715019  , 839.4864    , 14.65       , 3           , 255         , 0           , 0
-0.1080706  , -0.135713458, -9.776361   , -0.000364594074, 0.00014505611, 7.058632E-05, 0.0130614648, -0.009760016, -5.23331837E-05, 916.385559  , 31.8715019  , 839.48645   , 14.66       , 3           , 255         , 0           , 0
-0.106222175, -0.141655415, -9.786529   , -0.000325403322, -0.000261632638, -0.000547385542, 0.0130582647, -0.009762561, -5.78408653E-05, 916.385559  , 31.8715019  , 839.4865    , 14.67       , 3           , 255         , 0           , 0
-0.107181348, -0.135113925, -9.789541   , 0.0005940852, -0.000559688953, 0.000233613115, 0.0130641824, -0.009768189, -5.55779734E-05, 916.385559  , 31.8715019  , 839.4866    , 14.68       , 3           , 255         , 0           , 0
-0.1033986  , -0.1334767  , -9.782087   , 0.0006031221, 0.0001582655, 0.000195198591, 0.0130701941, -0.009766632, -5.36054322E-05, 916.385559  , 31.8715019  , 839.486633  , 14.69       , 3           , 255         , 0           , 0
-0.108707927, -0.135061353, -9.784834   , -0.0005935916, -0.0005561156, -0.0008599784, 0.0130643453, -0.009772078, -6.227734E-05, 916.385559  , 31.8715019  , 839.4867    , 14.7        , 3           , 255         , 0           , 0
-0.102733925, -0.131421328, -9.786877   , -0.0002779408, -0.0005996268, -0.000152662658, 0.01306818  , -0.009788786, -6.394699E-05, 916.385559  , 31.8715019  , 839.5079    , 14.71       , 3           , 255         , 0           , 0
-0.103192888, -0.135257781, -9.782826   , -0.000395587354, -0.00034165394, -6.540758E-05, 0.0130642327, -0.009792194, -6.464566E-05, 916.385559  , 31.8715019  , 839.508057  , 14.72       , 3           , 255         , 0           , 0
-0.109749772, -0.140807   , -9.78467    , -1.72880718E-05, -0.000360249367, 0.000784364063, 0.0130639821, -0.009795899, -5.684957E-05, 916.4064    , 31.8716373  , 839.50824   , 14.73       , 3           , 255         , 0           , 0
-0.101221696, -0.130665347, -9.786495   , 0.000531433849, -0.000205722565, 0.000407904154, 0.0130692571, -0.009798007, -5.27976626E-05, 916.4064    , 31.8716373  , 839.5084    , 14.74       , 3           , 255         , 0           , 0
-0.09487807 , -0.129235253, -9.785535   , -0.00039317552, 0.000173170323, 0.000115261326, 0.0130653149, -0.009796291, -5.16224973E-05, 916.4064    , 31.8716373  , 839.5086    , 14.75       , 3           , 255         , 0           , 0
-0.105913654, -0.137298509, -9.78769    , -0.000692107365, 0.00038846393, 9.416421E-05, 0.0130583839, -0.00979242 , -5.06301731E-05, 916.4064    , 31.8716373  , 839.5088    , 14.76       , 3           , 255         , 0           , 0
-0.106039867, -0.1366706  , -9.78712749 , -0.000506172539, 0.000249415054, -7.029829E-05, 0.0130533306, -0.009789917, -5.13005471E-05, 916.4064    , 31.8716373  , 839.509     , 14.77       , 3           , 255         , 0           , 0
-0.10297434 , -0.130645543, -9.7865     , -0.0010654924, -0.00025250722, -1.51541462E-05, 0.0130426753, -0.009792439, -5.148503E-05, 916.4064    , 31.8716373  , 839.509155  , 14.78       , 3           , 255         , 0           , 0
-0.100336492, -0.132547408, -9.783545   , 6.24891763E-05, -0.000252017227, -0.000327462738, 0.0130433328, -0.009794916, -5.47923228E-05, 916.4064    , 31.8716373  , 839.509338  , 14.79       , 3           , 255         , 0           , 0
-0.108830489, -0.133475274, -9.785512   , -0.000108842636, -0.000153976231, -7.33269E-05, 0.0130422516, -0.009796445, -5.55456354E-05, 916.4064    , 31.8716373  , 839.5095    , 14.8        , 3           , 255         , 0           , 0
-0.09551882 , -0.1290534  , -9.790154   , 0.000480123854, 0.00112262543, -9.134469E-05, 0.0130534377, -0.009793499, -5.637514E-05, 916.4064    , 31.8716373  , 839.498047  , 14.81       , 3           , 255         , 0           , 0
-0.09858479 , -0.134920448, -9.785976   , -3.66046152E-05, -3.856893E-05, -0.0009972436, 0.0130531685, -0.009793753, -6.635198E-05, 916.4064    , 31.8716373  , 839.498169  , 14.82       , 3           , 255         , 0           , 0
-0.105220318, -0.126204938, -9.782341   , 0.000203201576, -0.000173112989, -0.0006518132, 0.0130552649, -0.009795398, -7.289231E-05, 916.397766  , 31.8710289  , 839.4983    , 14.83       , 3           , 255         , 0           , 0
-0.100985765, -0.118517675, -9.784455   , -4.133262E-05, -0.000374749477, 0.000117168674, 0.01305484  , -0.00979916 , -7.17696239E-05, 916.397766  , 31.8710289  , 839.4984    , 14.84       , 3           , 255         , 0           , 0
-0.102859542, -0.130614087, -9.781955   , 0.0002170451, -6.64060062E-05, -3.11345721E-05, 0.013057014 , -0.00979982 , -7.208961E-05, 916.397766  , 31.8710289  , 839.498535  , 14.85       , 3           , 255         , 0           , 0
-0.09978675 , -0.129892558, -9.779762   , -0.000192405365, 0.0004575999, 0.0002185194, 0.0130550684, -0.009795275, -6.984481E-05, 916.397766  , 31.8710289  , 839.498657  , 14.86       , 3           , 255         , 0           , 0
-0.104879543, -0.1335237  , -9.779299   , -0.0003339052, 0.000102520979, 0.000280104054, 0.0130517   , -0.00979428552, -6.70305744E-05, 916.397766  , 31.8710289  , 839.4988    , 14.87       , 3           , 255         , 0           , 0
-0.09870259 , -0.129361331, -9.783854   , -0.000222505289, 0.000108346954, -0.000220901144, 0.0130494982, -0.00979317352, -6.922531E-05, 916.397766  , 31.8710289  , 839.4989    , 14.88       , 3           , 255         , 0           , 0
-0.0911005139, -0.124468088, -9.784076   , -1.71665233E-05, 2.91376182E-06, 0.000411099 , 0.0130492859, -0.009793198, -6.51141963E-05, 916.397766  , 31.8710289  , 839.499     , 14.89       , 3           , 255         , 0           , 0
-0.101102993, -0.13030228 , -9.790739   , -0.00034119768, -0.000158881056, -0.00014232262, 0.0130458875, -0.009794768, -6.655806E-05, 916.397766  , 31.8710289  , 839.499146  , 14.9        , 3           , 255         , 0           , 0
-0.09696828 , -0.131751731, -9.786565   , -0.000312598248, 0.00026896628, -4.656965E-05, 0.0130440556, -0.009797569, -6.700144E-05, 916.397766  , 31.8710289  , 839.5011    , 14.91       , 3           , 255         , 0           , 0
-0.1015314  , -0.13457571 , -9.782034   , -0.000278253458, 0.000398335367, 0.000121592711, 0.0130412607, -0.009793606, -6.573363E-05, 916.397766  , 31.8710289  , 839.5012    , 14.92       , 3           , 255         , 0           , 0
-0.100535989, -0.136443347, -9.784298   , -0.0005124736, 0.000376354466, -0.000241092581, 0.0130361607, -0.00978981052, -6.809534E-05, 916.383     , 31.8677254  , 839.501343  , 14.93       , 3           , 255         , 0           , 0
-0.09644941 , -0.136483625, -9.785311   , -0.000304905727, 0.000136720337, -0.000135322931, 0.0130331246, -0.009788427, -6.94306655E-05, 916.383     , 31.8677254  , 839.501465  , 14.94       , 3           , 255         , 0           , 0
-0.09678258 , -0.130001083, -9.785621   , 0.000496646564, 2.39838664E-06, -0.000308636867, 0.01303812  , -0.009788362, -7.251652E-05, 916.383     , 31.8677254  , 839.5016    , 14.95       , 3           , 255         , 0           , 0
-0.101895213, -0.127308443, -9.7890625  , 5.05118078E-05, -0.000378781551, 0.000243147253, 0.0130386008, -0.00979218 , -7.013459E-05, 916.383     , 31.8677254  , 839.5017    , 14.96       , 3           , 255         , 0           , 0
-0.09719297 , -0.134786308, -9.784891   , 0.0007968082, -6.57458149E-05, 1.50582855E-05, 0.0130465664, -0.009792839, -6.999257E-05, 916.383     , 31.8677254  , 839.501831  , 14.97       , 3           , 255         , 0           , 0
-0.09447356 , -0.130521059, -9.787369   , 0.0001914162, 0.000332088937, -0.00036731374, 0.0130485157, -0.00978947151, -7.36221555E-05, 916.383     , 31.8677254  , 839.501953  , 14.98       , 3           , 255         , 0           , 0
-0.08790574 , -0.128172576, -9.786458   , 2.61179957E-06, 0.00030968085, 4.28912244E-05, 0.013048538 , -0.009786381, -7.315287E-05, 916.383     , 31.8677254  , 839.5021    , 14.99       , 3           , 255         , 0           , 0
-0.100923143, -0.1315711  , -9.786761   , 0.000358272053, 0.000365821033, 0.000390354457, 0.0130520808, -0.009782774, -6.92018148E-05, 916.383     , 31.8677254  , 839.5022    , 15          , 3           , 0           , -1          , 1500
-0.0963122  , -0.134778231, -9.786342   , -0.0002927932, -8.91279851E-05, 0.000129506865, 0.0130540011, -0.00978545 , -6.796596E-05, 916.383     , 31.8677254  , 839.524536  , 15.01       , 3           , 1           , 0           , 0
-0.09954618 , -0.133665726, -9.790291   , -0.000696627132, 0.0004166011, 0.000222895149, 0.0130470106, -0.009781313, -6.568278E-05, 916.383     , 31.8677254  , 839.524841  , 15.02       , 3           , 2           , 0           , 0
-0.09575111 , -0.132600456, -9.777498   , -0.000145638769, 0.0007622574, -6.5635104E-05, 0.01304556  , -0.009773683, -6.623965E-05, 916.4306    , 31.8701534  , 839.525146  , 15.03       , 3           , 3           , 0           , 0
-0.09445734 , -0.125555992, -9.788359   , -8.185691E-05, 0.000190761362, -4.96569846E-05, 0.0130447466, -0.009771768, -6.67113E-05, 916.4306    , 31.8701534  , 839.525452  , 15.04       , 3           , 4           , 0           , 0
-0.102212146, -0.128584281, -9.798253   , -0.000477694179, -0.0006735409, 0.000504434342, 0.01303992  , -0.00977856852, -6.175511E-05, 916.4306    , 31.8701534  , 839.525757  , 15.05       , 3           , 5           , 0           , 0
-0.110457517, -0.140539527, -9.79770851 , -7.963793E-05, 0.000106768108, 0.000471316074, 0.0130390776, -0.009777563, -5.702833E-05, 916.4306    , 31.8701534  , 839.526062  , 15.06       , 3           , 6           , 0           , 0
-0.115277968, -0.13155812 , -9.76963    , -0.0003946088, -0.000167530874, 0.000160419237, 0.0130351167, -0.009779259, -5.544608E-05, 916.4306    , 31.8701534  , 839.526367  , 15.07       , 3           , 7           , 0           , 0
-0.09691991 , -0.116296545, -9.792809   , 6.59918951E-05, -0.0004009557, 4.40318327E-05, 0.0130357733, -0.00978327449, -5.50580553E-05, 916.4306    , 31.8701534  , 839.5267    , 15.08       , 3           , 8           , 5           , 5
-0.100145519, -0.127464861, -9.781721   , 0.000318351842, -0.000690849149, -0.00028011392, 0.0130389854, -0.009790144, -5.7949077E-05, 916.4306    , 31.8701534  , 839.527     , 15.09       , 3           , 9           , 5           , 0.1
-0.09555677 , -0.121215418, -9.769577   , -0.000117369258, 7.124727E-05, 5.702739E-05, 0.0130378064, -0.009789439, -5.73695543E-05, 916.4306    , 31.8701534  , 839.5273    , 15.1        , 3           , 10          , 0.1         , 0.1
-0.105179489, -0.13841    , -9.783171   , -4.73191067E-05, 0.000181016352, 0.0007243217, 0.0130391289, -0.009793535, -5.012164E-05, 916.4306    , 31.8701534  , 839.4788    , 15.11       , 3           , 11          , 0.00382724823, 0.00382722262
-0.103079572, -0.128655612, -9.789206   , -0.0007148142, 0.0003871225, 0.000249097764, 0.0130319577, -0.009789696, -4.75803463E-05, 916.4306    , 31.8701534  , 839.4788    , 15.12       , 3           , 12          , 0.174720958 , 0
-0.104342259, -0.125211969, -9.783262   , -1.2768578E-06, 0.000609815 , -0.000489263562, 0.0130319912, -0.009783537, -5.23932249E-05, 916.4201    , 31.8719063  , 839.4788    , 15.13       , 3           , 13          , 0           , 0
-0.102521554, -0.136217818, -9.788381   , 0.000146862061, 0.000207462814, -0.0017368492, 0.0130336285, -0.009781234, -6.97336E-05, 916.4201    , 31.8719063  , 839.4788    , 15.14       , 3           , 14          , 7.381471E-05, -4.894324E-07
-0.09396824 , -0.131388992, -9.799627   , -0.0004145653, -0.000309677649, 0.000171922089, 0.0130294692, -0.009784354, -6.805483E-05, 916.4201    , 31.8719063  , 839.4788    , 15.15       , 3           , 15          , 0           , 8.78471837E-05
-0.09904903 , -0.135098577, -9.807936   , 0.0002185232, -0.0003842976, 0.000826221542, 0.0130315721, -0.009788305, -5.98432E-05, 916.4201    , 31.8719063  , 839.4788    , 15.16       , 3           , 16          , 0           , 1.401298E-45
-0.1010675  , -0.127844065, -9.77124    , -0.000261166017, -0.0007903223, 0.00071600097, 0.0130288918, -0.009796298, -5.27866177E-05, 916.4201    , 31.8719063  , 839.4788    , 15.17       , 3           , 20          , 0           , 0
-0.10445179 , -0.122298107, -9.784603   , -4.237968E-05, -0.0009244033, -0.000472936255, 0.0130285155, -0.009805481, -5.76361126E-05, 916.4201    , 31.8719063  , 839.4788    , 15.18       , 3           , 21          , 0           , 0
-0.102578267, -0.126784652, -9.788594   , 0.000554318947, -0.000618454942, -0.00117957871, 0.0130341752, -0.00981151 , -6.951176E-05, 916.4201    , 31.8719063  , 839.4788    , 15.19       , 3           , 22          , 0           , 0
-0.1117052  , -0.134347364, -9.767834   , 0.0005668946, -0.0007474601, -0.00017321232, 0.0130398609, -0.00981896 , -7.134121E-05, 916.4201    , 31.8719063  , 839.4788    , 15.2        , 3           , 40          , 0           , 0
-0.107118025, -0.136138409, -9.779994   , 0.000608013361, -0.000327763468, 0.000439258874, 0.013048918 , -0.009829171, -6.702151E-05, 916.4201    , 31.8719063  , 839.4517    , 15.21       , 3           , 41          , 0           , 0
-0.09230902 , -0.129001826, -9.797148   , 0.000226000237, -0.000231780388, 0.0005317172, 0.0130511252, -0.009831558, -6.17349142E-05, 916.4201    , 31.8719063  , 839.451538  , 15.22       , 3           , 42          , 0           , 0
-0.091874   , -0.124950409, -9.784025   , 0.000218962377, -0.000554419239, -0.000276809966, 0.0130533446, -0.009837064, -6.457521E-05, 916.4178    , 31.871973   , 839.451355  , 15.23       , 3           , 255         , 0           , 0
-0.09936018 , -0.1247292  , -9.787642   , 0.000340951869, -0.0004900571, 0.0005448578, 0.0130566992, -0.009842035, -5.91909447E-05, 916.4178    , 31.871973   , 839.4512    , 15.24       , 3           , 255         , 0           , 0
-0.09292318 , -0.126112074, -9.7867     , -0.000158392475, -0.0004083277, 0.000704330858, 0.013055048 , -0.00984621 , -5.22013725E-05, 916.4178    , 31.871973   , 839.451     , 15.25       , 3           , 255         , 0           , 0
-0.09805226 , -0.113430262, -9.78335    , 0.000129786 , 0.0004105653, 0.0003169441, 0.0130563118, -0.009842146, -4.8978527E-05, 916.4178    , 31.871973   , 839.4508    , 15.26       , 3           , 255         , 0           , 0
-0.1004285  , -0.12460383 , -9.781032   , -0.000167462189, 0.000135590613, -0.000522936753, 0.01305469  , -0.009840722, -5.418987E-05, 916.4178    , 31.871973   , 839.4506    , 15.27       , 3           , 255         , 0           , 0
-0.09258893 , -0.1295453  , -9.788176   , -0.000441912736, -0.000259990135, 0.000359399535, 0.0130502349, -0.009843369, -5.063004E-05, 916.4178    , 31.871973   , 839.450439  , 15.28       , 3           , 255         , 0           , 0
-0.09217483 , -0.13538073 , -9.799295   , -0.000575114449, -0.0003793673, 0.00103939441, 0.0130443843, -0.009847298, -4.028623E-05, 916.4178    , 31.871973   , 839.450256  , 15.29       , 3           , 255         , 0           , 0
-0.09503931 , -0.140402049, -9.776636   , -0.000602175656, -0.000272201782, 0.000439184019, 0.01303832  , -0.009850076, -3.593016E-05, 916.4178    , 31.871973   , 839.4501    , 15.3        , 3           , 255         , 0           , 0
-0.09792505 , -0.140171289, -9.784744   , -0.0001959119, -0.000366208435, 0.000458389084, 0.0130369626, -0.009853631, -3.14006356E-05, 916.4178    , 31.871973   , 839.4308    , 15.31       , 3           , 255         , 0           , 0
-0.103740036, -0.137239769, -9.802675   , 0.0005888482, -0.000212667175, 0.00072751753, 0.01304278  , -0.009855851, -2.41536363E-05, 916.4178    , 31.871973   , 839.4305    , 15.32       , 3           , 255         , 0           , 0
-0.103903495, -0.131297886, -9.783452   , -2.210684E-05, 5.783647E-05, -0.000174618122, 0.0130425757, -0.00985525 , -2.58921682E-05, 916.4054    , 31.8723774  , 839.430237  , 15.33       , 3           , 255         , 0           , 0
-0.10256362 , -0.128473282, -9.777246   , -0.000210942861, 0.000362042774, -0.000138464486, 0.0130404783, -0.009851611, -2.72295038E-05, 916.4054    , 31.8723774  , 839.43      , 15.34       , 3           , 255         , 0           , 0
-0.09835227 , -0.126417071, -9.766643   , 5.313191E-05, 7.0758666E-05, -0.000281136716, 0.0130410371, -0.009850867, -3.00314732E-05, 916.4054    , 31.8723774  , 839.4297    , 15.35       , 3           , 255         , 0           , 0
-0.0989287  , -0.1255485  , -9.76105    , -0.000129876629, 0.000308270362, -0.00051541836, 0.01303979  , -0.00984772 , -3.514515E-05, 916.4054    , 31.8723774  , 839.4294    , 15.36       , 3           , 255         , 0           , 0
-0.0916334242, -0.127467215, -9.802107   , 0.0005789435, 0.000370103575, -0.00031987 , 0.013045609 , -0.009843977, -3.82953767E-05, 916.4054    , 31.8723774  , 839.429138  , 15.37       , 3           , 255         , 0           , 0
-0.09450823 , -0.1280598  , -9.825437   , -0.000120228324, 0.000167724778, 0.0003887068, 0.0130443694, -0.00984235 , -3.438666E-05, 916.4054    , 31.8723774  , 839.4289    , 15.38       , 3           , 255         , 0           , 0
-0.101964094, -0.122272238, -9.792921   , -0.0003386787, -0.0002468161, 0.000144357618, 0.0130409691, -0.009844837, -3.297537E-05, 916.4054    , 31.8723774  , 839.42865   , 15.39       , 3           , 255         , 0           , 0
-0.10492456 , -0.125885516, -9.772263   , -0.000199451926, -8.202929E-05, -0.0003416045, 0.0130390087, -0.009845613, -3.64019E-05, 916.4054    , 31.8723774  , 839.4284    , 15.4        , 3           , 255         , 0           , 0
-0.09770243 , -0.136543885, -9.766858   , -0.000396529271, -0.000720558455, 0.0001574727, 0.0130365547, -0.009856007, -3.493634E-05, 916.4054    , 31.8723774  , 839.429749  , 15.41       , 3           , 255         , 0           , 0
-0.09739957 , -0.1262577  , -9.768202   , 0.0001095858, -0.000522639835, 0.000630143564, 0.01303759  , -0.00986131653, -2.87034291E-05, 916.4054    , 31.8723774  , 839.4295    , 15.42       , 3           , 255         , 0           , 0
-0.09389129 , -0.134428412, -9.770838   , 0.000123801656, -3.169151E-05, 0.000596409431, 0.0130387684, -0.009861711, -2.27438341E-05, 916.414246  , 31.87312    , 839.42926   , 15.43       , 3           , 255         , 0           , 0
-0.09074789 , -0.144558832, -9.809075   , 0.000253361475, 9.645561E-05, -9.999311E-05, 0.01304131  , -0.009860732, -2.3731116E-05, 916.414246  , 31.87312    , 839.429     , 15.44       , 3           , 255         , 0           , 0
-0.09135215 , -0.1392496  , -9.810531   , 0.0005492923, -0.000797184, -0.0008164953, 0.013046884 , -0.009868595, -3.19995561E-05, 916.414246  , 31.87312    , 839.4288    , 15.45       , 3           , 255         , 0           , 0
-0.09568699 , -0.1311452  , -9.777468   , 0.00032214087, -0.000608606031, 0.000100251818, 0.0130500961, -0.009874693, -3.107651E-05, 916.414246  , 31.87312    , 839.4285    , 15.46       , 3           , 255         , 0           , 0
-0.100056671, -0.126983583, -9.777676   , 0.000128357977, -2.72846482E-05, 0.000277025829, 0.0130513515, -0.009875001, -2.830998E-05, 916.414246  , 31.87312    , 839.4283    , 15.47       , 3           , 255         , 0           , 0
-0.103839919, -0.117974833, -9.775855   , 0.000116792362, -9.7504E-05 , -0.000367524131, 0.0130525567, -0.009875928, -3.199771E-05, 916.414246  , 31.87312    , 839.42804   , 15.48       , 3           , 255         , 0           , 0
-0.101855181, -0.127710819, -9.764986   , 8.438791E-05, -0.000395294774, -0.0002823301, 0.0130534284, -0.009879845, -3.487243E-05, 916.414246  , 31.87312    , 839.4278    , 15.49       , 3           , 255         , 0           , 0
-0.105166033, -0.123052038, -9.79517    , -0.0008328104, 0.000392520975, 0.000463601842, 0.0130450539, -0.009875979, -3.01854743E-05, 916.414246  , 31.87312    , 839.427551  , 15.5        , 3           , 255         , 0           , 0
-0.108921625, -0.121320687, -9.814183   , -0.0004114448, 0.000411179353, -0.000176524933, 0.0130494274, -0.009875178, -3.198056E-05, 916.414246  , 31.87312    , 839.4166    , 15.51       , 3           , 255         , 0           , 0
-0.09980599 , -0.12721166 , -9.80131    , 0.000527763739, -5.3478303E-05, -0.000201947987, 0.0130547239, -0.009875687, -3.40068946E-05, 916.414246  , 31.87312    , 839.4163    , 15.52       , 3           , 255         , 0           , 0
-0.09784076 , -0.126384348, -9.786176   , -0.00037613 , -0.0004653667, 0.0005153226, 0.0130509119, -0.009880409, -2.89147247E-05, 916.4306    , 31.8726482  , 839.416     , 15.53       , 3           , 255         , 0           , 0
-0.0956180543, -0.134662792, -9.793993   , 0.000117071904, -0.000336033176, 0.000383375271, 0.0130520463, -0.009883819, -2.51250767E-05, 916.4306    , 31.8726482  , 839.4157    , 15.54       , 3           , 255         , 0           , 0
-0.0850782543, -0.127156734, -9.790763   , 0.000311359181, -0.000252018042, 0.0007280411, 0.0130550871, -0.009886433, -1.78780028E-05, 916.4306    , 31.8726482  , 839.4154    , 15.55       , 3           , 255         , 0           , 0
-0.08944509 , -0.13369289 , -9.77253151 , 0.000296355342, -0.000156285561, 0.000103152968, 0.0130580412, -0.009888008, -1.6866943E-05, 916.4306    , 31.8726482  , 839.4151    , 15.56       , 3           , 255         , 0           , 0
-0.09843712 , -0.1303138  , -9.779482   , -0.0004107941, 0.000100356949, 0.000930996262, 0.0130538419, -0.009887126, -7.54444864E-06, 916.4306    , 31.8726482  , 839.4148    , 15.57       , 3           , 255         , 0           , 0
-0.0941212  , -0.141151115, -9.779171   , -0.000147009734, -0.0001774478, 0.0007930924, 0.013052294 , -0.009889005, 3.62826057E-07, 916.4306    , 31.8726482  , 839.4145    , 15.58       , 3           , 255         , 0           , 0
-0.09273538 , -0.1379036  , -9.77812    , -2.081032E-05, -0.000115831972, 0.00110156869, 0.0130519774, -0.009890306, 1.13627211E-05, 916.4306    , 31.8726482  , 839.4142    , 15.59       , 3           , 255         , 0           , 0
-0.09657772 , -0.133067831, -9.789626   , 0.000135290073, 0.000464640616, 0.000427640683, 0.0130532887, -0.009885715, 1.569952E-05, 916.4306    , 31.8726482  , 839.4139    , 15.6        , 3           , 255         , 0           , 0
-0.10288398 , -0.1364643  , -9.773169   , -0.00016243507, 7.263143E-05, -6.349856E-05, 0.01305431  , -0.009884289, 1.504805E-05, 916.4306    , 31.8726482  , 839.3817    , 15.61       , 3           , 255         , 0           , 0
-0.09450147 , -0.12337704 , -9.788138   , 0.000120452227, 9.854449E-05, 0.0002899931, 0.0130554847, -0.00988334 , 1.796067E-05, 916.4306    , 31.8726482  , 839.3812    , 15.62       , 3           , 255         , 0           , 0
-0.0947435349, -0.129898936, -9.805262   , 0.0003669483, -0.000360649225, 0.000273777579, 0.0130591262, -0.009886982, 2.06511831E-05, 916.3687    , 31.8684     , 839.380737  , 15.63       , 3           , 255         , 0           , 0
-0.103589475, -0.129649356, -9.786867   , -2.64931368E-05, -0.0002018141, 0.000249093515, 0.0130588366, -0.009889033, 2.31156118E-05, 916.3687    , 31.8684     , 839.380249  , 15.64       , 3           , 255         , 0           , 0
-0.100967504, -0.127384871, -9.776042   , 0.000256768544, -0.000733148132, 4.179711E-05, 0.0130614014, -0.009896369, 2.34378E-05 , 916.3687    , 31.8684     , 839.379761  , 15.65       , 3           , 255         , 0           , 0
-0.09171783 , -0.125288635, -9.767248   , 0.000359256257, -0.0007139601, -5.28237433E-06, 0.0130649945, -0.009903506, 2.32917155E-05, 916.3687    , 31.8684     , 839.3793    , 15.66       , 3           , 255         , 0           , 0
-0.0952895954, -0.122516811, -9.769251   , -0.0004263109, -0.000279891043, -0.000599511957, 0.0130607923, -0.009906226, 1.72604032E-05, 916.3687    , 31.8684     , 839.3788    , 15.67       , 3           , 255         , 0           , 0
-0.09432799 , -0.128033623, -9.778746   , -0.0006650883, -0.000155202419, -0.0005134162, 0.013054193 , -0.009907709, 1.210629E-05, 916.3687    , 31.8684     , 839.3783    , 15.68       , 3           , 255         , 0           , 0
-0.09588043 , -0.131159872, -9.79775    , -0.0006229381, 0.000444354344, -0.000105498126, 0.0130479736, -0.009903255, 1.110936E-05, 916.3687    , 31.8684     , 839.3778    , 15.69       , 3           , 255         , 0           , 0
-0.09233448 , -0.1342161  , -9.791876   , -0.000708839449, -8.72285163E-05, 0.0003522825, 0.01304085  , -0.009904172, 1.46205966E-05, 916.3687    , 31.8684     , 839.3773    , 15.7        , 3           , 255         , 0           , 0
-0.09661938 , -0.130852267, -9.773501   , -0.000159066927, -0.000302667526, 0.000334378332, 0.01304087  , -0.009906946, 1.790848E-05, 916.3687    , 31.8684     , 839.4379    , 15.71       , 3           , 255         , 0           , 0
-0.08177882 , -0.1257635  , -9.787876   , -0.000117602969, -0.000311499462, 0.000444286678, 0.01303965  , -0.009910116, 2.23104562E-05, 916.3687    , 31.8684     , 839.4378    , 15.72       , 3           , 255         , 0           , 0
-0.09701074 , -0.127836749, -9.780411   , 0.000494476757, -0.000790379941, -0.000272355916, 0.0130446218, -0.009917983, 1.94839959E-05, 916.359558  , 31.8729172  , 839.4377    , 15.73       , 3           , 255         , 0           , 0
-0.0943227857, -0.12903741 , -9.785532   , 0.000954899646, -0.000387548149, 0.0004942397, 0.0130541231, -0.009921924, 2.4375513E-05, 916.359558  , 31.8729172  , 839.437561  , 15.74       , 3           , 255         , 0           , 0
-0.09872724 , -0.129793972, -9.773817   , 0.000130413551, 0.000230437887, -0.0002753062, 0.0130554549, -0.009919585, 2.16527E-05 , 916.359558  , 31.8729172  , 839.437439  , 15.75       , 3           , 255         , 0           , 0
-0.1000034  , -0.126581445, -9.779293   , -0.000153383211, 0.0004984437, 0.00010203947, 0.0130539108, -0.009914612, 2.27381E-05 , 916.359558  , 31.8729172  , 839.4373    , 15.76       , 3           , 255         , 0           , 0
-0.108443975, -0.127222836, -9.782228   , -0.000363960979, 9.395862E-06, 0.000385193853, 0.0130502312, -0.009914569, 2.65910348E-05, 916.359558  , 31.8729172  , 839.4372    , 15.77       , 3           , 255         , 0           , 0
-0.111539468, -0.1272523  , -9.78173351 , -0.000106663363, 0.000124261613, 0.0001589346, 0.0130491508, -0.009913347, 2.81965022E-05, 916.359558  , 31.8729172  , 839.4371    , 15.78       , 3           , 255         , 0           , 0
-0.108804584, -0.131032556, -9.785513   , 0.00024101419, -0.000111205321, -4.595823E-05, 0.0130515639, -0.009914453, 2.77224353E-05, 916.359558  , 31.8729172  , 839.436951  , 15.79       , 3           , 255         , 0           , 0
-0.105351292, -0.1358613  , -9.786021   , 7.51004554E-05, -0.000289162155, 9.398788E-05, 0.0130523061, -0.009917357, 2.86245177E-05, 916.359558  , 31.8729172  , 839.4368    , 15.8        , 3           , 255         , 0           , 0
-0.09266149 , -0.129844   , -9.775737   , -0.0004053295, -0.000105279847, 0.000679784454, 0.0130519839, -0.009927101, 3.53701726E-05, 916.359558  , 31.8729172  , 839.5024    , 15.81       , 3           , 255         , 0           , 0
-0.09476793 , -0.132504359, -9.793491   , 0.000252311584, -0.000181461452, 3.709358E-05, 0.0130545031, -0.009928921, 3.571741E-05, 916.359558  , 31.8729172  , 839.5027    , 15.82       , 3           , 255         , 0           , 0
-0.08833839 , -0.135037288, -9.777773   , 0.000362689 , -0.0002408636, 3.6011108E-05, 0.013058126 , -0.009931334, 3.60460472E-05, 916.360962  , 31.8740635  , 839.503     , 15.83       , 3           , 255         , 0           , 0
-0.0872622058, -0.134037778, -9.782269   , 0.0004218018, -0.000299419858, -0.000245927018, 0.0130623681, -0.009934295, 3.35478071E-05, 916.360962  , 31.8740635  , 839.5033    , 15.84       , 3           , 255         , 0           , 0
-0.09076974 , -0.1278263  , -9.779331   , -0.000666649139, -0.000656409364, -0.00043740918, 0.0130557446, -0.009940802, 2.90882817E-05, 916.360962  , 31.8740635  , 839.5036    , 15.85       , 3           , 255         , 0           , 0
-0.0951896459, -0.126822665, -9.784776   , -0.000126873172, 0.00040201997, 0.0006829337, 0.01305441  , -0.009936871, 3.59696824E-05, 916.360962  , 31.8740635  , 839.5039    , 15.86       , 3           , 255         , 0           , 0
-0.102152228, -0.128880665, -9.792054   , 0.000189156563, 0.000146716338, 0.000412641239, 0.01305626  , -0.009935457, 4.01149919E-05, 916.360962  , 31.8740635  , 839.5042    , 15.87       , 3           , 255         , 0           , 0
-0.09986216 , -0.129285663, -9.794396   , -9.109705E-05, -1.28946676E-05, 0.000748965947, 0.0130552752, -0.009935684, 4.76025125E-05, 916.360962  , 31.8740635  , 839.5045    , 15.88       , 3           , 255         , 0           , 0
-0.09439851 , -0.124327444, -9.790995   , -0.0004914222, 0.000167696853, 0.0008870203, 0.0130502721, -0.009934122, 5.649407E-05, 916.360962  , 31.8740635  , 839.5048    , 15.89       , 3           , 255         , 0           , 0
-0.09377372 , -0.119806096, -9.78733    , 4.45181722E-05, -0.000423702266, 0.000440184056, 0.0130506735, -0.009938417, 6.08403534E-05, 916.360962  , 31.8740635  , 839.5051    , 15.9        , 3           , 255         , 0           , 0
-0.09870674 , -0.124380566, -9.784414   , 0.0006225754, -9.45733555E-05, 0.000243848539, 0.013057963 , -0.009935909, 6.32557349E-05, 916.360962  , 31.8740635  , 839.5589    , 15.91       , 3           , 255         , 0           , 0
-0.09853047 , -0.127152845, -9.781565   , 0.0008920116, 0.0005230533, 0.00017239427, 0.0130668636, -0.009930701, 6.50479E-05 , 916.360962  , 31.8740635  , 839.5595    , 15.92       , 3           , 255         , 0           , 0
-0.102266923, -0.129279181, -9.794422   , 0.0006572959, 0.000119861288, -0.000518796, 0.0130734881, -0.009929434, 5.987591E-05, 916.417664  , 31.8731861  , 839.5601    , 15.93       , 3           , 255         , 0           , 0
-0.09973171 , -0.131630138, -9.791544   , -0.0003638915, 0.000317079 , -0.000505671953, 0.0130699   , -0.009926197, 5.486095E-05, 916.417664  , 31.8731861  , 839.5607    , 15.94       , 3           , 255         , 0           , 0
-0.096211955, -0.132469654, -9.785468   , 0.000862084038, 8.028131E-05, 5.65970331E-05, 0.0130785145, -0.009925402, 5.54373764E-05, 916.417664  , 31.8731861  , 839.56134   , 15.95       , 3           , 255         , 0           , 0
-0.0944019854, -0.13562955 , -9.783884   , 0.000296583865, -1.1303925E-05, 1.16872252E-06, 0.0130814807, -0.009925514, 5.544758E-05, 916.417664  , 31.8731861  , 839.562     , 15.96       , 3           , 255         , 0           , 0
-0.08408165 , -0.122609951, -9.786949   , -0.000930113834, 0.0006765817, 0.000210503873, 0.0130721582, -0.009918775, 5.7640973E-05, 916.417664  , 31.8731861  , 839.5627    , 15.97       , 3           , 255         , 0           , 0
-0.0865023  , -0.133338019, -9.790773   , -0.0006002145, -5.80958076E-05, 0.000265350915, 0.0130661316, -0.00991939 , 6.028674E-05, 916.417664  , 31.8731861  , 839.563354  , 15.98       , 3           , 255         , 0           , 0
-0.09259003 , -0.1427305  , -9.787334   , -0.0008521915, 1.60357085E-05, 0.0012248467, 0.013057488 , -0.009919391, 7.25365462E-05, 916.417664  , 31.8731861  , 839.564     , 15.99       , 3           , 255         , 0           , 0
-0.100622132, -0.129502326, -9.788775   , 5.27669472E-05, 0.0003593708, -0.000233215134, 0.0130580384, -0.009915766, 7.025145E-05, 916.417664  , 31.8731861  , 839.5647    , 16          , 3           , 0           , -1          , 1600
-0.08902177 , -0.124289989, -9.788035   , 1.544119E-05, -4.51217857E-05, -0.000433392066, 0.013060634 , -0.009914672, 6.588825E-05, 916.417664  , 31.8731861  , 839.5295    , 16.01       , 3           , 1           , 0           , 0
-0.0874887258, -0.126523063, -9.792833   , -3.27420275E-05, 0.000258990825, -0.000170655112, 0.013060323 , -0.00991206 , 6.421563E-05, 916.417664  , 31.8731861  , 839.5299    , 16.02       , 3           , 2           , 0           , 0
-0.0927216  , -0.129814327, -9.774657   , 0.000506131561, 0.00027451638, 5.10271348E-05, 0.0130653782, -0.009909322, 6.476173E-05, 916.3783    , 31.87076    , 839.530334  , 16.03       , 3           , 3           , 0           , 0
-0.0994798  , -0.133318841, -9.773044   , -0.00020242024, -0.0001038093, -6.282903E-05, 0.0130633591, -0.009910352, 6.411992E-05, 916.3783    , 31.87076    , 839.530762  , 16.04       , 3           , 4           , 0           , 0
-0.101933755, -0.126324058, -9.766484   , 6.085371E-05, -8.26536848E-07, -0.0004177211, 0.0130640091, -0.009910305, 5.9942864E-05, 916.3783    , 31.87076    , 839.5312    , 16.05       , 3           , 5           , 0           , 0
-0.101201691, -0.1283261  , -9.77847    , 0.000224298492, 0.000270886172, -0.00123066781, 0.0130663738, -0.009907437, 4.76723362E-05, 916.3783    , 31.87076    , 839.5316    , 16.06       , 3           , 6           , 0           , 0
-0.09799967 , -0.12382666 , -9.787351   , 0.000135537863, 2.24025916E-05, -0.000426128274, 0.0130677707, -0.009907156, 4.34142348E-05, 916.3783    , 31.87076    , 839.532043  , 16.07       , 3           , 7           , 0           , 0
-0.102658615, -0.130877122, -9.790375   , -2.99129242E-05, -0.000203960342, -0.0006387445, 0.0130675351, -0.009909112, 3.700053E-05, 916.3783    , 31.87076    , 839.5325    , 16.08       , 3           , 8           , 5           , 5
-0.107285358, -0.135720178, -9.78825951 , -0.000149561034, -0.000296826853, -0.00012707767, 0.0130660534, -0.009912063, 3.569104E-05, 916.3783    , 31.87076    , 839.5329    , 16.09       , 3           , 9           , 5           , 0.1
-0.0945590362, -0.136594638, -9.775698   , 5.607144E-07, -0.000120342105, -0.0002741363, 0.013066086 , -0.00991323 , 3.29341237E-05, 916.3783    , 31.87076    , 839.5333    , 16.1        , 3           , 10          , 0.1         , 0.1
-0.0869494751, -0.132256359, -9.786092   , 5.03815681E-05, 0.0006262311, 0.0005121466, 0.0130713908, -0.009908366, 3.808904E-05, 916.3783    , 31.87076    , 839.558533  , 16.11       , 3           , 11          , 0.0037670536, 0.00376702682
-0.0930989757, -0.12903592 , -9.80044651 , 0.0002657214, 0.0005921848, -0.000107883083, 0.0130740581, -0.009902432, 3.708769E-05, 916.3783    , 31.87076    , 839.559143  , 16.12       , 3           , 12          , 0.174731776 , 0
-0.0985682  , -0.13799043 , -9.783781   , -8.742377E-05, 0.000179461582, -0.0002804986, 0.0130732115, -0.0099006  , 3.43063366E-05, 916.3764    , 31.87022    , 839.559753  , 16.13       , 3           , 13          , 0           , 0
-0.09307258 , -0.131611034, -9.787315   , 0.00039038877, -0.000214922024, -0.000189820246, 0.0130771343, -0.009902724, 3.238015E-05, 916.3764    , 31.87022    , 839.560364  , 16.14       , 3           , 14          , 7.227714E-05, 3.84676952E-07
-0.09689839 , -0.124206327, -9.785507   , -0.000180621864, -0.000341241917, -0.0004803247, 0.0130753769, -0.009906072, 2.75325783E-05, 916.3764    , 31.87022    , 839.561     , 16.15       , 3           , 15          , 0           , 8.78507053E-05
-0.0964613259, -0.12611869 , -9.782148   , -0.0003770885, -0.000176855014, 2.89064337E-05, 0.0130716031, -0.00990784448, 2.77984982E-05, 916.3764    , 31.87022    , 839.5616    , 16.16       , 3           , 16          , 0           , 1.401298E-45
-0.08986369 , -0.124232128, -9.781836   , 0.000147461629, 2.662053E-05, 6.775173E-05, 0.013073069 , -0.0099075865, 2.84794587E-05, 916.3764    , 31.87022    , 839.5622    , 16.17       , 3           , 20          , 0           , 0
-0.103181206, -0.1299726  , -9.784372   , 3.118589E-05, 5.55177867E-05, 0.000253023027, 0.0130733578, -0.009907065, 3.101678E-05, 916.3764    , 31.87022    , 839.5628    , 16.18       , 3           , 21          , 0           , 0
-0.103933617, -0.13520655 , -9.784616   , -0.0007994653, 7.508617E-05, -0.000149228581, 0.0130653782, -0.009906294, 2.95344162E-05, 916.3764    , 31.87022    , 839.5634    , 16.19       , 3           , 22          , 0           , 0
-0.09894613 , -0.126143381, -9.78033    , -0.00025845418, 2.92548739E-05, -1.41805576E-05, 0.0130627947, -0.00990599953, 2.93964367E-05, 916.3764    , 31.87022    , 839.564     , 16.2        , 3           , 40          , 0           , 0
-0.1008303  , -0.119825438, -9.789753   , -0.000263211143, -0.000353961019, -0.000261096517, 0.0130619826, -0.009908625, 2.67217E-05 , 916.3764    , 31.87022    , 839.5873    , 16.21       , 3           , 41          , 0           , 0
-0.0979448  , -0.131427079, -9.79759    , -0.000268222473, 0.0002166804, 0.0005393138, 0.0130592464, -0.00990652852, 3.214281E-05, 916.3764    , 31.87022    , 839.588     , 16.22       , 3           , 42          , 0           , 0
-0.102741018, -0.131426126, -9.773468   , 0.000133047346, 0.000109101049, 0.0005455107, 0.0130605223, -0.009905509, 3.7611826E-05, 916.3937    , 31.8706245  , 839.588745  , 16.23       , 3           , 255         , 0           , 0
-0.09312643 , -0.131058723, -9.780012   , -0.0007478823, -0.000577660743, -0.000341004343, 0.0130530782, -0.00991124 , 3.41265768E-05, 916.3937    , 31.8706245  , 839.5895    , 16.24       , 3           , 255         , 0           , 0
-0.09877952 , -0.133655846, -9.779822   , -0.0004251631, 0.000110963847, -0.0004523979, 0.0130488714, -0.009910071, 2.961736E-05, 916.3937    , 31.8706245  , 839.5902    , 16.25       , 3           , 255         , 0           , 0
-0.09414033 , -0.131229132, -9.77679348 , 0.000402286416, 0.00056069257, -1.30119734E-05, 0.0130528947, -0.009904464, 2.95604186E-05, 916.3937    , 31.8706245  , 839.590942  , 16.26       , 3           , 255         , 0           , 0
-0.08010179 , -0.1360152  , -9.782299   , 2.78154548E-05, 0.0003228102, 0.000362474471, 0.0130531378, -0.009901283, 3.32270756E-05, 916.3937    , 31.8706245  , 839.5917    , 16.27       , 3           , 255         , 0           , 0
-0.09374218 , -0.135002643, -9.789873   , -0.0002948019, -1.01757241E-05, 0.000227976416, 0.0130501669, -0.009901414, 3.55053671E-05, 916.3937    , 31.8706245  , 839.5924    , 16.28       , 3           , 255         , 0           , 0
-0.0913644955, -0.126985341, -9.784914   , 1.20449258E-05, -0.000411482528, 7.371944E-05, 0.01305028  , -0.009905538, 3.61888269E-05, 916.3937    , 31.8706245  , 839.59314   , 16.29       , 3           , 255         , 0           , 0
-0.09022087 , -0.130614609, -9.781937   , -0.000154485781, 0.000295035541, 0.000623531931, 0.013048674 , -0.009902669, 4.24622667E-05, 916.3937    , 31.8706245  , 839.5939    , 16.3        , 3           , 255         , 0           , 0
-0.09807201 , -0.125340149, -9.790174   , -0.0005957021, -8.37459156E-05, 0.000332154654, 0.0130472118, -0.009899562, 4.57281531E-05, 916.3937    , 31.8706245  , 839.5883    , 16.31       , 3           , 255         , 0           , 0
-0.09914541 , -0.123615839, -9.786013   , -0.000582360255, 0.000391324516, 0.000304791552, 0.0130413575, -0.009895688, 4.88269252E-05, 916.3937    , 31.8706245  , 839.58905   , 16.32       , 3           , 255         , 0           , 0
-0.09740587 , -0.125141785, -9.789873   , -4.649486E-05, 0.000660288846, -0.0004140169, 0.0130409338, -0.009889035, 4.477311E-05, 916.42      , 31.8739281  , 839.5898    , 16.33       , 3           , 255         , 0           , 0
-0.09421245 , -0.127723485, -9.792973   , 0.000227013079, 0.0001697802, 0.0005802314, 0.0130431466, -0.009887411, 5.0597213E-05, 916.42      , 31.8739281  , 839.5905    , 16.34       , 3           , 255         , 0           , 0
-0.100066185, -0.123107888, -9.786849   , -0.000392011338, 0.000172036336, 0.000349539536, 0.01303919  , -0.009885736, 5.411484E-05, 916.42      , 31.8739281  , 839.591248  , 16.35       , 3           , 255         , 0           , 0
-0.0928657  , -0.125423014, -9.780066   , -0.000273015961, -0.0002785367, 0.000322915876, 0.01303643  , -0.009888562, 5.73074831E-05, 916.42      , 31.8739281  , 839.592     , 16.36       , 3           , 255         , 0           , 0
-0.09580041 , -0.1307875  , -9.784765   , -0.000504119, -0.00015775529, -8.127318E-05, 0.0130313952, -0.009890129, 5.64742477E-05, 916.42      , 31.8739281  , 839.5927    , 16.37       , 3           , 255         , 0           , 0
-0.0984176546, -0.123467818, -9.792751   , -0.0006112552, -0.000186457924, -0.0004928466, 0.0130253322, -0.009891928, 5.1521798E-05, 916.42      , 31.8739281  , 839.593445  , 16.38       , 3           , 255         , 0           , 0
-0.09611288 , -0.134166032, -9.788292   , -0.00016852573, -0.000176132045, -0.000606238667, 0.0130237062, -0.009893612, 4.543685E-05, 916.42      , 31.8739281  , 839.5942    , 16.39       , 3           , 255         , 0           , 0
-0.09802313 , -0.137100726, -9.790479   , -0.00030514528, -7.391519E-06, 5.00314854E-05, 0.0130206514, -0.009893691, 4.59361727E-05, 916.42      , 31.8739281  , 839.5949    , 16.4        , 3           , 255         , 0           , 0
-0.09409286 , -0.131593436, -9.800169   , 0.000389772555, 4.05907449E-05, 0.000272464938, 0.0130244736, -0.009893496, 4.866641E-05, 916.42      , 31.8739281  , 839.5518    , 16.41       , 3           , 255         , 0           , 0
-0.09848116 , -0.132242531, -9.793965   , 0.0003348232, 0.0001674611, -0.0006888571, 0.0130278906, -0.009891732, 4.18000636E-05, 916.42      , 31.8739281  , 839.552246  , 16.42       , 3           , 255         , 0           , 0
-0.103249058, -0.127653122, -9.789087   , 0.00090556714, 1.75527566E-05, -0.0002301326, 0.0130369682, -0.009891524, 3.9501163E-05, 916.4122    , 31.87413    , 839.5527    , 16.43       , 3           , 255         , 0           , 0
-0.09161688 , -0.128332049, -9.785035   , -0.000511395861, -0.000255398627, -0.000286158058, 0.0130318822, -0.00989403948, 3.66064778E-05, 916.4122    , 31.87413    , 839.5531    , 16.44       , 3           , 255         , 0           , 0
-0.101329245, -0.124050066, -9.776934   , -0.000438862859, -0.000134751375, -7.8559955E-05, 0.0130275022, -0.009895376, 3.580337E-05, 916.4122    , 31.87413    , 839.5535    , 16.45       , 3           , 255         , 0           , 0
-0.0990245342, -0.127962366, -9.78510952 , -0.00110346894, -4.989913E-05, 0.000325170433, 0.0130164353, -0.009895918, 3.904838E-05, 916.4122    , 31.87413    , 839.553955  , 16.46       , 3           , 255         , 0           , 0
-0.109761894, -0.125887647, -9.7919445  , -0.000294191967, -0.000202524956, 0.0007307435, 0.0130134206, -0.009898039, 4.63290235E-05, 916.4122    , 31.87413    , 839.5544    , 16.47       , 3           , 255         , 0           , 0
-0.104196332, -0.1300529  , -9.786946   , -0.000370825641, 0.000194949986, 3.3839402E-05, 0.01300971  , -0.009896092, 4.66927668E-05, 916.4122    , 31.87413    , 839.5548    , 16.48       , 3           , 255         , 0           , 0
-0.09886286 , -0.126056641, -9.794724   , -0.000223078125, 0.000200047347, -0.000117665, 0.01300749  , -0.009894076, 4.5542205E-05, 916.4122    , 31.87413    , 839.555237  , 16.49       , 3           , 255         , 0           , 0
-0.09643888 , -0.127878532, -9.783966   , -0.000244005758, 3.3906912E-05, 0.000449758372, 0.0130050061, -0.009893797, 5.00439273E-05, 916.4122    , 31.87413    , 839.555664  , 16.5        , 3           , 255         , 0           , 0
-0.09514201 , -0.132336468, -9.7885     , -0.000895248144, 0.000472066517, 0.0001942633, 0.012996478 , -0.009891116, 5.204332E-05, 916.4122    , 31.87413    , 839.5293    , 16.51       , 3           , 255         , 0           , 0
-0.0957496241, -0.135286123, -9.789919   , -7.44628051E-06, 0.000295841426, 0.000103837134, 0.0129963933, -0.009888171, 5.312008E-05, 916.4122    , 31.87413    , 839.5296    , 16.52       , 3           , 255         , 0           , 0
-0.09747119 , -0.127743885, -9.788271   , 0.00103634689, 0.000220609625, 0.000301656633, 0.0130067281, -0.009886004, 5.616515E-05, 916.3691    , 31.8715019  , 839.5299    , 16.53       , 3           , 255         , 0           , 0
-0.0960025  , -0.120005965, -9.805459   , -0.000320005638, 0.000254874758, -0.000570443, 0.013003584 , -0.009883381, 5.049423E-05, 916.3691    , 31.8715019  , 839.5302    , 16.54       , 3           , 255         , 0           , 0
-0.09100828 , -0.126591608, -9.793514   , -0.0003888819, 0.000129389358, -0.0004551063, 0.0129997395, -0.009882028, 4.59602634E-05, 916.3691    , 31.8715019  , 839.5305    , 16.55       , 3           , 255         , 0           , 0
-0.0978764147, -0.131123573, -9.791927   , 0.000323811953, -0.000538552238, -0.0003192172, 0.0130030094, -0.009887371, 4.26982733E-05, 916.3691    , 31.8715019  , 839.5308    , 16.56       , 3           , 255         , 0           , 0
-0.09891353 , -0.129666656, -9.780241   , 0.0003653959, -0.0001354916, 4.88973674E-05, 0.0130066583, -0.009888732, 4.31695953E-05, 916.3691    , 31.8715019  , 839.5311    , 16.57       , 3           , 255         , 0           , 0
-0.09482395 , -0.132926732, -9.785299   , -0.000478038361, -0.000198671245, 0.00025388482, 0.0130018527, -0.009890752, 4.568245E-05, 916.3691    , 31.8715019  , 839.531433  , 16.58       , 3           , 255         , 0           , 0
-0.0934090242, -0.129408017, -9.789034   , 0.000461391319, 7.587049E-05, 7.09311353E-05, 0.01300646  , -0.009890002, 4.64015866E-05, 916.3691    , 31.8715019  , 839.531738  , 16.59       , 3           , 255         , 0           , 0
-0.104031064, -0.12759082 , -9.789741   , 0.000199492177, 0.000286106224, 0.000729894557, 0.0130083822, -0.009887236, 5.37373053E-05, 916.3691    , 31.8715019  , 839.532043  , 16.6        , 3           , 255         , 0           , 0
-0.102240182, -0.128671125, -9.783653   , 0.000369505578, 0.0001790392, 8.69938E-05 , 0.0130133042, -0.009885258, 5.46182928E-05, 916.3691    , 31.8715019  , 839.57      , 16.61       , 3           , 255         , 0           , 0
-0.10420078 , -0.130142719, -9.790689   , -0.000916028337, -0.0006779668, -0.0002570275, 0.0130041707, -0.009892004, 5.19599962E-05, 916.3691    , 31.8715019  , 839.570557  , 16.62       , 3           , 255         , 0           , 0
-0.0974045843, -0.130703539, -9.779333   , -0.000366960245, -0.000485153636, -0.0004524317, 0.013000547 , -0.009896793, 4.737288E-05, 916.4213    , 31.8770981  , 839.5711    , 16.63       , 3           , 255         , 0           , 0
-0.0993005857, -0.1308156  , -9.78591251 , 0.000138599542, 0.000251988 , -0.000430774729, 0.0130019737, -0.009894217, 4.30981454E-05, 916.4213    , 31.8770981  , 839.571655  , 16.64       , 3           , 255         , 0           , 0
-0.107666507, -0.136482388, -9.786795   , 0.000253287028, 0.000201995572, -0.0008768708, 0.0130045936, -0.009892084, 3.43562351E-05, 916.4213    , 31.8770981  , 839.5722    , 16.65       , 3           , 255         , 0           , 0
-0.0947969556, -0.137121886, -9.785106   , -0.00022307146, -0.000113398892, -0.000121684687, 0.0130023733, -0.009893201, 3.312472E-05, 916.4213    , 31.8770981  , 839.572754  , 16.66       , 3           , 255         , 0           , 0
-0.09627708 , -0.131478757, -9.783022   , -0.0001305939, -0.000176104411, -0.000354198564, 0.0130011039, -0.009894916, 2.95600476E-05, 916.4213    , 31.8770981  , 839.5733    , 16.67       , 3           , 255         , 0           , 0
-0.0989152342, -0.123714909, -9.787372   , -0.000684042636, 0.000582409033, -0.000232418883, 0.0129942866, -0.009889063, 2.73116966E-05, 916.4213    , 31.8770981  , 839.573853  , 16.68       , 3           , 255         , 0           , 0
-0.09036617 , -0.133078009, -9.785158   , 0.0002051986, 0.0005626651, -0.000467037782, 0.0129963849, -0.009883377, 2.27147175E-05, 916.4213    , 31.8770981  , 839.5744    , 16.69       , 3           , 255         , 0           , 0
-0.0895209759, -0.135043278, -9.780885   , 0.000488074031, -0.0001133078, -0.000564130547, 0.0130013209, -0.009884437, 1.70590265E-05, 916.4213    , 31.8770981  , 839.574951  , 16.7        , 3           , 255         , 0           , 0
-0.09787798 , -0.128461584, -9.784962   , -0.000103987084, 0.000159787916, -0.0002671705, 0.0130056711, -0.009884309, 1.43552206E-05, 916.4213    , 31.8770981  , 839.532532  , 16.71       , 3           , 255         , 0           , 0
-0.0976335555, -0.131035864, -9.786989   , 0.000208989921, 0.00038597337, -0.0004462428, 0.0130078038, -0.009880392, 9.943264E-06, 916.4213    , 31.8770981  , 839.532837  , 16.72       , 3           , 255         , 0           , 0
-0.09077281 , -0.129990175, -9.78226948 , 9.60087855E-05, -0.000231703758, 0.000197700458, 0.0130087463, -0.009882735, 1.18899979E-05, 916.3928    , 31.8743324  , 839.533142  , 16.73       , 3           , 255         , 0           , 0
-0.09389271 , -0.1268483  , -9.78222    , 8.713248E-05, -0.0006018903, -0.000147804836, 0.0130096329, -0.009888734, 1.033374E-05, 916.3928    , 31.8743324  , 839.533447  , 16.74       , 3           , 255         , 0           , 0
-0.09333867 , -0.121664226, -9.783691   , 0.000140037038, 0.000297518185, -0.0003559575, 0.013011069 , -0.009885713, 6.813081E-06, 916.3928    , 31.8743324  , 839.533752  , 16.75       , 3           , 255         , 0           , 0
-0.09439983 , -0.120578423, -9.785009   , 0.000352842064, -0.000199863382, 8.197323E-05, 0.0130145885, -0.009887723, 7.60674538E-06, 916.3928    , 31.8743324  , 839.534058  , 16.76       , 3           , 255         , 0           , 0
-0.0949028  , -0.124934986, -9.781427   , -0.00061127753, 0.0001495873, -0.00048812016, 0.0130085247, -0.009886163, 2.745302E-06, 916.3928    , 31.8743324  , 839.534363  , 16.77       , 3           , 255         , 0           , 0
-0.101280056, -0.118694805, -9.790212   , -0.000443542143, -0.000213793377, -2.43931936E-05, 0.0130040925, -0.009888298, 2.47358275E-06, 916.3928    , 31.8743324  , 839.534668  , 16.78       , 3           , 255         , 0           , 0
-0.106800035, -0.1306192  , -9.785376   , -0.000459832721, 0.00064163364, -0.00032992076, 0.0129995272, -0.009881839, -7.420021E-07, 916.3928    , 31.8743324  , 839.535     , 16.79       , 3           , 255         , 0           , 0
-0.101078846, -0.12789306 , -9.778765   , -0.000647798239, 0.0003832814, -0.000131180161, 0.0129930619, -0.009877991, -2.003918E-06, 916.3928    , 31.8743324  , 839.5353    , 16.8        , 3           , 255         , 0           , 0
-0.09883063 , -0.126722455, -9.789198   , -0.000403284444, 0.000171128209, 0.00029958316, 0.0129873008, -0.009876941, 1.03068248E-06, 916.3928    , 31.8743324  , 839.539063  , 16.81       , 3           , 255         , 0           , 0
-0.0951157138, -0.128740028, -9.77868    , -0.00016321757, -0.000299982057, 0.0010113793, 0.0129855694, -0.009880073, 1.11049039E-05, 916.3928    , 31.8743324  , 839.539368  , 16.82       , 3           , 255         , 0           , 0
-0.0875752345, -0.122071877, -9.776619   , -0.000409212022, -0.0001215613, 0.0006702703, 0.01298141  , -0.009881375, 1.77914135E-05, 916.3731    , 31.8735237  , 839.5397    , 16.83       , 3           , 255         , 0           , 0
-0.08919971 , -0.133550957, -9.779924   , 0.000260581233, -0.0001811966, 0.000314841978, 0.0129839871, -0.009883228, 2.09161244E-05, 916.3731    , 31.8735237  , 839.54      , 16.84       , 3           , 255         , 0           , 0
-0.09174857 , -0.12923044 , -9.784893   , 0.000393261929, 0.000123681064, 0.000547132455, 0.0129878642, -0.009882061, 2.6403186E-05, 916.3731    , 31.8735237  , 839.5403    , 16.85       , 3           , 255         , 0           , 0
-0.09683933 , -0.13194932 , -9.790533   , -0.000433040346, -0.000120613506, 9.769E-05   , 0.0129835252, -0.009883279, 2.73643673E-05, 916.3731    , 31.8735237  , 839.5406    , 16.86       , 3           , 255         , 0           , 0
-0.09852201 , -0.132698745, -9.795776   , 0.000235691463, 0.00010144632, -0.0007471195, 0.0129859559, -0.009882168, 1.99067872E-05, 916.3731    , 31.8735237  , 839.5409    , 16.87       , 3           , 255         , 0           , 0
-0.09358279 , -0.138491422, -9.788874   , 0.0001481488, -8.89838848E-05, -0.0006233906, 0.0129874991, -0.009882977, 1.36617009E-05, 916.3731    , 31.8735237  , 839.5412    , 16.88       , 3           , 255         , 0           , 0
-0.0905240253, -0.133213475, -9.78171349 , -0.0001456137, -6.495187E-05, 0.0003239398, 0.0129860118, -0.009883668, 1.68924635E-05, 916.3731    , 31.8735237  , 839.5415    , 16.89       , 3           , 255         , 0           , 0
-0.09749767 , -0.12993218 , -9.784002   , -0.000382292434, 0.000126106912, -6.873888E-05, 0.0129821971, -0.009882398, 1.62214856E-05, 916.3731    , 31.8735237  , 839.5418    , 16.9        , 3           , 255         , 0           , 0
-0.103817359, -0.132129312, -9.787573   , 0.000102708633, 0.000224580668, -0.000298358442, 0.0129873985, -0.009876907, 1.32265186E-05, 916.3731    , 31.8735237  , 839.5724    , 16.91       , 3           , 255         , 0           , 0
-0.09601506 , -0.128950074, -9.787287   , -0.000258226879, 0.0001834264, 0.000599639956, 0.0129847564, -0.00987515 , 1.924638E-05, 916.3731    , 31.8735237  , 839.5729    , 16.92       , 3           , 255         , 0           , 0
-0.09654846 , -0.135772929, -9.776571   , -0.0003067596, 0.000492958643, 9.672629E-05, 0.01298168  , -0.009870236, 2.02775809E-05, 916.4397    , 31.8768272  , 839.573364  , 16.93       , 3           , 255         , 0           , 0
-0.100150034, -0.13206014 , -9.786482   , -0.000646408, 0.000341132283, -0.000579419662, 0.0129752727, -0.009866749, 1.45280146E-05, 916.4397    , 31.8768272  , 839.573853  , 16.94       , 3           , 255         , 0           , 0
-0.09142962 , -0.127804637, -9.788458   , -0.0004930469, -8.424393E-05, 0.000156960567, 0.0129703293, -0.009867611, 1.60866075E-05, 916.4397    , 31.8768272  , 839.574341  , 16.95       , 3           , 255         , 0           , 0
-0.09056465 , -0.127768129, -9.785307   , -0.000252201367, 7.341685E-05, 0.00052274263, 0.0129677532, -0.00986694451, 2.1323247E-05, 916.4397    , 31.8768272  , 839.5748    , 16.96       , 3           , 255         , 0           , 0
-0.08848517 , -0.130187109, -9.785132   , -0.00010911328, -0.000107337277, 0.000265712471, 0.0129666366, -0.009868052, 2.3966295E-05, 916.4397    , 31.8768272  , 839.5753    , 16.97       , 3           , 255         , 0           , 0
-0.09383205 , -0.1303536  , -9.785074   , -0.000131170324, -0.000169875915, 0.000223020528, 0.0129653038, -0.009869779, 2.61743444E-05, 916.4397    , 31.8768272  , 839.5758    , 16.98       , 3           , 255         , 0           , 0
-0.09032409 , -0.134870008, -9.781464   , -0.000164293975, 0.000372225564, 3.83613951E-06, 0.01296366  , -0.009866058, 2.62609519E-05, 916.4397    , 31.8768272  , 839.5763    , 16.99       , 3           , 255         , 0           , 0
-0.09332464 , -0.136356547, -9.789602   , -0.000499484, 8.976099E-05, -1.82882868E-05, 0.0129586663, -0.009865157, 2.608972E-05, 916.4397    , 31.8768272  , 839.5768    , 17          , 3           , 0           , -1          , 1700
-0.0943149552, -0.131311968, -9.785474   , -0.000140212884, -0.000230643753, -0.0006152438, 0.012962494 , -0.00986504648, 1.9856976E-05, 916.4397    , 31.8768272  , 839.50824   , 17.01       , 3           , 1           , 0           , 0
-0.09783293 , -0.1313582  , -9.786769   , 9.26874345E-05, 0.000274802442, 1.91356958E-06, 0.0129634207, -0.009862299, 1.99117221E-05, 916.4397    , 31.8768272  , 839.5083    , 17.02       , 3           , 2           , 0           , 0
-0.09401126 , -0.134168714, -9.786815   , -0.000480279559, 0.000151381159, 0.000417203322, 0.012958576 , -0.00986084 , 2.41031266E-05, 916.406433  , 31.8733215  , 839.508362  , 17.03       , 3           , 3           , 0           , 0
-0.09920001 , -0.129191369, -9.792271   , 5.50001423E-05, 0.000625517336, 1.53878937E-05, 0.0129591245, -0.00985459 , 2.43380418E-05, 916.406433  , 31.8733215  , 839.5084    , 17.04       , 3           , 4           , 0           , 0
-0.101198219, -0.13160722 , -9.787917   , 0.000117971504, 0.000330152747, 0.0008366803, 0.0129602225, -0.009851394, 3.274713E-05, 916.406433  , 31.8733215  , 839.5085    , 17.05       , 3           , 5           , 0           , 0
-0.100769423, -0.129714713, -9.788052   , -0.000265737, 0.000259489549, 0.0002042549, 0.0129575459, -0.009848827, 3.48231879E-05, 916.406433  , 31.8733215  , 839.508545  , 17.06       , 3           , 6           , 0           , 0
-0.0945502  , -0.122842923, -9.793516   , 0.000153111978, 9.074995E-05, 0.000404546066, 0.012959037 , -0.009847972, 3.888016E-05, 916.406433  , 31.8733215  , 839.5086    , 17.07       , 3           , 7           , 0           , 0
-0.09029947 , -0.126045316, -9.78568649 , 0.000206770244, 0.000250487734, 7.971365E-05, 0.0129610971, -0.00984547753, 3.97097174E-05, 916.406433  , 31.8733215  , 839.508667  , 17.08       , 3           , 8           , 5           , 5
-0.0936476141, -0.132569432, -9.788032   , 2.5259651E-05, -0.000208894824, 0.000937979668, 0.0129612572, -0.009847688, 4.90618731E-05, 916.406433  , 31.8733215  , 839.5088    , 17.09       , 3           , 9           , 5           , 0.1
-0.0973240361, -0.129492417, -9.788412   , 2.57609645E-05, -0.0005729468, 0.0005608342, 0.0129614593, -0.009853488, 5.45956E-05 , 916.406433  , 31.8733215  , 839.5089    , 17.1        , 3           , 10          , 0.1         , 0.1
-0.0904119  , -0.132843331, -9.784021   , -0.000525683165, 0.000155410555, 0.000320170948, 0.012958399 , -0.009851873, 5.779534E-05, 916.406433  , 31.8733215  , 839.4968    , 17.11       , 3           , 11          , 0.003737748 , 0.00373772066
-0.09375425 , -0.12859793 , -9.78536    , -5.3196778E-05, -0.000494131935, 0.000560960558, 0.0129578114, -0.009856886, 6.334057E-05, 916.406433  , 31.8733215  , 839.4968    , 17.12       , 3           , 12          , 0.17474328  , 0
-0.08979355 , -0.130410582, -9.777111   , 1.1134005E-05, -0.000168457569, 0.00108258671, 0.0129578179, -0.009858712, 7.414394E-05, 916.388     , 31.8739967  , 839.4968    , 17.13       , 3           , 13          , 0           , 0
-0.0957001746, -0.125528365, -9.784749   , 0.0003153436, 0.000144745689, 5.78246327E-05, 0.0129609648, -0.009857271, 7.474091E-05, 916.388     , 31.8739967  , 839.4968    , 17.14       , 3           , 14          , 7.10725362E-05, 5.265821E-08
-0.104243159, -0.128188208, -9.784029   , 3.10621544E-05, 0.000246329961, -0.00013469308, 0.01296129  , -0.00985479 , 7.342598E-05, 916.388     , 31.8739967  , 839.4968    , 17.15       , 3           , 15          , 0           , 8.786686E-05
-0.09728931 , -0.127458438, -9.788622   , -0.0005666308, -0.0005560293, 0.0005493344, 0.01295557  , -0.009860422, 7.88469551E-05, 916.388     , 31.8739967  , 839.4968    , 17.16       , 3           , 16          , 0           , 1.401298E-45
-0.09612928 , -0.131656244, -9.787176   , -0.0005226985, -0.000163564619, 0.000478192931, 0.0129502956, -0.009862117, 8.36074E-05 , 916.388     , 31.8739967  , 839.4968    , 17.17       , 3           , 20          , 0           , 0
-0.09888526 , -0.131241649, -9.784927   , -0.000318829669, -7.07667E-06, 0.001017636 , 0.0129470062, -0.0098623205, 9.378223E-05, 916.388     , 31.8739967  , 839.4968    , 17.18       , 3           , 21          , 0           , 0
-0.103135586, -0.136224657, -9.783056   , -1.72007858E-05, 0.000232575258, -0.000183680764, 0.0129468525, -0.009859971, 9.197565E-05, 916.388     , 31.8739967  , 839.4968    , 17.19       , 3           , 22          , 0           , 0
-0.09998748 , -0.13624303 , -9.78788948 , -9.721695E-05, -2.59962671E-05, 2.89633826E-05, 0.0129458774, -0.009860234, 9.226189E-05, 916.388     , 31.8739967  , 839.4968    , 17.2        , 3           , 40          , 0           , 0
-0.104010239, -0.137316316, -9.793811   , -0.000583753, 0.0001834553, -0.000112646521, 0.0129449423, -0.009858975, 9.11110255E-05, 916.388     , 31.8739967  , 839.512634  , 17.21       , 3           , 41          , 0           , 0
-0.101479217, -0.1414038  , -9.790481   , 0.00021543543, 0.000208486425, -0.000199978807, 0.0129471151, -0.009856865, 8.913836E-05, 916.388     , 31.8739967  , 839.512756  , 17.22       , 3           , 42          , 0           , 0
-0.09765757 , -0.127077967, -9.775416   , -0.0006401718, 0.000102723468, 4.055429E-05, 0.01294071  , -0.009855846, 8.955715E-05, 916.385437  , 31.8739281  , 839.5129    , 17.23       , 3           , 255         , 0           , 0
-0.0946174562, -0.126391515, -9.780021   , -7.948819E-05, 0.000355671218, 0.000533684564, 0.0129398638, -0.009852356, 9.493969E-05, 916.385437  , 31.8739281  , 839.513     , 17.24       , 3           , 255         , 0           , 0
-0.100383662, -0.129968241, -9.784811   , 0.0001400156, -0.000105431434, 0.0003599957, 0.0129412282, -0.009853458, 9.85257939E-05, 916.385437  , 31.8739281  , 839.5131    , 17.25       , 3           , 255         , 0           , 0
-0.08953004 , -0.132635728, -9.781371   , -0.000210211438, 0.0007485823, 5.61599372E-05, 0.01293912  , -0.00984597951, 9.918424E-05, 916.385437  , 31.8739281  , 839.513245  , 17.26       , 3           , 255         , 0           , 0
-0.0961147547, -0.1283457  , -9.78896    , -0.000282118446, 6.418039E-05, 0.000254232466, 0.0129362736, -0.009845371, 0.0001017347, 916.385437  , 31.8739281  , 839.513367  , 17.27       , 3           , 255         , 0           , 0
-0.09573017 , -0.130783126, -9.794729   , 0.000111304325, 0.000193690939, -4.484149E-05, 0.0129373912, -0.009843429, 0.000101311372, 916.385437  , 31.8739281  , 839.5135    , 17.28       , 3           , 255         , 0           , 0
-0.09769568 , -0.123330578, -9.797682   , 0.000378871016, -0.000242493028, -0.00017711721, 0.0129411956, -0.0098458305, 9.950893E-05, 916.385437  , 31.8739281  , 839.5136    , 17.29       , 3           , 255         , 0           , 0
-0.09770771 , -0.129636571, -9.784281   , -0.000371130474, -0.000144033838, -0.000269207434, 0.0129375122, -0.009847236, 9.679838E-05, 916.385437  , 31.8739281  , 839.513733  , 17.3        , 3           , 255         , 0           , 0
-0.0931758657, -0.131028444, -9.782154   , 0.0005308759, 0.000467472739, 0.000116708288, 0.012946249 , -0.009843471, 9.799197E-05, 916.385437  , 31.8739281  , 839.5309    , 17.31       , 3           , 255         , 0           , 0
-0.0977398  , -0.12624763 , -9.783717   , 0.0007044786, 0.000172429834, 0.0005203423, 0.0129532423, -0.009841815, 0.000103217404, 916.385437  , 31.8739281  , 839.5311    , 17.32       , 3           , 255         , 0           , 0
-0.09468847 , -0.137671188, -9.786412   , -0.000466040161, -0.0005688587, 0.0003488196, 0.0129485494, -0.009847547, 0.000106631735, 916.3688    , 31.87676    , 839.5314    , 17.33       , 3           , 255         , 0           , 0
-0.100328818, -0.134435743, -9.785754   , -0.000106833453, -0.000135385431, 1.366053E-05, 0.01294748  , -0.009848903, 0.000106750791, 916.3688    , 31.87676    , 839.5316    , 17.34       , 3           , 255         , 0           , 0
-0.09408589 , -0.126555651, -9.781939   , -0.00022606118, 9.036001E-05, 6.903032E-05, 0.0129452124, -0.009848009, 0.000107452768, 916.3688    , 31.87676    , 839.53186   , 17.35       , 3           , 255         , 0           , 0
-0.097869   , -0.127373308, -9.782961   , 0.00015877196, -0.000270018849, 0.000366819178, 0.012946764 , -0.009850756, 0.000111085777, 916.3688    , 31.87676    , 839.5321    , 17.36       , 3           , 255         , 0           , 0
-0.09983581 , -0.1285775  , -9.778486   , 7.12894544E-05, -6.05375353E-05, -0.000332302, 0.01294751  , -0.009851319, 0.000107755113, 916.3688    , 31.87676    , 839.532349  , 17.37       , 3           , 255         , 0           , 0
-0.102151081, -0.139903545, -9.788013   , 0.000385147665, -6.242321E-05, -0.000113307382, 0.0129513722, -0.009851929, 0.000106614025, 916.3688    , 31.87676    , 839.5326    , 17.38       , 3           , 255         , 0           , 0
-0.09917522 , -0.1320872  , -9.78797    , -0.000708717969, 1.63949755E-06, 0.000472508837, 0.0129442392, -0.0098519735, 0.000111339032, 916.3688    , 31.87676    , 839.532837  , 17.39       , 3           , 255         , 0           , 0
-0.09920852 , -0.133225128, -9.787959   , -0.000375381846, 0.000261027017, 0.000320699066, 0.0129404534, -0.009849405, 0.000114579612, 916.3688    , 31.87676    , 839.5331    , 17.4        , 3           , 255         , 0           , 0
-0.0943833  , -0.1285875  , -9.792475   , -0.000122934027, 0.000351007766, -0.0001253174, 0.0129455253, -0.009847694, 0.000113309936, 916.3688    , 31.87676    , 839.5711    , 17.41       , 3           , 255         , 0           , 0
-0.09574006 , -0.134196728, -9.788104   , -0.000349538983, 0.000293028163, -0.00010943762, 0.0129420413, -0.009844749, 0.00011225354, 916.3688    , 31.87676    , 839.5716    , 17.42       , 3           , 255         , 0           , 0
-0.08525352 , -0.136378244, -9.789319   , 0.00072795403, 0.0002889103, -0.000391424575, 0.01294936  , -0.009841809, 0.000108376938, 916.4183    , 31.8755474  , 839.5721    , 17.43       , 3           , 255         , 0           , 0
-0.09497772 , -0.126897871, -9.780771   , 4.37988419E-05, 9.00592859E-05, 0.000199204136, 0.0129497768, -0.009840935, 0.000110380519, 916.4183    , 31.8755474  , 839.5726    , 17.44       , 3           , 255         , 0           , 0
-0.09127646 , -0.126853466, -9.778524   , -0.000197190981, -0.000237067623, 1.8065577E-05, 0.0129478034, -0.009843308, 0.000110530462, 916.4183    , 31.8755474  , 839.573059  , 17.45       , 3           , 255         , 0           , 0
-0.101122953, -0.1316388  , -9.782311   , -0.000100216232, 0.00016419818, -0.0003329157, 0.0129468348, -0.009841623, 0.000107222761, 916.4183    , 31.8755474  , 839.573547  , 17.46       , 3           , 255         , 0           , 0
-0.1008834  , -0.137215629, -9.787321   , -0.0004278235, -8.846077E-06, -0.0006392091, 0.0129426206, -0.009841628, 0.000100829908, 916.4183    , 31.8755474  , 839.574036  , 17.47       , 3           , 255         , 0           , 0
-0.09361755 , -0.137435347, -9.784732   , -0.000193098924, 0.000585638336, -0.0008870683, 0.0129407756, -0.009835658, 9.203555E-05, 916.4183    , 31.8755474  , 839.5745    , 17.48       , 3           , 255         , 0           , 0
-0.1009812  , -0.12485911 , -9.78708649 , -0.0005869014, 0.000327423128, 0.000428894942, 0.0129348654, -0.009832438, 9.63666E-05 , 916.4183    , 31.8755474  , 839.575     , 17.49       , 3           , 255         , 0           , 0
-0.08452412 , -0.123054877, -9.785761   , -0.000401749276, -0.000215004387, -0.000354844116, 0.0129308822, -0.009834542, 9.279058E-05, 916.4183    , 31.8755474  , 839.5755    , 17.5        , 3           , 255         , 0           , 0
-0.0965111852, -0.123587415, -9.787942   , -2.30102632E-05, -0.000171058389, 0.0004060069, 0.0129348133, -0.009834149, 9.678715E-05, 916.4183    , 31.8755474  , 839.5374    , 17.51       , 3           , 255         , 0           , 0
-0.107201084, -0.135792851, -9.785131   , 0.000477506866, -1.49382395E-05, -0.000291221542, 0.012939617 , -0.009834261, 9.387319E-05, 916.4183    , 31.8755474  , 839.537659  , 17.52       , 3           , 255         , 0           , 0
-0.105950758, -0.132054985, -9.785513   , 0.000324155 , 9.28402442E-05, -3.22697852E-05, 0.0129428618, -0.009833328, 9.356252E-05, 916.3796    , 31.8755474  , 839.5379    , 17.53       , 3           , 255         , 0           , 0
-0.09834574 , -0.133254915, -9.78937149 , 0.0008391925, 3.20849467E-05, 0.000231194135, 0.01295123  , -0.009833037, 9.587847E-05, 916.3796    , 31.8755474  , 839.538147  , 17.54       , 3           , 255         , 0           , 0
-0.100092247, -0.132147878, -9.780897   , 2.971571E-05, 0.000122224388, 0.0004095277, 0.0129514858, -0.009831868, 9.998933E-05, 916.3796    , 31.8755474  , 839.5384    , 17.55       , 3           , 255         , 0           , 0
-0.09589209 , -0.125175387, -9.785212   , -0.000485959667, 0.0003449708, -0.000106734973, 0.0129466373, -0.00982840452, 9.896671E-05, 916.3796    , 31.8755474  , 839.538635  , 17.56       , 3           , 255         , 0           , 0
-0.09301082 , -0.129507244, -9.796091   , -0.000310087, 1.1708994E-06, 9.994337E-05, 0.0129435286, -0.009828407, 9.996625E-05, 916.3796    , 31.8755474  , 839.5389    , 17.57       , 3           , 255         , 0           , 0
-0.0969687849, -0.124127053, -9.792863   , -0.0004109054, -0.000484205171, 2.71075478E-05, 0.0129394159, -0.00983325 , 0.00010017465, 916.3796    , 31.8755474  , 839.5391    , 17.58       , 3           , 255         , 0           , 0
-0.109242894, -0.129803255, -9.790014   , 5.80166743E-05, -0.000188019432, 0.000328122 , 0.0129399644, -0.009835173, 0.000103431346, 916.3796    , 31.8755474  , 839.539368  , 17.59       , 3           , 255         , 0           , 0
-0.100772366, -0.133448169, -9.78722    , -6.87592546E-05, -4.16540825E-05, 0.000151105764, 0.0129392631, -0.009835609, 0.000104936924, 916.3796    , 31.8755474  , 839.5396    , 17.6        , 3           , 255         , 0           , 0
-0.102286294, -0.128827944, -9.78566551 , 0.000372833834, 0.000681153557, -0.000545666029, 0.0129454453, -0.009831928, 9.954489E-05, 916.3796    , 31.8755474  , 839.56134   , 17.61       , 3           , 255         , 0           , 0
-0.10738869 , -0.1251069  , -9.79275    , 0.000191162253, 0.000161665332, -0.000295448874, 0.0129473852, -0.009830274, 9.6611504E-05, 916.3796    , 31.8755474  , 839.561768  , 17.62       , 3           , 255         , 0           , 0
-0.103080675, -0.124650732, -9.779196   , 0.000168278362, 8.7030654E-05, -0.000200221912, 0.0129490895, -0.009829379, 9.462068E-05, 916.3611    , 31.87703    , 839.5622    , 17.63       , 3           , 255         , 0           , 0
-0.102377042, -0.136382118, -9.791621   , -0.000163373756, -8.458284E-05, 0.000300845015, 0.0129474252, -0.00983026251, 9.761799E-05, 916.3611    , 31.87703    , 839.5626    , 17.64       , 3           , 255         , 0           , 0
-0.09812496 , -0.129875511, -9.786313   , -0.000165280959, 3.72504146E-05, 0.000140014192, 0.0129457591, -0.009829909, 9.90228655E-05, 916.3611    , 31.87703    , 839.563049  , 17.65       , 3           , 255         , 0           , 0
-0.0995082855, -0.12901473 , -9.779066   , -0.000134434667, -0.0002511926, 4.34675967E-05, 0.0129444115, -0.009832425, 9.942501E-05, 916.3611    , 31.87703    , 839.5635    , 17.66       , 3           , 255         , 0           , 0
-0.0987859  , -0.141707748, -9.780119   , 4.992778E-05, 9.86418745E-05, -0.000159495918, 0.0129449265, -0.009831418, 9.78429161E-05, 916.3611    , 31.87703    , 839.5639    , 17.67       , 3           , 255         , 0           , 0
-0.09690641 , -0.13786833 , -9.779716   , -0.00049812207, 0.000184324919, 0.000141327531, 0.0129399309, -0.009829595, 9.927995E-05, 916.3611    , 31.87703    , 839.564331  , 17.68       , 3           , 255         , 0           , 0
-0.09688492 , -0.129251242, -9.79299    , -0.000628414331, -3.11408876E-05, 0.000548958 , 0.0129335951, -0.009829977, 0.00010476516, 916.3611    , 31.87703    , 839.564758  , 17.69       , 3           , 255         , 0           , 0
-0.09809717 , -0.134861678, -9.781598   , -0.0008225393, 5.6878278E-05, 0.0001664566, 0.0129253538, -0.009829429, 0.000106436972, 916.3611    , 31.87703    , 839.5652    , 17.7        , 3           , 255         , 0           , 0
-0.0915658846, -0.133197531, -9.78805    , -0.000436941074, 0.000196395253, -0.00054831343, 0.0129269669, -0.0098322425, 0.00010092093, 916.3611    , 31.87703    , 839.6094    , 17.71       , 3           , 255         , 0           , 0
-0.0902316347, -0.129464135, -9.796846   , -4.473797E-06, 0.0006880459, 0.000144667967, 0.0129269063, -0.009825385, 0.000102456455, 916.3611    , 31.87703    , 839.610046  , 17.72       , 3           , 255         , 0           , 0
-0.0990115255, -0.132044137, -9.775751   , 0.0003764707, 0.0006302202, -0.000197728019, 0.0129306875, -0.009819057, 0.000100560756, 916.424255  , 31.87858    , 839.6107    , 17.73       , 3           , 255         , 0           , 0
-0.09741999 , -0.128114522, -9.778999   , -0.000236258027, 0.00037876243, 0.000413435861, 0.0129282856, -0.009815322, 0.000104743842, 916.424255  , 31.87858    , 839.6114    , 17.74       , 3           , 255         , 0           , 0
-0.09058206 , -0.1238945  , -9.775225   , -2.673483E-05, 2.07281737E-05, 0.0004798277, 0.0129279708, -0.009815178, 0.000109544504, 916.424255  , 31.87858    , 839.612061  , 17.75       , 3           , 255         , 0           , 0
-0.09738066 , -0.123434864, -9.785242   , -0.0004471836, 0.000309116149, -0.00112318317, 0.0129236095, -0.009811941, 9.83532955E-05, 916.424255  , 31.87858    , 839.612732  , 17.76       , 3           , 255         , 0           , 0
-0.09760271 , -0.122818053, -9.789447   , -5.85868838E-06, 0.000516095839, -0.000804544252, 0.01292363  , -0.009806678, 9.0375026E-05, 916.424255  , 31.87858    , 839.6134    , 17.77       , 3           , 255         , 0           , 0
-0.104073428, -0.131309733, -9.788351   , 2.37543572E-05, 0.000954396 , -7.341113E-05, 0.012923873 , -0.009797123, 8.9764304E-05, 916.424255  , 31.87858    , 839.6141    , 17.78       , 3           , 255         , 0           , 0
-0.1010988  , -0.1331097  , -9.792006   , -0.000227355675, 0.0006939905, -0.000265387673, 0.0129216239, -0.00979014952, 8.720028E-05, 916.424255  , 31.87858    , 839.614746  , 17.79       , 3           , 255         , 0           , 0
-0.09897271 , -0.135974348, -9.791964   , -7.04550257E-05, 0.0003681244, -0.000108006876, 0.0129209319, -0.009786457, 8.616783E-05, 916.424255  , 31.87858    , 839.6154    , 17.8        , 3           , 255         , 0           , 0
-0.0925758  , -0.134505108, -9.78482    , 0.000179257011, -3.522798E-05, -0.000152098335, 0.0129254758, -0.009787499, 8.461553E-05, 916.424255  , 31.87858    , 839.5628    , 17.81       , 3           , 255         , 0           , 0
-0.0902019441, -0.138329253, -9.791898   , 0.0003538039, 0.000315887824, -0.000241766247, 0.0129290372, -0.00978431 , 8.223886E-05, 916.424255  , 31.87858    , 839.5632    , 17.82       , 3           , 255         , 0           , 0
-0.09494481 , -0.131635845, -9.795961   , 0.000589577 , -0.000307710638, 0.000401675352, 0.0129348934, -0.00978743751, 8.621556E-05, 916.4158    , 31.87804    , 839.563538  , 17.83       , 3           , 255         , 0           , 0
-0.09818554 , -0.130740121, -9.785332   , -2.21915689E-05, 9.617919E-05, 0.0001285268, 0.01293466  , -0.009786492, 8.751319E-05, 916.4158    , 31.87804    , 839.5639    , 17.84       , 3           , 255         , 0           , 0
-0.0946047455, -0.128676265, -9.781378   , -0.0003080564, -0.000156862632, -0.000236756285, 0.0129316011, -0.00978803 , 8.512549E-05, 916.4158    , 31.87804    , 839.5643    , 17.85       , 3           , 255         , 0           , 0
-0.09633606 , -0.120905183, -9.783789   , -3.092117E-05, 0.000147256171, -0.000187134021, 0.0129313106, -0.009786533, 8.327331E-05, 916.4158    , 31.87804    , 839.564636  , 17.86       , 3           , 255         , 0           , 0
-0.10223756 , -0.126303941, -9.793042   , 4.67002537E-05, 0.000491652056, -0.0007146432, 0.012931847 , -0.009781525, 7.619089E-05, 916.4158    , 31.87804    , 839.565     , 17.87       , 3           , 255         , 0           , 0
-0.09101805 , -0.132453054, -9.789084   , -0.0001919209, 0.000217779583, 0.00012502374, 0.0129299145, -0.009779364, 7.746921E-05, 916.4158    , 31.87804    , 839.565369  , 17.88       , 3           , 255         , 0           , 0
-0.0947015062, -0.126646981, -9.781252   , -0.0007639424, 0.000237202941, 0.000448304927, 0.012922232 , -0.009777051, 8.19826455E-05, 916.4158    , 31.87804    , 839.565735  , 17.89       , 3           , 255         , 0           , 0
-0.09384857 , -0.126347259, -9.781675   , -0.0004360433, 1.17563959E-05, 0.0003021099, 0.0129178418, -0.009776972, 8.500508E-05, 916.4158    , 31.87804    , 839.5661    , 17.9        , 3           , 255         , 0           , 0
-0.0891467  , -0.126215264, -9.778142   , -0.000149200889, 0.000597452 , 1.32917485E-05, 0.0129191084, -0.009770161, 8.51882651E-05, 916.4158    , 31.87804    , 839.5325    , 17.91       , 3           , 255         , 0           , 0
-0.09276421 , -0.136608735, -9.782824   , -0.000173465116, 0.000569500669, -0.000268791948, 0.0129174022, -0.009764434, 8.25740863E-05, 916.4158    , 31.87804    , 839.532654  , 17.92       , 3           , 255         , 0           , 0
-0.0991833  , -0.134511665, -9.787837   , 0.000623051135, 0.0001764145, -2.01502626E-05, 0.0129236346, -0.009762665, 8.23953742E-05, 916.4117    , 31.87804    , 839.532837  , 17.93       , 3           , 255         , 0           , 0
-0.100804843, -0.132334024, -9.789744   , 9.49675159E-05, 0.000321873435, -0.000233887913, 0.012924606 , -0.009759416, 8.009824E-05, 916.4117    , 31.87804    , 839.533     , 17.94       , 3           , 255         , 0           , 0
-0.09843533 , -0.130295321, -9.785758   , 0.000306903821, -0.000214107844, -0.000326973852, 0.0129277073, -0.009761515, 7.680104E-05, 916.4117    , 31.87804    , 839.5332    , 17.95       , 3           , 255         , 0           , 0
-0.0943070054, -0.1341124  , -9.787914   , 0.000719052856, -0.0002861137, -0.000615309633, 0.0129349567, -0.009764296, 7.061131E-05, 916.4117    , 31.87804    , 839.5334    , 17.96       , 3           , 255         , 0           , 0
-0.09116596 , -0.132913634, -9.781062   , -0.000219505833, -0.0003385808, -0.000293182035, 0.0129327895, -0.009767643, 6.763588E-05, 916.4117    , 31.87804    , 839.533569  , 17.97       , 3           , 255         , 0           , 0
-0.09286734 , -0.127491772, -9.789633   , -7.671164E-05, -0.0002206205, 0.000144835154, 0.0129320072, -0.009769867, 6.905562E-05, 916.4117    , 31.87804    , 839.533752  , 17.98       , 3           , 255         , 0           , 0
-0.0972384  , -0.128924683, -9.789544   , -0.000194935288, -6.991965E-05, 0.0001810188, 0.01293004  , -0.009770589, 7.085666E-05, 916.4117    , 31.87804    , 839.533936  , 17.99       , 3           , 255         , 0           , 0
-0.09683306 , -0.130629942, -9.78348351 , -0.000251190679, -0.0004166156, 0.000154300185, 0.0129275154, -0.009774775, 7.234569E-05, 916.4117    , 31.87804    , 839.5341    , 18          , 3           , 0           , -1          , 1800
-0.09755844 , -0.129841536, -9.777464   , -0.000152485067, -0.0001362083, 0.000753315748, 0.0129311159, -0.009775966, 7.981001E-05, 916.4117    , 31.87804    , 839.5108    , 18.01       , 3           , 1           , 0           , 0
-0.09708389 , -0.1305972  , -9.786743   , -0.000244839, 0.000365081418, 0.000422130775, 0.0129286265, -0.009772371, 8.407827E-05, 916.4117    , 31.87804    , 839.5108    , 18.02       , 3           , 2           , 0           , 0
-0.09632744 , -0.12780802 , -9.795511   , 7.315056E-05, 0.0007589233, 0.0003531859, 0.0129293213, -0.009764829, 8.770804E-05, 916.3828    , 31.87676    , 839.5108    , 18.03       , 3           , 3           , 0           , 0
-0.09688509 , -0.135105625, -9.780255   , 0.000456293725, 0.000483450858, 0.000474681176, 0.0129338391, -0.009760056, 9.251707E-05, 916.3828    , 31.87676    , 839.5108    , 18.04       , 3           , 4           , 0           , 0
-0.0962096  , -0.134305671, -9.78077    , -0.000681721955, -0.000256175321, -0.000103038517, 0.0129270311, -0.009762605, 9.14536358E-05, 916.3828    , 31.87676    , 839.5108    , 18.05       , 3           , 5           , 0           , 0
-0.0927925557, -0.134187654, -9.788823   , 0.000255426741, 0.000119332944, -0.0005538019, 0.012929637 , -0.009761339, 8.5931395E-05, 916.3828    , 31.87676    , 839.5108    , 18.06       , 3           , 6           , 0           , 0
-0.0914297  , -0.129982248, -9.792216   , 8.144911E-06, 0.00067730085, -0.000383809442, 0.0129297543, -0.009754516, 8.218111E-05, 916.3828    , 31.87676    , 839.5108    , 18.07       , 3           , 7           , 0           , 0
-0.1042979  , -0.125434086, -9.78969    , 0.0001880177, 0.000241295289, -0.0001147802, 0.0129316477, -0.009752089, 8.106457E-05, 916.3828    , 31.87676    , 839.5108    , 18.08       , 3           , 8           , 5           , 5
-0.0981832743, -0.127263412, -9.790039   , 0.0003664654, 7.771425E-05, 0.000321867585, 0.0129352808, -0.009751353, 8.42931E-05 , 916.3828    , 31.87676    , 839.5108    , 18.09       , 3           , 9           , 5           , 0.1
-0.09154006 , -0.129606143, -9.783685   , 0.0005668334, -0.000366345077, -1.62107244E-05, 0.01294095  , -0.009755015, 8.408361E-05, 916.3828    , 31.87676    , 839.5108    , 18.1        , 3           , 10          , 0.1         , 0.1
-0.09942311 , -0.12825036 , -9.775616   , 0.00056338  , -0.0003927361, 0.000170355939, 0.0129501754, -0.009759604, 8.57009654E-05, 916.3828    , 31.87676    , 839.5319    , 18.11       , 3           , 11          , 0.00375156454, 0.00375153613
-0.092881456, -0.136505246, -9.781817   , -0.000116652482, 0.000151188113, 0.000141379642, 0.0129489964, -0.009758111, 8.713424E-05, 916.3828    , 31.87676    , 839.5321    , 18.12       , 3           , 12          , 0.174755484 , 0
-0.09248741 , -0.134821355, -9.781469   , 0.000427828752, -0.000260991685, -9.71959162E-05, 0.0129532833, -0.009760707, 8.612852E-05, 916.4035    , 31.8768272  , 839.5323    , 18.13       , 3           , 13          , 0           , 0
-0.100975037, -0.137678564, -9.785015   , 0.000311441545, -0.000163956414, 6.025382E-05, 0.012956392 , -0.009762354, 8.670978E-05, 916.4035    , 31.8768272  , 839.5325    , 18.14       , 3           , 14          , 6.889754E-05, 5.47803268E-07
-0.09895831 , -0.130463034, -9.784438   , 0.000475975627, -0.0002375502, -0.000404573162, 0.0129611921, -0.009764678, 8.263352E-05, 916.4035    , 31.8768272  , 839.532654  , 18.15       , 3           , 15          , 0           , 8.788168E-05
-0.09001285 , -0.135167941, -9.783587   , 1.7978251E-05, 0.000324113527, -0.0005864729, 0.01296143  , -0.00976136047, 7.681116E-05, 916.4035    , 31.8768272  , 839.532837  , 18.16       , 3           , 16          , 0           , 1.401298E-45
-0.08904378 , -0.12510848 , -9.782101   , 8.90687661E-05, 0.0004600186, -0.0003905422, 0.0129623562, -0.00975671 , 7.296561E-05, 916.4035    , 31.8768272  , 839.533     , 18.17       , 3           , 20          , 0           , 0
-0.101472422, -0.124085009, -9.784142   , 0.0004477689, 0.000456759619, 0.0002695807, 0.0129668079, -0.0097521795, 7.572047E-05, 916.4035    , 31.8768272  , 839.5332    , 18.18       , 3           , 21          , 0           , 0
-0.0997604  , -0.122151256, -9.783621   , 0.0008681213, 0.000171319844, 0.000215594759, 0.0129754683, -0.009750495, 7.7898505E-05, 916.4035    , 31.8768272  , 839.5334    , 18.19       , 3           , 22          , 0           , 0
-0.0962420851, -0.139247373, -9.780635   , 0.000426065468, -0.000181744, 0.000113429356, 0.0129797179, -0.009752326, 7.900914E-05, 916.4035    , 31.8768272  , 839.533569  , 18.2        , 3           , 40          , 0           , 0
-0.09388622 , -0.135146737, -9.784922   , 0.000373624644, -8.992859E-05, -0.0002133382, 0.0129931783, -0.009754475, 7.67694946E-05, 916.4035    , 31.8768272  , 839.522     , 18.21       , 3           , 41          , 0           , 0
-0.09522232 , -0.129606619, -9.780678   , 0.0002108227, -0.0006254659, 0.000271146651, 0.01299526  , -0.0097607635, 7.939952E-05, 916.4035    , 31.8768272  , 839.5221    , 18.22       , 3           , 42          , 0           , 0
-0.0994972  , -0.127014071, -9.783187   , 0.000106624379, 0.000106814172, 0.0006387154, 0.0129962638, -0.009759779, 8.580015E-05, 916.387146  , 31.8801975  , 839.5222    , 18.23       , 3           , 255         , 0           , 0
-0.09137421 , -0.135913238, -9.778941   , 0.0008150784, -0.000245982141, 0.0004950119, 0.0130043672, -0.009762302, 9.071799E-05, 916.387146  , 31.8801975  , 839.522339  , 18.24       , 3           , 255         , 0           , 0
-0.09638133 , -0.1355857  , -9.78875    , 0.000324900582, 0.000238964625, 0.000226856253, 0.0130075924, -0.009759942, 9.30175E-05 , 916.387146  , 31.8801975  , 839.522461  , 18.25       , 3           , 255         , 0           , 0
-0.0967209041, -0.128558844, -9.79602051 , -8.36124E-05, 5.3623844E-05, -3.40026127E-05, 0.01300676  , -0.009759401, 9.26844659E-05, 916.387146  , 31.8801975  , 839.5226    , 18.26       , 3           , 255         , 0           , 0
-0.09196359 , -0.124601945, -9.792833   , -0.0006382179, -0.000143405647, -7.52735141E-05, 0.0130003868, -0.009760825, 9.191313E-05, 916.387146  , 31.8801975  , 839.5227    , 18.27       , 3           , 255         , 0           , 0
-0.0969945937, -0.127110749, -9.789642   , 0.000609895 , 0.000116545452, -0.0001632137, 0.0130065   , -0.009759638, 9.029624E-05, 916.387146  , 31.8801975  , 839.5228    , 18.28       , 3           , 255         , 0           , 0
-0.09342478 , -0.134275585, -9.788769   , -9.386418E-05, -0.000493485539, 0.000197912319, 0.0130055435, -0.009764599, 9.221106E-05, 916.387146  , 31.8801975  , 839.522949  , 18.29       , 3           , 255         , 0           , 0
-0.08888779 , -0.127327934, -9.787703   , -0.000137120369, -0.000207069737, -0.000170054409, 0.0130041894, -0.009766647, 9.048371E-05, 916.387146  , 31.8801975  , 839.5231    , 18.3        , 3           , 255         , 0           , 0
-0.0963070542, -0.124462985, -9.793645   , 0.000547027856, 0.000210421364, -0.0006444334, 0.01301247  , -0.009763514, 8.404041E-05, 916.387146  , 31.8801975  , 839.5362    , 18.31       , 3           , 255         , 0           , 0
-0.09027909 , -0.1385954  , -9.800764   , 0.000121835634, 0.000262842368, -0.000372691371, 0.0130137233, -0.009760836, 8.034792E-05, 916.387146  , 31.8801975  , 839.5364    , 18.32       , 3           , 255         , 0           , 0
-0.08397529 , -0.126225576, -9.780436   , -0.000230111691, 0.000163483142, 0.0006418781, 0.0130113605, -0.00975928549, 8.678757E-05, 916.406738  , 31.8784447  , 839.53656   , 18.33       , 3           , 255         , 0           , 0
-0.0952697843, -0.118350148, -9.783394   , 0.000264325325, 0.000133196547, -0.000421003555, 0.0130140437, -0.009757899, 8.25951356E-05, 916.406738  , 31.8784447  , 839.536743  , 18.34       , 3           , 255         , 0           , 0
-0.09601183 , -0.131074384, -9.781118   , 0.0009193991, -0.000493616157, 0.000173476423, 0.01302322  , -0.009762858, 8.426553E-05, 916.406738  , 31.8784447  , 839.5369    , 18.35       , 3           , 255         , 0           , 0
-0.09757954 , -0.132429868, -9.778041   , 0.0007027312, -0.0005211323, 0.000525420532, 0.0130301956, -0.009768135, 8.94515E-05 , 916.406738  , 31.8784447  , 839.5371    , 18.36       , 3           , 255         , 0           , 0
-0.0832005441, -0.135223866, -9.791371   , -0.00020149452, 0.000163861027, 1.31200286E-05, 0.0130281793, -0.009766499, 8.960405E-05, 916.406738  , 31.8784447  , 839.5373    , 18.37       , 3           , 255         , 0           , 0
-0.09402704 , -0.1291559  , -9.789685   , 9.241568E-05, 0.0001622427, -0.0002717552, 0.01302913  , -0.009764842, 8.69078E-05 , 916.406738  , 31.8784447  , 839.5375    , 18.38       , 3           , 255         , 0           , 0
-0.09869104 , -0.127881691, -9.784979   , 0.0005291781, 0.000258734362, 0.000312855758, 0.0130343921, -0.009762295, 9.006988E-05, 916.406738  , 31.8784447  , 839.537659  , 18.39       , 3           , 255         , 0           , 0
-0.09934471 , -0.123474158, -9.7886     , 0.000843923539, -0.000166978018, -0.000110428882, 0.013042842 , -0.00976395 , 8.894388E-05, 916.406738  , 31.8784447  , 839.537842  , 18.4        , 3           , 255         , 0           , 0
-0.0880297  , -0.126009226, -9.790186   , 0.000122911544, 0.00054899836, -0.00047802992, 0.0130451862, -0.009756622, 8.422523E-05, 916.406738  , 31.8784447  , 839.5211    , 18.41       , 3           , 255         , 0           , 0
-0.09574093 , -0.12434151 , -9.796453   , -0.0006701766, 0.000274974329, 0.00114639965, 0.0130383736, -0.009754023, 9.572436E-05, 916.406738  , 31.8784447  , 839.52124   , 18.42       , 3           , 255         , 0           , 0
-0.09735983 , -0.129834086, -9.781189   , -0.000111536909, 0.000207283665, 6.770249E-05, 0.01303725  , -0.009751959, 9.64283754E-05, 916.4488    , 31.8789177  , 839.521362  , 18.43       , 3           , 255         , 0           , 0
-0.0966868848, -0.1263438  , -9.785856   , 0.00048671852, -0.000140259464, -0.000480358431, 0.0130421631, -0.009753299, 9.160682E-05, 916.4488    , 31.8789177  , 839.5215    , 18.44       , 3           , 255         , 0           , 0
-0.09131424 , -0.130494952, -9.790228   , 0.000208312034, 0.000134133443, -0.000504000345, 0.0130442977, -0.009751893, 8.658461E-05, 916.4488    , 31.8789177  , 839.5216    , 18.45       , 3           , 255         , 0           , 0
-0.09823944 , -0.124271572, -9.785456   , 0.000584266265, -0.0006751239, -0.0007641072, 0.0130502125, -0.009758542, 7.885593E-05, 916.4488    , 31.8789177  , 839.5217    , 18.46       , 3           , 255         , 0           , 0
-0.0985995159, -0.1279215  , -9.784234   , 0.0005895933, 0.000389674125, -0.001081943, 0.013056214 , -0.009754504, 6.80880257E-05, 916.4488    , 31.8789177  , 839.521851  , 18.47       , 3           , 255         , 0           , 0
-0.09537421 , -0.130783111, -9.78402    , 0.000134907867, -0.0004583946, 0.000256484636, 0.0130575383, -0.009759122, 7.05928542E-05, 916.4488    , 31.8789177  , 839.522     , 18.48       , 3           , 255         , 0           , 0
-0.09766225 , -0.135019168, -9.788135   , 5.24953648E-05, -0.00037272583, -0.000168479484, 0.0130580813, -0.009762826, 6.885949E-05, 916.4488    , 31.8789177  , 839.5221    , 18.49       , 3           , 255         , 0           , 0
-0.09114118 , -0.131765634, -9.795431   , 0.000151844273, -0.000483639044, -7.416764E-05, 0.0130596068, -0.00976765249, 6.805471E-05, 916.4488    , 31.8789177  , 839.5222    , 18.5        , 3           , 255         , 0           , 0
-0.0893237442, -0.137452   , -9.792169   , 0.000887320144, 1.23109476E-05, 0.000394482049, 0.0130692087, -0.00976723153, 7.1993396E-05, 916.4488    , 31.8789177  , 839.447937  , 18.51       , 3           , 255         , 0           , 0
-0.09792404 , -0.125938326, -9.78623    , 0.000542968744, -8.992478E-05, 0.000268180273, 0.0130746122, -0.009768166, 7.466328E-05, 916.4488    , 31.8789177  , 839.4476    , 18.52       , 3           , 255         , 0           , 0
-0.09563666 , -0.11994461 , -9.792476   , 0.000175012377, 7.402017E-05, -0.0001897185, 0.0130763818, -0.009767401, 7.277589E-05, 916.3977    , 31.8805351  , 839.4472    , 18.53       , 3           , 255         , 0           , 0
-0.09973128 , -0.125062555, -9.786154   , 0.000181578682, -2.27392356E-05, -0.000163200064, 0.0130782127, -0.009767608, 7.114101E-05, 916.3977    , 31.8805351  , 839.446838  , 18.54       , 3           , 255         , 0           , 0
-0.09164947 , -0.128966168, -9.788261   , -0.00018368366, 0.000112161644, -0.000718715, 0.0130764479, -0.00976639148, 6.396897E-05, 916.3977    , 31.8805351  , 839.4465    , 18.55       , 3           , 255         , 0           , 0
-0.09640464 , -0.128289312, -9.78058    , -0.000592507364, 0.0005247738, -0.000504883355, 0.0130705722, -0.009761077, 5.898907E-05, 916.3977    , 31.8805351  , 839.4461    , 18.56       , 3           , 255         , 0           , 0
-0.09861137 , -0.133864135, -9.77868748 , -0.000650972943, -0.000123747246, 2.87236617E-06, 0.0130640632, -0.009762316, 5.90016243E-05, 916.3977    , 31.8805351  , 839.44574   , 18.57       , 3           , 255         , 0           , 0
-0.095797196, -0.125247553, -9.785288   , -0.0005004718, -0.000221823313, -0.000169136125, 0.0130590759, -0.009764511, 5.72814024E-05, 916.3977    , 31.8805351  , 839.4454    , 18.58       , 3           , 255         , 0           , 0
-0.08895415 , -0.126730114, -9.788145   , -0.000159381481, -0.000172279935, 0.0003538039, 0.013057447 , -0.00976628 , 6.07967158E-05, 916.3977    , 31.8805351  , 839.445     , 18.59       , 3           , 255         , 0           , 0
-0.09426643 , -0.138022453, -9.782279   , 0.000248930242, -0.000102022153, 0.00016838123, 0.01305992  , -0.009767322, 6.24671E-05 , 916.3977    , 31.8805351  , 839.444641  , 18.6        , 3           , 255         , 0           , 0
-0.101763152, -0.136820108, -9.79423    , -0.000375509, 0.000166115467, 0.0001240464, 0.0130571239, -0.009764917, 6.371977E-05, 916.3977    , 31.8805351  , 839.454     , 18.61       , 3           , 255         , 0           , 0
-0.09485655 , -0.127157122, -9.793268   , -7.966924E-05, -0.000459444185, 0.000388383982, 0.0130562894, -0.009769561, 6.75433839E-05, 916.3977    , 31.8805351  , 839.4537    , 18.62       , 3           , 255         , 0           , 0
-0.09431408 , -0.136693865, -9.792754   , 0.000231982442, -0.0008656143, -0.0006026076, 0.0130586708, -0.009778136, 6.14046439E-05, 916.3461    , 31.8794575  , 839.453369  , 18.63       , 3           , 255         , 0           , 0
-0.0908844247, -0.133337736, -9.79033852 , 0.000164169673, 0.000129320033, -8.142469E-05, 0.01306032  , -0.00977683347, 6.060733E-05, 916.3461    , 31.8794575  , 839.453064  , 18.64       , 3           , 255         , 0           , 0
-0.08465629 , -0.1264022  , -9.787628   , 0.000108573164, 9.923477E-05, 0.00071324606, 0.0130613362, -0.009775935, 6.775231E-05, 916.3461    , 31.8794575  , 839.452759  , 18.65       , 3           , 255         , 0           , 0
-0.0926557556, -0.132691428, -9.782852   , -0.000531193335, 0.000280159758, 0.000676024065, 0.01305596  , -0.009773224, 7.454872E-05, 916.3461    , 31.8794575  , 839.452454  , 18.66       , 3           , 255         , 0           , 0
-0.09694733 , -0.13256304 , -9.788004   , -0.000216505752, -0.0001351975, 0.0010431339, 0.0130536929, -0.00977471 , 8.496176E-05, 916.3461    , 31.8794575  , 839.452148  , 18.67       , 3           , 255         , 0           , 0
-0.09538348 , -0.139664859, -9.79533    , 0.00068838126, 5.06632068E-06, 0.00077654433, 0.0130605   , -0.00977475848, 9.272739E-05, 916.3461    , 31.8794575  , 839.451843  , 18.68       , 3           , 255         , 0           , 0
-0.09360631 , -0.123217665, -9.78359    , -0.000248828816, -0.0005543397, 0.0001377015, 0.0130579975, -0.00978031848, 9.403192E-05, 916.3461    , 31.8794575  , 839.451538  , 18.69       , 3           , 255         , 0           , 0
-0.0967590958, -0.128649548, -9.783954   , 0.000581837 , -0.000713242043, 0.000172224769, 0.0130638015, -0.009787474, 9.56609147E-05, 916.3461    , 31.8794575  , 839.451233  , 18.7        , 3           , 255         , 0           , 0
-0.106406964, -0.133829027, -9.78344    , 1.25202641E-05, -1.84265646E-05, -0.0006265025, 0.0130666448, -0.009786521, 8.9368E-05  , 916.3461    , 31.8794575  , 839.5328    , 18.71       , 3           , 255         , 0           , 0
-0.09960553 , -0.139269471, -9.794948   , 6.78797951E-05, -0.0004038624, -0.000458071823, 0.0130673666, -0.0097905  , 8.47348E-05 , 916.3461    , 31.8794575  , 839.533     , 18.72       , 3           , 255         , 0           , 0
-0.09181766 , -0.124727368, -9.774247   , 0.000371588016, -0.00116391981, -0.000319490966, 0.0130711179, -0.009802096, 8.13879451E-05, 916.4022    , 31.8807373  , 839.533264  , 18.73       , 3           , 255         , 0           , 0
-0.09543119 , -0.126733974, -9.79116249 , -8.79508E-05, -0.0007838179, -0.000183527838, 0.0130702574, -0.00980990753, 7.945033E-05, 916.4022    , 31.8807373  , 839.5335    , 18.74       , 3           , 255         , 0           , 0
-0.0947938  , -0.127954945, -9.790536   , -0.0005545305, -0.0003275489, 0.000179465627, 0.0130646955, -0.009813205, 8.120207E-05, 916.4022    , 31.8807373  , 839.533752  , 18.75       , 3           , 255         , 0           , 0
-0.09617733 , -0.126591966, -9.786247   , 0.000258330285, -0.0003344397, 6.030615E-05, 0.0130672716, -0.009816558, 8.176139E-05, 916.4022    , 31.8807373  , 839.534     , 18.76       , 3           , 255         , 0           , 0
-0.0924893841, -0.133003965, -9.786169   , -0.0008297457, -0.00067378534, 0.000327504356, 0.0130589446, -0.009823336, 8.494822E-05, 916.4022    , 31.8807373  , 839.534241  , 18.77       , 3           , 255         , 0           , 0
-0.08856636 , -0.142537951, -9.793263   , 0.0004773754, -0.0007133728, -0.000123515463, 0.0130637307, -0.009830454, 8.36199542E-05, 916.4022    , 31.8807373  , 839.5345    , 18.78       , 3           , 255         , 0           , 0
-0.08452054 , -0.139847532, -9.792768   , 0.000203190313, -0.00022648499, 9.590828E-05, 0.0130657544, -0.009832731, 8.45493851E-05, 916.4022    , 31.8807373  , 839.5347    , 18.79       , 3           , 255         , 0           , 0
-0.09367906 , -0.132265151, -9.785999   , -0.000401014637, -0.000208764512, -9.88284955E-05, 0.0130617535, -0.0098348055, 8.35338942E-05, 916.4022    , 31.8807373  , 839.535     , 18.8        , 3           , 255         , 0           , 0
-0.09859974 , -0.134224758, -9.774406   , 5.39774119E-05, -1.05670306E-05, 0.000112944173, 0.0130660646, -0.009833577, 8.4624844E-05, 916.4022    , 31.8807373  , 839.5254    , 18.81       , 3           , 255         , 0           , 0
-0.09176542 , -0.1382961  , -9.78719    , 0.00049074064, 0.0006317581, -0.0002830546, 0.0130709987, -0.009827224, 8.187703E-05, 916.4022    , 31.8807373  , 839.5256    , 18.82       , 3           , 255         , 0           , 0
-0.0987735242, -0.133582428, -9.776451   , 8.418106E-05, 0.000176547022, 0.000624310342, 0.0130717792, -0.00982554 , 8.8142835E-05, 916.3631    , 31.8805351  , 839.525757  , 18.83       , 3           , 255         , 0           , 0
-0.09253492 , -0.135158986, -9.7876     , -0.000422572979, 7.329706E-06, 0.0001676438, 0.013067537 , -0.009825489, 8.982013E-05, 916.3631    , 31.8805351  , 839.52594   , 18.84       , 3           , 255         , 0           , 0
-0.0906713  , -0.130189508, -9.789199   , 0.000103959152, -1.32682E-07, -0.000140475371, 0.0130685894, -0.009825472, 8.841544E-05, 916.3631    , 31.8805351  , 839.5261    , 18.85       , 3           , 255         , 0           , 0
-0.0964641944, -0.125080317, -9.787523   , -4.258539E-05, -4.18506825E-05, -0.000119514967, 0.0130681749, -0.009825874, 8.72148958E-05, 916.3631    , 31.8805351  , 839.5263    , 18.86       , 3           , 255         , 0           , 0
-0.096755974, -0.123631619, -9.781313   , -0.000128214539, -0.000198197013, -0.000235752435, 0.0130669158, -0.009827825, 8.483164E-05, 916.3631    , 31.8805351  , 839.5265    , 18.87       , 3           , 255         , 0           , 0
-0.09482925 , -0.129266649, -9.783207   , -0.000258977263, 0.000243113172, 0.000352706149, 0.0130642913, -0.009825439, 8.839024E-05, 916.3631    , 31.8805351  , 839.5267    , 18.88       , 3           , 255         , 0           , 0
-0.09726466 , -0.1327295  , -9.792494   , -0.000189768733, 0.000436047616, 0.000254171377, 0.0130623672, -0.009821112, 9.098878E-05, 916.3631    , 31.8805351  , 839.526855  , 18.89       , 3           , 255         , 0           , 0
-0.104193069, -0.12921986 , -9.798561   , -6.507706E-05, 0.00038168882, -7.537572E-06, 0.0130617181, -0.009817296, 9.096326E-05, 916.3631    , 31.8805351  , 839.527039  , 18.9        , 3           , 255         , 0           , 0
-0.0962253958, -0.130557686, -9.78728    , -0.000118771015, 0.000400708523, 0.001347566 , 0.0130637614, -0.009813488, 0.000104457416, 916.3631    , 31.8805351  , 839.5738    , 18.91       , 3           , 255         , 0           , 0
-0.09282281 , -0.132380217, -9.779312   , -0.00031330096, -6.373551E-05, 0.000598067534, 0.01306057  , -0.009814202, 0.000110429421, 916.3631    , 31.8805351  , 839.5743    , 18.92       , 3           , 255         , 0           , 0
-0.09026734 , -0.122906052, -9.780505   , -8.564362E-05, -0.000362852, 8.377334E-06, 0.013059712 , -0.00981783 , 0.000110465808, 916.4307    , 31.8789177  , 839.574768  , 18.93       , 3           , 255         , 0           , 0
-0.0997335538, -0.134951428, -9.787898   , 0.000108875793, -2.35737079E-05, -0.0003513809, 0.0130608361, -0.009818019, 0.000106949126, 916.4307    , 31.8789177  , 839.575256  , 18.94       , 3           , 255         , 0           , 0
-0.09694869 , -0.1321017  , -9.790365   , -0.000212077342, -0.00043052237, -0.000698825053, 0.0130587826, -0.009822234, 9.99051E-05 , 916.4307    , 31.8789177  , 839.575745  , 18.95       , 3           , 255         , 0           , 0
-0.09398309 , -0.1296452  , -9.788757   , -9.798637E-05, -0.000311421027, -0.000950253452, 0.0130578969, -0.009825221, 9.036248E-05, 916.4307    , 31.8789177  , 839.576233  , 18.96       , 3           , 255         , 0           , 0
-0.09450232 , -0.133065715, -9.785895   , -0.00040118664, 0.000254675979, 0.000218949775, 0.0130538652, -0.009822706, 9.25850763E-05, 916.4307    , 31.8789177  , 839.5767    , 18.97       , 3           , 255         , 0           , 0
-0.106240675, -0.13457115 , -9.789775   , 0.0003524643, 0.000569870754, -0.00011009477, 0.0130573986, -0.009816991, 9.155859E-05, 916.4307    , 31.8789177  , 839.5772    , 18.98       , 3           , 255         , 0           , 0
-0.09969679 , -0.1323876  , -9.78628    , 0.00043501248, 7.803086E-05, 0.000117761163, 0.0130617376, -0.009816227, 9.274632E-05, 916.4307    , 31.8789177  , 839.5777    , 18.99       , 3           , 255         , 0           , 0
-0.111611485, -0.125466675, -9.787606   , 0.00071139785, 0.0003580286, 0.000186041521, 0.0130688334, -0.009812671, 9.46534055E-05, 916.4307    , 31.8789177  , 839.5782    , 19          , 3           , 0           , -1          , 1900
-0.0997721553, -0.128512308, -9.792455   , 0.000309803465, -2.15936616E-05, -4.41202974E-05, 0.0130747892, -0.009814867, 9.418121E-05, 916.4307    , 31.8789177  , 839.5218    , 19.01       , 3           , 1           , 0           , 0
-0.0911508352, -0.1349813  , -9.784447   , 0.000298849569, 0.000111469271, 0.0006329762, 0.0130777135, -0.009813836, 0.000100525154, 916.4307    , 31.8789177  , 839.5219    , 19.02       , 3           , 2           , 0           , 0
-0.091903016, -0.131068885, -9.783491   , -7.5797594E-05, 8.600146E-05, -0.00016651988, 0.0130769731, -0.009812955, 9.887129E-05, 916.4064    , 31.8799286  , 839.522034  , 19.03       , 3           , 3           , 0           , 0
-0.08739509 , -0.1307852  , -9.784221   , -0.000280314649, 9.511471E-06, -0.000316240767, 0.0130742025, -0.009812818, 9.57103257E-05, 916.4064    , 31.8799286  , 839.522156  , 19.04       , 3           , 4           , 0           , 0
-0.09699351 , -0.136926934, -9.78159    , 0.000438379677, 0.000234281484, -0.000197294168, 0.0130786039, -0.00981045049, 9.376814E-05, 916.4064    , 31.8799286  , 839.5223    , 19.05       , 3           , 5           , 0           , 0
-0.09408419 , -0.133563846, -9.78532    , 0.000104891733, -0.000267037482, 0.0007259491, 0.0130795827, -0.009813216, 0.000100992242, 916.4064    , 31.8799286  , 839.5224    , 19.06       , 3           , 6           , 0           , 0
-0.089753516, -0.13150394 , -9.79386    , 0.0007313966, -0.000326186477, -0.000173362321, 0.0130869132, -0.009816454, 9.921608E-05, 916.4064    , 31.8799286  , 839.5225    , 19.07       , 3           , 7           , 0           , 0
-0.0983243957, -0.142917246, -9.788359   , 0.00021412925, 5.360788E-05, -0.000142719175, 0.0130890682, -0.0098159  , 9.7796E-05  , 916.4064    , 31.8799286  , 839.522644  , 19.08       , 3           , 8           , 5           , 5
-0.111413166, -0.143457487, -9.78992748 , 0.000199259288, 1.686411E-06, -0.0006210129, 0.0130911218, -0.009815801, 9.158647E-05, 916.4064    , 31.8799286  , 839.522766  , 19.09       , 3           , 9           , 5           , 0.1
-0.0955797061, -0.144443765, -9.791769   , -0.0002143079, 0.0001737859, -6.85264968E-06, 0.0130889788, -0.009814063, 9.15407E-05 , 916.4064    , 31.8799286  , 839.5229    , 19.1        , 3           , 10          , 0.1         , 0.1
-0.0968741  , -0.13225469 , -9.78945351 , -0.000273574435, -0.0003634551, 0.000349409966, 0.0130926315, -0.009817409, 9.49240348E-05, 916.4064    , 31.8799286  , 839.509155  , 19.11       , 3           , 11          , 0.003765726 , 0.00376569619
-0.09914868 , -0.120935276, -9.801134   , -0.0007757556, 0.0003053018, -6.988871E-05, 0.013084881 , -0.009814347, 9.42651459E-05, 916.4064    , 31.8799286  , 839.5092    , 19.12       , 3           , 12          , 0.174768373 , 0
-0.09638606 , -0.1340398  , -9.785368   , -0.000223116571, -9.91896E-05, -0.0005027485, 0.0130827   , -0.009815274, 8.922501E-05, 916.3651    , 31.8786488  , 839.5093    , 19.13       , 3           , 13          , 0           , 0
-0.09972514 , -0.1346802  , -9.786444   , -0.000186559148, -6.803458E-05, -0.000229997037, 0.0130808568, -0.009815925, 8.691627E-05, 916.3651    , 31.8786488  , 839.509338  , 19.14       , 3           , 14          , 6.7091496E-05, 3.753321E-07
-0.09956266 , -0.125192642, -9.785633   , -0.000153331785, 7.045724E-05, 3.6268284E-05, 0.01307932  , -0.009815224, 8.728816E-05, 916.3651    , 31.8786488  , 839.5094    , 19.15       , 3           , 15          , 0           , 8.790162E-05
-0.09709468 , -0.128433287, -9.796488   , 0.0006554747, 0.000491503743, 0.0007684333, 0.0130857984, -0.00981041 , 9.503632E-05, 916.3651    , 31.8786488  , 839.50946   , 19.16       , 3           , 16          , 0           , 1.401298E-45
-0.09264426 , -0.129023522, -9.791487   , 0.000102180675, 0.000268896663, 0.000168625877, 0.0130868042, -0.009807743, 9.675765E-05, 916.3651    , 31.8786488  , 839.5095    , 19.17       , 3           , 20          , 0           , 0
-0.0925966352, -0.128260523, -9.787943   , -0.0002542933, 0.000486503734, 0.000641143532, 0.0130841974, -0.009802963, 0.000103232342, 916.3651    , 31.8786488  , 839.5096    , 19.18       , 3           , 21          , 0           , 0
-0.09981069 , -0.116438255, -9.79153252 , -0.000439078285, -0.000216084169, 0.000164035242, 0.0130797923, -0.009805145, 0.000104844345, 916.3651    , 31.8786488  , 839.509644  , 19.19       , 3           , 22          , 0           , 0
-0.1021439  , -0.125925392, -9.784211   , -9.66957159E-05, 0.0002286746, -0.000125326114, 0.0130788367, -0.009802842, 0.000103621067, 916.3651    , 31.8786488  , 839.5097    , 19.2        , 3           , 40          , 0           , 0
-0.09232425 , -0.126945272, -9.78242    , 0.0004738951, 0.000146385311, -0.0006855788, 0.0130832912, -0.009802259, 9.678817E-05, 916.3651    , 31.8786488  , 839.5564    , 19.21       , 3           , 41          , 0           , 0
-0.09904643 , -0.126600742, -9.797933   , 0.0006771182, -0.000104397557, -0.000615115336, 0.0130901225, -0.00980322249, 9.062375E-05, 916.3651    , 31.8786488  , 839.556763  , 19.22       , 3           , 42          , 0           , 0
-0.10331434 , -0.131191373, -9.793116   , -0.000593681238, 0.000269240176, -0.0004040962, 0.0130842254, -0.009800476, 8.661829E-05, 916.397     , 31.8806038  , 839.5571    , 19.23       , 3           , 255         , 0           , 0
-0.105038539, -0.138928831, -9.78321    , -0.000190454215, 0.00026385297, 0.000290823664, 0.0130822929, -0.009797875, 8.956087E-05, 916.397     , 31.8806038  , 839.5575    , 19.24       , 3           , 255         , 0           , 0
-0.101165034, -0.12635076 , -9.784528   , -0.000233036233, -0.000118583004, 0.000587499351, 0.0130799059, -0.009799137, 9.541997E-05, 916.397     , 31.8806038  , 839.557861  , 19.25       , 3           , 255         , 0           , 0
-0.09855383 , -0.1319422  , -9.785099   , -0.000374813157, -0.000122049365, 0.000367351749, 0.0130761229, -0.009800404, 9.90773042E-05, 916.397     , 31.8806038  , 839.5582    , 19.26       , 3           , 255         , 0           , 0
-0.09209244 , -0.137355357, -9.789792   , 0.00018322235, 0.000416752417, -0.000369312329, 0.0130779883, -0.009796192, 9.54389252E-05, 916.397     , 31.8806038  , 839.5586    , 19.27       , 3           , 255         , 0           , 0
-0.0982356444, -0.13793084 , -9.783239   , -3.2576645E-05, -0.000177316266, 0.0003354425, 0.01307763  , -0.009798006, 9.876993E-05, 916.397     , 31.8806038  , 839.55896   , 19.28       , 3           , 255         , 0           , 0
-0.100642242, -0.130997986, -9.784968   , 0.0005430641, -9.902864E-05, -7.890373E-05, 0.0130830687, -0.009798987, 9.796799E-05, 916.397     , 31.8806038  , 839.5593    , 19.29       , 3           , 255         , 0           , 0
-0.09868069 , -0.132092848, -9.785287   , 0.000516474363, -0.000302498578, -0.000355473079, 0.0130882682, -0.009801965, 9.437389E-05, 916.397     , 31.8806038  , 839.5597    , 19.3        , 3           , 255         , 0           , 0
-0.0975225  , -0.130798787, -9.782555   , -0.0002145317, 6.937875E-05, 0.000134682748, 0.0130896689, -0.009803953, 9.569457E-05, 916.397     , 31.8806038  , 839.5541    , 19.31       , 3           , 255         , 0           , 0
-0.09895785 , -0.136251643, -9.789152   , -5.91659045E-06, 0.000127981941, -0.0002764301, 0.0130896363, -0.009802637, 9.294719E-05, 916.397     , 31.8806038  , 839.554443  , 19.32       , 3           , 255         , 0           , 0
-0.101341322, -0.134313613, -9.784714   , 0.000191876461, 0.000295480568, -0.000908954942, 0.0130916452, -0.009799564, 8.389687E-05, 916.408936  , 31.8804016  , 839.5548    , 19.33       , 3           , 255         , 0           , 0
-0.09384745 , -0.136272669, -9.789845   , -1.33780595E-05, 0.00043385278, 7.924097E-05, 0.0130915018, -0.009795234, 8.47460251E-05, 916.408936  , 31.8804016  , 839.5552    , 19.34       , 3           , 255         , 0           , 0
-0.103710271, -0.122970596, -9.784941   , 0.0003559975, -0.000310702046, 0.0006479609, 0.0130949989, -0.009798425, 9.118454E-05, 916.408936  , 31.8804016  , 839.555542  , 19.35       , 3           , 255         , 0           , 0
-0.09058186 , -0.121999957, -9.786665   , -8.509893E-05, -0.000359567784, -0.000480724877, 0.0130941942, -0.009801959, 8.633052E-05, 916.408936  , 31.8804016  , 839.5559    , 19.36       , 3           , 255         , 0           , 0
-0.100879714, -0.1347951  , -9.780489   , 0.000141095341, -9.831954E-05, 0.000115141418, 0.013095594 , -0.009802957, 8.7469E-05  , 916.408936  , 31.8804016  , 839.5563    , 19.37       , 3           , 255         , 0           , 0
-0.09672916 , -0.1384462  , -9.779104   , 0.0003891669, -0.000179601135, -0.000360573642, 0.0130995205, -0.009804706, 8.38399646E-05, 916.408936  , 31.8804016  , 839.556641  , 19.38       , 3           , 255         , 0           , 0
-0.09807152 , -0.133606941, -9.78563    , 0.000958046934, -0.000182043717, -0.0002228423, 0.0131091233, -0.009806496, 8.158783E-05, 916.408936  , 31.8804016  , 839.557     , 19.39       , 3           , 255         , 0           , 0
-0.102687858, -0.133747071, -9.781176   , 0.000689641631, 0.000144889229, -5.59217369E-05, 0.0131160244, -0.009805039, 8.10476558E-05, 916.408936  , 31.8804016  , 839.5574    , 19.4        , 3           , 255         , 0           , 0
-0.09916544 , -0.141949326, -9.787889   , -0.00024285898, 0.000235952815, -0.000368331821, 0.0131190727, -0.009805949, 7.734186E-05, 916.408936  , 31.8804016  , 839.535     , 19.41       , 3           , 255         , 0           , 0
-0.09992432 , -0.1350644  , -9.791532   , -5.958959E-05, -0.000196152352, 0.00024716495, 0.0131184524, -0.009807942, 7.97876346E-05, 916.408936  , 31.8804016  , 839.535156  , 19.42       , 3           , 255         , 0           , 0
-0.09694377 , -0.127598092, -9.77955151 , 0.0003156212, -0.000220381116, 0.000506195531, 0.0131215584, -0.009810213, 8.482036E-05, 916.428345  , 31.8797932  , 839.535339  , 19.43       , 3           , 255         , 0           , 0
-0.100019947, -0.130232781, -9.786097   , -2.00751565E-05, -4.66906677E-05, 0.000164729281, 0.0131213414, -0.009810701, 8.646142E-05, 916.428345  , 31.8797932  , 839.5355    , 19.44       , 3           , 255         , 0           , 0
-0.104007006, -0.140933126, -9.7843     , 7.446151E-05, 2.70531709E-05, 6.095515E-05, 0.013122079 , -0.009810439, 8.70744843E-05, 916.428345  , 31.8797932  , 839.5357    , 19.45       , 3           , 255         , 0           , 0
-0.0932706743, -0.132882312, -9.787399   , -0.000116722673, -0.0002827993, -0.0005297561, 0.0131209642, -0.009813196, 8.174014E-05, 916.428345  , 31.8797932  , 839.5359    , 19.46       , 3           , 255         , 0           , 0
-0.09770894 , -0.128459856, -9.790977   , 0.000160187177, 0.000163300414, -0.000234524909, 0.0131225893, -0.009811533, 7.941646E-05, 916.428345  , 31.8797932  , 839.5361    , 19.47       , 3           , 255         , 0           , 0
-0.09981791 , -0.126862437, -9.794194   , -0.000179817813, 0.000452710781, -0.000186092075, 0.0131208086, -0.009806982, 7.761506E-05, 916.428345  , 31.8797932  , 839.5363    , 19.48       , 3           , 255         , 0           , 0
-0.103829309, -0.1318231  , -9.785803   , 1.8731138E-05, 0.000443348952, -1.3364086E-05, 0.0131209977, -0.009802547, 7.75396E-05 , 916.428345  , 31.8797932  , 839.53656   , 19.49       , 3           , 255         , 0           , 0
-0.100214936, -0.124819718, -9.787923   , 7.0836104E-05, -0.000300603977, -0.00035417793, 0.0131217409, -0.009805507, 7.39585739E-05, 916.428345  , 31.8797932  , 839.5368    , 19.5        , 3           , 255         , 0           , 0
-0.105607942, -0.127161667, -9.788997   , -0.000381494261, -0.000232502629, 0.0004107763, 0.0131208785, -0.009810742, 7.80059563E-05, 916.428345  , 31.8797932  , 839.489563  , 19.51       , 3           , 255         , 0           , 0
-0.09553645 , -0.1344312  , -9.791886   , -2.87596558E-05, -0.000109981484, 0.0007063241, 0.0131205227, -0.009811934, 8.505431E-05, 916.428345  , 31.8797932  , 839.4895    , 19.52       , 3           , 255         , 0           , 0
-0.103542291, -0.129625827, -9.784371   , -0.000145463418, 0.000670734851, 0.000845693168, 0.0131189832, -0.009805338, 9.35987E-05 , 916.3511    , 31.88485    , 839.489441  , 19.53       , 3           , 255         , 0           , 0
-0.096461   , -0.1293477  , -9.79096    , 5.13640625E-05, 0.000439482974, -0.0003808357, 0.0131195337, -0.009800895, 8.984825E-05, 916.3511    , 31.88485    , 839.4894    , 19.54       , 3           , 255         , 0           , 0
-0.0915051252, -0.12617597 , -9.786715   , -0.0001223993, 0.0002838327, -0.000307150651, 0.0131183388, -0.009798016, 8.681416E-05, 916.3511    , 31.88485    , 839.4893    , 19.55       , 3           , 255         , 0           , 0
-0.09108146 , -0.137379453, -9.785337   , 0.000638445 , -0.0003106241, 0.000398869917, 0.0131246857, -0.009801173, 9.076184E-05, 916.3511    , 31.88485    , 839.489258  , 19.56       , 3           , 255         , 0           , 0
-0.09155462 , -0.122896813, -9.78025    , -2.79435881E-05, -8.12953149E-05, 0.00097599416, 0.01312431  , -0.009802114, 0.0001005105, 916.3511    , 31.88485    , 839.4892    , 19.57       , 3           , 255         , 0           , 0
-0.106730841, -0.128473774, -9.785398   , -0.000235305284, 8.190591E-05, -0.0002481664, 0.0131219821, -0.009801261, 9.803973E-05, 916.3511    , 31.88485    , 839.489136  , 19.58       , 3           , 255         , 0           , 0
-0.102409385, -0.128209278, -9.780373   , -0.000197010231, 0.000365717424, -9.208367E-05, 0.0131200207, -0.009797592, 9.7166936E-05, 916.3511    , 31.88485    , 839.4891    , 19.59       , 3           , 255         , 0           , 0
-0.09615272 , -0.119843885, -9.789236   , 0.000210696686, 0.000350392162, 0.000387893233, 0.01312209  , -0.009794139, 0.000101091588, 916.3511    , 31.88485    , 839.489     , 19.6        , 3           , 255         , 0           , 0
-0.0986625254, -0.136869252, -9.784555   , 6.205612E-05, -0.000684437749, -0.000272288424, 0.0131227011, -0.009803034, 9.827921E-05, 916.3511    , 31.88485    , 839.5581    , 19.61       , 3           , 255         , 0           , 0
-0.09573792 , -0.137587875, -9.785242   , 0.0004696683, -5.181464E-05, 0.00016593092, 0.013127381 , -0.00980357453, 9.993162E-05, 916.3511    , 31.88485    , 839.5585    , 19.62       , 3           , 255         , 0           , 0
-0.08804061 , -0.137720272, -9.789615   , 0.0006712679, 0.000381034071, -0.000243799266, 0.0131341182, -0.009799732, 9.75438161E-05, 916.4433    , 31.88404    , 839.558838  , 19.63       , 3           , 255         , 0           , 0
-0.09542293 , -0.13496688 , -9.78917    , 0.000166257276, 0.000628929469, 6.685624E-05, 0.0131357722, -0.009793452, 9.829495E-05, 916.4433    , 31.88404    , 839.5592    , 19.64       , 3           , 255         , 0           , 0
-0.09845636 , -0.135857686, -9.790974   , -8.427654E-05, 0.0007500408, -0.000154791152, 0.0131349433, -0.009785932, 9.684566E-05, 916.4433    , 31.88404    , 839.5596    , 19.65       , 3           , 255         , 0           , 0
-0.09223114 , -0.135142282, -9.789368   , -0.00021757849, 0.0005512025, -0.000321929, 0.0131327985, -0.009780377, 9.36989745E-05, 916.4433    , 31.88404    , 839.559937  , 19.66       , 3           , 255         , 0           , 0
-0.08825694 , -0.124094471, -9.78375    , -0.0007830508, -0.0001019514, -0.000147830113, 0.0131249856, -0.009781379, 9.22073741E-05, 916.4433    , 31.88404    , 839.5603    , 19.67       , 3           , 255         , 0           , 0
-0.09795981 , -0.125506848, -9.783656   , 7.57670641E-05, -0.000548090262, -0.000952048169, 0.0131258368, -0.009786734, 8.261555E-05, 916.4433    , 31.88404    , 839.560669  , 19.68       , 3           , 255         , 0           , 0
-0.0968415961, -0.1251935  , -9.785457   , 0.00059221423, 0.000427708874, -6.41671E-05, 0.0131317619, -0.009782449, 8.203007E-05, 916.4433    , 31.88404    , 839.561035  , 19.69       , 3           , 255         , 0           , 0
-0.09952929 , -0.135605663, -9.78373051 , 0.000677870761, 6.237509E-06, 0.0002087011, 0.0131385205, -0.009782414, 8.411776E-05, 916.4433    , 31.88404    , 839.5614    , 19.7        , 3           , 255         , 0           , 0
-0.100966953, -0.133722886, -9.788732   , 0.000270403019, 0.0003878246, -5.6767276E-05, 0.0131452782, -0.009777873, 8.356159E-05, 916.4433    , 31.88404    , 839.489563  , 19.71       , 3           , 255         , 0           , 0
-0.09733519 , -0.124780193, -9.790876   , 2.60913E-05 , 0.0003348444, -0.000541788, 0.0131455921, -0.009774454, 7.818808E-05, 916.4433    , 31.88404    , 839.4895    , 19.72       , 3           , 255         , 0           , 0
-0.0948182  , -0.126570225, -9.791494   , 0.000529614743, -4.16580042E-05, -0.000355209166, 0.013150922 , -0.009774825, 7.46307342E-05, 916.4131    , 31.879591   , 839.489441  , 19.73       , 3           , 255         , 0           , 0
-0.09358429 , -0.1315795  , -9.78497    , 0.0002636701, 0.000379995938, -0.000266456, 0.0131535837, -0.009770989, 7.20163152E-05, 916.4131    , 31.879591   , 839.4894    , 19.74       , 3           , 255         , 0           , 0
-0.09927727 , -0.135137841, -9.789462   , -0.000217204855, 2.3876979E-05, -0.000160921016, 0.0131514277, -0.00977073 , 7.04103441E-05, 916.4131    , 31.879591   , 839.4893    , 19.75       , 3           , 255         , 0           , 0
-0.09837048 , -0.130977511, -9.789971   , 0.000175464258, 0.000256876025, 0.000157676623, 0.0131531665, -0.00976818148, 7.20208E-05 , 916.4131    , 31.879591   , 839.489258  , 19.76       , 3           , 255         , 0           , 0
