Acc X       , Acc Y       , Acc Z       , Gyro X      , Gyro Y      , Gyro Z      , Euler X     , Euler Y     , Euler Z     , Pres X      , Pres Y      , Pres Z      , Time        , Status      , LowRate X   , LowRate Y   , LowRate Z    
-0.0596748181, -0.148849025, -9.815357   , 0           , 0           , 0           , 0.0151637495, -0.0060789655, 0           , 916.4606    , 32.2136459  , 838.9417    , 0           , 2           , 0           , 5.4852314   , 0
-0.0611434579, -0.149756551, -9.801018   , -0.000456324517, 0.0005726123, -0.000169921521, 0.0151592325, -0.00607318943, -1.61219634E-06, 916.4606    , 32.2136459  , 838.9417    , 0.01        , 3           , 1           , 0           , 0
-0.06673869 , -0.150252953, -9.802788   , 0.000102757062, -0.000174891087, 4.541772E-05, 0.0151602589, -0.006074945, -1.18458411E-06, 916.4606    , 32.2136459  , 838.9417    , 0.02        , 3           , 2           , 0           , 0
-0.06043175 , -0.144452512, -9.800159   , 0.000219302616, -0.000148118663, 0.000129371139, 0.0151624428, -0.006076445, 8.651274E-08, 916.416443  , 31.76997    , 838.9417    , 0.03        , 3           , 3           , 0           , 0
-0.05848627 , -0.14790526 , -9.79271    , -4.371551E-05, 7.877383E-05, -0.000490451232, 0.0151620358, -0.006075584, -4.80546623E-06, 916.416443  , 31.76997    , 838.9417    , 0.04        , 3           , 4           , 0           , 0
-0.06508907 , -0.148545131, -9.798952   , -0.0004853754, 0.000431974622, 0.000223803581, 0.0151571706, -0.006071298, -2.502219E-06, 916.416443  , 31.76997    , 838.9417    , 0.05        , 3           , 5           , 0           , 0
-0.0635499656, -0.146396846, -9.803795   , -0.000173676657, 0.000483588519, -8.59705251E-05, 0.0151554374, -0.006066452, -3.28853844E-06, 916.416443  , 31.76997    , 838.9417    , 0.06        , 3           , 6           , 0           , 0
-0.0619890876, -0.148004726, -9.803876   , 0.0005620841, 0.000127081454, 0.000537847 , 0.0151610253, -0.006065262, 2.10853841E-06, 916.416443  , 31.76997    , 838.9417    , 0.07        , 3           , 7           , 0           , 0
-0.06066261 , -0.157237023, -9.811142   , -0.000110370907, -0.0002258897, 0.000194086533, 0.0151599105, -0.00606755 , 4.01492161E-06, 916.416443  , 31.76997    , 838.9417    , 0.08        , 3           , 8           , 5           , 5
-0.0554310866, -0.1552264  , -9.79873    , 0.000122950456, -0.000417175557, -0.0002922517, 0.0151611594, -0.006071677, 1.029516E-06, 916.416443  , 31.76997    , 838.9417    , 0.09        , 3           , 9           , 5           , 0.1
-0.0518756732, -0.15254195 , -9.802091   , -0.0002641634, -0.000481769122, -0.00032573723, 0.0151585368, -0.006076444, -2.30049272E-06, 916.416443  , 31.76997    , 838.9417    , 0.1         , 3           , 10          , 0.1         , 0.1
-0.0528314821, -0.1565746  , -9.80443    , -0.000260170928, -0.000149775617, -0.000706791063, 0.0151597057, -0.006080447, -9.41291E-06, 916.416443  , 31.76997    , 839.3409    , 0.11        , 3           , 11          , 0.0109544508, 0.0109544508
-0.0515457019, -0.155914336, -9.813883   , 0.0008253398, -0.000180316274, -0.0004463381, 0.015167987 , -0.00608218368, -1.39030981E-05, 916.416443  , 31.76997    , 839.340942  , 0.12        , 3           , 12          , 0.174642488 , 0
-0.04941726 , -0.1613024  , -9.793763   , 0.0005517813, -0.000372539, -0.00015654946, 0.0151735134, -0.00608588476, -1.55249127E-05, 916.4083    , 31.812376   , 839.341     , 0.13        , 3           , 13          , 0           , 0
-0.0498316661, -0.157077819, -9.806604   , 0.000411322864, 7.68647951E-05, 0.000638602534, 0.015177587 , -0.00608521234, -9.128E-06  , 916.4083    , 31.812376   , 839.341064  , 0.14        , 3           , 14          , 1.020452E-05, 7.424719E-06
-0.0486075953, -0.14366743 , -9.8065815  , 0.000627148664, 0.000184060991, 0.0005665763, 0.0151838232, -0.006083458, -3.43498118E-06, 916.4083    , 31.812376   , 839.3411    , 0.15        , 3           , 15          , 0           , 5.238324E-05
-0.05507831 , -0.144842744, -9.810092   , 0.000405071449, 9.243618E-05, -9.58049E-06, 0.0151878735, -0.00608253246, -3.51673543E-06, 916.4083    , 31.812376   , 839.3412    , 0.16        , 3           , 16          , 0           , 1.401298E-45
-0.06329581 , -0.144544274, -9.807245   , 0.0005153698, 0.0001235734, 0.000156577837, 0.0151930172, -0.00608132 , -1.93237747E-06, 916.4083    , 31.812376   , 839.341248  , 0.17        , 3           , 20          , 0           , 0
-0.0599713027, -0.142535254, -9.804373   , 2.20835464E-05, -0.000103214996, 0.0005410783, 0.0151932053, -0.006082434, 3.46206662E-06, 916.4083    , 31.812376   , 839.3413    , 0.18        , 3           , 21          , 0           , 0
-0.0659377947, -0.139776826, -9.809305   , 0.000129296561, -0.0003296794, -0.0002653387, 0.015194512 , -0.00608569058, 7.58910971E-07, 916.4083    , 31.812376   , 839.3414    , 0.19        , 3           , 22          , 0           , 0
-0.06084481 , -0.149367124, -9.809096   , -0.0007232179, -0.000305621448, 0.000181997122, 0.0151872709, -0.00608877325, 2.53223675E-06, 916.4083    , 31.812376   , 839.341431  , 0.2         , 3           , 40          , 0           , 0
-0.05835464 , -0.155124292, -9.794658   , -0.000633868854, 0.000119235119, 0.000193988526, 0.0151823144, -0.00607943768, 4.481519E-06, 916.4083    , 31.812376   , 839.3785    , 0.21        , 3           , 41          , 0           , 0
-0.0705397353, -0.151982337, -9.804171   , -0.0005828767, 0.0006540747, -0.000202837589, 0.0151764983, -0.00607286766, 2.55265672E-06, 916.4083    , 31.812376   , 839.37854   , 0.22        , 3           , 42          , 0           , 0
-0.06310438 , -0.155111372, -9.807113   , 0.000282752851, 0.00013408321, -0.000515370339, 0.0151793566, -0.006071448, -2.58007321E-06, 916.435     , 31.8370514  , 839.3786    , 0.23        , 3           , 255         , 0           , 0
-0.0496624969, -0.154879063, -9.80899048 , 0.000310773379, -4.81601419E-05, 7.857139E-05, 0.0151824607, -0.00607194146, -1.80176414E-06, 916.435     , 31.8370514  , 839.378662  , 0.24        , 3           , 255         , 0           , 0
-0.046220772, -0.141963676, -9.8058     , 0.000389510678, 0.000260422763, 0.000274276827, 0.0151863368, -0.00606937939, 9.802096E-07, 916.435     , 31.8370514  , 839.3787    , 0.25        , 3           , 255         , 0           , 0
-0.0545834377, -0.157775372, -9.802935   , 0.0003664945, 9.355393E-05, -6.138893E-05, 0.0151900062, -0.006068435, 3.80601421E-07, 916.435     , 31.8370514  , 839.3788    , 0.26        , 3           , 255         , 0           , 0
-0.0572278872, -0.15176706 , -9.800462   , 0.000920854043, -3.24340317E-06, -8.979831E-05, 0.0151992189, -0.00606845366, -5.17763056E-07, 916.435     , 31.8370514  , 839.378845  , 0.27        , 3           , 255         , 0           , 0
-0.05413183 , -0.151171818, -9.798902   , 0.000412136345, 0.000104780185, 0.00074679486, 0.0152032953, -0.00606752047, 6.96519874E-06, 916.435     , 31.8370514  , 839.3789    , 0.28        , 3           , 255         , 0           , 0
-0.0548857972, -0.1480401  , -9.798342   , 0.0005089244, -6.905517E-05, -6.93619659E-05, 0.0152083877, -0.00606820034, 6.261164E-06, 916.435     , 31.8370514  , 839.378967  , 0.29        , 3           , 255         , 0           , 0
-0.05395306 , -0.1470718  , -9.804369   , 0.00014249525, 3.18190359E-05, 6.956712E-05, 0.0152098089, -0.006067893, 6.96158941E-06, 916.435     , 31.8370514  , 839.379     , 0.3         , 3           , 255         , 0           , 0
-0.0581715927, -0.151538178, -9.798321   , -0.0004735449, -0.000297823339, 0.000238744935, 0.0152112776, -0.00606321963, 9.265754E-06, 916.435     , 31.8370514  , 839.3106    , 0.31        , 3           , 255         , 0           , 0
-0.0671405643, -0.153282717, -9.815176   , -0.0001307627, 3.57225435E-05, 0.000310492644, 0.0152099505, -0.0060629095, 1.23757372E-05, 916.435     , 31.8370514  , 839.310669  , 0.32        , 3           , 255         , 0           , 0
-0.0575757734, -0.145644858, -9.79978752 , -0.0007178293, 3.09594816E-06, 0.000205976117, 0.0152027607, -0.00606291136, 1.44357164E-05, 916.456238  , 31.85276    , 839.3107    , 0.33        , 3           , 255         , 0           , 0
-0.06477077 , -0.151041776, -9.801242   , -0.000543110538, -0.000191349536, 4.587406E-05, 0.0151973292, -0.00606483128, 1.48653153E-05, 916.456238  , 31.85276    , 839.3108    , 0.34        , 3           , 255         , 0           , 0
-0.06219666 , -0.163486153, -9.800053   , -0.0002293135, 0.00074190693, -0.000108873275, 0.015195041 , -0.006057396, 1.38894466E-05, 916.456238  , 31.85276    , 839.3109    , 0.35        , 3           , 255         , 0           , 0
-0.05513955 , -0.159173146, -9.795477   , 1.88328067E-05, -0.000302242319, -0.0003883214, 0.0151952533, -0.00606035953, 9.960783E-06, 916.456238  , 31.85276    , 839.311035  , 0.36        , 3           , 255         , 0           , 0
-0.0623470545, -0.1433552  , -9.796936   , 0.000305429159, -0.000267261377, 0.000359814963, 0.0151982857, -0.00606308645, 1.3517878E-05, 916.456238  , 31.85276    , 839.311157  , 0.37        , 3           , 255         , 0           , 0
-0.0562890768, -0.1488377  , -9.797607   , 0.000134600108, -0.000786082761, 0.0001937677, 0.0151996212, -0.00607097475, 1.53358451E-05, 916.456238  , 31.85276    , 839.3113    , 0.38        , 3           , 255         , 0           , 0
-0.05909286 , -0.144019812, -9.796148   , 4.25707658E-05, -0.000277163, -0.000607116555, 0.0152000831, -0.006073654, 9.22329E-06 , 916.456238  , 31.85276    , 839.3114    , 0.39        , 3           , 255         , 0           , 0
-0.058963906, -0.146004066, -9.800631   , -0.0006541963, -0.0003810427, -0.000316075224, 0.015193562 , -0.006077416, 6.00502835E-06, 916.456238  , 31.85276    , 839.3115    , 0.4         , 3           , 255         , 0           , 0
-0.05814913 , -0.153491259, -9.79898548 , -0.000228735153, -0.000321454048, 0.0008578223, 0.01519561  , -0.00608274853, 1.45066733E-05, 916.456238  , 31.85276    , 839.2281    , 0.41        , 3           , 255         , 0           , 0
-0.0544689521, -0.1494768  , -9.802989   , -0.000251981837, -0.0002067544, 0.000797868764, 0.0151930442, -0.00608493667, 2.2452974E-05, 916.456238  , 31.85276    , 839.2282    , 0.42        , 3           , 255         , 0           , 0
-0.05687029 , -0.151458979, -9.79772    , 0.00027364667, -0.000324953347, 0.0008849125, 0.0151957246, -0.00608832156, 3.12516459E-05, 916.421143  , 31.8645573  , 839.228333  , 0.43        , 3           , 255         , 0           , 0
-0.06124892 , -0.146440074, -9.794756   , 0.000342839718, -0.000228262128, -0.000154792317, 0.0151991639, -0.00609057955, 2.96692233E-05, 916.421143  , 31.8645573  , 839.228455  , 0.44        , 3           , 255         , 0           , 0
-0.05816243 , -0.14670226 , -9.796407   , -9.48491652E-05, 4.278837E-06, -0.0002062573, 0.0151982279, -0.006090505, 2.76075534E-05, 916.421143  , 31.8645573  , 839.2286    , 0.45        , 3           , 255         , 0           , 0
-0.0587424859, -0.155806616, -9.797272   , -0.0006122543, 0.0003883132, 5.84547524E-06, 0.0151921054, -0.00608662236, 2.772501E-05, 916.421143  , 31.8645573  , 839.2287    , 0.46        , 3           , 255         , 0           , 0
-0.04987197 , -0.150680512, -9.810396   , -0.000200633178, -0.0002848204, -0.0006673628, 0.01519014  , -0.006089369, 2.10089256E-05, 916.421143  , 31.8645573  , 839.2288    , 0.47        , 3           , 255         , 0           , 0
-0.0589928627, -0.153251916, -9.804574   , 0.0002681555, -0.000190764651, -0.000496605644, 0.0151928524, -0.00609120075, 1.60145E-05 , 916.421143  , 31.8645573  , 839.228943  , 0.48        , 3           , 255         , 0           , 0
-0.0600011759, -0.152711853, -9.801686   , 0.0002715499, 0.000329300674, -0.000291830831, 0.0151955839, -0.006087864, 1.31465713E-05, 916.421143  , 31.8645573  , 839.229065  , 0.49        , 3           , 255         , 0           , 0
-0.0596570745, -0.152708009, -9.804293   , 0.0003602853, -0.0006286606, 0.000533069368, 0.0151991555, -0.00609423127, 1.83810716E-05, 916.421143  , 31.8645573  , 839.2292    , 0.5         , 3           , 255         , 0           , 0
-0.04745217 , -0.157990411, -9.804759   , 3.75220043E-05, -0.0005918719, 0.001309492 , 0.015205035 , -0.00609529251, 3.135039E-05, 916.421143  , 31.8645573  , 839.2438    , 0.51        , 3           , 255         , 0           , 0
-0.0630321652, -0.1572445  , -9.799212   , -0.000202537762, -3.211974E-05, 0.000584663649, 0.0152029721, -0.00609570136, 3.7191443E-05, 916.421143  , 31.8645573  , 839.2439    , 0.52        , 3           , 255         , 0           , 0
-0.06617202 , -0.159156173, -9.80214    , 3.349991E-05, -4.54635774E-05, 0.0003012732, 0.0152032888, -0.006096202, 4.01968937E-05, 916.4285    , 31.8711643  , 839.244     , 0.53        , 3           , 255         , 0           , 0
-0.05377693 , -0.150780544, -9.807093   , 0.000177920665, -0.0006153293, 7.564183E-05, 0.0152050648, -0.00610236544, 4.085966E-05, 916.4285    , 31.8711643  , 839.244141  , 0.54        , 3           , 255         , 0           , 0
-0.06372972 , -0.151623964, -9.796885   , -0.000180199611, -0.0003972101, -0.00132141414, 0.0152033409, -0.0061061373, 2.75867369E-05, 916.4285    , 31.8711643  , 839.244263  , 0.55        , 3           , 255         , 0           , 0
-0.0630879849, -0.1440086  , -9.805676   , 6.213001E-05, -0.000168171653, -0.00062172953, 0.0152040012, -0.006107724, 2.13446256E-05, 916.4285    , 31.8711643  , 839.2444    , 0.56        , 3           , 255         , 0           , 0
-0.06683265 , -0.157847553, -9.80190849 , -0.000256464729, -6.296353E-05, -0.000424469763, 0.0152014624, -0.006108289, 1.7090877E-05, 916.4285    , 31.8711643  , 839.2445    , 0.57        , 3           , 255         , 0           , 0
-0.0701364055, -0.150918931, -9.802895   , 0.000289450545, -0.0005534432, -0.0007855902, 0.0152044054, -0.00611370243, 9.151795E-06, 916.4285    , 31.8711643  , 839.2446    , 0.58        , 3           , 255         , 0           , 0
-0.06492942 , -0.14811638 , -9.804705   , 0.0005068496, 0.000228315548, -2.60943925E-05, 0.0152094755, -0.006111416, 8.925599E-06, 916.4285    , 31.8711643  , 839.244751  , 0.59        , 3           , 255         , 0           , 0
-0.07147232 , -0.153162956, -9.796918   , 0.0002084456, -0.00023624154, 0.0005557382, 0.0152115254, -0.00611386262, 1.44463647E-05, 916.4285    , 31.8711643  , 839.2449    , 0.6         , 3           , 255         , 0           , 0
-0.067941   , -0.149378926, -9.793994   , -0.000202476076, -0.000488291669, 0.000198217749, 0.0152185094, -0.00612594932, 1.6298769E-05, 916.4285    , 31.8711643  , 839.243164  , 0.61        , 3           , 255         , 0           , 0
-0.0599496  , -0.142370269, -9.800665   , -3.655311E-05, 1.070444E-05, 3.8258233E-05, 0.0152181424, -0.006125848, 1.66829323E-05, 916.4285    , 31.8711643  , 839.243347  , 0.62        , 3           , 255         , 0           , 0
-0.05963825 , -0.142339438, -9.804799   , -0.00051739387, -0.000410139444, -0.0004930512, 0.0152130015, -0.006129874, 1.16906258E-05, 916.5053    , 31.8791866  , 839.2435    , 0.63        , 3           , 255         , 0           , 0
-0.06647139 , -0.1512793  , -9.798529   , -0.000187342419, -0.000133948823, 0.000358113961, 0.0152111044, -0.00613126764, 1.52509583E-05, 916.5053    , 31.8791866  , 839.2437    , 0.64        , 3           , 255         , 0           , 0
-0.06300669 , -0.143947333, -9.796829   , 0.0001341337, -0.0001790776, 0.0003297049, 0.0152124269, -0.006133108, 1.85203535E-05, 916.5053    , 31.8791866  , 839.2439    , 0.65        , 3           , 255         , 0           , 0
-0.07361245 , -0.140966028, -9.792575   , 0.000186276418, -0.0006934091, 0.000154525245, 0.0152142793, -0.006140065, 1.99599326E-05, 916.5053    , 31.8791866  , 839.2441    , 0.66        , 3           , 255         , 0           , 0
-0.07026159 , -0.157427326, -9.793498   , 0.000158558571, 6.962549E-05, -0.000373490155, 0.0152158877, -0.006139312, 1.623609E-05, 916.5053    , 31.8791866  , 839.244263  , 0.67        , 3           , 255         , 0           , 0
-0.06305461 , -0.149158269, -9.80167    , -0.0003941456, -5.428182E-05, -0.000542955764, 0.0152119789, -0.006139772, 1.07989326E-05, 916.5053    , 31.8791866  , 839.244446  , 0.68        , 3           , 255         , 0           , 0
-0.0652995  , -0.144855171, -9.802634   , 0.000289454649, -0.000377161661, 0.0005323867, 0.0152148409, -0.00614362443, 1.606477E-05, 916.5053    , 31.8791866  , 839.2446    , 0.69        , 3           , 255         , 0           , 0
-0.07526265 , -0.153882325, -9.80198    , 3.628524E-05, -0.000177896916, -0.000224945732, 0.0152152171, -0.006145369, 1.37885272E-05, 916.5053    , 31.8791866  , 839.2448    , 0.7         , 3           , 255         , 0           , 0
-0.064619   , -0.161536783, -9.800829   , -0.000207384626, 0.000164227284, 0.000162926037, 0.0152092548, -0.00616008462, 1.546647E-05, 916.5053    , 31.8791866  , 839.1368    , 0.71        , 3           , 255         , 0           , 0
-0.0588125959, -0.1533645  , -9.813291   , -0.000538883556, 4.31578774E-05, 0.00016222721, 0.0152038569, -0.006159677, 1.70951E-05 , 916.5053    , 31.8791866  , 839.1369    , 0.72        , 3           , 255         , 0           , 0
-0.05814309 , -0.1495696  , -9.790634   , -0.00012734122, -0.00029768917, -0.000570862845, 0.0152026182, -0.0061625666, 1.13419028E-05, 916.43866   , 31.8862667  , 839.137     , 0.73        , 3           , 255         , 0           , 0
-0.06087776 , -0.143744335, -9.804831   , -0.000252421, 0.000292443641, -0.000787782948, 0.0152001437, -0.006159523, 3.50947948E-06, 916.43866   , 31.8862667  , 839.137146  , 0.74        , 3           , 255         , 0           , 0
-0.0597648621, -0.1417509  , -9.803882   , 0.0001091268, -1.71422489E-05, -0.0003371435, 0.0152012557, -0.006159643, 1.35848353E-07, 916.43866   , 31.8862667  , 839.137268  , 0.75        , 3           , 255         , 0           , 0
-0.066045925, -0.142974153, -9.808081   , -0.000178975388, -0.0006325096, -0.000144787948, 0.015199475 , -0.00616594544, -1.40799739E-06, 916.43866   , 31.8862667  , 839.1374    , 0.76        , 3           , 255         , 0           , 0
-0.0603106841, -0.146041363, -9.799016   , -0.00016740452, -0.000109750879, 0.000222679329, 0.0151977884, -0.00616707653, 8.018477E-07, 916.43866   , 31.8862667  , 839.1375    , 0.77        , 3           , 255         , 0           , 0
-0.05929349 , -0.1513752  , -9.798266   , -0.0002173177, 0.0003246607, 0.000225398355, 0.0151956007, -0.00616386626, 3.1048844E-06, 916.43866   , 31.8862667  , 839.137634  , 0.78        , 3           , 255         , 0           , 0
-0.05252855 , -0.145584017, -9.798784   , 0.0003685462, 0.000344986649, 7.559755E-05, 0.0151992813, -0.00616042735, 3.91320054E-06, 916.43866   , 31.8862667  , 839.137756  , 0.79        , 3           , 255         , 0           , 0
-0.0583132729, -0.14405641 , -9.806166   , -0.0005069526, -0.000137463852, 0.00013613356, 0.0151942037, -0.006161822, 5.253487E-06, 916.43866   , 31.8862667  , 839.1379    , 0.8         , 3           , 255         , 0           , 0
-0.0541832633, -0.150329262, -9.799697   , 5.403136E-05, -0.0002711929, -0.0005612423, 0.0151926186, -0.006163352, -3.86138765E-07, 916.43866   , 31.8862667  , 839.1384    , 0.81        , 3           , 255         , 0           , 0
-0.0506082848, -0.1489419  , -9.80116749 , 0.000240150053, -0.000183141, -0.000253577367, 0.0151950344, -0.006165145, -2.94942743E-06, 916.43866   , 31.8862667  , 839.13855   , 0.82        , 3           , 255         , 0           , 0
-0.06386241 , -0.1550538  , -9.803724   , 0.0002943054, -0.000131988258, -9.339204E-05, 0.015197983 , -0.00616645068, -3.90329069E-06, 916.433838  , 31.8867378  , 839.1387    , 0.83        , 3           , 255         , 0           , 0
-0.0609597079, -0.149950862, -9.799044   , 0.000248243159, -0.0004659946, -0.000421226781, 0.015200492 , -0.00617104629, -8.185866E-06, 916.433838  , 31.8867378  , 839.1388    , 0.84        , 3           , 255         , 0           , 0
-0.060637027, -0.150729969, -9.80173    , 1.0064151E-05, -0.0002856406, 0.000174250032, 0.0152005814, -0.00617392827, -6.48699233E-06, 916.433838  , 31.8867378  , 839.1389    , 0.85        , 3           , 255         , 0           , 0
-0.0613251925, -0.140927821, -9.816117   , -0.000254934333, -0.0001034957, 0.0005418126, 0.0151979979, -0.00617504539, -1.08525887E-06, 916.433838  , 31.8867378  , 839.139038  , 0.86        , 3           , 255         , 0           , 0
-0.05539615 , -0.143721759, -9.805298   , -0.0009297354, 0.000410802837, 0.000197970992, 0.01518869  , -0.00617096759, 9.566284E-07, 916.433838  , 31.8867378  , 839.13916   , 0.87        , 3           , 255         , 0           , 0
-0.0582309365, -0.139704734, -9.800921   , 0.000250653859, -2.7929218E-06, 0.000224210627, 0.0151911825, -0.00617103 , 3.19803712E-06, 916.433838  , 31.8867378  , 839.139343  , 0.88        , 3           , 255         , 0           , 0
-0.0636170655, -0.147451788, -9.805329   , 0.0007623931, 7.092261E-05, -0.0005180411, 0.015198837 , -0.00617024256, -1.97097438E-06, 916.433838  , 31.8867378  , 839.1395    , 0.89        , 3           , 255         , 0           , 0
-0.06623136 , -0.148046345, -9.811636   , 0.000752771448, -0.0002142987, 0.000358818274, 0.0152063416, -0.006172439, 1.58419539E-06, 916.433838  , 31.8867378  , 839.1397    , 0.9         , 3           , 255         , 0           , 0
-0.06504264 , -0.137193   , -9.808076   , 0.000748561753, 0.000111240653, -0.000323521934, 0.01521086  , -0.006169314, -1.61528249E-06, 916.433838  , 31.8867378  , 839.1459    , 0.91        , 3           , 255         , 0           , 0
-0.06414818 , -0.1436555  , -9.802883   , 0.000165524514, -0.000282529567, 0.000176603819, 0.0152125051, -0.006172166, 1.07566166E-07, 916.433838  , 31.8867378  , 839.146057  , 0.92        , 3           , 255         , 0           , 0
-0.0610042326, -0.149992943, -9.807853   , 4.35575166E-05, -0.00038879714, -7.63132848E-05, 0.0152129475, -0.00617604144, -7.146145E-07, 916.467     , 31.887682   , 839.14624   , 0.93        , 3           , 255         , 0           , 0
-0.0584484562, -0.13987194 , -9.801779   , -0.000275135855, -0.000132265035, -0.000557023, 0.015210228 , -0.0061772787, -6.30429E-06, 916.467     , 31.887682   , 839.1464    , 0.94        , 3           , 255         , 0           , 0
-0.05671362 , -0.15289554 , -9.796985   , -0.0005925335, 0.000108582666, -0.000148238993, 0.0152043132, -0.00617617043, -7.769991E-06, 916.467     , 31.887682   , 839.1466    , 0.95        , 3           , 255         , 0           , 0
-0.0583347  , -0.15144062 , -9.805937   , -0.000151125612, 6.281107E-05, 0.000103875907, 0.0152027952, -0.006175558, -6.721804E-06, 916.467     , 31.887682   , 839.1468    , 0.96        , 3           , 255         , 0           , 0
-0.0549855232, -0.150777131, -9.802422   , -8.126774E-05, -0.000109387758, -0.000407627347, 0.0152020073, -0.00617658952, -1.08142076E-05, 916.467     , 31.887682   , 839.147     , 0.97        , 3           , 255         , 0           , 0
-0.06420299 , -0.147580057, -9.807754   , 0.000600888568, -0.0003509259, 0.000275322469, 0.015208    , -0.00618014066, -8.114681E-06, 916.467     , 31.887682   , 839.147156  , 0.98        , 3           , 255         , 0           , 0
-0.06446612 , -0.1446155  , -9.802426   , 9.122432E-05, 0.000180922914, 0.000103641607, 0.0152089065, -0.00617834739, -7.050876E-06, 916.467     , 31.887682   , 839.147339  , 0.99        , 3           , 255         , 0           , 0
-0.0594682321, -0.151415363, -9.801546   , -0.0005102671, -0.000418098673, -0.000306344853, 0.0152038224, -0.00618248153, -1.01775158E-05, 916.467     , 31.887682   , 839.1475    , 1           , 3           , 0           , 6.485236    , 100
-0.0576964542, -0.149980038, -9.804809   , 0.000214099753, -0.000263008522, 0.000269074575, 0.0152017921, -0.006185385, -7.501387E-06, 916.467     , 31.887682   , 839.1159    , 1.01        , 3           , 1           , 0           , 0
-0.05647248 , -0.147088081, -9.797783   , 0.0008672101, -0.00030663627, 0.0008924932, 0.0152104087, -0.006188587, 1.37582992E-06, 916.467     , 31.887682   , 839.116     , 1.02        , 3           , 2           , 0           , 0
-0.0586352348, -0.149853662, -9.797918   , -5.6775003E-05, -0.0007508608, 0.001001202 , 0.01520978  , -0.006196246, 1.12724329E-05, 916.454163  , 31.891592   , 839.11615   , 1.03        , 3           , 3           , 0           , 0
-0.0595350377, -0.141730443, -9.800232   , -0.000283321278, -0.0006572268, 0.000459485629, 0.0152069181, -0.00620288728, 1.57667764E-05, 916.454163  , 31.891592   , 839.1163    , 1.04        , 3           , 4           , 0           , 0
-0.0549363866, -0.1531787  , -9.802811   , -0.000180379284, 8.38931E-05 , 0.000121495308, 0.0152051067, -0.00620206632, 1.69943451E-05, 916.454163  , 31.891592   , 839.1164    , 1.05        , 3           , 5           , 0           , 0
-0.0527857132, -0.152454287, -9.798014   , 0.000799200265, 0.000255306921, -3.48495778E-05, 0.015213103 , -0.00619951 , 1.66847221E-05, 916.454163  , 31.891592   , 839.1165    , 1.06        , 3           , 6           , 0           , 0
-0.056138657, -0.1488901  , -9.797682   , -0.000411774323, 1.66433929E-05, 5.099296E-05, 0.015208981 , -0.00619935 , 1.71971187E-05, 916.454163  , 31.891592   , 839.116638  , 1.07        , 3           , 7           , 0           , 0
-0.057891   , -0.137260631, -9.800066   , 0.000172382162, 8.1727E-05  , 0.000294832716, 0.0152106853, -0.00619857758, 2.01575112E-05, 916.454163  , 31.891592   , 839.11676   , 1.08        , 3           , 8           , 5           , 5
-0.05849468 , -0.142264411, -9.807197   , 0.000112798516, -0.000464969839, 0.000199509843, 0.015211801 , -0.006203257, 2.20816419E-05, 916.454163  , 31.891592   , 839.116943  , 1.09        , 3           , 9           , 5           , 0.1
-0.06107367 , -0.1513615  , -9.806802   , -0.000464160985, 0.000461210264, 0.000197615242, 0.0152071472, -0.00619867537, 2.41277066E-05, 916.454163  , 31.891592   , 839.1171    , 1.1         , 3           , 10          , 0.1         , 0.1
-0.06027224 , -0.1557684  , -9.802771   , -0.000418608251, 0.000131252324, 0.000163142249, 0.0151995   , -0.006190169, 2.58002528E-05, 916.454163  , 31.891592   , 839.10376   , 1.11        , 3           , 11          , 0.009791032 , 0.00979103148
-0.06624098 , -0.150299773, -9.81206    , -0.0006320574, 5.14582052E-06, -0.000164203608, 0.01519319  , -0.0061900923, 2.41592024E-05, 916.454163  , 31.891592   , 839.1039    , 1.12        , 3           , 12          , 0.174642846 , 0
-0.0541005544, -0.151306659, -9.807526   , -0.000341594918, -0.000183884185, -0.000389611931, 0.0151897976, -0.00619187159, 2.02356223E-05, 916.419739  , 31.8941536  , 839.104     , 1.13        , 3           , 13          , 0           , 0
-0.0542526133, -0.149934545, -9.803644   , 0.000238228371, -0.000575680053, -0.000281513756, 0.0151921986, -0.00619758433, 1.7333381E-05, 916.419739  , 31.8941536  , 839.1041    , 1.14        , 3           , 14          , 1.020909E-05, 7.42443854E-06
-0.0612282939, -0.148052886, -9.802533   , 0.00023707455, -0.0003102  , -0.00015092337, 0.0151945772, -0.006200663, 1.57772065E-05, 916.419739  , 31.8941536  , 839.104248  , 1.15        , 3           , 15          , 0           , 5.23832168E-05
-0.06082658 , -0.146161422, -9.805741   , -0.00022450673, -0.000140985387, -0.000886288064, 0.0151923886, -0.00620193733, 6.89397166E-06, 916.419739  , 31.8941536  , 839.1044    , 1.16        , 3           , 16          , 0           , 1.401298E-45
-0.0591101646, -0.151752666, -9.806314   , 6.78895E-05 , 8.6570406E-05, 0.000104813516, 0.0151930619, -0.006201088, 7.955128E-06, 916.419739  , 31.8941536  , 839.1045    , 1.17        , 3           , 20          , 0           , 0
-0.0523261726, -0.146563709, -9.80896    , 0.0001870854, -5.115727E-05, 5.108734E-05, 0.0151949283, -0.00620160764, 8.45817249E-06, 916.419739  , 31.8941536  , 839.1046    , 1.18        , 3           , 21          , 0           , 0
-0.04845736 , -0.145053834, -9.798583   , -0.000277144922, -1.44854821E-05, -0.0005012078, 0.0151921893, -0.006201676, 3.444501E-06, 916.419739  , 31.8941536  , 839.104736  , 1.19        , 3           , 22          , 0           , 0
-0.0536620542, -0.152984381, -9.806009   , -0.0004643732, -0.00023324661, -0.0004067708, 0.01518757  , -0.00620394573, -6.581413E-07, 916.419739  , 31.8941536  , 839.1049    , 1.2         , 3           , 40          , 0           , 0
-0.0598048456, -0.1494917  , -9.812781   , -0.0003270912, 8.153917E-05, 0.000129159642, 0.0151856812, -0.006196609, 6.370733E-07, 916.419739  , 31.8941536  , 839.128967  , 1.21        , 3           , 41          , 0           , 0
-0.0612319633, -0.143968791, -9.809097   , -0.000116448326, 0.000115616422, -0.0005498291, 0.0151845515, -0.00619536964, -4.843E-06  , 916.419739  , 31.8941536  , 839.1292    , 1.22        , 3           , 42          , 0           , 0
-0.0622228459, -0.149660349, -9.802137   , 0.000176345668, -0.000112497626, -0.000378505822, 0.0151863368, -0.006196437, -8.644682E-06, 916.436     , 31.89321    , 839.129456  , 1.23        , 3           , 255         , 0           , 0
-0.06429958 , -0.147463948, -9.796186   , 0.000207528879, -5.97357321E-05, 0.000129211578, 0.0151884053, -0.006197054, -7.361792E-06, 916.436     , 31.89321    , 839.1297    , 1.24        , 3           , 255         , 0           , 0
-0.0605698638, -0.142098814, -9.795135   , 0.00011674421, -0.0003278793, -0.0003787008, 0.0151895965, -0.006200275, -1.11981435E-05, 916.436     , 31.89321    , 839.129944  , 1.25        , 3           , 255         , 0           , 0
-0.05618023 , -0.15423958 , -9.797979   , -0.0008440593, 0.000148929088, -0.0004578103, 0.0151811838, -0.006198717, -1.57530721E-05, 916.436     , 31.89321    , 839.1302    , 1.26        , 3           , 255         , 0           , 0
-0.0559385046, -0.152163148, -9.80465    , -0.000451282132, -1.30241715E-05, 0.0001070571, 0.0151766632, -0.006198862, -1.468461E-05, 916.436     , 31.89321    , 839.130432  , 1.27        , 3           , 255         , 0           , 0
-0.0531877279, -0.14570719 , -9.796013   , -0.0003774094, -0.000188955455, -0.000523060851, 0.015172923 , -0.00620067166, -1.994325E-05, 916.436     , 31.89321    , 839.1307    , 1.28        , 3           , 255         , 0           , 0
-0.0523456559, -0.144210055, -9.800359   , 0.000152866647, -0.00025579083, -5.171246E-05, 0.0151744541, -0.00620322162, -2.04991175E-05, 916.436     , 31.89321    , 839.1309    , 1.29        , 3           , 255         , 0           , 0
-0.0593346432, -0.1498134  , -9.800863   , 0.0009814716, 0.000251698628, 5.9754082E-05, 0.0151842656, -0.006200715, -1.9863448E-05, 916.436     , 31.89321    , 839.131165  , 1.3         , 3           , 255         , 0           , 0
-0.0610834472, -0.147377014, -9.799679   , -0.000268134, 0.000336518424, 0.000249934383, 0.0151795456, -0.006192853, -1.730079E-05, 916.436     , 31.89321    , 839.1354    , 1.31        , 3           , 255         , 0           , 0
-0.0690185651, -0.140822515, -9.807143   , 0.0005737846, -0.0001152053, 0.000610582239, 0.0151852472, -0.006194098, -1.12131975E-05, 916.436     , 31.89321    , 839.1356    , 1.32        , 3           , 255         , 0           , 0
-0.0624220073, -0.140237212, -9.804308   , 0.000279164029, -0.0001480765, 0.00012900561, 0.01518803  , -0.00619559828, -9.945785E-06, 916.4094    , 31.8939514  , 839.135864  , 1.33        , 3           , 255         , 0           , 0
-0.06383898 , -0.14999795 , -9.807434   , 0.0004122267, -0.000195082554, 0.0002813263, 0.0151921352, -0.006197591, -7.16249224E-06, 916.4094    , 31.8939514  , 839.136169  , 1.34        , 3           , 255         , 0           , 0
-0.06004669 , -0.15329276 , -9.801336   , 0.0004125131, 0.000171089676, 0.0007559572, 0.0151962135, -0.006195995, 4.22151885E-07, 916.4094    , 31.8939514  , 839.1365    , 1.35        , 3           , 255         , 0           , 0
-0.06114939 , -0.143943772, -9.800419   , -0.000893486431, -0.000968538458, -0.000314222882, 0.0151872979, -0.006205631, -2.86683371E-06, 916.4094    , 31.8939514  , 839.1368    , 1.36        , 3           , 255         , 0           , 0
-0.0656171  , -0.14594987 , -9.80147    , -0.000495886547, -0.0006044356, 0.000181832263, 0.0151823284, -0.006211702, -1.140503E-06, 916.4094    , 31.8939514  , 839.1371    , 1.37        , 3           , 255         , 0           , 0
-0.0606283359, -0.151231363, -9.795718   , -0.000196713518, -0.000264686183, -0.000232143313, 0.0151803764, -0.006214313, -3.50184064E-06, 916.4094    , 31.8939514  , 839.1374    , 1.38        , 3           , 255         , 0           , 0
-0.056376297, -0.149543643, -9.795173   , 8.57013947E-05, 0.0003139578, -9.76584852E-05, 0.01518124  , -0.006211159, -4.43064573E-06, 916.4094    , 31.8939514  , 839.1377    , 1.39        , 3           , 255         , 0           , 0
-0.06520604 , -0.152680069, -9.806302   , -0.000367871, -2.38758112E-05, -0.0005174478, 0.0151775926, -0.0062113204, -9.608123E-06, 916.4094    , 31.8939514  , 839.138     , 1.4         , 3           , 255         , 0           , 0
-0.0583563931, -0.150650039, -9.804145   , -0.000232147082, -5.603997E-05, 0.000292599783, 0.015172461 , -0.00621539773, -6.67362974E-06, 916.4094    , 31.8939514  , 839.1692    , 1.41        , 3           , 255         , 0           , 0
-0.0580741763, -0.1513006  , -9.80664349 , 4.26421047E-06, -9.632062E-05, 0.000225147945, 0.015172489 , -0.006216395, -4.437041E-06, 916.4094    , 31.8939514  , 839.1696    , 1.42        , 3           , 255         , 0           , 0
-0.0583924837, -0.150242686, -9.806953   , 0.000105656574, 0.0005863995, -2.770419E-06, 0.0151735451, -0.00621053157, -4.37577273E-06, 916.452942  , 31.894289   , 839.170044  , 1.43        , 3           , 255         , 0           , 0
-0.0579836778, -0.149864912, -9.803207   , 0.000468402664, 0.00021074008, -0.000345167267, 0.01517825  , -0.0062083723, -7.795044E-06, 916.452942  , 31.894289   , 839.1705    , 1.44        , 3           , 255         , 0           , 0
-0.06115079 , -0.13965793 , -9.803257   , 0.000929555448, 0.0003091525, 0.000135614027, 0.0151875354, -0.006205302, -6.39213931E-06, 916.452942  , 31.894289   , 839.1709    , 1.45        , 3           , 255         , 0           , 0
-0.0599934831, -0.146381944, -9.797061   , -0.000158499577, 4.63778779E-05, 0.0002887212, 0.0151859326, -0.006204882, -3.498231E-06, 916.452942  , 31.894289   , 839.1713    , 1.46        , 3           , 255         , 0           , 0
-0.0662907  , -0.153347492, -9.801244   , -0.0005003382, -0.000227429351, 0.0002713158, 0.0151809147, -0.00620719744, -8.19932552E-07, 916.452942  , 31.894289   , 839.171753  , 1.47        , 3           , 255         , 0           , 0
-0.06588357 , -0.149620548, -9.805873   , -0.00056241767, 0.000252866448, 0.000130963454, 0.01517528  , -0.006204688, 5.27924556E-07, 916.452942  , 31.894289   , 839.1722    , 1.48        , 3           , 255         , 0           , 0
-0.064519994, -0.1393731  , -9.806431   , -0.000581834349, 4.73559849E-05, 0.0004961937, 0.0151694315, -0.00620428938, 5.496448E-06, 916.452942  , 31.894289   , 839.1726    , 1.49        , 3           , 255         , 0           , 0
-0.06169197 , -0.145707056, -9.80047    , -5.357217E-05, -0.0002879214, 0.000586787064, 0.01516886  , -0.00620725751, 1.13199358E-05, 916.452942  , 31.894289   , 839.173035  , 1.5         , 3           , 255         , 0           , 0
-0.0615134947, -0.145683482, -9.80384    , -0.0004722398, -0.000120760706, -0.000157237213, 0.0151619175, -0.006209121, 9.743288E-06, 916.452942  , 31.894289   , 839.155     , 1.51        , 3           , 255         , 0           , 0
-0.06775422 , -0.134185165, -9.812309   , -2.92305613E-05, 0.000542059366, 0.000221969472, 0.01516161  , -0.006203734, 1.20448994E-05, 916.452942  , 31.894289   , 839.1554    , 1.52        , 3           , 255         , 0           , 0
-0.0588639975, -0.149930134, -9.801553   , -0.000491666258, 0.000110850022, -0.000476085232, 0.0151567254, -0.006202553, 7.301422E-06, 916.437134  , 31.8942223  , 839.155762  , 1.53        , 3           , 255         , 0           , 0
-0.0559614524, -0.152132943, -9.803533   , -9.155509E-05, -0.000109963126, -0.000488111866, 0.0151558388, -0.00620357832, 2.40422651E-06, 916.437134  , 31.8942223  , 839.1561    , 1.54        , 3           , 255         , 0           , 0
-0.0609449558, -0.151319146, -9.800897   , -0.000176676724, -5.42539328E-06, 0.000914895034, 0.0151540153, -0.006203771, 1.1551253E-05, 916.437134  , 31.8942223  , 839.1565    , 1.55        , 3           , 255         , 0           , 0
-0.06635097 , -0.158577263, -9.796623   , -0.000429967855, 6.273977E-05, -0.000218930043, 0.01514973  , -0.00620311033, 9.37172354E-06, 916.437134  , 31.8942223  , 839.15686   , 1.56        , 3           , 255         , 0           , 0
-0.0637375  , -0.152400762, -9.801119   , -0.000197567933, -3.32698328E-05, -0.0003260347, 0.0151477754, -0.006203395, 6.10673E-06 , 916.437134  , 31.8942223  , 839.1572    , 1.57        , 3           , 255         , 0           , 0
-0.05612559 , -0.148069   , -9.800936   , 1.9667661E-05, -0.000396693125, 8.150645E-05, 0.0151479673, -0.006207373, 6.861615E-06, 916.437134  , 31.8942223  , 839.1576    , 1.58        , 3           , 255         , 0           , 0
-0.0544112027, -0.149317577, -9.804496   , -8.282033E-05, -0.000146747741, -0.000256340922, 0.0151471552, -0.006208801, 4.276283E-06, 916.437134  , 31.8942223  , 839.157959  , 1.59        , 3           , 255         , 0           , 0
-0.047420688, -0.1513799  , -9.803372   , 0.000262556365, 0.000144336591, 0.000156926661, 0.0151497722, -0.006207382, 5.86722672E-06, 916.437134  , 31.8942223  , 839.1583    , 1.6         , 3           , 255         , 0           , 0
-0.0445922241, -0.145485461, -9.803548   , 0.0008014151, 0.000480886985, 0.000366228574, 0.0151590714, -0.00619991357, 9.593821E-06, 916.437134  , 31.8942223  , 839.1585    , 1.61        , 3           , 255         , 0           , 0
-0.0560642257, -0.147546649, -9.79447    , 0.0009564401, 0.000209920123, -9.38145E-05, 0.0151686408, -0.00619779946, 8.687617E-06, 916.437134  , 31.8942223  , 839.1589    , 1.62        , 3           , 255         , 0           , 0
-0.06981136 , -0.150216237, -9.803951   , 0.000474976754, 0.00030940256, 0.000385830819, 0.0151733672, -0.00619476475, 1.25923934E-05, 916.413147  , 31.9012337  , 839.159241  , 1.63        , 3           , 255         , 0           , 0
-0.07186868 , -0.153440177, -9.805021   , 0.0002768745, 0.000123785343, 4.35449E-05 , 0.0151761323, -0.00619353354, 1.30465742E-05, 916.413147  , 31.9012337  , 839.159668  , 1.64        , 3           , 255         , 0           , 0
-0.07993238 , -0.148798451, -9.801568   , -0.000296717073, 0.000201063856, -2.09948739E-05, 0.0151731679, -0.00619152 , 1.28671527E-05, 916.413147  , 31.9012337  , 839.1601    , 1.65        , 3           , 255         , 0           , 0
-0.0771436542, -0.140871465, -9.801971   , 0.000134290342, 0.000297941355, 0.000362195336, 0.0151744876, -0.00618859567, 1.6533877E-05, 916.413147  , 31.9012337  , 839.1605    , 1.66        , 3           , 255         , 0           , 0
-0.07306176 , -0.144474477, -9.802655   , -2.172962E-05, 0.0005145615, 0.000251209247, 0.0151742548, -0.006183489, 1.91237486E-05, 916.413147  , 31.9012337  , 839.16095   , 1.67        , 3           , 255         , 0           , 0
-0.0618319139, -0.143833339, -9.808874   , -0.000355187076, -0.0003946476, 1.671413E-05, 0.0151707018, -0.006187439, 1.92309853E-05, 916.413147  , 31.9012337  , 839.1614    , 1.68        , 3           , 255         , 0           , 0
-0.06289358 , -0.147442818, -9.804321   , -9.69893663E-05, 1.77878246E-06, 7.85019656E-05, 0.0151697276, -0.006187432, 2.00161758E-05, 916.413147  , 31.9012337  , 839.1618    , 1.69        , 3           , 255         , 0           , 0
-0.07359192 , -0.148503736, -9.80408    , 0.0002159157, -0.0004348891, 0.0007414286, 0.01517184  , -0.006191893, 2.73635978E-05, 916.413147  , 31.9012337  , 839.162231  , 1.7         , 3           , 255         , 0           , 0
-0.07088428 , -0.157776445, -9.805998   , 0.000142722667, 0.0003063375, 0.0005842246, 0.0151702482, -0.0062000677, 3.327011E-05, 916.413147  , 31.9012337  , 839.1886    , 1.71        , 3           , 255         , 0           , 0
-0.06442864 , -0.149007887, -9.809832   , 6.63719E-05 , -0.000194151871, 0.0006505596, 0.0151708713, -0.00620210776, 3.97454678E-05, 916.413147  , 31.9012337  , 839.189148  , 1.72        , 3           , 255         , 0           , 0
-0.07178762 , -0.1420451  , -9.802355   , 0.000595468155, -0.000195279339, 0.000411183282, 0.0151767991, -0.00620412128, 4.382718E-05, 916.4437    , 31.8996143  , 839.1897    , 1.73        , 3           , 255         , 0           , 0
-0.05993511 , -0.14453575 , -9.803268   , 5.558684E-05, 0.0006935224, -7.108381E-05, 0.0151773607, -0.006197177, 4.32216948E-05, 916.4437    , 31.8996143  , 839.190247  , 1.74        , 3           , 255         , 0           , 0
-0.050095804, -0.145549074, -9.796207   , 5.61556153E-05, 4.74629633E-05, 0.000158582072, 0.0151779111, -0.00619672658, 4.48145256E-05, 916.4437    , 31.8996143  , 839.1908    , 1.75        , 3           , 255         , 0           , 0
-0.054806   , -0.145739526, -9.8025     , 0.00038268388, 0.000231516286, 4.098867E-05, 0.0151817361, -0.006194418, 4.52595E-05 , 916.4437    , 31.8996143  , 839.191345  , 1.76        , 3           , 255         , 0           , 0
-0.052393   , -0.1482862  , -9.79532051 , 0.000126535888, -0.00016347038, -0.000111209069, 0.0151830092, -0.00619603554, 4.412272E-05, 916.4437    , 31.8996143  , 839.1919    , 1.77        , 3           , 255         , 0           , 0
-0.05962958 , -0.144294709, -9.795668   , -0.000285055517, 0.00024826132, -0.000273185375, 0.0151801761, -0.006193511, 4.142888E-05, 916.4437    , 31.8996143  , 839.192444  , 1.78        , 3           , 255         , 0           , 0
-0.0671226457, -0.144786447, -9.798542   , 0.00034255092, -3.130383E-05, -0.000547738, 0.0151836341, -0.00619374169, 3.59474179E-05, 916.4437    , 31.8996143  , 839.193     , 1.79        , 3           , 255         , 0           , 0
-0.05396509 , -0.14002496 , -9.798099   , 3.77252436E-05, 6.194755E-05, -0.0008583986, 0.0151840663, -0.006192992, 2.73738679E-05, 916.4437    , 31.8996143  , 839.193542  , 1.8         , 3           , 255         , 0           , 0
-0.0612120926, -0.145566136, -9.794248   , -0.000260491448, 3.85144558E-05, -0.000209036312, 0.0151766017, -0.006192124, 2.531978E-05, 916.4437    , 31.8996143  , 839.1824    , 1.81        , 3           , 255         , 0           , 0
-0.0599695668, -0.149635762, -9.80159    , -6.86236E-05, -0.000333852862, 0.000287026865, 0.0151758967, -0.006195506, 2.81390385E-05, 916.4437    , 31.8996143  , 839.182861  , 1.82        , 3           , 255         , 0           , 0
-0.0614143834, -0.142479464, -9.796759   , 8.502894E-05, -0.000426525425, -0.000144473073, 0.0151767563, -0.00619974826, 2.66297538E-05, 916.4238    , 31.8991432  , 839.1834    , 1.83        , 3           , 255         , 0           , 0
-0.06651002 , -0.15117088 , -9.804395   , 0.0003666699, -2.1137208E-05, 4.19307835E-05, 0.0151804211, -0.006199966, 2.70458022E-05, 916.4238    , 31.8991432  , 839.18396   , 1.84        , 3           , 255         , 0           , 0
-0.0574334376, -0.146972924, -9.795382   , 0.00110125367, 7.409505E-05, 0.000228945079, 0.01519142  , -0.00619926071, 2.93462344E-05, 916.4238    , 31.8991432  , 839.1845    , 1.85        , 3           , 255         , 0           , 0
-0.0591580458, -0.14622    , -9.802626   , 0.00092495943, 0.0005676159, -0.0007214761, 0.0152007136, -0.006193475, 2.2218599E-05, 916.4238    , 31.8991432  , 839.185059  , 1.86        , 3           , 255         , 0           , 0
-0.06287756 , -0.145405173, -9.798906   , -7.394264E-05, -5.508123E-05, -0.0004765972, 0.0152000031, -0.006193955, 1.744483E-05, 916.4238    , 31.8991432  , 839.1856    , 1.87        , 3           , 255         , 0           , 0
-0.06445194 , -0.1400837  , -9.805822   , -0.000136939823, -0.000115545219, -0.000739033567, 0.0151986806, -0.006194997, 1.00378238E-05, 916.4238    , 31.8991432  , 839.186157  , 1.88        , 3           , 255         , 0           , 0
-0.0548857525, -0.147339955, -9.796942   , -0.000221094437, -0.000141057128, -0.000361339626, 0.0151964929, -0.00619635265, 6.403435E-06, 916.4238    , 31.8991432  , 839.1867    , 1.89        , 3           , 255         , 0           , 0
-0.0509706847, -0.139297053, -9.800413   , -0.000286274066, -2.88348456E-05, 7.182025E-07, 0.01519363  , -0.00619664043, 6.406233E-06, 916.4238    , 31.8991432  , 839.187256  , 1.9         , 3           , 255         , 0           , 0
-0.05025326 , -0.150395066, -9.809557   , -2.7471433E-05, 0.000271255936, 0.000108381675, 0.0151866134, -0.006192229, 7.57283942E-06, 916.4238    , 31.8991432  , 839.1998    , 1.91        , 3           , 255         , 0           , 0
-0.0564965978, -0.1607777  , -9.80946    , 0.000299268257, 0.000105927647, -0.000388628629, 0.01518963  , -0.006191111, 3.70311182E-06, 916.4238    , 31.8991432  , 839.200439  , 1.92        , 3           , 255         , 0           , 0
-0.0501426943, -0.156283587, -9.790657   , -0.0006510699, 0.000443388359, 0.000197415546, 0.015183107 , -0.00618670927, 5.744369E-06, 916.4314    , 31.8996143  , 839.20105   , 1.93        , 3           , 255         , 0           , 0
-0.05661575 , -0.154142976, -9.819006   , -0.000482859323, -0.000253874547, -4.935821E-05, 0.0151782827, -0.00618924 , 5.21230459E-06, 916.4314    , 31.8996143  , 839.20166   , 1.94        , 3           , 255         , 0           , 0
-0.0533227548, -0.159326822, -9.791526   , -0.0003428844, -0.0001139322, 0.0007293281, 0.0151748089, -0.00619049 , 1.24874123E-05, 916.4314    , 31.8996143  , 839.2023    , 1.95        , 3           , 255         , 0           , 0
-0.0625543147, -0.147203416, -9.790016   , -0.000786587, 7.874007E-05, 0.000615387456, 0.0151669066, -0.006189795, 1.865248E-05, 916.4314    , 31.8996143  , 839.2029    , 1.96        , 3           , 255         , 0           , 0
-0.06951188 , -0.1519085  , -9.79414749 , -0.000159328192, 0.0005734009, -0.0006908169, 0.015165356 , -0.006183957, 1.18321013E-05, 916.4314    , 31.8996143  , 839.2035    , 1.97        , 3           , 255         , 0           , 0
-0.06424339 , -0.1490212  , -9.803778   , 9.765318E-06, 2.85643655E-05, -0.000400095247, 0.015165478 , -0.00618361076, 7.83596352E-06, 916.4314    , 31.8996143  , 839.2041    , 1.98        , 3           , 255         , 0           , 0
-0.06544723 , -0.148023158, -9.806513   , 0.0002607688, 0.000205017554, -0.000193887332, 0.0151680959, -0.006181532, 5.92842525E-06, 916.4314    , 31.8996143  , 839.2047    , 1.99        , 3           , 255         , 0           , 0
-0.06011861 , -0.152357444, -9.802132   , -0.000618783932, 0.0002564792, 0.000106700376, 0.0151619008, -0.006178983, 7.03419255E-06, 916.4314    , 31.8996143  , 839.2053    , 2           , 3           , 0           , 7.485236    , 200
-0.06174903 , -0.146386862, -9.79604149 , 0.00021530567, -0.000263874041, -7.559823E-05, 0.0151714   , -0.006178432, 6.19293724E-06, 916.4314    , 31.8996143  , 839.206848  , 2.01        , 3           , 1           , 0           , 0
-0.0603847727, -0.145520225, -9.80229    , -0.000347358669, -0.0003331975, -0.000564820832, 0.0151679618, -0.00618167873, 4.948692E-07, 916.4314    , 31.8996143  , 839.2075    , 2.02        , 3           , 2           , 0           , 0
-0.0561747774, -0.13965039 , -9.802944   , 0.000123231934, -0.000294270139, 7.891332E-05, 0.0151691893, -0.00618463242, 1.23927578E-06, 916.46405   , 31.9023781  , 839.2082    , 2.03        , 3           , 3           , 0           , 0
-0.06014201 , -0.139868543, -9.808266   , 6.085561E-06, 1.9121384E-05, 0.000538148452, 0.0151692163, -0.006184523, 6.623009E-06, 916.46405   , 31.9023781  , 839.208862  , 2.04        , 3           , 4           , 0           , 0
-0.05676931 , -0.149660021, -9.80525    , 0.000417303585, -0.00102178042, 0.000266367744, 0.0151733737, -0.006194779, 9.13136046E-06, 916.46405   , 31.9023781  , 839.209534  , 2.05        , 3           , 5           , 0           , 0
-0.05402891 , -0.147582561, -9.806532   , 0.0005067599, -0.0002553963, 0.0002790065, 0.0151784234, -0.00619737571, 1.18823336E-05, 916.46405   , 31.9023781  , 839.2102    , 2.06        , 3           , 6           , 0           , 0
-0.0486032777, -0.149463922, -9.806789   , 0.000617345329, -6.94273258E-05, -0.0006960668, 0.01518464  , -0.00619796431, 4.91196943E-06, 916.46405   , 31.9023781  , 839.2109    , 2.07        , 3           , 7           , 0           , 0
-0.0606725924, -0.148689628, -9.803263   , 0.000495360058, -6.578357E-05, -7.702786E-05, 0.0151895992, -0.00619861064, 4.1317935E-06, 916.46405   , 31.9023781  , 839.211548  , 2.08        , 3           , 8           , 5           , 5
-0.06514044 , -0.14430733 , -9.803302   , -0.000477403577, 0.000129233042, 3.138632E-05, 0.0151848234, -0.006197323, 4.465246E-06, 916.46405   , 31.9023781  , 839.2122    , 2.09        , 3           , 9           , 5           , 0.1
-0.06336588 , -0.150631934, -9.80576    , -0.000206776662, -0.000149274041, -0.0007124623, 0.0151827987, -0.006198707, -2.68117628E-06, 916.46405   , 31.9023781  , 839.2129    , 2.1         , 3           , 10          , 0.1         , 0.1
-0.0593952946, -0.145790443, -9.806741   , 1.20148725E-05, -0.000585707, -0.000662308, 0.0151789021, -0.00620131241, -9.36721153E-06, 916.46405   , 31.9023781  , 839.172852  , 2.11        , 3           , 11          , 0.00894242  , 0.008942418
-0.05707823 , -0.154674843, -9.800015   , 0.0004063882, -0.000595652033, -9.368818E-05, 0.0151829729, -0.006207255, -1.03943967E-05, 916.46405   , 31.9023781  , 839.1733    , 2.12        , 3           , 12          , 0.174643889 , 0
-0.0590466633, -0.153871864, -9.807111   , 0.0009687208, 7.280547E-06, 8.01291753E-05, 0.0151926558, -0.00620719558, -9.592093E-06, 916.4505    , 31.9013672  , 839.1737    , 2.13        , 3           , 13          , 0           , 0
-0.0647851452, -0.146161646, -9.80374    , -8.87208E-05, 3.64589978E-05, 0.000357039535, 0.0151917459, -0.006206884, -6.01658758E-06, 916.4505    , 31.9013672  , 839.174133  , 2.14        , 3           , 14          , 1.02406721E-05, 7.4122654E-06
-0.063797   , -0.1437846  , -9.795584   , -0.000547742762, 0.00021396605, -0.000152795736, 0.0151862763, -0.00620472059, -7.511862E-06, 916.4505    , 31.9013672  , 839.174561  , 2.15        , 3           , 15          , 0           , 5.238321E-05
-0.0611332357, -0.143847182, -9.794626   , 2.533159E-05, 6.02441E-05 , -0.0005008635, 0.0151865613, -0.006204042, -1.25107417E-05, 916.4505    , 31.9013672  , 839.175     , 2.16        , 3           , 16          , 0           , 1.401298E-45
-0.0614148155, -0.1459612  , -9.80382252 , 9.18106E-06 , -0.000242950176, 8.295319E-08, 0.0151866544, -0.006206472, -1.25468059E-05, 916.4505    , 31.9013672  , 839.1754    , 2.17        , 3           , 20          , 0           , 0
-0.0545625873, -0.149204776, -9.798871   , 0.000301475 , 0.000509873731, 0.0004919494, 0.0151896384, -0.00620144838, -7.550472E-06, 916.4505    , 31.9013672  , 839.175842  , 2.18        , 3           , 21          , 0           , 0
-0.0503152236, -0.143020526, -9.795818   , 0.000322615844, -0.000140190139, -9.74412251E-05, 0.015192871 , -0.00620283466, -8.546061E-06, 916.4505    , 31.9013672  , 839.1763    , 2.19        , 3           , 22          , 0           , 0
-0.05543202 , -0.145154446, -9.802738   , -0.000264795759, -0.000103660634, -0.000169295614, 0.0151902325, -0.006203845, -1.02545609E-05, 916.4505    , 31.9013672  , 839.1767    , 2.2         , 3           , 40          , 0           , 0
-0.0539523549, -0.152696848, -9.798895   , -0.000706760038, -0.000143696438, -0.000604482135, 0.0151801584, -0.006201424, -1.63015775E-05, 916.4505    , 31.9013672  , 839.157654  , 2.21        , 3           , 41          , 0           , 0
-0.05892571 , -0.1514624  , -9.80746651 , -0.000229118144, -0.00095501903, -0.0003950694, 0.0151778925, -0.006210913, -2.03967629E-05, 916.4505    , 31.9013672  , 839.157959  , 2.22        , 3           , 42          , 0           , 0
-0.0574582927, -0.149591848, -9.800261   , -0.000458954, -7.382013E-05, -4.2438267E-05, 0.0151733058, -0.006211644, -2.08322981E-05, 916.4186    , 31.9006252  , 839.158264  , 2.23        , 3           , 255         , 0           , 0
-0.0514898524, -0.149009451, -9.799123   , 2.31293416E-05, 0.000751902349, -0.0001983103, 0.0151735488, -0.00620409567, -2.270108E-05, 916.4186    , 31.9006252  , 839.158569  , 2.24        , 3           , 255         , 0           , 0
-0.056966424, -0.149993271, -9.80002    , -0.000328366441, -0.000280031818, 0.000397328055, 0.0151702408, -0.006206956, -1.87707683E-05, 916.4186    , 31.9006252  , 839.1589    , 2.25        , 3           , 255         , 0           , 0
-0.0563934222, -0.145836845, -9.801032   , -0.000313945377, 4.093876E-05, 0.00028518078, 0.0151670836, -0.00620658975, -1.59130959E-05, 916.4186    , 31.9006252  , 839.1592    , 2.26        , 3           , 255         , 0           , 0
-0.0593731031, -0.152279556, -9.796931   , -0.000230729333, 0.000174564746, 0.0005510181, 0.0151647432, -0.006204928, -1.03771054E-05, 916.4186    , 31.9006252  , 839.1595    , 2.27        , 3           , 255         , 0           , 0
-0.0613475144, -0.149890155, -9.794892   , 0.000482376 , 0.0005355861, -0.0003621727, 0.0151695861, -0.00619951729, -1.39171716E-05, 916.4186    , 31.9006252  , 839.1598    , 2.28        , 3           , 255         , 0           , 0
-0.06520281 , -0.141118675, -9.803652   , 0.0007797726, 0.0004070271, -7.169188E-05, 0.0151773887, -0.00619543763, -1.45722406E-05, 916.4186    , 31.9006252  , 839.1601    , 2.29        , 3           , 255         , 0           , 0
-0.06631917 , -0.145933911, -9.803464   , 6.38439742E-05, 0.000596972939, 0.000133356167, 0.0151780182, -0.006189489, -1.31482393E-05, 916.4186    , 31.9006252  , 839.160461  , 2.3         , 3           , 255         , 0           , 0
-0.0724024  , -0.148832709, -9.80104351 , 0.0003020536, 0.000173887966, -7.11813263E-05, 0.0151811847, -0.00618406 , -1.383445E-05, 916.4186    , 31.9006252  , 839.1845    , 2.31        , 3           , 255         , 0           , 0
-0.05649372 , -0.14379482 , -9.799921   , 0.0002608824, 0.000279065775, 1.37805255E-05, 0.0151837924, -0.00618127175, -1.3654294E-05, 916.4186    , 31.9006252  , 839.185     , 2.32        , 3           , 255         , 0           , 0
-0.0614377074, -0.153584287, -9.80734    , -0.000155238391, -1.37533962E-05, 0.000199748873, 0.0151822269, -0.00618144 , -1.16591336E-05, 916.497437  , 31.9030533  , 839.1855    , 2.33        , 3           , 255         , 0           , 0
-0.06430639 , -0.1443177  , -9.80179    , 0.000394576025, 0.000278019434, -0.0006116601, 0.0151862092, -0.00617856672, -1.77327747E-05, 916.497437  , 31.9030533  , 839.186     , 2.34        , 3           , 255         , 0           , 0
-0.06727867 , -0.1546636  , -9.793341   , -0.000271648227, 3.58829E-05 , 0.0003035128, 0.0151834739, -0.006178254, -1.4692564E-05, 916.497437  , 31.9030533  , 839.186462  , 2.35        , 3           , 255         , 0           , 0
-0.0608789548, -0.155622035, -9.794949   , 0.000123774254, -0.000592482334, 0.0001389781, 0.0151847042, -0.00618419936, -1.3392897E-05, 916.497437  , 31.9030533  , 839.186951  , 2.36        , 3           , 255         , 0           , 0
-0.051617492, -0.154815689, -9.804451   , 0.000291008066, 0.000341066479, 0.000101712016, 0.0151876062, -0.00618080469, -1.2324107E-05, 916.497437  , 31.9030533  , 839.187439  , 2.37        , 3           , 255         , 0           , 0
-0.06448151 , -0.153311208, -9.807384   , 3.962023E-05, 0.000723885954, 0.000113979047, 0.0151879946, -0.00617358368, -1.10745141E-05, 916.497437  , 31.9030533  , 839.1879    , 2.38        , 3           , 255         , 0           , 0
-0.0598894879, -0.151874408, -9.801047   , 0.000568179064, 0.000787533063, 0.0004873712, 0.0151936458, -0.006165785, -6.08176424E-06, 916.497437  , 31.9030533  , 839.1884    , 2.39        , 3           , 255         , 0           , 0
-0.063243784, -0.141730845, -9.800485   , 0.000182431933, 0.000527724565, 0.0008580016, 0.0151954172, -0.006160638, 2.577386E-06, 916.497437  , 31.9030533  , 839.1889    , 2.4         , 3           , 255         , 0           , 0
-0.06499549 , -0.143906042, -9.804453   , 0.000450840744, 0.000683679071, 0.000241530361, 0.0152022978, -0.00615660241, 5.081589E-06, 916.497437  , 31.9030533  , 839.1051    , 2.41        , 3           , 255         , 0           , 0
-0.06505795 , -0.148003757, -9.811594   , -0.0005718314, -0.000464315119, 9.77450254E-05, 0.0151965739, -0.006161259, 5.988354E-06, 916.497437  , 31.9030533  , 839.1051    , 2.42        , 3           , 255         , 0           , 0
-0.06308288 , -0.154856771, -9.787016   , 0.0003080373, -0.0003764456, 0.0004044549, 0.01519963  , -0.00616508443, 9.975196E-06, 916.469543  , 31.90184    , 839.1051    , 2.43        , 3           , 255         , 0           , 0
-0.07223527 , -0.156030729, -9.796959   , 0.000160699768, -0.0003458676, -9.972507E-05, 0.0152012426, -0.006168528, 8.9255E-06  , 916.469543  , 31.90184    , 839.1051    , 2.44        , 3           , 255         , 0           , 0
-0.0674298853, -0.146233231, -9.804009   , 0.00052589277, 0.0003706681, 0.000233680126, 0.0152064851, -0.00616485672, 1.13183678E-05, 916.469543  , 31.90184    , 839.1051    , 2.45        , 3           , 255         , 0           , 0
-0.0536695346, -0.146218941, -9.799425   , -0.000202947762, 3.62410938E-05, -0.00070558727, 0.0152044995, -0.00616438733, 4.26886345E-06, 916.469543  , 31.90184    , 839.1051    , 2.46        , 3           , 255         , 0           , 0
-0.0559467673, -0.148016974, -9.793337   , 0.000112980779, -0.0007546744, 0.00014100915, 0.0152056217, -0.006171955, 5.5640453E-06, 916.469543  , 31.90184    , 839.1051    , 2.47        , 3           , 255         , 0           , 0
-0.0574058071, -0.147172555, -9.802515   , 0.0006525671, 0.000366200344, 0.000454903755, 0.0152121177, -0.00616836268, 1.01682317E-05, 916.469543  , 31.90184    , 839.1051    , 2.48        , 3           , 255         , 0           , 0
-0.0646553859, -0.14807798 , -9.7976265  , -0.000828611141, 0.000411685032, -3.53463765E-05, 0.0152038317, -0.00616424158, 9.877415E-06, 916.469543  , 31.90184    , 839.1051    , 2.49        , 3           , 255         , 0           , 0
-0.06784642 , -0.1488567  , -9.803172   , -0.000372342649, 0.000130701432, -0.0006475803, 0.0152001483, -0.006162836, 3.42227145E-06, 916.469543  , 31.90184    , 839.1051    , 2.5         , 3           , 255         , 0           , 0
-0.06874831 , -0.155784532, -9.804378   , -0.0006132658, -0.0002041009, 0.000363209081, 0.0151935071, -0.00616982626, 7.02591524E-06, 916.469543  , 31.90184    , 839.0689    , 2.51        , 3           , 255         , 0           , 0
-0.05954505 , -0.145988092, -9.805365   , 0.000296045124, -0.0004458035, -0.000124417944, 0.0151964752, -0.006174265, 5.71415831E-06, 916.469543  , 31.90184    , 839.068665  , 2.52        , 3           , 255         , 0           , 0
-0.06674901 , -0.149812579, -9.807943   , 0.0008588187, -9.451602E-05, -0.0004586743, 0.0152050918, -0.00617514132, 1.11359918E-06, 916.441956  , 31.901638   , 839.0684    , 2.53        , 3           , 255         , 0           , 0
-0.0749813  , -0.146382779, -9.808205   , 0.000890435243, 0.000444440666, -0.0005437595, 0.01521403  , -0.00617061369, -4.25574171E-06, 916.441956  , 31.901638   , 839.0682    , 2.54        , 3           , 255         , 0           , 0
-0.06928347 , -0.146577761, -9.799492   , 2.87942148E-05, -0.0003004766, -7.178666E-05, 0.0152143212, -0.00617360743, -5.01923E-06, 916.441956  , 31.901638   , 839.067932  , 2.55        , 3           , 255         , 0           , 0
-0.0635814443, -0.144553035, -9.794136   , 0.000261656154, -0.000528665, 0.000118691067, 0.01521693  , -0.00617891131, -3.912903E-06, 916.441956  , 31.901638   , 839.0677    , 2.56        , 3           , 255         , 0           , 0
-0.07119088 , -0.157890826, -9.797173   , -0.000418798329, -0.000474805682, -0.0012992241, 0.0152128227, -0.00618346268, -1.69758041E-05, 916.441956  , 31.901638   , 839.067444  , 2.57        , 3           , 255         , 0           , 0
-0.05868884 , -0.152569175, -9.799166   , -0.000159175077, -0.000343629275, -0.000279398984, 0.0152112478, -0.006186856, -1.98217222E-05, 916.441956  , 31.901638   , 839.0672    , 2.58        , 3           , 255         , 0           , 0
-0.05842445 , -0.150654584, -9.800458   , 0.0005193679, -0.000645119464, -5.83030051E-05, 0.0152164446, -0.00619329652, -2.05028209E-05, 916.441956  , 31.901638   , 839.066956  , 2.59        , 3           , 255         , 0           , 0
-0.06220744 , -0.145353988, -9.79892349 , 0.000115451512, -0.0004458462, 0.000325277535, 0.01521758  , -0.006197804, -1.73182889E-05, 916.441956  , 31.901638   , 839.0668    , 2.6         , 3           , 255         , 0           , 0
-0.0612437241, -0.152475312, -9.80504    , 7.41447E-06 , 0.000405172759, 9.865602E-05, 0.0152183259, -0.00620152755, -1.62744072E-05, 916.441956  , 31.901638   , 839.0729    , 2.61        , 3           , 255         , 0           , 0
-0.065443024, -0.145479053, -9.817446   , -0.0005079614, 0.000259232067, 0.000122979414, 0.0152132409, -0.006198954, -1.50053174E-05, 916.441956  , 31.901638   , 839.0727    , 2.62        , 3           , 255         , 0           , 0
-0.06954536 , -0.142231911, -9.819706   , 4.836689E-05, -0.000613427255, -0.000325281319, 0.0152137447, -0.0062050377, -1.83510565E-05, 916.482056  , 31.9039974  , 839.0725    , 2.63        , 3           , 255         , 0           , 0
-0.06786271 , -0.1476308  , -9.805622   , -0.000174248562, -0.000375805248, 2.04213284E-05, 0.015212    , -0.00620879838, -1.82040367E-05, 916.482056  , 31.9039974  , 839.0723    , 2.64        , 3           , 255         , 0           , 0
-0.059782438, -0.150210291, -9.798353   , -2.14688625E-05, 0.00014513536, 0.000132980058, 0.0152117778, -0.00620736741, -1.68523165E-05, 916.482056  , 31.9039974  , 839.072144  , 2.65        , 3           , 255         , 0           , 0
-0.0528819859, -0.151693091, -9.807282   , -0.000360553357, 9.480845E-06, 3.705275E-05, 0.0152081707, -0.006207278, -1.64803951E-05, 916.482056  , 31.9039974  , 839.07196   , 2.66        , 3           , 255         , 0           , 0
-0.0597811453, -0.1549729  , -9.80948448 , 0.0007496512, -0.000212263723, 0.0002208316, 0.015215653 , -0.006209434, -1.43046336E-05, 916.482056  , 31.9039974  , 839.071838  , 2.67        , 3           , 255         , 0           , 0
-0.05506293 , -0.153444692, -9.802403   , 0.0004914907, -8.542358E-05, 0.000465404766, 0.0152205387, -0.006210358, -9.664146E-06, 916.482056  , 31.9039974  , 839.0717    , 2.68        , 3           , 255         , 0           , 0
-0.0528341532, -0.149858147, -9.799002   , 0.000318381615, -0.00037303823, 0.000280618 , 0.0152237043, -0.00621413067, -6.915091E-06, 916.482056  , 31.9039974  , 839.0716    , 2.69        , 3           , 255         , 0           , 0
-0.0620070621, -0.148719043, -9.799784   , -0.000487066485, 0.0002226486, -9.967825E-05, 0.015218839 , -0.00621188944, -7.87786848E-06, 916.482056  , 31.9039974  , 839.0715    , 2.7         , 3           , 255         , 0           , 0
-0.0613594875, -0.149781466, -9.797554   , -0.000186871635, 0.0008362357, 0.000285195856, 0.0152175864, -0.006203258, -4.90294042E-06, 916.482056  , 31.9039974  , 839.0218    , 2.71        , 3           , 255         , 0           , 0
-0.0571373776, -0.151600391, -9.80627    , -0.0001599487, 0.000556878629, 0.0007506112, 0.0152159408, -0.00619780365, 2.68699023E-06, 916.482056  , 31.9039974  , 839.021362  , 2.72        , 3           , 255         , 0           , 0
-0.05845831 , -0.144522518, -9.787732   , 0.0005862629, -7.258196E-05, 0.000313158234, 0.0152217858, -0.00619857758, 5.807141E-06, 916.450745  , 31.9039974  , 839.020935  , 2.73        , 3           , 255         , 0           , 0
-0.0625949651, -0.149497256, -9.808954   , 0.000108395674, 0.000162173892, -8.544917E-06, 0.0152228689, -0.00619695475, 5.7463817E-06, 916.450745  , 31.9039974  , 839.0205    , 2.74        , 3           , 255         , 0           , 0
-0.05749332 , -0.152403727, -9.800913   , 0.000374228461, 5.5516135E-05, -4.80574E-05, 0.0152266128, -0.00619639223, 5.27431939E-06, 916.450745  , 31.9039974  , 839.0201    , 2.75        , 3           , 255         , 0           , 0
-0.0551016442, -0.154298633, -9.796841   , 0.0004028005, 0.0008152715, 0.00095899764, 0.0152305821, -0.00618838845, 1.49872776E-05, 916.450745  , 31.9039974  , 839.019653  , 2.76        , 3           , 255         , 0           , 0
-0.05300052 , -0.15333578 , -9.801018   , 0.000396894728, 0.0004655875, 0.0006517791, 0.0152345086, -0.00618383149, 2.15751879E-05, 916.450745  , 31.9039974  , 839.0192    , 2.77        , 3           , 255         , 0           , 0
-0.0542271622, -0.155122563, -9.802635   , 0.000333137315, -0.000430604152, 0.000423049525, 0.0152378157, -0.006188202, 2.57395568E-05, 916.450745  , 31.9039974  , 839.0188    , 2.78        , 3           , 255         , 0           , 0
-0.0514418  , -0.154928371, -9.80054    , 0.0002939522, 6.35049E-05 , -0.0001316911, 0.0152407615, -0.006187547, 2.44324856E-05, 916.450745  , 31.9039974  , 839.0184    , 2.79        , 3           , 255         , 0           , 0
-0.0496372059, -0.144919381, -9.803371   , 0.000139692289, -0.000251660065, -0.000176807021, 0.01524217  , -0.00619003549, 2.262627E-05, 916.450745  , 31.9039974  , 839.017944  , 2.8         , 3           , 255         , 0           , 0
-0.0542466156, -0.148851842, -9.800712   , 0.000425451522, -0.000109094552, 2.523803E-05, 0.0152493846, -0.00618346641, 2.284367E-05, 916.450745  , 31.9039974  , 839.019     , 2.81        , 3           , 255         , 0           , 0
-0.0644004345, -0.145006165, -9.808647   , 0.000405108847, -0.0007806023, 0.000173073131, 0.0152534256, -0.00619129837, 2.445515E-05, 916.450745  , 31.9039974  , 839.018555  , 2.82        , 3           , 255         , 0           , 0
-0.06450776 , -0.139260218, -9.793934   , 0.0005544588, -0.0006929744, 0.0005909888, 0.0152589316, -0.006198317, 3.02586068E-05, 916.461243  , 31.9034576  , 839.0181    , 2.83        , 3           , 255         , 0           , 0
-0.06578891 , -0.135593146, -9.800636   , 0.0007257302, -0.0004269879, 0.000255415 , 0.0152661717, -0.00620262465, 3.274728E-05, 916.461243  , 31.9034576  , 839.0177    , 2.84        , 3           , 255         , 0           , 0
-0.06942268 , -0.143611833, -9.803438   , 0.000511816761, -0.000338829617, -0.000342065527, 0.0152713116, -0.00620596 , 2.92753048E-05, 916.461243  , 31.9034576  , 839.0173    , 2.85        , 3           , 255         , 0           , 0
-0.06538018 , -0.14269495 , -9.802526   , -0.000268875883, 8.537558E-05, 0.000236849 , 0.015268608 , -0.006205143, 3.1656542E-05, 916.461243  , 31.9034576  , 839.016846  , 2.86        , 3           , 255         , 0           , 0
-0.05773425 , -0.1457084  , -9.802209   , 0.000536919 , -9.674159E-05, -3.24138455E-05, 0.0152739789, -0.00620610546, 3.13176533E-05, 916.461243  , 31.9034576  , 839.0164    , 2.87        , 3           , 255         , 0           , 0
-0.0588400774, -0.144463211, -9.802259   , 4.610026E-05, -0.0008571752, 0.000227704222, 0.015274426 , -0.006214711, 3.34635079E-05, 916.461243  , 31.9034576  , 839.016     , 2.88        , 3           , 255         , 0           , 0
-0.05490849 , -0.148814529, -9.809336   , 1.74934357E-05, -0.000164207, 2.28462268E-05, 0.0152745992, -0.006216356, 3.366686E-05, 916.461243  , 31.9034576  , 839.015564  , 2.89        , 3           , 255         , 0           , 0
-0.0649737  , -0.150415227, -9.794402   , -0.000126756175, -2.556379E-05, 0.0006859737, 0.0152732888, -0.006216716, 4.052186E-05, 916.461243  , 31.9034576  , 839.015137  , 2.9         , 3           , 255         , 0           , 0
-0.05023221 , -0.15403235 , -9.799673   , -0.000230155856, 0.000196091365, 0.00109486119, 0.01526292  , -0.00621674769, 5.15488136E-05, 916.461243  , 31.9034576  , 839.0019    , 2.91        , 3           , 255         , 0           , 0
-0.04240586 , -0.146500349, -9.810308   , 0.0005075004, 0.000258115324, 0.000267068623, 0.0152679794, -0.006214207, 5.42585658E-05, 916.461243  , 31.9034576  , 839.0014    , 2.92        , 3           , 255         , 0           , 0
-0.0492761359, -0.146314144, -9.80269051 , 8.29934E-05 , 1.37218049E-05, -0.000445115962, 0.0152688371, -0.00621400168, 4.981005E-05, 916.4832    , 31.9054127  , 839.0009    , 2.93        , 3           , 255         , 0           , 0
-0.0600942448, -0.149917632, -9.801649   , 0.000230621139, 0.000400694378, 0.00040302868, 0.0152711179, -0.006210057, 5.39010252E-05, 916.4832    , 31.9054127  , 839.0004    , 2.94        , 3           , 255         , 0           , 0
-0.05652826 , -0.14862439 , -9.799841   , 0.0007047275, 0.000281365123, 0.0002937587, 0.0152781466, -0.00620728871, 5.6881232E-05, 916.4832    , 31.9054127  , 838.999939  , 2.95        , 3           , 255         , 0           , 0
-0.0534358136, -0.151357919, -9.799684   , 0.00022471245, 0.000418407231, 0.000312088785, 0.0152803743, -0.00620315224, 6.00656567E-05, 916.4832    , 31.9054127  , 838.999451  , 2.96        , 3           , 255         , 0           , 0
-0.04802545 , -0.154401511, -9.80522    , 0.0003856702, -0.000273200159, 9.232844E-05, 0.0152842244, -0.00620589824, 6.09470771E-05, 916.4832    , 31.9054127  , 838.998962  , 2.97        , 3           , 255         , 0           , 0
-0.0563800521, -0.148101062, -9.802706   , -0.000195577246, 0.000206080149, -0.000282473746, 0.0152822863, -0.006203794, 5.81541826E-05, 916.4832    , 31.9054127  , 838.9985    , 2.98        , 3           , 255         , 0           , 0
-0.06801903 , -0.147898689, -9.801844   , -0.0003051993, 0.00013453656, -0.000240984518, 0.01527925  , -0.00620241137, 5.57651947E-05, 916.4832    , 31.9054127  , 838.998     , 2.99        , 3           , 255         , 0           , 0
-0.06076608 , -0.151913315, -9.800676   , -0.000179763039, 0.000450855645, -0.0001842257, 0.0152774639, -0.006197875, 5.399205E-05, 916.4832    , 31.9054127  , 838.9975    , 3           , 3           , 0           , 8.485236    , 300
-0.0684157759, -0.15479964 , -9.786901   , -0.000604732, 3.052628E-05, 0.0002499919, 0.015271632 , -0.00618831348, 5.64948969E-05, 916.4832    , 31.9054127  , 838.9558    , 3.01        , 3           , 1           , 0           , 0
-0.0584591031, -0.1425996  , -9.81029    , -0.000458114344, 0.000156100054, 0.000725056 , 0.0152670052, -0.00618686341, 6.37684061E-05, 916.4832    , 31.9054127  , 838.9551    , 3.02        , 3           , 2           , 0           , 0
-0.0577651635, -0.145746827, -9.792656   , -0.000436366419, -0.0003944816, 0.0007233747, 0.0152625972, -0.00619092 , 7.094105E-05, 916.460938  , 31.905817   , 838.954346  , 3.03        , 3           , 3           , 0           , 0
-0.0631887242, -0.143212885, -9.808185   , 0.000175707391, -9.099467E-06, 0.0005262949, 0.0152643239, -0.00619109 , 7.62019554E-05, 916.460938  , 31.905817   , 838.9536    , 3.04        , 3           , 4           , 0           , 0
-0.06501643 , -0.159494832, -9.794428   , 0.000170833373, 0.00037082113, 0.0003867934, 0.0152660068, -0.006187442, 8.01260248E-05, 916.460938  , 31.905817   , 838.9529    , 3.05        , 3           , 5           , 0           , 0
-0.05841341 , -0.162316129, -9.795565   , -3.71697533E-05, 0.000425715931, 0.00046969502, 0.0152656063, -0.00618325733, 8.488738E-05, 916.460938  , 31.905817   , 838.952148  , 3.06        , 3           , 6           , 0           , 0
-0.0515003875, -0.14631471 , -9.800891   , 0.000132870424, 0.000218059839, -0.000786166231, 0.0152669838, -0.00618095743, 7.705997E-05, 916.460938  , 31.905817   , 838.9514    , 3.07        , 3           , 7           , 0           , 0
-0.04844286 , -0.152772576, -9.801559   , -0.000595335, 0.000136798553, 0.000302265049, 0.0152610121, -0.006179635, 8.01031347E-05, 916.460938  , 31.905817   , 838.9507    , 3.08        , 3           , 8           , 5           , 5
-0.05359093 , -0.155220419, -9.802783   , -0.000381249381, 0.0003425576, -1.05715117E-05, 0.0152572   , -0.006176208, 8.00497E-05 , 916.460938  , 31.905817   , 838.95      , 3.09        , 3           , 9           , 5           , 0.1
-0.0435341634, -0.154342219, -9.799582   , 0.000261043257, 0.000193119675, 0.000127822073, 0.0152598033, -0.006174297, 8.1357226E-05, 916.460938  , 31.905817   , 838.949341  , 3.1         , 3           , 10          , 0.1         , 0.1
-0.0434282832, -0.147088379, -9.796385   , 0.000406732521, 0.000108746121, 8.093675E-05, 0.0152673246, -0.006166869, 8.216174E-05, 916.460938  , 31.905817   , 838.946     , 3.11        , 3           , 11          , 0.00828904752, 0.008289045
-0.05500363 , -0.148042783, -9.807768   , 0.0001587315, -0.000110812151, -0.000229420111, 0.0152689265, -0.00616794173, 7.98509063E-05, 916.460938  , 31.905817   , 838.945251  , 3.12        , 3           , 12          , 0.174645633 , 0
-0.06069824 , -0.150981426, -9.809871   , -0.000291047851, -0.000296947779, -0.0002673089, 0.0152660329, -0.00617087 , 7.713281E-05, 916.4704    , 31.9039288  , 838.9445    , 3.13        , 3           , 13          , 0           , 0
-0.06192998 , -0.157650262, -9.808728   , -0.000136600531, 7.032645E-05, -0.00040922375, 0.0152646927, -0.00617010426, 7.305181E-05, 916.4704    , 31.9039288  , 838.9438    , 3.14        , 3           , 14          , 1.02428594E-05, 7.354493E-06
-0.0605950765, -0.155786276, -9.800871   , 0.000108778186, 0.000167729668, -0.00031678332, 0.0152657991, -0.006168379, 6.990998E-05, 916.4704    , 31.9039288  , 838.9431    , 3.15        , 3           , 15          , 0           , 5.238407E-05
-0.06324196 , -0.149705216, -9.79809952 , -0.000184974735, 0.000104743463, 0.000462737778, 0.0152639206, -0.006167402, 7.4552765E-05, 916.4704    , 31.9039288  , 838.942444  , 3.16        , 3           , 16          , 0           , 1.401298E-45
-0.06243202 , -0.148933738, -9.799638   , -0.000309371564, 0.000190176652, -0.000205474149, 0.01526084  , -0.006165469, 7.25273E-05 , 916.4704    , 31.9039288  , 838.9418    , 3.17        , 3           , 20          , 0           , 0
-0.06639592 , -0.150212958, -9.805207   , -0.00012058334, -0.0004365343, 0.000131270761, 0.0152596273, -0.00616985373, 7.377323E-05, 916.4704    , 31.9039288  , 838.9411    , 3.18        , 3           , 21          , 0           , 0
-0.0651198253, -0.149624556, -9.805684   , -0.000581425265, -0.0002092412, 0.000351554743, 0.0152537907, -0.006172001, 7.72564163E-05, 916.4704    , 31.9039288  , 838.9404    , 3.19        , 3           , 22          , 0           , 0
-0.06434516 , -0.15112    , -9.80545    , 0.000425760983, 0.000429572654, -0.00017211643, 0.015258057 , -0.00616767863, 7.560101E-05, 916.4704    , 31.9039288  , 838.939758  , 3.2         , 3           , 40          , 0           , 0
-0.0600900576, -0.1507838  , -9.80333    , 5.35475519E-05, 0.000353533484, -0.00020208479, 0.0152602792, -0.006163887, 7.362403E-05, 916.4704    , 31.9039288  , 838.9246    , 3.21        , 3           , 41          , 0           , 0
-0.06475228 , -0.149746656, -9.80898    , -0.0004338369, 0.000147304891, 0.000221300783, 0.015255928 , -0.00616244832, 7.585925E-05, 916.4704    , 31.9039288  , 838.9238    , 3.22        , 3           , 42          , 0           , 0
-0.05253725 , -0.149452642, -9.806652   , 8.904166E-05, -0.000228741628, -9.114637E-05, 0.015256823 , -0.00616472168, 7.491301E-05, 916.452     , 31.9058838  , 838.923035  , 3.23        , 3           , 255         , 0           , 0
-0.0588025935, -0.14118287 , -9.80516052 , 0.000354690856, -0.000497329165, -0.000145028054, 0.01526038  , -0.006169672, 7.33870256E-05, 916.452     , 31.9058838  , 838.922241  , 3.24        , 3           , 255         , 0           , 0
-0.0624753833, -0.144425482, -9.802401   , 0.0009069917, -0.0006992681, -0.000149344443, 0.0152694592, -0.00617664168, 7.178703E-05, 916.452     , 31.9058838  , 838.921448  , 3.25        , 3           , 255         , 0           , 0
-0.06695893 , -0.14775613 , -9.790721   , 0.0006485075, 4.822546E-06, -0.000307433074, 0.0152759627, -0.00617654575, 6.871382E-05, 916.452     , 31.9058838  , 838.920654  , 3.26        , 3           , 255         , 0           , 0
-0.0607084259, -0.147921234, -9.791449   , 0.000188647464, -0.00045124875, -0.000426654675, 0.0152778756, -0.00618099235, 6.437885E-05, 916.452     , 31.9058838  , 838.9199    , 3.27        , 3           , 255         , 0           , 0
-0.0616516843, -0.144845977, -9.800929   , -0.0002410871, -0.000317985483, 0.0003357941, 0.015275442 , -0.00618422264, 6.76878044E-05, 916.452     , 31.9058838  , 838.9192    , 3.28        , 3           , 255         , 0           , 0
-0.0686155  , -0.14696005 , -9.801876   , -0.00010928636, 0.000370528374, -0.0005607748, 0.015274385 , -0.006180431, 6.213733E-05, 916.452     , 31.9058838  , 838.918457  , 3.29        , 3           , 255         , 0           , 0
-0.05959628 , -0.141958445, -9.802877   , 0.000148825042, 1.89965631E-05, -0.00082944613, 0.0152759254, -0.00618011458, 5.384679E-05, 916.452     , 31.9058838  , 838.9177    , 3.3         , 3           , 255         , 0           , 0
-0.0600215569, -0.146636128, -9.798311   , 0.000446941733, -1.27189032E-05, -0.000307685434, 0.0152758071, -0.00618180353, 5.07968434E-05, 916.452     , 31.9058838  , 838.932068  , 3.31        , 3           , 255         , 0           , 0
-0.0578993745, -0.146181822, -9.788916   , 0.000376548967, 0.00027714172, -0.000156083144, 0.0152795818, -0.006179008, 4.927854E-05, 916.452     , 31.9058838  , 838.9314    , 3.32        , 3           , 255         , 0           , 0
-0.06191089 , -0.149759442, -9.800051   , 0.000441895885, -2.802908E-05, 0.000380385085, 0.0152839758, -0.0061793467, 5.307764E-05, 916.447266  , 31.9022446  , 838.9307    , 3.33        , 3           , 255         , 0           , 0
-0.05783547 , -0.14922139 , -9.801172   , 0.000688364729, -0.000271692057, 0.000296032085, 0.0152908405, -0.006182109, 5.59960645E-05, 916.447266  , 31.9022446  , 838.930054  , 3.34        , 3           , 255         , 0           , 0
-0.06319793 , -0.152023911, -9.803069   , -0.000161271353, -0.000121994686, 3.4739347E-05, 0.0152892256, -0.006183334, 5.63247559E-05, 916.447266  , 31.9022446  , 838.9294    , 3.35        , 3           , 255         , 0           , 0
-0.0607057326, -0.153366163, -9.810148   , -0.00017778344, 8.406009E-05, -0.000130981076, 0.0152874561, -0.006182473, 5.502796E-05, 916.447266  , 31.9022446  , 838.9287    , 3.36        , 3           , 255         , 0           , 0
-0.0545947179, -0.148268178, -9.806053   , -3.58070884E-06, -0.0002741717, -3.36007652E-05, 0.0152874226, -0.00618520938, 5.46500778E-05, 916.447266  , 31.9022446  , 838.92804   , 3.37        , 3           , 255         , 0           , 0
-0.05783952 , -0.148919672, -9.801766   , -0.000742864446, -0.000735013338, 0.000221910348, 0.0152799822, -0.006192591, 5.67565767E-05, 916.447266  , 31.9022446  , 838.9274    , 3.38        , 3           , 255         , 0           , 0
-0.06130751 , -0.145479828, -9.799723   , -0.0004589632, 0.000160226919, -0.00022439 , 0.0152754067, -0.006190957, 5.45374169E-05, 916.447266  , 31.9022446  , 838.9268    , 3.39        , 3           , 255         , 0           , 0
-0.0616652854, -0.151356652, -9.797063   , 0.000456829875, 0.0002023012, 0.000145036567, 0.0152799655, -0.006188956, 5.60185072E-05, 916.447266  , 31.9022446  , 838.9262    , 3.4         , 3           , 255         , 0           , 0
-0.056651812, -0.15298    , -9.798251   , 0.000449133717, 9.424507E-05, 0.000118595955, 0.0152833369, -0.006186673, 5.72255849E-05, 916.447266  , 31.9022446  , 838.9463    , 3.41        , 3           , 255         , 0           , 0
-0.0616356954, -0.153783828, -9.802648   , -0.00015456781, 8.740408E-05, -0.00057771866, 0.0152818281, -0.00618571043, 5.14624626E-05, 916.447266  , 31.9022446  , 838.9458    , 3.42        , 3           , 255         , 0           , 0
-0.0586170033, -0.14459911 , -9.806878   , -0.000395475538, 0.000269955461, -0.0008870793, 0.0152779287, -0.00618287642, 4.26340048E-05, 916.449341  , 31.9049416  , 838.9453    , 3.43        , 3           , 255         , 0           , 0
-0.06003461 , -0.148528725, -9.79987    , -8.892136E-05, -0.000170163621, -6.741844E-05, 0.0152770421, -0.00618456677, 4.19339121E-05, 916.449341  , 31.9049416  , 838.9448    , 3.44        , 3           , 255         , 0           , 0
-0.0609502  , -0.1505516  , -9.798304   , 0.000316826656, -2.643283E-05, 0.0003852149, 0.0152801862, -0.00618489 , 4.578155E-05, 916.449341  , 31.9049416  , 838.944336  , 3.45        , 3           , 255         , 0           , 0
-0.05813558 , -0.155866876, -9.79442    , 0.0004379109, -0.000279560336, -0.000206386147, 0.0152845783, -0.006187654, 4.36752125E-05, 916.449341  , 31.9049416  , 838.943848  , 3.46        , 3           , 255         , 0           , 0
-0.0603985563, -0.1509295  , -9.804991   , -0.000181052063, -0.000282269, -9.24316846E-05, 0.0152827734, -0.00619046157, 4.27078776E-05, 916.449341  , 31.9049416  , 838.943359  , 3.47        , 3           , 255         , 0           , 0
-0.0696208552, -0.148765832, -9.802656   , -0.0004101124, 0.000141434284, 0.00017731938, 0.0152786626, -0.00618907437, 4.45024561E-05, 916.449341  , 31.9049416  , 838.9429    , 3.48        , 3           , 255         , 0           , 0
-0.0646054745, -0.153591722, -9.807665   , -0.000154338515, 0.0005034727, 0.000125589766, 0.015277111 , -0.00618405966, 4.583511E-05, 916.449341  , 31.9049416  , 838.9424    , 3.49        , 3           , 255         , 0           , 0
-0.0575189777, -0.145979077, -9.809286   , 0.00039579  , 0.000195785178, -0.000319093728, 0.01528109  , -0.006182053, 4.26744773E-05, 916.449341  , 31.9049416  , 838.9419    , 3.5         , 3           , 255         , 0           , 0
-0.05719707 , -0.139226392, -9.812015   , 0.0005806289, -0.0003291621, -0.000112761176, 0.0152879544, -0.00618557632, 4.149018E-05, 916.449341  , 31.9049416  , 838.957     , 3.51        , 3           , 255         , 0           , 0
-0.0560749657, -0.141349614, -9.811598   , 0.00141208642, -0.0007141696, 4.15224349E-07, 0.015302076 , -0.0061927163, 4.1385123E-05, 916.449341  , 31.9049416  , 838.9566    , 3.52        , 3           , 255         , 0           , 0
-0.0594264679, -0.157651082, -9.793543   , 0.0006653441, -5.28783276E-05, -9.512027E-05, 0.0153087359, -0.006193231, 4.042594E-05, 916.457642  , 31.9062214  , 838.956238  , 3.53        , 3           , 255         , 0           , 0
-0.07041339 , -0.152973026, -9.796968   , 0.000214241649, -0.000114194234, -0.0003102628, 0.0153108956, -0.006194325, 3.73062176E-05, 916.457642  , 31.9062214  , 838.9559    , 3.54        , 3           , 255         , 0           , 0
-0.0732713  , -0.146632716, -9.788329   , 0.0004840262, -0.00117172522, 9.805113E-06, 0.0153157366, -0.006206042, 3.72248323E-05, 916.457642  , 31.9062214  , 838.9555    , 3.55        , 3           , 255         , 0           , 0
-0.07631087 , -0.147509   , -9.805237   , 0.0005008561, -0.0007239947, 0.000149654428, 0.015320736 , -0.00621330366, 3.86102874E-05, 916.457642  , 31.9062214  , 838.955139  , 3.56        , 3           , 255         , 0           , 0
-0.06815139 , -0.143713146, -9.803938   , -9.82741549E-05, -0.000356782315, 0.000332593219, 0.015319732 , -0.006216922, 4.18811578E-05, 916.457642  , 31.9062214  , 838.9548    , 3.57        , 3           , 255         , 0           , 0
-0.072991   , -0.149077728, -9.796335   , 0.000446946156, -0.000219824244, 0.0003852526, 0.0153241782, -0.00621917844, 4.56995222E-05, 916.457642  , 31.9062214  , 838.9544    , 3.58        , 3           , 255         , 0           , 0
-0.06959395 , -0.146119565, -9.792934   , 0.000156238108, -6.50854054E-05, 0.0007114714, 0.0153256962, -0.0062199384, 5.28033925E-05, 916.457642  , 31.9062214  , 838.954041  , 3.59        , 3           , 255         , 0           , 0
-0.06640591 , -0.150811464, -9.798599   , 0.000458460243, 0.000280515436, 0.0005647036, 0.0153302448, -0.00621722033, 5.84927329E-05, 916.457642  , 31.9062214  , 838.9537    , 3.6         , 3           , 255         , 0           , 0
-0.0701866  , -0.14844206 , -9.802636   , 0.000419190648, 0.0004068536, -0.00101896911, 0.0153306089, -0.00622233655, 4.83908661E-05, 916.457642  , 31.9062214  , 838.955     , 3.61        , 3           , 255         , 0           , 0
-0.07486262 , -0.145001963, -9.801695   , 0.000504618 , 0.000408154825, -0.000618191436, 0.015335694 , -0.0062181605, 4.22723E-05 , 916.457642  , 31.9062214  , 838.954651  , 3.62        , 3           , 255         , 0           , 0
-0.060280025, -0.14025262 , -9.803687   , 0.000126061932, 9.792031E-05, 0.000501433853, 0.0153369242, -0.00621725852, 4.73010368E-05, 916.4595    , 31.9050751  , 838.9543    , 3.63        , 3           , 255         , 0           , 0
-0.06691933 , -0.137503356, -9.796797   , 5.15374522E-05, 0.000138019328, 0.000766188139, 0.0153373908, -0.006215996, 5.4983142E-05, 916.4595    , 31.9050751  , 838.9539    , 3.64        , 3           , 255         , 0           , 0
-0.06574539 , -0.153172478, -9.803717   , -0.000332062453, 7.83990254E-05, -0.0002942294, 0.0153340874, -0.006215167, 5.2053234E-05, 916.4595    , 31.9050751  , 838.9536    , 3.65        , 3           , 255         , 0           , 0
-0.0603069849, -0.155137509, -9.79608    , 0.000279639527, -0.0003679853, 7.616362E-05, 0.01533688  , -0.006218858, 5.2758347E-05, 916.4595    , 31.9050751  , 838.9533    , 3.66        , 3           , 255         , 0           , 0
-0.0584255829, -0.1550267  , -9.801958   , 0.0006939869, -1.53066912E-06, 0.000469537452, 0.0153437881, -0.00621894561, 5.745292E-05, 916.4595    , 31.9050751  , 838.953     , 3.67        , 3           , 255         , 0           , 0
-0.06010109 , -0.154266   , -9.807192   , -0.000108267312, -0.00029153956, -4.52363056E-05, 0.0153427087, -0.00622185366, 5.69558724E-05, 916.4595    , 31.9050751  , 838.9527    , 3.68        , 3           , 255         , 0           , 0
-0.0532877631, -0.1576916  , -9.806283   , -0.00042825492, -0.0008186348, 2.59263943E-05, 0.0153384265, -0.006230043, 5.708954E-05, 916.4595    , 31.9050751  , 838.9524    , 3.69        , 3           , 255         , 0           , 0
-0.0534847379, -0.147235766, -9.809694   , 0.000233054874, -0.0006650136, 0.0006838964, 0.0153407129, -0.006236796, 6.382565E-05, 916.4595    , 31.9050751  , 838.9521    , 3.7         , 3           , 255         , 0           , 0
-0.06273458 , -0.147324562, -9.808008   , 0.000257059233, -0.000319479645, 0.00020669213, 0.0153420065, -0.006241873, 6.585119E-05, 916.4595    , 31.9050751  , 838.951355  , 3.71        , 3           , 255         , 0           , 0
-0.0621894971, -0.157107681, -9.806807   , 8.533384E-05, 0.000170675063, 0.000645529537, 0.0153428195, -0.006240265, 7.233189E-05, 916.4595    , 31.9050751  , 838.95105   , 3.72        , 3           , 255         , 0           , 0
-0.0595111661, -0.159234762, -9.803462   , 0.00070450583, -0.000284704845, 0.000446341 , 0.0153498361, -0.00624318048, 7.675107E-05, 916.4601    , 31.9062214  , 838.950745  , 3.73        , 3           , 255         , 0           , 0
-0.063075006, -0.158853292, -9.804735   , 0.0001584932, 0.000269058364, 0.000136655857, 0.0153514128, -0.00624051131, 7.8158766E-05, 916.4601    , 31.9062214  , 838.950439  , 3.74        , 3           , 255         , 0           , 0
-0.0564228073, -0.173812717, -9.792751   , 0.000190252351, 0.00040822383, -0.000351015246, 0.0153533388, -0.006236376, 7.47117E-05 , 916.4601    , 31.9062214  , 838.950134  , 3.75        , 3           , 255         , 0           , 0
-0.0503254347, -0.1546378  , -9.801653   , 0.000286831229, 0.000644774933, -0.0003065322, 0.0153562259, -0.00622988259, 7.1745766E-05, 916.4601    , 31.9062214  , 838.9498    , 3.76        , 3           , 255         , 0           , 0
-0.0598187223, -0.149826854, -9.806582   , 0.000166689511, 8.945298E-05, -0.000489027356, 0.0153579218, -0.006228912, 6.6869834E-05, 916.4601    , 31.9062214  , 838.9495    , 3.77        , 3           , 255         , 0           , 0
-0.0488008521, -0.152299836, -9.797628   , -0.000674064038, 0.000446706 , -0.000135580893, 0.01535119  , -0.00622442458, 6.55827753E-05, 916.4601    , 31.9062214  , 838.9492    , 3.78        , 3           , 255         , 0           , 0
-0.0532967448, -0.151184469, -9.803314   , 0.0001384943, 0.000668168766, 0.000181574127, 0.0153525649, -0.006217772, 6.750085E-05, 916.4601    , 31.9062214  , 838.9489    , 3.79        , 3           , 255         , 0           , 0
-0.0570907667, -0.1510905  , -9.800902   , 0.000912255549, 7.47177E-05 , -0.000119946992, 0.0153616946, -0.006217008, 6.631298E-05, 916.4601    , 31.9062214  , 838.9486    , 3.8         , 3           , 255         , 0           , 0
-0.05992356 , -0.154452562, -9.803392   , -0.000277215731, 0.00031881727, -0.000246357871, 0.0153654963, -0.00620878953, 6.385796E-05, 916.4601    , 31.9062214  , 838.947632  , 3.81        , 3           , 255         , 0           , 0
-0.07023412 , -0.154019475, -9.805393   , -0.000221310067, 0.0003125967, 0.0005811477, 0.0153632481, -0.006205753, 6.97167343E-05, 916.4601    , 31.9062214  , 838.9473    , 3.82        , 3           , 255         , 0           , 0
-0.06360105 , -0.141501337, -9.812179   , -0.000413326372, 0.000404234219, 0.0004124057, 0.0153590878, -0.00620177435, 7.39023744E-05, 916.429932  , 31.9063568  , 838.947     , 3.83        , 3           , 255         , 0           , 0
-0.0654177442, -0.133009151, -9.804416   , 0.0003520772, 0.0005560978, 2.08800484E-05, 0.0153626082, -0.00619621761, 7.41965559E-05, 916.429932  , 31.9063568  , 838.9467    , 3.84        , 3           , 255         , 0           , 0
-0.06540563 , -0.1361455  , -9.800471   , 0.000195360233, -6.440011E-05, 0.000267127936, 0.0153645454, -0.0061969026, 7.685761E-05, 916.429932  , 31.9063568  , 838.9464    , 3.85        , 3           , 255         , 0           , 0
-0.06669011 , -0.1450257  , -9.803869   , -0.000292491342, -0.000135651368, 0.000211508319, 0.0153616071, -0.006198291, 7.895158E-05, 916.429932  , 31.9063568  , 838.9461    , 3.86        , 3           , 255         , 0           , 0
-0.0616226979, -0.150418162, -9.804301   , 0.000920506835, -9.105084E-05, -0.0001636653, 0.0153708216, -0.00619917642, 7.73011561E-05, 916.429932  , 31.9063568  , 838.9458    , 3.87        , 3           , 255         , 0           , 0
-0.06753987 , -0.154983073, -9.796976   , 2.22174349E-05, -0.000131478853, -0.000346296118, 0.0153710665, -0.006200438, 7.381841E-05, 916.429932  , 31.9063568  , 838.9455    , 3.88        , 3           , 255         , 0           , 0
-0.05153223 , -0.160536423, -9.801417   , -0.000366227585, 0.000404699967, 0.000368544366, 0.0153673822, -0.006196449, 7.75655863E-05, 916.429932  , 31.9063568  , 838.9452    , 3.89        , 3           , 255         , 0           , 0
-0.05759593 , -0.160536349, -9.794191   , -0.000811958, 0.0006463083, 0.000381687365, 0.0153592378, -0.006190045, 8.14812738E-05, 916.429932  , 31.9063568  , 838.944946  , 3.9         , 3           , 255         , 0           , 0
-0.0550759844, -0.155302852, -9.80979    , -0.000446593971, 0.000176123882, -0.000162604993, 0.0153527791, -0.006191099, 7.98949E-05 , 916.429932  , 31.9063568  , 838.987549  , 3.91        , 3           , 255         , 0           , 0
-0.0529047139, -0.15496096 , -9.803282   , -0.000570595264, -0.000473935, -3.617774E-05, 0.0153470747, -0.00619583251, 7.946043E-05, 916.429932  , 31.9063568  , 838.987549  , 3.92        , 3           , 255         , 0           , 0
-0.04233705 , -0.152204737, -9.791165   , -0.000471265375, -0.0002932492, 0.000549394346, 0.0153423278, -0.006198849, 8.490869E-05, 916.449158  , 31.906086   , 838.987549  , 3.93        , 3           , 255         , 0           , 0
-0.05081759 , -0.146274254, -9.799045   , -0.00097153883, -0.000274123042, 0.00133387325, 0.0153325312, -0.006201795, 9.82037163E-05, 916.449158  , 31.906086   , 838.987549  , 3.94        , 3           , 255         , 0           , 0
-0.0531254821, -0.152879477, -9.799805   , -0.000295441, 0.0002229123, 0.00064557197, 0.0153295379, -0.006199665, 0.000104692823, 916.449158  , 31.906086   , 838.987549  , 3.95        , 3           , 255         , 0           , 0
-0.06280811 , -0.151028633, -9.802931   , -0.0006005295, 8.81631859E-05, 0.000223892348, 0.0153235188, -0.006198818, 0.000106944994, 916.449158  , 31.906086   , 838.987549  , 3.96        , 3           , 255         , 0           , 0
-0.0574411936, -0.153983667, -9.80152    , 4.24645041E-05, -0.0004079139, -0.00017212909, 0.0153239546, -0.00620287 , 0.0001051614, 916.449158  , 31.906086   , 838.987549  , 3.97        , 3           , 255         , 0           , 0
-0.0589878373, -0.147936314, -9.798671   , 0.000176783375, -0.000439951138, -0.000129525884, 0.01532573  , -0.00620725 , 0.0001037989, 916.449158  , 31.906086   , 838.987549  , 3.98        , 3           , 255         , 0           , 0
-0.06386773 , -0.1522249  , -9.796629   , -0.000168662969, -4.6300338E-05, 0.000196590074, 0.01532403  , -0.006207743, 0.000105757455, 916.449158  , 31.906086   , 838.987549  , 3.99        , 3           , 255         , 0           , 0
-0.06306172 , -0.152184352, -9.803833   , -0.000122869023, -4.416859E-05, 0.000180330011, 0.0153227914, -0.006208212, 0.000107553766, 916.449158  , 31.906086   , 838.987549  , 4           , 3           , 0           , 9.485236    , 400
-0.0605712235, -0.146456257, -9.80227852 , 0.000309333554, -0.000132236048, 0.0006277141, 0.0153281176, -0.006203051, 0.000113795759, 916.449158  , 31.906086   , 838.996643  , 4.01        , 3           , 1           , 0           , 0
-0.06069513 , -0.150580585, -9.801972   , 0.000305092748, -0.000320262683, -0.000251133315, 0.0153311836, -0.00620621443, 0.000111235648, 916.449158  , 31.906086   , 838.9967    , 4.02        , 3           , 2           , 0           , 0
-0.0502842776, -0.153933942, -9.80705    , -9.50621543E-05, 0.000130111162, -4.998603E-05, 0.0153302364, -0.006204906, 0.000110755806, 916.4134    , 31.9050751  , 838.996765  , 4.03        , 3           , 3           , 0           , 0
-0.0561762042, -0.1499629  , -9.802401   , -0.000254042883, -9.79687E-05, 0.0002435587, 0.0153276809, -0.00620592246, 0.000113176073, 916.4134    , 31.9050751  , 838.9968    , 4.04        , 3           , 4           , 0           , 0
-0.06182143 , -0.150546044, -9.805438   , -0.00015792776, 0.000213779364, 0.000486319535, 0.0153260706, -0.00620385865, 0.000118071439, 916.4134    , 31.9050751  , 838.9969    , 4.05        , 3           , 5           , 0           , 0
-0.0589524321, -0.14796257 , -9.803569   , 4.02867772E-05, -7.27328952E-05, 1.813308E-05, 0.015326472 , -0.006204589, 0.000118241609, 916.4134    , 31.9050751  , 838.996948  , 4.06        , 3           , 6           , 0           , 0
-0.0538479276, -0.153253719, -9.798934   , -0.000121272853, -0.0006506706, -0.0006061929, 0.0153252995, -0.006211002, 0.000112080706, 916.4134    , 31.9050751  , 838.9971    , 4.07        , 3           , 7           , 0           , 0
-0.0546913929, -0.14446716 , -9.799733   , -0.0002736168, 0.000104504972, -0.0008657849, 0.0153226173, -0.00620982423, 0.000103439939, 916.4134    , 31.9050751  , 838.9972    , 4.08        , 3           , 8           , 5           , 5
-0.0620514639, -0.155465454, -9.790835   , -0.000122426965, 0.000184065662, -0.000257072941, 0.0153214093, -0.006207944, 0.000100897727, 916.4134    , 31.9050751  , 838.9973    , 4.09        , 3           , 9           , 5           , 0.1
-0.061321687, -0.143376   , -9.80246449 , 2.21392183E-05, 0.000295172533, -0.000116197072, 0.0153216384, -0.006204975, 9.978113E-05, 916.4134    , 31.9050751  , 838.997437  , 4.1         , 3           , 10          , 0.1         , 0.1
-0.06793916 , -0.146100536, -9.803004   , -0.000237599583, 0.000356371223, -0.000379888, 0.015318444 , -0.006197667, 9.60425241E-05, 916.4134    , 31.9050751  , 839.056458  , 4.11        , 3           , 11          , 0.00777154369, 0.00777154
-0.06879278 , -0.144232541, -9.809773   , 4.911784E-05, -0.000172456188, 8.398447E-05, 0.0153189292, -0.006199404, 9.68558452E-05, 916.4134    , 31.9050751  , 839.056946  , 4.12        , 3           , 12          , 0.174648076 , 0
-0.075115025, -0.144871339, -9.799441   , 0.000344340166, -5.365546E-05, 0.0002325053, 0.0153223583, -0.006199976, 9.917241E-05, 916.429443  , 31.9048729  , 839.057434  , 4.13        , 3           , 13          , 0           , 0
-0.0729275  , -0.1433889  , -9.793447   , -0.000322169246, -0.000220595408, -0.0005388799, 0.0153191695, -0.006202099, 9.375047E-05, 916.429443  , 31.9048729  , 839.0579    , 4.14        , 3           , 14          , 1.02504318E-05, 7.340926E-06
-0.07162766 , -0.1458227  , -9.799791   , -0.000170286366, 0.000182367454, -0.0006583012, 0.015317509 , -0.006200175, 8.719621E-05, 916.429443  , 31.9048729  , 839.0584    , 4.15        , 3           , 15          , 0           , 5.23842318E-05
-0.06644404 , -0.145327017, -9.808805   , -0.000617254351, 0.000232023522, 0.000313259952, 0.0153113184, -0.006197903, 9.036396E-05, 916.429443  , 31.9048729  , 839.0589    , 4.16        , 3           , 16          , 0           , 1.401298E-45
-0.06694676 , -0.144969419, -9.811132   , 0.000291836739, 9.549579E-05, 0.0009488746, 0.0153141767, -0.006197094, 9.986615E-05, 916.429443  , 31.9048729  , 839.0594    , 4.17        , 3           , 20          , 0           , 0
-0.0612674654, -0.147496715, -9.805304   , 0.000146503255, -0.000291294476, 0.0002815898, 0.015315624 , -0.006200049, 0.000102637088, 916.429443  , 31.9048729  , 839.0599    , 4.18        , 3           , 21          , 0           , 0
-0.06674014 , -0.150313646, -9.801989   , 0.000485037162, -0.000260438916, -0.000195540881, 0.0153204873, -0.006202623, 0.000100642021, 916.429443  , 31.9048729  , 839.060364  , 4.19        , 3           , 22          , 0           , 0
-0.06528966 , -0.15106234 , -9.79642    , 0.000122018937, 0.0004193817, 0.0003040788, 0.01532169  , -0.006198476, 0.000103746694, 916.429443  , 31.9048729  , 839.060852  , 4.2         , 3           , 40          , 0           , 0
-0.0614582  , -0.151077867, -9.799352   , 0.000111707159, 0.000384786254, 0.000423054444, 0.0153180826, -0.006203945, 0.000108064807, 916.429443  , 31.9048729  , 839.0879    , 4.21        , 3           , 41          , 0           , 0
-0.06419029 , -0.158109   , -9.798923   , -0.000497680739, 1.67202925E-05, 0.000757635746, 0.015313061 , -0.00620389357, 0.00011564279, 916.429443  , 31.9048729  , 839.088562  , 4.22        , 3           , 42          , 0           , 0
-0.06175997 , -0.156528115, -9.799278   , 0.000410938665, 8.549105E-05, 9.781277E-06, 0.015317169 , -0.00620304048, 0.00011575369, 916.494446  , 31.9052773  , 839.089233  , 4.23        , 3           , 255         , 0           , 0
-0.0555162542, -0.147424653, -9.797429   , -0.0005506937, -4.23959136E-07, -8.99475854E-05, 0.0153116668, -0.0062030307, 0.000114854272, 916.494446  , 31.9052773  , 839.0899    , 4.24        , 3           , 255         , 0           , 0
-0.058498323, -0.1511381  , -9.79776    , -6.390581E-05, -0.0005358791, -6.810069E-05, 0.0153110335, -0.006208379, 0.000114091315, 916.494446  , 31.9052773  , 839.0906    , 4.25        , 3           , 255         , 0           , 0
-0.06025831 , -0.147311628, -9.801557   , -0.000486301462, 6.79670338E-05, 6.390865E-05, 0.0153061664, -0.00620770874, 0.0001147407, 916.494446  , 31.9052773  , 839.091248  , 4.26        , 3           , 255         , 0           , 0
-0.07012513 , -0.154795572, -9.799868   , -0.0005394624, 0.000371848466, -9.203092E-05, 0.01530078  , -0.00620397832, 0.000113877417, 916.494446  , 31.9052773  , 839.0919    , 4.27        , 3           , 255         , 0           , 0
-0.06459348 , -0.15078    , -9.794441   , -0.0002530961, -0.000214843341, -0.000195093657, 0.0152982594, -0.00620609568, 0.00011189386, 916.494446  , 31.9052773  , 839.0926    , 4.28        , 3           , 255         , 0           , 0
-0.06644969 , -0.140460789, -9.802608   , -0.0008048221, -0.000253457838, 3.28305723E-05, 0.01529021  , -0.00620863447, 0.00011218337, 916.494446  , 31.9052773  , 839.093262  , 4.29        , 3           , 255         , 0           , 0
-0.0719823837, -0.149868488, -9.79781    , -4.74449871E-06, 0.000627391 , 9.27494548E-05, 0.0152901551, -0.00620237552, 0.000113206661, 916.494446  , 31.9052773  , 839.093933  , 4.3         , 3           , 255         , 0           , 0
-0.0648204163, -0.149051279, -9.803854   , 5.303238E-05, 0.000218703091, -0.000289706019, 0.01529173  , -0.00620402 , 0.000110337023, 916.494446  , 31.9052773  , 839.0238    , 4.31        , 3           , 255         , 0           , 0
-0.0606348328, -0.147345826, -9.800236   , 0.000346746325, -6.96333955E-05, -0.0001991437, 0.0152952094, -0.006204686, 0.000108335196, 916.494446  , 31.9052773  , 839.024048  , 4.32        , 3           , 255         , 0           , 0
-0.06956711 , -0.151015073, -9.794105   , 4.03396734E-05, 0.000458912429, -0.0002368005, 0.0152956275, -0.00620006165, 0.000106037653, 916.444946  , 31.90521    , 839.0243    , 4.33        , 3           , 255         , 0           , 0
-0.06292959 , -0.1512423  , -9.798742   , -6.70805E-05, 0.000192667721, -0.0006983774, 0.0152950007, -0.00619802857, 9.90842E-05 , 916.444946  , 31.90521    , 839.024536  , 4.34        , 3           , 255         , 0           , 0
-0.06597976 , -0.146785066, -9.793898   , 8.560691E-05, -5.60346161E-05, -0.0004560472, 0.0152958846, -0.006198519, 9.451573E-05, 916.444946  , 31.90521    , 839.0248    , 4.35        , 3           , 255         , 0           , 0
-0.0621455722, -0.155144751, -9.798116   , -0.000192535488, 0.000155619186, -2.61352488E-05, 0.0152939623, -0.00619695848, 9.427821E-05, 916.444946  , 31.90521    , 839.025     , 4.36        , 3           , 255         , 0           , 0
-0.0562319979, -0.155710414, -9.80164051 , 0.000186236255, 0.000392463757, 4.99275229E-05, 0.01529582  , -0.00619304227, 9.483744E-05, 916.444946  , 31.90521    , 839.025269  , 4.37        , 3           , 255         , 0           , 0
-0.05183205 , -0.154431924, -9.803891   , 0.000154735375, 0.000412379042, 4.698116E-05, 0.0152973654, -0.00618892675, 9.537028E-05, 916.444946  , 31.90521    , 839.0255    , 4.38        , 3           , 255         , 0           , 0
-0.0547240451, -0.150944591, -9.801565   , -7.9151323E-07, -4.78786342E-06, -5.035482E-05, 0.0152973616, -0.00618896727, 9.486605E-05, 916.444946  , 31.90521    , 839.025757  , 4.39        , 3           , 255         , 0           , 0
-0.06224203 , -0.152245119, -9.80331    , -0.00126702641, 2.18668047E-05, 3.14133467E-05, 0.0152846882, -0.0061887526, 9.518351E-05, 916.444946  , 31.90521    , 839.026     , 4.4         , 3           , 255         , 0           , 0
-0.06866989 , -0.151107326, -9.794289   , -4.426396E-05, -0.0001674057, 0.000569262367, 0.0152862435, -0.00619100546, 0.000100837256, 916.444946  , 31.90521    , 839.0358    , 4.41        , 3           , 255         , 0           , 0
-0.06428772 , -0.142882735, -9.804797   , 0.00102445029, -0.000458853145, 0.000603373162, 0.01529645  , -0.00619568536, 0.000106800086, 916.444946  , 31.90521    , 839.036133  , 4.42        , 3           , 255         , 0           , 0
-0.06871301 , -0.147642344, -9.790856   , -6.236037E-05, -0.000217569148, -0.000169740146, 0.0152958371, -0.006197835, 0.000105069608, 916.4142    , 31.9029865  , 839.036438  , 4.43        , 3           , 255         , 0           , 0
-0.06100901 , -0.146853775, -9.802786   , -3.50624068E-05, -0.000635994133, -0.0001759807, 0.0152954981, -0.006204167, 0.000103212747, 916.4142    , 31.9029865  , 839.036743  , 4.44        , 3           , 255         , 0           , 0
-0.06935537 , -0.146308035, -9.807535   , 4.65887242E-05, -0.000442446646, 0.0005223324, 0.015295933 , -0.006208671, 0.000108367756, 916.4142    , 31.9029865  , 839.037048  , 4.45        , 3           , 255         , 0           , 0
-0.0620111525, -0.149566248, -9.804705   , -0.0007729981, 0.000474470522, 0.0006386866, 0.015288163 , -0.006204024, 0.0001148264, 916.4142    , 31.9029865  , 839.0374    , 4.46        , 3           , 255         , 0           , 0
-0.0628996938, -0.142759874, -9.808126   , -0.00147283438, -0.000175533278, 0.000115913412, 0.0152734276, -0.00620579673, 0.000115958566, 916.4142    , 31.9029865  , 839.0378    , 4.47        , 3           , 255         , 0           , 0
-0.0576129667, -0.142501622, -9.801833   , 0.00017113825, -6.53867755E-05, -1.95082284E-05, 0.0152751394, -0.00620644726, 0.0001157535, 916.4142    , 31.9029865  , 839.038147  , 4.48        , 3           , 255         , 0           , 0
-0.0589101  , -0.1375845  , -9.805602   , 0.0005445743, 7.381605E-05, -0.000365578715, 0.0152806081, -0.006205654, 0.000112109439, 916.4142    , 31.9029865  , 839.0385    , 4.49        , 3           , 255         , 0           , 0
-0.0572572276, -0.14790912 , -9.803545   , -0.000173903245, 0.00026798  , -0.000461152027, 0.0152788972, -0.00620290358, 0.000107539432, 916.4142    , 31.9029865  , 839.0389    , 4.5         , 3           , 255         , 0           , 0
-0.06215111 , -0.145708382, -9.808162   , -0.000404054124, -0.000240625362, 0.00114943238, 0.0152693922, -0.006208186, 0.00011902905, 916.4142    , 31.9029865  , 839.0906    , 4.51        , 3           , 255         , 0           , 0
-0.0612893924, -0.148802474, -9.802092   , -0.000321959582, 2.28770514E-05, 0.000151179964, 0.0152661633, -0.00620798068, 0.000120544159, 916.4142    , 31.9029865  , 839.091248  , 4.52        , 3           , 255         , 0           , 0
-0.0583848245, -0.149992228, -9.805145   , -0.000598051236, -7.70028346E-05, -0.000372374983, 0.0152602075, -0.006208693, 0.000116809126, 916.435364  , 31.9049416  , 839.0919    , 4.53        , 3           , 255         , 0           , 0
-0.0595265627, -0.148285627, -9.814002   , -0.0005285016, -3.248314E-05, 0.000454864523, 0.0152548943, -0.006209089, 0.000121352248, 916.435364  , 31.9049416  , 839.0926    , 4.54        , 3           , 255         , 0           , 0
-0.0580834262, -0.148788288, -9.796457   , -0.0004038435, -0.0001388672, -0.0008311577, 0.0152509091, -0.00621035 , 0.0001130205, 916.435364  , 31.9049416  , 839.093262  , 4.55        , 3           , 255         , 0           , 0
-0.0590688772, -0.139991567, -9.799474   , -0.00026904195, -0.000315395882, -0.000259102933, 0.0152482344, -0.006213464, 0.00011038169, 916.435364  , 31.9049416  , 839.093933  , 4.56        , 3           , 255         , 0           , 0
-0.053033866, -0.151673645, -9.795327   , -0.0006358048, 0.0001355095, -0.000710182358, 0.0152419219, -0.00621200074, 0.000103301383, 916.435364  , 31.9049416  , 839.0946    , 4.57        , 3           , 255         , 0           , 0
-0.0530351177, -0.143315881, -9.805811   , -0.00028124245, -5.82259054E-05, 5.636285E-05, 0.0152391056, -0.00621259166, 0.000103856073, 916.435364  , 31.9049416  , 839.0953    , 4.58        , 3           , 255         , 0           , 0
-0.0573721826, -0.14685002 , -9.80335    , -0.000359636353, 3.18740422E-05, -0.000702079036, 0.0152355535, -0.006212166, 9.6840995E-05, 916.435364  , 31.9049416  , 839.095947  , 4.59        , 3           , 255         , 0           , 0
-0.0500574037, -0.143856183, -9.795469   , -0.000320771884, 0.000590627664, 4.08870619E-05, 0.0152323423, -0.006206267, 9.733979E-05, 916.435364  , 31.9049416  , 839.0966    , 4.6         , 3           , 255         , 0           , 0
-0.05727181 , -0.141412452, -9.798825   , -0.0002065329, 0.000235774089, 0.00114037318, 0.0152268559, -0.006199674, 0.00010879882, 916.435364  , 31.9049416  , 839.109741  , 4.61        , 3           , 255         , 0           , 0
-0.06808508 , -0.156051219, -9.794786   , 0.000604343542, -0.0003434783, 0.000384003477, 0.0152328759, -0.006203167, 0.000112586073, 916.435364  , 31.9049416  , 839.110535  , 4.62        , 3           , 255         , 0           , 0
-0.0615065  , -0.1501135  , -9.801822   , 0.0004449375, -0.0003266547, -0.0001138356, 0.0152373323, -0.00620641559, 0.0001113981, 916.4313    , 31.9066257  , 839.1113    , 4.63        , 3           , 255         , 0           , 0
-0.0622232556, -0.14814505 , -9.799873   , 0.0001305917, -7.7746794E-05, 0.000381904771, 0.0152386138, -0.00620725146, 0.000115204835, 916.4313    , 31.9066257  , 839.1121    , 4.64        , 3           , 255         , 0           , 0
-0.05754741 , -0.149431556, -9.802458   , -0.0008569792, 0.000252963568, 7.937709E-05, 0.0152300382, -0.00620473363, 0.000116037038, 916.4313    , 31.9066257  , 839.1129    , 4.65        , 3           , 255         , 0           , 0
-0.0596114025, -0.1460903  , -9.807227   , -0.000101342426, 3.867461E-05, 7.222479E-05, 0.0152290221, -0.006204358, 0.000116765084, 916.4313    , 31.9066257  , 839.1137    , 4.66        , 3           , 255         , 0           , 0
-0.0524934828, -0.1391063  , -9.803303   , -9.519836E-05, -3.40588267E-05, 0.000580354535, 0.015228034 , -0.00620478624, 0.000122562735, 916.4313    , 31.9066257  , 839.1145    , 4.67        , 3           , 255         , 0           , 0
-0.0439803265, -0.1498442  , -9.798863   , -0.000220978109, -0.0006293204, -0.000104410508, 0.0152258314, -0.006211063, 0.000121422927, 916.4313    , 31.9066257  , 839.1153    , 4.68        , 3           , 255         , 0           , 0
-0.05663062 , -0.156741455, -9.79891    , 0.000237058892, -0.0002839963, 0.0001709899, 0.0152281914, -0.00621392857, 0.000123089383, 916.4313    , 31.9066257  , 839.1161    , 4.69        , 3           , 255         , 0           , 0
-0.052791398, -0.151599333, -9.807058   , 0.000345543871, 0.00012024412, 0.0003679028, 0.0152316224, -0.006212781, 0.000126786283, 916.4313    , 31.9066257  , 839.1169    , 4.7         , 3           , 255         , 0           , 0
-0.05937298 , -0.1454546  , -9.809866   , 3.667542E-05, -0.00045962914, -0.0004155172, 0.0152314361, -0.00621279841, 0.0001225652, 916.4313    , 31.9066257  , 839.132935  , 4.71        , 3           , 255         , 0           , 0
-0.0556093268, -0.141278163, -9.806288   , -0.000339539431, 0.000173876135, 0.0004320023, 0.0152280144, -0.006211126, 0.000126911182, 916.4313    , 31.9066257  , 839.13385   , 4.72        , 3           , 255         , 0           , 0
-0.04847887 , -0.14918679 , -9.812244   , -0.000432923232, -0.000512925966, 0.00024244604, 0.0152236717, -0.00621629134, 0.000129257256, 916.430847  , 31.9072323  , 839.134766  , 4.73        , 3           , 255         , 0           , 0
-0.0508269779, -0.143527821, -9.812716   , 0.000527891447, 0.000170887128, 0.000127517938, 0.015228943 , -0.00621460238, 0.0001305583, 916.430847  , 31.9072323  , 839.1357    , 4.74        , 3           , 255         , 0           , 0
-0.052534543, -0.147950858, -9.805245   , 4.141152E-05, 0.000174225817, -0.000414468057, 0.0152293835, -0.006212797, 0.00012644066, 916.430847  , 31.9072323  , 839.1366    , 4.75        , 3           , 255         , 0           , 0
-0.05818062 , -0.146396786, -9.804003   , 4.732765E-07, 0.000222071729, -0.000398510718, 0.0152294124, -0.006210516, 0.000122489859, 916.430847  , 31.9072323  , 839.1375    , 4.76        , 3           , 255         , 0           , 0
-0.0613279827, -0.147405639, -9.798841   , 0.0001961347, 0.000209882652, -5.6114488E-05, 0.0152313756, -0.00620840956, 0.000121960744, 916.430847  , 31.9072323  , 839.1384    , 4.77        , 3           , 255         , 0           , 0
-0.05898291 , -0.1493314  , -9.808643   , 0.000149275031, 0.000477638 , 0.000207020654, 0.0152328555, -0.006203665, 0.000124103448, 916.430847  , 31.9072323  , 839.139343  , 4.78        , 3           , 255         , 0           , 0
-0.05685131 , -0.146999747, -9.807746   , -0.000577317842, 0.000612594362, 0.000257308478, 0.0152270654, -0.0061975806, 0.0001267695, 916.430847  , 31.9072323  , 839.140259  , 4.79        , 3           , 255         , 0           , 0
-0.0558135025, -0.146505609, -9.808876   , -0.001039828, 0.000116507508, -0.000545609859, 0.0152167026, -0.006196332, 0.0001213318, 916.430847  , 31.9072323  , 839.1412    , 4.8         , 3           , 255         , 0           , 0
-0.0556055978, -0.143188953, -9.801553   , -0.0005192687, -9.215555E-05, 0.000496855646, 0.0152085964, -0.00619232561, 0.0001263036, 916.430847  , 31.9072323  , 839.1545    , 4.81        , 3           , 255         , 0           , 0
-0.0597682968, -0.147155955, -9.804106   , -0.000113385853, -0.0002883367, 0.000537240354, 0.0152074294, -0.00619529048, 0.0001316315, 916.430847  , 31.9072323  , 839.155457  , 4.82        , 3           , 255         , 0           , 0
-0.05552534 , -0.145910472, -9.798162   , -0.00010598579, 0.000339322665, -1.6028258E-05, 0.0152063705, -0.006191895, 0.000131522829, 916.4317    , 31.9093227  , 839.156433  , 4.83        , 3           , 255         , 0           , 0
-0.05481218 , -0.140004516, -9.801361   , -0.0001633859, 0.000140899312, 0.000261022651, 0.0152047211, -0.006190526, 0.000134154165, 916.4317    , 31.9093227  , 839.1574    , 4.84        , 3           , 255         , 0           , 0
-0.055784978, -0.141152725, -9.793419   , -0.000844236638, 0.000108342836, 0.000787961064, 0.0151962293, -0.00618956331, 0.000142049292, 916.4317    , 31.9093227  , 839.158447  , 4.85        , 3           , 255         , 0           , 0
-0.07024854 , -0.1449778  , -9.799149   , 3.103428E-05, 0.000300551677, 0.000631928036, 0.0151965   , -0.006186654, 0.000148413485, 916.4317    , 31.9093227  , 839.1595    , 4.86        , 3           , 255         , 0           , 0
-0.06366059 , -0.14529103 , -9.805184   , 0.000538558641, 0.00028837283, 0.000415312767, 0.0152018582, -0.00618383335, 0.000152609937, 916.4317    , 31.9093227  , 839.1605    , 4.87        , 3           , 255         , 0           , 0
-0.06115917 , -0.149906129, -9.801      , -0.000310863, 0.0007513471, -4.6297173E-05, 0.0151987541, -0.00617631339, 0.000152261229, 916.4317    , 31.9093227  , 839.16156   , 4.88        , 3           , 255         , 0           , 0
-0.05297932 , -0.160477251, -9.803862   , -0.00020493941, 7.271571E-06, 0.0003312045, 0.0151966847, -0.00617629057, 0.000155573973, 916.4317    , 31.9093227  , 839.1626    , 4.89        , 3           , 255         , 0           , 0
-0.0469934531, -0.152378634, -9.796916   , -0.000358067948, 0.0005251304, 0.000162530821, 0.0151930936, -0.006171065, 0.00015727889, 916.4317    , 31.9093227  , 839.163635  , 4.9         , 3           , 255         , 0           , 0
-0.04889315 , -0.147098988, -9.801039   , 7.146554E-05, 0.0005704013, -0.000410483481, 0.0151913762, -0.0061614546, 0.000153276356, 916.4317    , 31.9093227  , 839.1725    , 4.91        , 3           , 255         , 0           , 0
-0.0553904064, -0.147887751, -9.810114   , -4.349877E-05, 6.252164E-05, 0.0006638513, 0.0151909   , -0.00616093026, 0.000159923555, 916.4317    , 31.9093227  , 839.1736    , 4.92        , 3           , 255         , 0           , 0
-0.06022513 , -0.153838173, -9.794841   , 0.000332134252, -0.000171022912, -0.0003242213, 0.015194241 , -0.00616259128, 0.000156655777, 916.4516    , 31.906086   , 839.1747    , 4.93        , 3           , 255         , 0           , 0
-0.0540983267, -0.148927525, -9.800005   , 9.165486E-05, -0.000307329785, -0.00125064189, 0.0151952328, -0.00616547465, 0.0001441042, 916.4516    , 31.906086   , 839.1758    , 4.94        , 3           , 255         , 0           , 0
-0.0584013164, -0.1476952  , -9.802728   , -0.0002895146, -5.438719E-06, -0.000417826959, 0.0151923662, -0.00616546534, 0.0001399256, 916.4516    , 31.906086   , 839.1769    , 4.95        , 3           , 255         , 0           , 0
-0.0615963265, -0.148067042, -9.798269   , -1.67313246E-05, -0.000187386249, -0.000330297858, 0.0151922191, -0.0061672884, 0.00013659455, 916.4516    , 31.906086   , 839.178     , 4.96        , 3           , 255         , 0           , 0
-0.06729453 , -0.151051044, -9.799014   , -0.000149632062, 6.90897941E-05, -0.000236061154, 0.0151907364, -0.006166562, 0.000134244736, 916.4516    , 31.906086   , 839.1791    , 4.97        , 3           , 255         , 0           , 0
-0.0594038367, -0.148018271, -9.802025   , 0.000243009024, 8.0316684E-05, 0.0005358283, 0.0151931336, -0.00616584066, 0.000139614553, 916.4516    , 31.906086   , 839.1802    , 4.98        , 3           , 255         , 0           , 0
-0.05304711 , -0.147669628, -9.804146   , -0.000706671854, -0.000155612433, -0.00025987337, 0.0151860826, -0.00616735639, 0.0001369925, 916.4516    , 31.906086   , 839.1813    , 4.99        , 3           , 255         , 0           , 0
-0.0483563058, -0.14804998 , -9.805437   , -0.0005141969, -0.000145525482, -0.0006413587, 0.0151809817, -0.006168714, 0.000130557615, 916.4516    , 31.906086   , 839.1824    , 5           , 3           , 0           , -1          , 500
-0.0567480735, -0.153634   , -9.804645   , 0.0006994714, -0.000202695068, 4.689051E-05, 0.0151878493, -0.00616626767, 0.000130996443, 916.4516    , 31.906086   , 839.1602    , 5.01        , 3           , 1           , 0           , 0
-0.056537848, -0.151442483, -9.80250549 , 0.000400418678, 2.46634754E-05, -0.000342889543, 0.0151918745, -0.00616596872, 0.000127571708, 916.4516    , 31.906086   , 839.1612    , 5.02        , 3           , 2           , 0           , 0
-0.05845342 , -0.150721371, -9.808186   , 0.0005095604, -0.0002517961, 9.17251746E-05, 0.0151969632, -0.00616850052, 0.000128450585, 916.433655  , 31.90865    , 839.1622    , 5.03        , 3           , 3           , 0           , 0
-0.06359317 , -0.148504645, -9.800589   , 0.0007106119, -0.000243556511, 0.000285694667, 0.0152040524, -0.006170979, 0.00013127015, 916.433655  , 31.90865    , 839.163147  , 5.04        , 3           , 4           , 0           , 0
-0.0588510633, -0.152253121, -9.802742   , 0.000254285464, -0.000558344, 1.51608947E-05, 0.015206594 , -0.00617656345, 0.000131336827, 916.433655  , 31.90865    , 839.1641    , 5.05        , 3           , 5           , 0           , 0
-0.0554313  , -0.155729324, -9.795641   , -0.000110206245, 0.000203884847, -0.0005422903, 0.0152055258, -0.006174443, 0.000125945589, 916.433655  , 31.90865    , 839.1651    , 5.06        , 3           , 6           , 0           , 0
-0.06734853 , -0.155685037, -9.794241   , -0.000228341785, -6.776786E-05, -9.61608E-05, 0.0152032468, -0.006175105, 0.0001249738, 916.433655  , 31.90865    , 839.1661    , 5.07        , 3           , 7           , 0           , 0
-0.0672453344, -0.144654468, -9.796064   , -0.000452585635, -0.000359204016, -0.0005718097, 0.0151987579, -0.00617861 , 0.000119201788, 916.433655  , 31.90865    , 839.167053  , 5.08        , 3           , 8           , 5           , 5
-0.05864074 , -0.149979919, -9.7955     , -3.36549419E-05, -0.000516817439, -0.000125431921, 0.0151984282, -0.00618375838, 0.000117869073, 916.433655  , 31.90865    , 839.168     , 5.09        , 3           , 9           , 5           , 0.1
