Acc X       , Acc Y       , Acc Z       , Gyro X      , Gyro Y      , Gyro Z      , Euler X     , Euler Y     , Euler Z     , Pres X      , Pres Y      , Pres Z      , Time        , Status      , LowRate X   , LowRate Y   , LowRate Z    
-0.07799875 , -0.114536762, -9.821688   , 0           , 0           , 0           , 0.0116610881, -0.007940775, 0           , 916.2809    , 32.1445427  , 840.5668    , 0           , 2           , 0           , 5.50123167  , 0
-0.08626079 , -0.115793921, -9.805979   , 0.000368557725, -0.000416850031, -1.50485139E-05, 0.0116647687, -0.007945167, -1.99091048E-07, 916.2809    , 32.1445427  , 840.5668    , 0.01        , 3           , 1           , 0           , 0
-0.07661333 , -0.108817622, -9.81717    , -3.79015655E-05, -4.02483856E-05, 6.824666E-05, 0.011664384 , -0.007945577, 4.786385E-07, 916.2809    , 32.1445427  , 840.5668    , 0.02        , 3           , 2           , 0           , 0
-0.08074314 , -0.113243259, -9.798775   , -0.000426137471, 0.000453712128, 0.000300203683, 0.011660099 , -0.007941076, 3.53341125E-06, 916.2685    , 31.703228   , 840.5668    , 0.03        , 3           , 3           , 0           , 0
-0.07244073 , -0.119228706, -9.804304   , -0.000346528424, 7.5425487E-07, -2.83873451E-05, 0.0116566354, -0.007941064, 3.24964344E-06, 916.2685    , 31.703228   , 840.5668    , 0.04        , 3           , 4           , 0           , 0
-0.0717417151, -0.109629668, -9.814181   , 0.000372116046, -7.845335E-05, -0.00014299668, 0.0116603682, -0.007941832, 1.81062114E-06, 916.2685    , 31.703228   , 840.5668    , 0.05        , 3           , 5           , 0           , 0
-0.0731679946, -0.111208953, -9.807436   , -0.000122746191, -0.0004443117, -9.38095E-06, 0.0116591407, -0.007946272, 1.66501741E-06, 916.2685    , 31.703228   , 840.5668    , 0.06        , 3           , 6           , 0           , 0
-0.07144631 , -0.116008796, -9.803106   , 0.00063787715, -0.0008871141, -0.000115204763, 0.0116655286, -0.007955129, 4.095912E-07, 916.2685    , 31.703228   , 840.5668    , 0.07        , 3           , 7           , 0           , 0
-0.07158484 , -0.121646307, -9.811788   , 0.000575784245, 7.021919E-05, -1.70163548E-06, 0.0116712851, -0.007954427, 4.0077245E-07, 916.2685    , 31.703228   , 840.5668    , 0.08        , 3           , 8           , 5           , 5
-0.07586138 , -0.124822773, -9.812864   , -0.000138324656, 0.000158509472, 0.000272685022, 0.01166988  , -0.007952874, 3.14595468E-06, 916.2685    , 31.703228   , 840.5668    , 0.09        , 3           , 9           , 5           , 0.1
-0.076241754, -0.122841336, -9.805626   , -0.000249887147, -0.0002125552, -7.49667961E-05, 0.0116673885, -0.00795499049, 2.3715354E-06, 916.2685    , 31.703228   , 840.566833  , 0.1         , 3           , 10          , 0.1         , 0.1
-0.07085207 , -0.115783468, -9.79815    , -9.67145461E-05, -3.354394E-05, -0.00026956186, 0.0116704488, -0.00795063 , -3.596838E-07, 916.2685    , 31.703228   , 840.6781    , 0.11        , 3           , 11          , 0.0109544508, 0.0109544508
-0.06795113 , -0.111145243, -9.812635   , 9.063533E-05, -0.000102384889, -0.000573979865, 0.0116714   , -0.00795158651, -6.111074E-06, 916.2685    , 31.703228   , 840.678162  , 0.12        , 3           , 12          , 0.174642488 , 0
-0.0728589147, -0.110748708, -9.80221748 , -0.00014281043, -0.000235301908, -0.000683593564, 0.011670026 , -0.00795386 , -1.29740583E-05, 916.209839  , 31.7417221  , 840.6782    , 0.13        , 3           , 13          , 0           , 0
-0.0742745548, -0.115228489, -9.809366   , -0.000147592509, -0.000601146137, -0.0003831664, 0.0116685815, -0.007959826, -1.687562E-05, 916.209839  , 31.7417221  , 840.6783    , 0.14        , 3           , 14          , 7.12425E-05 , 0.000166739119
-0.0690059438, -0.118648067, -9.814869   , 0.000751908636, -0.0003661994, 0.000167491467, 0.0116760861, -0.0079635065, -1.52435487E-05, 916.209839  , 31.7417221  , 840.678345  , 0.15        , 3           , 15          , 0           , 0.000111270318
-0.07484009 , -0.115237117, -9.813037   , 0.000252400961, -0.0007639171, 0.000804130337, 0.0116785467, -0.007971238, -7.29193152E-06, 916.209839  , 31.7417221  , 840.6784    , 0.16        , 3           , 16          , 0           , 1.401298E-45
-0.0793564841, -0.115517281, -9.809774   , 0.000946632761, -0.000107390821, 0.00054714724, 0.0116879689, -0.007972376, -1.83334112E-06, 916.209839  , 31.7417221  , 840.678467  , 0.17        , 3           , 20          , 0           , 0
-0.06833951 , -0.115320362, -9.810969   , 0.000148656109, -0.000139964715, -0.000333223084, 0.0116894823, -0.007973736, -5.18172E-06, 916.209839  , 31.7417221  , 840.6785    , 0.18        , 3           , 21          , 0           , 0
-0.07210167 , -0.117428266, -9.804943   , 0.000172024156, -0.000190769191, -9.286028E-06, 0.0116912024, -0.007975643, -5.29687668E-06, 916.209839  , 31.7417221  , 840.6786    , 0.19        , 3           , 22          , 0           , 0
-0.07210388 , -0.105552733, -9.808158   , -2.400305E-05, -0.0001927173, -0.000332969357, 0.0116909882, -0.00797753 , -8.64889353E-06, 916.209839  , 31.7417221  , 840.67865   , 0.2         , 3           , 40          , 0           , 0
-0.08024285 , -0.115563571, -9.817655   , -5.48394746E-06, 0.000303992652, -0.000288562354, 0.011690082 , -0.007962694, -1.14918412E-05, 916.209839  , 31.7417221  , 840.9433    , 0.21        , 3           , 41          , 0           , 0
-0.0734562948, -0.112577483, -9.813462   , 0.000390969275, 0.0003640782, 0.000452481385, 0.0116939573, -0.007959107, -6.924745E-06, 916.209839  , 31.7417221  , 840.943359  , 0.22        , 3           , 42          , 0           , 0
-0.07362659 , -0.122206494, -9.799821   , 0.00074228103, -0.0005492971, -0.000376658863, 0.01170141  , -0.007964553, -1.07553606E-05, 916.207153  , 31.7686214  , 840.9434    , 0.23        , 3           , 255         , 0           , 0
-0.06947327 , -0.123296835, -9.809035   , 0.000710987137, -0.0009801532, -0.000339731632, 0.0117085446, -0.007974316, -1.42671861E-05, 916.207153  , 31.7686214  , 840.9435    , 0.24        , 3           , 255         , 0           , 0
-0.06974032 , -0.119315222, -9.808637   , -0.000117889605, -9.31206E-05, -7.971286E-05, 0.0117073739, -0.00797523651, -1.50751657E-05, 916.207153  , 31.7686214  , 840.943542  , 0.25        , 3           , 255         , 0           , 0
-0.06934324 , -0.113221213, -9.813211   , 0.0006276434, -0.000215568711, 0.000419733347, 0.0117136156, -0.007977441, -1.09033372E-05, 916.207153  , 31.7686214  , 840.9436    , 0.26        , 3           , 255         , 0           , 0
-0.06789393 , -0.118709311, -9.806932   , 0.00015689648, -0.000384923769, 7.241444E-05, 0.0117151774, -0.00798129849, -1.02243257E-05, 916.207153  , 31.7686214  , 840.943665  , 0.27        , 3           , 255         , 0           , 0
-0.0704285353, -0.119226292, -9.804001   , 0.000178730115, -0.000195040557, 0.0001110872, 0.0117169572, -0.00798326 , -9.136365E-06, 916.207153  , 31.7686214  , 840.9437    , 0.28        , 3           , 255         , 0           , 0
-0.06762633 , -0.11740724 , -9.805508   , 7.621268E-05, -0.0007833323, 0.000114029208, 0.0117177106, -0.007991106, -8.087936E-06, 916.207153  , 31.7686214  , 840.9438    , 0.29        , 3           , 255         , 0           , 0
-0.07054057 , -0.123583928, -9.811499   , -0.0002739537, -0.000355191733, -0.000251969584, 0.011714993 , -0.00799462851, -1.06490934E-05, 916.207153  , 31.7686214  , 840.9439    , 0.3         , 3           , 255         , 0           , 0
-0.0737633  , -0.111822866, -9.809732   , -0.0005502376, 0.0001692693, 0.000180791787, 0.0117164534, -0.007979632, -8.87715851E-06, 916.207153  , 31.7686214  , 841.040344  , 0.31        , 3           , 255         , 0           , 0
-0.06533133 , -0.111105129, -9.810282   , 0.000198648137, -0.000211330233, 0.000216178611, 0.0117184222, -0.007981772, -6.740273E-06, 916.207153  , 31.7686214  , 841.040466  , 0.32        , 3           , 255         , 0           , 0
-0.08062641 , -0.116712645, -9.807514   , -0.0005484655, 0.000310690753, 0.000195644781, 0.0117129227, -0.007978688, -4.74753961E-06, 916.266968  , 31.78386    , 841.0406    , 0.33        , 3           , 255         , 0           , 0
-0.07535764 , -0.113449156, -9.80824    , -0.0006266196, -0.000142555858, 0.000835309271, 0.0117065907, -0.007980211, 3.58834359E-06, 916.266968  , 31.78386    , 841.0407    , 0.34        , 3           , 255         , 0           , 0
-0.07654532 , -0.123484589, -9.811403   , -0.000399053184, 0.0006543998, 0.000286107475, 0.0117025757, -0.007973701, 6.525829E-06, 916.266968  , 31.78386    , 841.040833  , 0.35        , 3           , 255         , 0           , 0
-0.0745414048, -0.113129795, -9.808962   , 0.0003517233, 0.0005037718, 0.000125436389, 0.0117060831, -0.007968678, 7.839071E-06, 916.266968  , 31.78386    , 841.040955  , 0.36        , 3           , 255         , 0           , 0
-0.07580727 , -0.1208415  , -9.808124   , 4.83750773E-06, 0.000375647971, -0.000465469377, 0.0117061688, -0.007964866, 3.22864139E-06, 916.266968  , 31.78386    , 841.0411    , 0.37        , 3           , 255         , 0           , 0
-0.0738335  , -0.110091828, -9.815829   , -0.0004904286, 0.0005090905, 0.000404778228, 0.0117012328, -0.007959824, 7.335759E-06, 916.266968  , 31.78386    , 841.0412    , 0.38        , 3           , 255         , 0           , 0
-0.0648395  , -0.105968453, -9.803949   , -9.78822354E-05, -0.000242561247, -0.000232514518, 0.0117002726, -0.007962221, 4.98237432E-06, 916.266968  , 31.78386    , 841.0413    , 0.39        , 3           , 255         , 0           , 0
-0.06618712 , -0.112434626, -9.802805   , 0.0002362786, -0.0004127958, 0.0003585146, 0.0117026055, -0.007966391, 8.518999E-06, 916.266968  , 31.78386    , 841.041443  , 0.4         , 3           , 255         , 0           , 0
-0.06654343 , -0.118143179, -9.812846   , 0.000642536557, -0.000109373905, 7.8618E-05  , 0.0117073189, -0.007956984, 9.305906E-06, 916.266968  , 31.78386    , 840.952942  , 0.41        , 3           , 255         , 0           , 0
-0.06454672 , -0.122211136, -9.811528   , 0.000802264956, -0.000494650856, -0.0003914121, 0.0117153721, -0.007961883, 5.334101E-06, 916.266968  , 31.78386    , 840.953064  , 0.42        , 3           , 255         , 0           , 0
-0.0626963  , -0.120912768, -9.803953   , 7.85123848E-05, -0.0004872863, 0.000254777231, 0.0117161367, -0.007966786, 7.824624E-06, 916.227966  , 31.7982178  , 840.9532    , 0.43        , 3           , 255         , 0           , 0
-0.07066212 , -0.118495725, -9.805412   , 0.000144180158, 1.48614636E-05, 0.0003792439, 0.0117175486, -0.007966681, 1.161857E-05, 916.227966  , 31.7982178  , 840.9533    , 0.44        , 3           , 255         , 0           , 0
-0.0796697  , -0.120583   , -9.808561   , -5.26988042E-05, 0.00048565818, -9.458748E-05, 0.0117170289, -0.007961814, 1.07296564E-05, 916.227966  , 31.7982178  , 840.9534    , 0.45        , 3           , 255         , 0           , 0
-0.07811443 , -0.118400291, -9.812863   , 0.000716448063, -0.000243078015, -0.0003058348, 0.0117242169, -0.00796421 , 7.643006E-06, 916.227966  , 31.7982178  , 840.953552  , 0.46        , 3           , 255         , 0           , 0
-0.07859309 , -0.115618572, -9.808898   , 5.39406756E-05, -0.000134053873, -0.00063769985, 0.0117248064, -0.007965475, 1.25068937E-06, 916.227966  , 31.7982178  , 840.9537    , 0.47        , 3           , 255         , 0           , 0
-0.0677456558, -0.115196608, -9.810912   , -0.000356037519, -0.000185051875, -0.000423409016, 0.0117212795, -0.0079672765, -3.00482566E-06, 916.227966  , 31.7982178  , 840.9538    , 0.48        , 3           , 255         , 0           , 0
-0.0602663346, -0.106130064, -9.804812   , 0.000471256557, -0.000736390939, -2.280256E-06, 0.0117259929, -0.007974639, -3.11395434E-06, 916.227966  , 31.7982178  , 840.9539    , 0.49        , 3           , 255         , 0           , 0
-0.064101696, -0.112901211, -9.804907   , 0.0005603227, -0.000918333535, 0.000254849758, 0.0117315743, -0.007983849, -6.733168E-07, 916.227966  , 31.7982178  , 840.9541    , 0.5         , 3           , 255         , 0           , 0
-0.06891601 , -0.114374578, -9.805825   , 0.000243216287, -0.000736656657, -7.769762E-05, 0.0117376139, -0.00797471 , -1.56539556E-06, 916.227966  , 31.7982178  , 840.9727    , 0.51        , 3           , 255         , 0           , 0
-0.07059378 , -0.119089857, -9.805583   , 0.0004687043, 9.861978E-07, -0.0008615069, 0.0117423683, -0.007974598, -1.01798078E-05, 916.227966  , 31.7982178  , 840.9729    , 0.52        , 3           , 255         , 0           , 0
-0.07007408 , -0.11747019 , -9.803391   , 0.000338223675, 0.000145142127, 0.000526864 , 0.011745709 , -0.007973208, -4.894449E-06, 916.250366  , 31.8045559  , 840.9731    , 0.53        , 3           , 255         , 0           , 0
-0.06565513 , -0.110486962, -9.811916   , -0.0002838837, -0.000418803771, -0.000231207465, 0.0117428871, -0.007977369, -7.255558E-06, 916.250366  , 31.8045559  , 840.973267  , 0.54        , 3           , 255         , 0           , 0
-0.0692742839, -0.115998305, -9.800455   , -0.000150291744, -0.000569361, 3.4475248E-05, 0.011741383 , -0.007983065, -6.977673E-06, 916.250366  , 31.8045559  , 840.97345   , 0.55        , 3           , 255         , 0           , 0
-0.06773339 , -0.107709333, -9.803373   , 0.0006281963, -0.000417949981, -6.987501E-05, 0.0117476713, -0.007987237, -7.725473E-06, 916.250366  , 31.8045559  , 840.973633  , 0.56        , 3           , 255         , 0           , 0
-0.07002689 , -0.101881906, -9.810083   , -1.27575659E-05, -0.0007668464, -0.000382376718, 0.0117475735, -0.00799485948, -1.163908E-05, 916.250366  , 31.8045559  , 840.9738    , 0.57        , 3           , 255         , 0           , 0
-0.0635471344, -0.104205057, -9.810768   , 0.00015997325, 0.000130302229, -0.000604190049, 0.011749221 , -0.007993486, -1.76653011E-05, 916.250366  , 31.8045559  , 840.974     , 0.58        , 3           , 255         , 0           , 0
-0.074896425, -0.121217571, -9.810713   , -2.37802415E-05, -0.000470704457, -0.000626278052, 0.0117490338, -0.007998117, -2.39829951E-05, 916.250366  , 31.8045559  , 840.9742    , 0.59        , 3           , 255         , 0           , 0
-0.0777569562, -0.117624342, -9.807269   , -0.0006314753, -0.0006437226, 0.000103345214, 0.011742712 , -0.008004566, -2.30252226E-05, 916.250366  , 31.8045559  , 840.974365  , 0.6         , 3           , 255         , 0           , 0
-0.07787325 , -0.120431021, -9.80593    , -7.536253E-05, -2.567732E-05, 0.000288963463, 0.0117377611, -0.007988505, -2.01054281E-05, 916.250366  , 31.8045559  , 840.9517    , 0.61        , 3           , 255         , 0           , 0
-0.06967091 , -0.120270357, -9.801343   , 0.000631914358, -1.77531183E-05, -0.00026678 , 0.0117441006, -0.007988651, -2.27751425E-05, 916.250366  , 31.8045559  , 840.9519    , 0.62        , 3           , 255         , 0           , 0
-0.06298592 , -0.119421348, -9.798655   , 0.000330964132, 0.000224454867, -3.64295629E-05, 0.0117474152, -0.007986403, -2.31130543E-05, 916.2735    , 31.8116341  , 840.9521    , 0.63        , 3           , 255         , 0           , 0
-0.07089645 , -0.11982806 , -9.811064   , 0.000129497814, 0.000114174341, -2.42586029E-05, 0.0117487106, -0.007985259, -2.33422124E-05, 916.2735    , 31.8116341  , 840.9523    , 0.64        , 3           , 255         , 0           , 0
-0.0685358942, -0.114535391, -9.818303   , -4.59650546E-05, -0.000338930957, 0.0002468867, 0.011748231 , -0.007988677, -2.09133141E-05, 916.2735    , 31.8116341  , 840.952454  , 0.65        , 3           , 255         , 0           , 0
-0.060791932, -0.121740557, -9.805499   , 0.000376717682, -0.0002230019, 0.00021736254, 0.0117519805, -0.007990931, -1.87660189E-05, 916.2735    , 31.8116341  , 840.952637  , 0.66        , 3           , 255         , 0           , 0
-0.0663817152, -0.1120951  , -9.813623   , 0.000371684058, -0.0004469863, 0.000104585888, 0.0117556909, -0.007995413, -1.777277E-05, 916.2735    , 31.8116341  , 840.9528    , 0.67        , 3           , 255         , 0           , 0
-0.0672223  , -0.116013929, -9.806428   , -0.000615855737, -0.000144060075, 0.000120159886, 0.0117495228, -0.007996868, -1.658818E-05, 916.2735    , 31.8116341  , 840.953     , 0.68        , 3           , 255         , 0           , 0
-0.06900782 , -0.116474114, -9.810495   , -6.23612941E-05, 0.000124116443, 0.000566957751, 0.0117488541, -0.007995692, -1.09043722E-05, 916.2735    , 31.8116341  , 840.9532    , 0.69        , 3           , 255         , 0           , 0
-0.06752612 , -0.115551725, -9.8131485  , 0.0001172813, 0.000146851278, 0.0004232988, 0.0117499921, -0.007994274, -6.654389E-06, 916.2735    , 31.8116341  , 840.953369  , 0.7         , 3           , 255         , 0           , 0
-0.05783523 , -0.114668511, -9.812072   , -0.000313963683, -0.0003053333, 0.000156822411, 0.0117511647, -0.007978836, -5.15663169E-06, 916.2735    , 31.8116341  , 840.9047    , 0.71        , 3           , 255         , 0           , 0
-0.0703528151, -0.116991304, -9.806537   , -0.000189603452, -0.000299035048, -0.0001938151, 0.0117492834, -0.007981803, -7.12979954E-06, 916.2735    , 31.8116341  , 840.9049    , 0.72        , 3           , 255         , 0           , 0
-0.0699047  , -0.122196652, -9.797967   , 1.98796624E-05, -0.0003579202, 0.000159539632, 0.0117494687, -0.007985401, -5.57654766E-06, 916.274353  , 31.8129158  , 840.9051    , 0.73        , 3           , 255         , 0           , 0
-0.07364773 , -0.120521545, -9.797948   , 0.000422691344, -0.000527645, -8.06162E-05, 0.0117537016, -0.007990666, -6.44465672E-06, 916.274353  , 31.8129158  , 840.9053    , 0.74        , 3           , 255         , 0           , 0
-0.0733909458, -0.120122135, -9.804705   , -7.710919E-05, -0.000129735825, -0.000114401191, 0.01175294  , -0.007991949, -7.60384455E-06, 916.274353  , 31.8129158  , 840.905457  , 0.75        , 3           , 255         , 0           , 0
-0.07306995 , -0.112222336, -9.802805   , 0.000177260561, 0.000130445856, -0.0005137005, 0.011754754 , -0.007990585, -1.27251978E-05, 916.274353  , 31.8129158  , 840.90564   , 0.76        , 3           , 255         , 0           , 0
-0.06592729 , -0.116747424, -9.810285   , -0.000267413328, 9.35590651E-06, -0.000709761167, 0.0117521361, -0.007990408, -1.98212729E-05, 916.274353  , 31.8129158  , 840.9058    , 0.77        , 3           , 255         , 0           , 0
-0.07595015 , -0.110929072, -9.807722   , -0.00014193164, 0.000570462435, 0.0002566654, 0.0117506953, -0.007984734, -1.718774E-05, 916.274353  , 31.8129158  , 840.906     , 0.78        , 3           , 255         , 0           , 0
-0.0702843443, -0.121355996, -9.812209   , 4.01024154E-05, -0.000185576326, -7.668567E-05, 0.0117511032, -0.007986581, -1.79763574E-05, 916.274353  , 31.8129158  , 840.9062    , 0.79        , 3           , 255         , 0           , 0
-0.07988684 , -0.120614186, -9.81035    , -0.000239428438, -0.00010206538, -0.0005141347, 0.0117487507, -0.00798754 , -2.31293743E-05, 916.274353  , 31.8129158  , 840.9064    , 0.8         , 3           , 255         , 0           , 0
-0.07618342 , -0.119161464, -9.800348   , 6.592552E-05, -0.0002944461, -0.000447679253, 0.0117539922, -0.007976372, -2.76767478E-05, 916.274353  , 31.8129158  , 840.867859  , 0.81        , 3           , 255         , 0           , 0
-0.07385331 , -0.1180251  , -9.801544   , 0.000219476031, -0.0002566055, -0.000268994365, 0.0117562078, -0.007978906, -3.03966826E-05, 916.274353  , 31.8129158  , 840.868042  , 0.82        , 3           , 255         , 0           , 0
-0.0688341  , -0.120743677, -9.803503   , 9.92174E-05 , 0.000356934732, -0.000656640157, 0.0117572518, -0.00797526 , -3.69207119E-05, 916.2571    , 31.8179054  , 840.8682    , 0.83        , 3           , 255         , 0           , 0
-0.06961334 , -0.121689714, -9.81018    , 7.301546E-05, 0.000319567742, -4.73097316E-07, 0.011757982 , -0.007972064, -3.688787E-05, 916.2571    , 31.8179054  , 840.8684    , 0.84        , 3           , 255         , 0           , 0
-0.06613137 , -0.115137294, -9.809007   , -0.0003126794, -0.0002847302, -0.000325722329, 0.0117548825, -0.007974873, -4.01783655E-05, 916.2571    , 31.8179054  , 840.8686    , 0.85        , 3           , 255         , 0           , 0
-0.0694570243, -0.112275913, -9.812685   , 0.000113930204, -0.0005392267, -0.0005016528, 0.0117560606, -0.007980206, -4.52579661E-05, 916.2571    , 31.8179054  , 840.8688    , 0.86        , 3           , 255         , 0           , 0
-0.07936442 , -0.117883518, -9.810033   , -0.0003193351, -0.000156729351, -0.000173572815, 0.01175288  , -0.007981753, -4.701201E-05, 916.2571    , 31.8179054  , 840.868958  , 0.87        , 3           , 255         , 0           , 0
-0.07407201 , -0.115885973, -9.804659   , 0.000549253251, 2.15899345E-05, 0.000481773284, 0.011758334 , -0.007981593, -4.21920377E-05, 916.2571    , 31.8179054  , 840.869141  , 0.88        , 3           , 255         , 0           , 0
-0.0706809461, -0.120751247, -9.808668   , 6.320754E-05, 0.000151423461, 0.000754290144, 0.0117589058, -0.007980168, -3.46318047E-05, 916.2571    , 31.8179054  , 840.8693    , 0.89        , 3           , 255         , 0           , 0
-0.07021449 , -0.1215565  , -9.809584   , -0.0002486442, 3.28118622E-05, 0.000160041629, 0.0117564062, -0.007979859, -3.302763E-05, 916.2571    , 31.8179054  , 840.8695    , 0.9         , 3           , 255         , 0           , 0
-0.06803381 , -0.113180615, -9.809203   , 0.000184274613, 0.000325050147, -0.000124513535, 0.0117637645, -0.007964962, -3.42783351E-05, 916.2571    , 31.8179054  , 840.8586    , 0.91        , 3           , 255         , 0           , 0
-0.0671296939, -0.12054193 , -9.812772   , 0.000145860889, 8.146142E-05, -0.000645605964, 0.0117652761, -0.007964073, -4.07244079E-05, 916.2571    , 31.8179054  , 840.858765  , 0.92        , 3           , 255         , 0           , 0
-0.07927175 , -0.122093692, -9.807062   , -7.378256E-05, -7.372625E-05, 0.000287538045, 0.0117645161, -0.007964844, -3.78578879E-05, 916.2417    , 31.8205338  , 840.858948  , 0.93        , 3           , 255         , 0           , 0
-0.06913228 , -0.121778533, -9.802934   , 0.0005930121, -0.00075214 , 1.74624729E-05, 0.011770444 , -0.007972368, -3.7771777E-05, 916.2417    , 31.8205338  , 840.859131  , 0.94        , 3           , 255         , 0           , 0
-0.0689887851, -0.121418633, -9.803396   , 0.0009800782, -0.000847096264, -0.0006826994, 0.0117802992, -0.00798075553, -4.46980739E-05, 916.2417    , 31.8205338  , 840.8593    , 0.95        , 3           , 255         , 0           , 0
-0.0736504942, -0.111447215, -9.806658   , 0.0009897153, -0.000388132525, -0.00039837134, 0.0117902262, -0.007984588, -4.87272737E-05, 916.2417    , 31.8205338  , 840.8595    , 0.96        , 3           , 255         , 0           , 0
-0.0797406  , -0.112329386, -9.81428    , 0.000324461085, -0.000312965072, -0.00058833044, 0.0117935175, -0.007987647, -5.46471128E-05, 916.2417    , 31.8205338  , 840.8597    , 0.97        , 3           , 255         , 0           , 0
-0.06622523 , -0.113005921, -9.81037    , 0.000919779763, 0.00016482448, -0.0005600909, 0.0118027609, -0.007985935, -6.02282271E-05, 916.2417    , 31.8205338  , 840.859863  , 0.98        , 3           , 255         , 0           , 0
-0.0640888438, -0.11771109 , -9.807995   , 0.0003075563, 0.000268882 , -0.000141971774, 0.0118058473, -0.007983227, -6.16161051E-05, 916.2417    , 31.8205338  , 840.860046  , 0.99        , 3           , 255         , 0           , 0
-0.06949778 , -0.112399161, -9.810897   , -0.000281243236, 0.000159612246, 0.0003543651, 0.0118030049, -0.007981674, -5.80538363E-05, 916.2417    , 31.8205338  , 840.8603    , 1           , 3           , 0           , 6.50123644  , 100
-0.0709828  , -0.11063268 , -9.812157   , -0.000258769956, 0.000112574344, 0.0005779115, 0.0118022021, -0.00796753 , -5.2276373E-05, 916.2417    , 31.8205338  , 840.8678    , 1.01        , 3           , 1           , 0           , 0
-0.07289932 , -0.119282745, -9.806224   , 0.000342713261, 8.432835E-08, -7.516286E-05, 0.0118056359, -0.00796752 , -5.30279431E-05, 916.2417    , 31.8205338  , 840.868042  , 1.02        , 3           , 2           , 0           , 0
-0.06791971 , -0.120118916, -9.801931   , -0.000110284112, -0.000268828822, 0.000111383553, 0.0118045229, -0.00797022 , -5.19459063E-05, 916.232361  , 31.8187141  , 840.8683    , 1.03        , 3           , 3           , 0           , 0
-0.07457269 , -0.1134673  , -9.808741   , -0.0001879925, -0.000135080336, -0.000259873632, 0.011802665 , -0.00797154 , -5.45604344E-05, 916.232361  , 31.8187141  , 840.8685    , 1.04        , 3           , 4           , 0           , 0
-0.08030872 , -0.118665025, -9.807266   , -0.000356718258, 0.000607470865, -0.000294704951, 0.0117991213, -0.007965431, -5.74356163E-05, 916.232361  , 31.8187141  , 840.8688    , 1.05        , 3           , 5           , 0           , 0
-0.0764770061, -0.117164038, -9.808138   , -0.000745359634, 0.000493351952, 0.000224660063, 0.01179165  , -0.007960525, -5.513096E-05, 916.232361  , 31.8187141  , 840.869     , 1.06        , 3           , 6           , 0           , 0
-0.07341445 , -0.120193817, -9.808429   , -0.000717613031, -0.000250538, 0.000133893569, 0.0117844632, -0.0079630455, -5.38216373E-05, 916.232361  , 31.8187141  , 840.869263  , 1.07        , 3           , 7           , 0           , 0
-0.0667568147, -0.109229818, -9.807665   , 0.000481318624, 0.000214452768, 0.0004966419, 0.0117892371, -0.00796096 , -4.88302539E-05, 916.232361  , 31.8187141  , 840.8695    , 1.08        , 3           , 8           , 5           , 5
-0.0698108  , -0.111810409, -9.804358   , 0.0004953522, 0.0002896438, 0.0005781253, 0.0117941443, -0.007958132, -4.301521E-05, 916.232361  , 31.8187141  , 840.869751  , 1.09        , 3           , 9           , 5           , 0.1
-0.08058299 , -0.111205086, -9.808724   , -0.000285877351, -3.86135071E-06, -0.0007204699, 0.0117913429, -0.007958085, -5.02199146E-05, 916.232361  , 31.8187141  , 840.87      , 1.1         , 3           , 10          , 0.1         , 0.1
-0.07508792 , -0.121250391, -9.808982   , 0.000197828835, -5.97988546E-05, -0.000754795, 0.0117924036, -0.007950255, -5.77666724E-05, 916.232361  , 31.8187141  , 840.8861    , 1.11        , 3           , 11          , 0.00998568  , 0.00998568
-0.0791561455, -0.111929074, -9.807422   , 0.00037102247, -0.000385579362, 0.000442536315, 0.01179608  , -0.007954163, -5.33870552E-05, 916.232361  , 31.8187141  , 840.8864    , 1.12        , 3           , 12          , 0.174642846 , 0
-0.07798818 , -0.113195851, -9.803497   , -1.371227E-06, -0.000169045321, 0.00027496682, 0.0117960433, -0.007955885, -5.06574979E-05, 916.2958    , 31.825388   , 840.8867    , 1.13        , 3           , 13          , 0           , 0
-0.0661681741, -0.122167885, -9.811887   , -8.393533E-05, -0.000246473355, -0.000166721467, 0.0117952181, -0.00795833 , -5.23536874E-05, 916.2958    , 31.825388   , 840.887     , 1.14        , 3           , 14          , 7.122955E-05, 0.0001666539
-0.07437691 , -0.112683572, -9.805029   , -0.000443369761, -0.000347349385, -1.768602E-05, 0.0117907859, -0.007961799, -5.257149E-05, 916.2958    , 31.825388   , 840.8873    , 1.15        , 3           , 15          , 0           , 0.000111271409
-0.0738575757, -0.11221765 , -9.81266    , 0.0008450829, -0.000681867357, 0.0006998949, 0.0117991809, -0.00796870049, -4.56534E-05, 916.2958    , 31.825388   , 840.887634  , 1.16        , 3           , 16          , 0           , 1.401298E-45
-0.07305418 , -0.114915743, -9.813868   , 0.000109085995, -0.0005198994, 0.000431455264, 0.0118002389, -0.007973949, -4.14004644E-05, 916.2958    , 31.825388   , 840.887939  , 1.17        , 3           , 20          , 0           , 0
-0.0722125545, -0.11665573 , -9.809874   , -0.0001096738, -0.000205055418, 0.0009038269, 0.0117990691, -0.007976106, -3.238696E-05, 916.2958    , 31.825388   , 840.888245  , 1.18        , 3           , 21          , 0           , 0
-0.07579718 , -0.114328936, -9.7997     , -0.000357113458, -0.000351042079, 0.000509898236, 0.0117954584, -0.007979675, -2.73297064E-05, 916.2958    , 31.825388   , 840.88855   , 1.19        , 3           , 22          , 0           , 0
-0.0800121054, -0.104271792, -9.803293   , 0.000133332389, 0.000107381944, -7.008159E-05, 0.0117967967, -0.007978594, -2.80178137E-05, 916.2958    , 31.825388   , 840.888855  , 1.2         , 3           , 40          , 0           , 0
-0.08080761 , -0.112139389, -9.802828   , -0.0006860417, -0.000171694875, 0.0005466286, 0.0117876828, -0.007974743, -2.25544882E-05, 916.2958    , 31.825388   , 840.8371    , 1.21        , 3           , 41          , 0           , 0
-0.08188646 , -0.1128002  , -9.8051815  , -0.0008742549, 0.00033822612, 0.000219832262, 0.0117789237, -0.007971384, -2.03164436E-05, 916.2958    , 31.825388   , 840.8373    , 1.22        , 3           , 42          , 0           , 0
-0.0811713859, -0.117262706, -9.814131   , -0.0002618595, -7.0981E-05 , 0.00051233155, 0.0117762638, -0.007972155, -1.52018083E-05, 916.2332    , 31.825388   , 840.837463  , 1.23        , 3           , 255         , 0           , 0
-0.0749379843, -0.110321566, -9.8186655  , 0.0008161274, -0.000774404849, -0.000545520044, 0.0117844669, -0.00797983352, -2.07479E-05, 916.2332    , 31.825388   , 840.837646  , 1.24        , 3           , 255         , 0           , 0
-0.07420573 , -0.117004968, -9.808206   , -0.000207202975, -3.83658335E-05, -0.0003633595, 0.0117824255, -0.007980173, -2.438579E-05, 916.2332    , 31.825388   , 840.8378    , 1.25        , 3           , 255         , 0           , 0
-0.07784734 , -0.119369052, -9.808884   , 0.000363404426, 0.000294945 , -0.000485124765, 0.0117860977, -0.007977168, -2.92019831E-05, 916.2332    , 31.825388   , 840.838     , 1.26        , 3           , 255         , 0           , 0
-0.07536038 , -0.121563151, -9.798015   , 0.0008209949, -0.000135936585, -0.000274931779, 0.0117943287, -0.007978495, -3.19671672E-05, 916.2332    , 31.825388   , 840.8382    , 1.27        , 3           , 255         , 0           , 0
-0.0753846  , -0.117309049, -9.805026   , 0.0006129105, -0.0007064963, -0.000230009435, 0.0118004763, -0.00798553 , -3.43504471E-05, 916.2332    , 31.825388   , 840.8384    , 1.28        , 3           , 255         , 0           , 0
-0.07038577 , -0.107567489, -9.808241   , 0.0004444129, -9.153302E-05, 7.26934E-05 , 0.011804915 , -0.007986454, -3.36343655E-05, 916.2332    , 31.825388   , 840.838562  , 1.29        , 3           , 255         , 0           , 0
-0.06562824 , -0.114330173, -9.80818    , -0.0005069611, -0.000722377445, 0.000201443909, 0.0117998309, -0.007993701, -3.17053054E-05, 916.2332    , 31.825388   , 840.838745  , 1.3         , 3           , 255         , 0           , 0
-0.0743697  , -0.111931369, -9.806104   , -0.000302840315, -0.0007565188, -0.000232492923, 0.0117958123, -0.007997052, -3.41112755E-05, 916.2332    , 31.825388   , 840.857     , 1.31        , 3           , 255         , 0           , 0
-0.0712891  , -0.108326212, -9.8123455  , 4.80587842E-05, -1.49963162E-05, -0.000150906169, 0.011796304 , -0.007997183, -3.5622008E-05, 916.2332    , 31.825388   , 840.857239  , 1.32        , 3           , 255         , 0           , 0
-0.07851123 , -0.109639943, -9.807665   , -0.00042933342, 1.50993583E-06, -1.57737741E-05, 0.0117920125, -0.007997166, -3.57795543E-05, 916.309631  , 31.82822    , 840.857544  , 1.33        , 3           , 255         , 0           , 0
-0.08083631 , -0.112201452, -9.805044   , -6.116523E-05, -0.000454384775, 0.0005650503, 0.0117913568, -0.008001776, -3.01829787E-05, 916.309631  , 31.82822    , 840.857849  , 1.34        , 3           , 255         , 0           , 0
-0.0790341347, -0.121850289, -9.812722   , 0.000129961147, -0.000138723524, 0.000471731561, 0.0117926179, -0.008003218, -2.54823135E-05, 916.309631  , 31.82822    , 840.858154  , 1.35        , 3           , 255         , 0           , 0
-0.08083717 , -0.11283    , -9.812256   , -4.301032E-05, -0.000413385482, 0.0005066184, 0.0117921475, -0.008007412, -2.04651878E-05, 916.309631  , 31.82822    , 840.858459  , 1.36        , 3           , 255         , 0           , 0
-0.08874415 , -0.108630575, -9.802808   , 0.000372739945, -0.000228353383, 0.000714069232, 0.0117958169, -0.00800978 , -1.33518715E-05, 916.309631  , 31.82822    , 840.858765  , 1.37        , 3           , 255         , 0           , 0
-0.07733822 , -0.119907975, -9.807396   , -7.851859E-05, 0.000131864188, -5.370759E-05, 0.0117950365, -0.008008455, -1.38733594E-05, 916.309631  , 31.82822    , 840.8591    , 1.38        , 3           , 255         , 0           , 0
-0.07977788 , -0.122833334, -9.81301    , -0.000137514027, -1.50972337E-05, 4.62846438E-05, 0.0117936572, -0.008008611, -1.34123229E-05, 916.309631  , 31.82822    , 840.8594    , 1.39        , 3           , 255         , 0           , 0
-0.0842095241, -0.120954037, -9.808931   , -0.000317946484, -0.000151911809, -0.000428377418, 0.0117905121, -0.00801008 , -1.7713739E-05, 916.309631  , 31.82822    , 840.8597    , 1.4         , 3           , 255         , 0           , 0
-0.08194365 , -0.10994558 , -9.799463   , 0.000368867419, 0.000187749582, -0.0007528416, 0.0117930556, -0.008009678, -2.52099035E-05, 916.309631  , 31.82822    , 840.796631  , 1.41        , 3           , 255         , 0           , 0
-0.07811186 , -0.110896721, -9.808119   , 0.000403284852, -0.000100308069, -3.20231848E-05, 0.011797091 , -0.008010677, -2.55419436E-05, 916.309631  , 31.82822    , 840.7967    , 1.42        , 3           , 255         , 0           , 0
-0.077348426, -0.114536844, -9.8141     , 0.000108814515, 0.000112773458, -0.000307363051, 0.011798203 , -0.008009514, -2.860208E-05, 916.2506    , 31.8312531  , 840.796753  , 1.43        , 3           , 255         , 0           , 0
-0.07973341 , -0.111167118, -9.812185   , -0.0002736564, -0.0005912  , -0.0006401781, 0.0117955208, -0.008015348, -3.5073208E-05, 916.2506    , 31.8312531  , 840.7968    , 1.44        , 3           , 255         , 0           , 0
-0.0801118  , -0.115347125, -9.819124   , -0.000205010321, -0.000189155428, -0.000117541378, 0.0117934793, -0.008017225, -3.62708561E-05, 916.2506    , 31.8312531  , 840.7969    , 1.45        , 3           , 255         , 0           , 0
-0.07725034 , -0.118582271, -9.813756   , 0.000456192385, -0.00017163188, 0.000522087 , 0.011798    , -0.008019003, -3.10705582E-05, 916.2506    , 31.8312531  , 840.796936  , 1.46        , 3           , 255         , 0           , 0
-0.0709394  , -0.117120788, -9.808756   , 0.000494200969, -0.000421812758, 0.0006712107, 0.0118028857, -0.008023299, -2.44086441E-05, 916.2506    , 31.8312531  , 840.797     , 1.47        , 3           , 255         , 0           , 0
-0.06944626 , -0.112004533, -9.817561   , -0.0001278757, -0.0006169728, 0.000278568361, 0.0118015856, -0.008029503, -2.16959525E-05, 916.2506    , 31.8312531  , 840.797058  , 1.48        , 3           , 255         , 0           , 0
-0.07549554 , -0.114676833, -9.815494   , 0.000282777153, -1.85257231E-05, -0.0006168611, 0.0118044624, -0.00802961551, -2.78663665E-05, 916.2506    , 31.8312531  , 840.7971    , 1.49        , 3           , 255         , 0           , 0
-0.07987846 , -0.111003831, -9.808777   , 0.0006416015, -0.0001860429, -0.000211861057, 0.011810896 , -0.008031448, -3.00068114E-05, 916.2506    , 31.8312531  , 840.7972    , 1.5         , 3           , 255         , 0           , 0
-0.0776927546, -0.118732944, -9.80873    , -0.000362005521, 2.13951716E-05, 8.205289E-05, 0.0118041486, -0.008028921, -2.9158753E-05, 916.2506    , 31.8312531  , 840.802246  , 1.51        , 3           , 255         , 0           , 0
-0.06877877 , -0.112688504, -9.806745   , -0.000172536762, 0.000788441161, -0.000309499039, 0.0118024489, -0.008020999, -3.21604966E-05, 916.2506    , 31.8312531  , 840.802368  , 1.52        , 3           , 255         , 0           , 0
-0.0620446  , -0.105215237, -9.808088   , 0.000393142866, 0.000436205679, -0.000413212954, 0.0118064126, -0.008016588, -3.62408719E-05, 916.2331    , 31.8311176  , 840.8025    , 1.53        , 3           , 255         , 0           , 0
-0.06254372 , -0.113775805, -9.802897   , 0.000113522678, -0.000349349051, -0.000148336534, 0.01180756  , -0.008020065, -3.77653923E-05, 916.2331    , 31.8311176  , 840.8026    , 1.54        , 3           , 255         , 0           , 0
-0.07369908 , -0.119388916, -9.80051    , 0.000265709066, 0.000563978334, 3.73608855E-05, 0.0118102124, -0.008014429, -3.73252078E-05, 916.2331    , 31.8311176  , 840.802734  , 1.55        , 3           , 255         , 0           , 0
-0.0733255446, -0.107731879, -9.803297   , 0.0004786574, 9.678956E-05, -0.0005732441, 0.0118150441, -0.008013394, -4.30458567E-05, 916.2331    , 31.8311176  , 840.802856  , 1.56        , 3           , 255         , 0           , 0
-0.0757321  , -0.111132324, -9.810423   , -0.000200298324, 1.46041275E-05, -0.000131703884, 0.0118130511, -0.008013233, -4.43610879E-05, 916.2331    , 31.8311176  , 840.803     , 1.57        , 3           , 255         , 0           , 0
-0.07485269 , -0.111841954, -9.807147   , -0.0003781315, -4.906684E-05, -0.000265991024, 0.0118092922, -0.008013692, -4.70266241E-05, 916.2331    , 31.8311176  , 840.8031    , 1.58        , 3           , 255         , 0           , 0
-0.063423194, -0.109531619, -9.804901   , 0.0004394734, -0.000543589937, -0.000587960647, 0.0118137337, -0.008019057, -5.297007E-05, 916.2331    , 31.8311176  , 840.8032    , 1.59        , 3           , 255         , 0           , 0
-0.06883886 , -0.116038874, -9.807848   , 0.000437995448, -0.000723493053, -0.000464444078, 0.011818151 , -0.008026239, -5.76997E-05, 916.2331    , 31.8311176  , 840.803345  , 1.6         , 3           , 255         , 0           , 0
-0.06668065 , -0.11495246 , -9.807499   , -4.82055621E-05, 3.676566E-05, 0.000215411332, 0.0118122175, -0.008011421, -5.5497836E-05, 916.2331    , 31.8311176  , 840.8268    , 1.61        , 3           , 255         , 0           , 0
-0.07253833 , -0.115375623, -9.803645   , -0.0005830798, -6.340085E-05, -0.000154088819, 0.0118064014, -0.008012039, -5.704612E-05, 916.2331    , 31.8311176  , 840.827     , 1.62        , 3           , 255         , 0           , 0
-0.06944491 , -0.112732254, -9.807976   , -0.0003026951, 1.54101726E-05, -0.0005618923, 0.0118034184, -0.008011817, -6.26628753E-05, 916.2776    , 31.82741    , 840.8273    , 1.63        , 3           , 255         , 0           , 0
-0.069433175, -0.107210837, -9.80533    , -0.000381754653, 0.000264040631, 0.000288785261, 0.0117995795, -0.00800921 , -5.97440376E-05, 916.2776    , 31.82741    , 840.8275    , 1.64        , 3           , 255         , 0           , 0
-0.0679927  , -0.108005963, -9.807715   , 0.0002920249, -0.0001298041, 0.0005616299, 0.0118024535, -0.008010574, -5.41434019E-05, 916.2776    , 31.82741    , 840.827759  , 1.65        , 3           , 255         , 0           , 0
-0.0708849654, -0.119469568, -9.805438   , 0.000596114958, -7.37411247E-05, 5.33856219E-05, 0.01180841  , -0.008011318, -5.361829E-05, 916.2776    , 31.82741    , 840.828     , 1.66        , 3           , 255         , 0           , 0
-0.07712519 , -0.114316083, -9.809667   , -0.000468099548, -0.0007181254, 0.000469949824, 0.0118036922, -0.008018551, -4.900386E-05, 916.2776    , 31.82741    , 840.828247  , 1.67        , 3           , 255         , 0           , 0
-0.0821294039, -0.114453651, -9.800687   , 0.0003974911, -5.9671278E-05, -0.000125189341, 0.0118076783, -0.008019134, -5.02627227E-05, 916.2776    , 31.82741    , 840.8285    , 1.68        , 3           , 255         , 0           , 0
-0.07209344 , -0.109647751, -9.809192   , -4.493266E-05, -0.000263540976, 0.0001838759, 0.0118072145, -0.00802179053, -4.845519E-05, 916.2776    , 31.82741    , 840.828735  , 1.69        , 3           , 255         , 0           , 0
-0.07507832 , -0.108030006, -9.812597   , -0.0004360102, -0.000194299166, 0.0003378115, 0.0118028261, -0.008023773, -4.5100227E-05, 916.2776    , 31.82741    , 840.829     , 1.7         , 3           , 255         , 0           , 0
-0.076613836, -0.111339711, -9.813108   , -2.9550647E-06, -0.000197546178, -0.000286532479, 0.0117974551, -0.008015667, -4.79456758E-05, 916.2776    , 31.82741    , 840.800964  , 1.71        , 3           , 255         , 0           , 0
-0.07149205 , -0.115116954, -9.805913   , 7.5187796E-05, 5.75087179E-05, -0.000280185515, 0.0117982291, -0.008015059, -5.074057E-05, 916.2776    , 31.82741    , 840.8011    , 1.72        , 3           , 255         , 0           , 0
-0.0708470345, -0.120674394, -9.809636   , 8.942843E-05, 0.0003176913, -0.000490716, 0.0117991623, -0.008011824, -5.560995E-05, 916.2419    , 31.8309841  , 840.8012    , 1.73        , 3           , 255         , 0           , 0
-0.07021021 , -0.11331524 , -9.809789   , 0.0002519479, -0.000103672668, 0.000121825375, 0.0118016712, -0.008012876, -5.44040049E-05, 916.2419    , 31.8309841  , 840.801331  , 1.74        , 3           , 255         , 0           , 0
-0.070755   , -0.11430528 , -9.808195   , -0.000258489425, -0.000256585, -0.0005496743, 0.0117991315, -0.00801537652, -5.99306841E-05, 916.2419    , 31.8309841  , 840.801453  , 1.75        , 3           , 255         , 0           , 0
-0.064446196, -0.118641458, -9.8126955  , 0.000251767226, -0.000117950112, -0.000744923949, 0.0118017085, -0.008016468, -6.739338E-05, 916.2419    , 31.8309841  , 840.8016    , 1.76        , 3           , 255         , 0           , 0
-0.06711719 , -0.122277454, -9.806116   , -0.000650761, -0.000386509753, -7.503243E-05, 0.0117952088, -0.008020324, -6.81892561E-05, 916.2419    , 31.8309841  , 840.8017    , 1.77        , 3           , 255         , 0           , 0
-0.06496515 , -0.113549195, -9.799215   , 0.00016296166, -0.000198225709, -0.000564243353, 0.0117968833, -0.008022239, -7.385472E-05, 916.2419    , 31.8309841  , 840.8018    , 1.78        , 3           , 255         , 0           , 0
-0.07234566 , -0.114698589, -9.803975   , 0.000510880665, -0.000221012568, -0.000396905642, 0.0118020223, -0.008024403, -7.78496E-05, 916.2419    , 31.8309841  , 840.801941  , 1.79        , 3           , 255         , 0           , 0
-0.07378776 , -0.117136136, -9.809789   , 0.0005318285, 0.0002969171, 0.000335794466, 0.0118073141, -0.008021473, -7.44568242E-05, 916.2419    , 31.8309841  , 840.802063  , 1.8         , 3           , 255         , 0           , 0
-0.08122986 , -0.11825864 , -9.813002   , 0.00108055584, 0.000636661658, 5.720584E-05, 0.0118186818, -0.008002238, -7.381413E-05, 916.2419    , 31.8309841  , 840.8171    , 1.81        , 3           , 255         , 0           , 0
-0.0785293058, -0.113796696, -9.810971   , 3.599486E-05, 8.747178E-05, 0.000343997322, 0.0118190134, -0.008001405, -7.036404E-05, 916.2419    , 31.8309841  , 840.8173    , 1.82        , 3           , 255         , 0           , 0
-0.07431291 , -0.110625125, -9.802966   , 0.000164250989, -0.000493913831, 0.000608536939, 0.0118206078, -0.008006415, -6.433742E-05, 916.236938  , 31.8309841  , 840.817566  , 1.83        , 3           , 255         , 0           , 0
-0.0729124546, -0.115096115, -9.80493    , 0.0005963979, -0.000262587739, -0.00044084937, 0.0118266065, -0.008008988, -6.8776666E-05, 916.236938  , 31.8309841  , 840.8178    , 1.84        , 3           , 255         , 0           , 0
-0.0768884  , -0.116687775, -9.804989   , 0.000135770286, 0.000395647017, 0.000401204947, 0.0118279327, -0.008005079, -6.471808E-05, 916.236938  , 31.8309841  , 840.818054  , 1.85        , 3           , 255         , 0           , 0
-0.0800191239, -0.120137133, -9.812675   , 0.000224981719, -0.000259940134, -0.0004862488, 0.0118302209, -0.00800762 , -6.96110146E-05, 916.236938  , 31.8309841  , 840.8183    , 1.86        , 3           , 255         , 0           , 0
-0.0659220144, -0.117061935, -9.804362   , -0.000451628468, -0.000398566364, -0.000218805246, 0.0118257226, -0.00801157951, -7.184606E-05, 916.236938  , 31.8309841  , 840.818542  , 1.87        , 3           , 255         , 0           , 0
-0.0694412  , -0.105935052, -9.816198   , -0.000234065941, -0.000248485652, -0.0005313386, 0.0118234241, -0.008014   , -7.71884952E-05, 916.236938  , 31.8309841  , 840.8188    , 1.88        , 3           , 255         , 0           , 0
-0.06798822 , -0.11263819 , -9.80935    , 0.000238749461, 2.48266733E-05, -0.000204008844, 0.0118258288, -0.008013727, -7.92255159E-05, 916.236938  , 31.8309841  , 840.819031  , 1.89        , 3           , 255         , 0           , 0
-0.0648625046, -0.114601061, -9.806988   , 0.000145269471, 0.0002307259, 0.000487849844, 0.0118272426, -0.008011479, -7.432004E-05, 916.236938  , 31.8309841  , 840.8193    , 1.9         , 3           , 255         , 0           , 0
-0.0600053146, -0.112412155, -9.800814   , 0.000318152335, -4.69958541E-05, -0.000172390559, 0.011828172 , -0.008004054, -7.6031276E-05, 916.236938  , 31.8309841  , 840.838562  , 1.91        , 3           , 255         , 0           , 0
-0.06332498 , -0.114431478, -9.805083   , 0.000160489886, -0.0003082134, -0.000228974837, 0.0118297944, -0.008007109, -7.835734E-05, 916.236938  , 31.8309841  , 840.8389    , 1.92        , 3           , 255         , 0           , 0
-0.0617866032, -0.111039124, -9.805931   , -0.000185300843, 1.75587775E-05, 0.000252966769, 0.0118279215, -0.008006964, -7.582575E-05, 916.2924    , 31.8324     , 840.8393    , 1.93        , 3           , 255         , 0           , 0
-0.06773343 , -0.109650716, -9.80294    , -0.000340624421, 0.0002961171, 0.000253877166, 0.0118244942, -0.008004033, -7.325213E-05, 916.2924    , 31.8324     , 840.839661  , 1.94        , 3           , 255         , 0           , 0
-0.0623142049, -0.109254837, -9.803704   , 0.000670618145, -5.31266924E-05, -5.896736E-05, 0.0118312053, -0.008004558, -7.384805E-05, 916.2924    , 31.8324     , 840.84      , 1.95        , 3           , 255         , 0           , 0
-0.068560794, -0.11445751 , -9.800015   , 0.000119723351, -0.000141487049, -0.000113737216, 0.0118324123, -0.008005959, -7.500209E-05, 916.2924    , 31.8324     , 840.8404    , 1.96        , 3           , 255         , 0           , 0
-0.07235705 , -0.114371955, -9.802502   , -0.0001964367, 0.0007209053, 2.70904275E-05, 0.0118304444, -0.007998753, -7.46459E-05, 916.2924    , 31.8324     , 840.840759  , 1.97        , 3           , 255         , 0           , 0
-0.07265027 , -0.107771911, -9.809944   , -0.0001143666, 0.0006232209, -0.000381801452, 0.0118293315, -0.007992475, -7.838997E-05, 916.2924    , 31.8324     , 840.8412    , 1.98        , 3           , 255         , 0           , 0
-0.07078765 , -0.115751281, -9.806528   , 0.00111214048, 0.000922803767, -6.269699E-05, 0.011840458 , -0.007983241, -7.890769E-05, 916.2924    , 31.8324     , 840.8416    , 1.99        , 3           , 255         , 0           , 0
-0.06837161 , -0.11222557 , -9.814264   , 0.0005963993, 2.8698676E-05, -0.000288391835, 0.0118464436, -0.007982921, -8.178802E-05, 916.2924    , 31.8324     , 840.842041  , 2           , 3           , 0           , 7.50123644  , 200
-0.0734289959, -0.113271847, -9.806277   , -3.29738832E-05, 1.649285E-05, -0.000667755434, 0.0118397893, -0.007963302, -8.841241E-05, 916.2924    , 31.8324     , 840.792053  , 2.01        , 3           , 1           , 0           , 0
-0.0736871138, -0.116609253, -9.803955   , -3.820329E-05, -1.07152737E-05, -0.00085933943, 0.0118394764, -0.007963306, -9.700654E-05, 916.2924    , 31.8324     , 840.7922    , 2.02        , 3           , 2           , 0           , 0
-0.06772138 , -0.111279547, -9.808035   , -0.000135257462, 0.000243646529, -9.853587E-05, 0.0118381325, -0.007960859, -9.796299E-05, 916.260742  , 31.8321972  , 840.7923    , 2.03        , 3           , 3           , 0           , 0
-0.0686917  , -0.106023654, -9.811205   , 0.0003594397, -9.75765E-05, 0.000224423362, 0.0118417088, -0.007961861, -9.573045E-05, 916.260742  , 31.8321972  , 840.7924    , 2.04        , 3           , 4           , 0           , 0
-0.07013883 , -0.108683206, -9.814171   , -0.0005158026, 0.000513499253, 0.0004082274, 0.0118365185, -0.007956776, -9.158765E-05, 916.260742  , 31.8321972  , 840.792542  , 2.05        , 3           , 5           , 0           , 0
-0.0604506619, -0.113918863, -9.809244   , -0.000330233219, -5.821423E-05, -0.000158411043, 0.0118332291, -0.007957339, -9.31785544E-05, 916.260742  , 31.8321972  , 840.792664  , 2.06        , 3           , 6           , 0           , 0
-0.0669601262, -0.110978946, -9.808925   , -0.000302203873, 1.09238026E-05, 0.0008173617, 0.0118301408, -0.007957327, -8.500416E-05, 916.260742  , 31.8321972  , 840.7928    , 2.07        , 3           , 7           , 0           , 0
-0.06457119 , -0.111448683, -9.81259    , -0.0003075761, -0.0001471526, -7.9532605E-05, 0.0118270731, -0.007958788, -8.581684E-05, 916.260742  , 31.8321972  , 840.7929    , 2.08        , 3           , 8           , 5           , 5
-0.0747131854, -0.119374871, -9.809584   , 0.0004856807, 0.000107552623, -0.000306584348, 0.0118319541, -0.007957678, -8.88697759E-05, 916.260742  , 31.8321972  , 840.793     , 2.09        , 3           , 9           , 5           , 0.1
-0.0827104747, -0.11233741 , -9.801195   , -0.0004586053, -0.000515448046, 0.0002643782, 0.0118273478, -0.007962862, -8.628714E-05, 916.260742  , 31.8321972  , 840.793152  , 2.1         , 3           , 10          , 0.1         , 0.1
-0.07545704 , -0.115172073, -9.807265   , -0.0003005633, -0.000314639765, 0.0005578609, 0.0118189147, -0.007954874, -8.070327E-05, 916.260742  , 31.8321972  , 840.787048  , 2.11        , 3           , 11          , 0.009240242 , 0.009240241
-0.06422219 , -0.113151707, -9.800794   , 0.000482787524, -0.000274793245, 4.89560553E-05, 0.01182374  , -0.007957628, -8.024623E-05, 916.260742  , 31.8321972  , 840.7872    , 2.12        , 3           , 12          , 0.174643889 , 0
-0.0724495351, -0.11746271 , -9.806639   , 0.00108911353, -0.0003741255, 0.0002784961, 0.0118346084, -0.007961403, -7.750569E-05, 916.25116   , 31.8336124  , 840.7873    , 2.13        , 3           , 13          , 0           , 0
-0.07305355 , -0.111936212, -9.803846   , 3.98897246E-05, 0.0005774845, 0.000404167018, 0.0118349744, -0.007955676, -7.33959241E-05, 916.25116   , 31.8336124  , 840.7874    , 2.14        , 3           , 14          , 7.129364E-05, 0.000166475249
-0.07493015 , -0.106141068, -9.806791   , -0.000381170335, -8.360371E-05, 0.00044899233, 0.0118311271, -0.007956564, -6.891618E-05, 916.25116   , 31.8336124  , 840.787537  , 2.15        , 3           , 15          , 0           , 0.000111272988
-0.0734564662, -0.112423182, -9.814336   , 0.000465814519, -0.000252726779, 0.000241604808, 0.0118357679, -0.007959119, -6.653018E-05, 916.25116   , 31.8336124  , 840.787659  , 2.16        , 3           , 16          , 0           , 1.401298E-45
-0.06757749 , -0.107751489, -9.805161   , 0.000218562665, 0.000136571121, 4.19509524E-05, 0.011837949 , -0.007957758, -6.609453E-05, 916.25116   , 31.8336124  , 840.7878    , 2.17        , 3           , 20          , 0           , 0
-0.0602634735, -0.119269192, -9.805443   , 0.000359910569, 4.77585563E-05, 8.25159E-05 , 0.01184154  , -0.007957291, -6.526376E-05, 916.25116   , 31.8336124  , 840.7879    , 2.18        , 3           , 21          , 0           , 0
-0.06605183 , -0.119047664, -9.809499   , -0.0001271083, -0.000202882322, -0.000508975, 0.011840309 , -0.007959258, -7.037722E-05, 916.25116   , 31.8336124  , 840.788     , 2.19        , 3           , 22          , 0           , 0
-0.070677   , -0.126254261, -9.804906   , 8.951274E-05, 0.000134493574, -0.0006337909, 0.0118412543, -0.007957839, -7.66987941E-05, 916.25116   , 31.8336124  , 840.788147  , 2.2         , 3           , 40          , 0           , 0
-0.0690984949, -0.12386509 , -9.806208   , 0.0003657618, 0.000194288019, -0.000258418237, 0.0118431281, -0.007943302, -7.924549E-05, 916.25116   , 31.8336124  , 840.794861  , 2.21        , 3           , 41          , 0           , 0
-0.0643955246, -0.115057424, -9.810156   , -0.000142050427, 0.000266909366, 0.00019162739, 0.011841693 , -0.007940656, -7.72977146E-05, 916.25116   , 31.8336124  , 840.795044  , 2.22        , 3           , 42          , 0           , 0
-0.06277322 , -0.118556462, -9.811777   , -0.000573004945, 0.000307557231, 0.0006676228, 0.0118359122, -0.007937661, -7.05855E-05, 916.201538  , 31.8334789  , 840.7952    , 2.23        , 3           , 255         , 0           , 0
-0.06737537 , -0.116400182, -9.814159   , 0.00041619633, -0.000221950584, -1.38371106E-05, 0.0118400743, -0.007939878, -7.075013E-05, 916.201538  , 31.8334789  , 840.7954    , 2.24        , 3           , 255         , 0           , 0
-0.07409416 , -0.122908488, -9.812008   , 8.83352041E-05, -0.000480565475, 0.0005789666, 0.0118409125, -0.00794475153, -6.501774E-05, 916.201538  , 31.8334789  , 840.7956    , 2.25        , 3           , 255         , 0           , 0
-0.07165928 , -0.113066509, -9.812772   , -0.000845985, 0.000262640882, -0.000223200012, 0.01183247  , -0.007942098, -6.721854E-05, 916.201538  , 31.8334789  , 840.7958    , 2.26        , 3           , 255         , 0           , 0
-0.07611726 , -0.11206089 , -9.812367   , 0.000114912327, 0.0005748043, 0.0004478812, 0.0118335839, -0.007936404, -6.267199E-05, 916.201538  , 31.8334789  , 840.795959  , 2.27        , 3           , 255         , 0           , 0
-0.08081707 , -0.111813381, -9.807555   , -0.000143913581, 0.0002456116, 1.00693E-05 , 0.0118321441, -0.00793395 , -6.254225E-05, 916.201538  , 31.8334789  , 840.796143  , 2.28        , 3           , 255         , 0           , 0
-0.0692767948, -0.110400163, -9.810846   , -0.000358764868, 0.000441637821, 0.000390809524, 0.0118285269, -0.00792958 , -5.85821581E-05, 916.201538  , 31.8334789  , 840.7963    , 2.29        , 3           , 255         , 0           , 0
-0.06680541 , -0.111723348, -9.811761   , 0.000444057019, 6.958406E-05, 0.0007276633, 0.0118329087, -0.00792897 , -5.129776E-05, 916.201538  , 31.8334789  , 840.7965    , 2.3         , 3           , 255         , 0           , 0
-0.0716827959, -0.108895063, -9.802629   , -0.000342855434, 8.994233E-05, -0.000100125588, 0.011828728 , -0.0079181  , -5.22822847E-05, 916.201538  , 31.8334789  , 840.867     , 2.31        , 3           , 255         , 0           , 0
-0.06794474 , -0.113514937, -9.805947   , -0.0002970471, 0.000540801 , -4.05955434E-05, 0.0118257608, -0.007912687, -5.2624262E-05, 916.201538  , 31.8334789  , 840.8677    , 2.32        , 3           , 255         , 0           , 0
-0.0661258  , -0.107183576, -9.807872   , -0.000454306166, 3.344314E-05, -0.000459604518, 0.0118212532, -0.007912299, -5.721606E-05, 916.287231  , 31.83395    , 840.868347  , 2.33        , 3           , 255         , 0           , 0
-0.0705082  , -0.11543636 , -9.808371   , -7.43797063E-05, -0.0002080125, -0.000120684439, 0.0118205193, -0.007914364, -5.84474146E-05, 916.287231  , 31.83395    , 840.869     , 2.34        , 3           , 255         , 0           , 0
-0.0690714  , -0.116740882, -9.806587   , -0.000143890909, -0.000356764474, 0.000142494275, 0.01181907  , -0.007917949, -5.70647353E-05, 916.287231  , 31.83395    , 840.8697    , 2.35        , 3           , 255         , 0           , 0
-0.07721768 , -0.112525865, -9.803769   , -0.000246521231, -0.000107344953, 1.48527106E-05, 0.0118166031, -0.007919024, -5.69288968E-05, 916.287231  , 31.83395    , 840.870361  , 2.36        , 3           , 255         , 0           , 0
-0.06897881 , -0.116387919, -9.802897   , 0.0005291327, -0.000305733323, -0.00126866228, 0.0118219946, -0.00792193 , -6.96508359E-05, 916.287231  , 31.83395    , 840.871033  , 2.37        , 3           , 255         , 0           , 0
-0.0588977747, -0.105541073, -9.805066   , 0.000447217317, -0.000325498258, -0.00106003624, 0.0118265506, -0.007925059, -8.02890063E-05, 916.287231  , 31.83395    , 840.8717    , 2.38        , 3           , 255         , 0           , 0
-0.06276252 , -0.113698348, -9.810458   , 7.49126E-05 , -0.000439848372, 0.0001551921, 0.0118272882, -0.007929474, -7.87892E-05, 916.287231  , 31.83395    , 840.8724    , 2.39        , 3           , 255         , 0           , 0
-0.0610385463, -0.1183006  , -9.808008   , 0.00046529813, -0.000360729871, 0.000509365636, 0.0118318992, -0.007933141, -7.37385344E-05, 916.287231  , 31.83395    , 840.873047  , 2.4         , 3           , 255         , 0           , 0
-0.0709444061, -0.116318367, -9.812065   , 0.000116661482, -0.000205302276, 0.000110797191, 0.0118283983, -0.007919793, -7.261802E-05, 916.287231  , 31.83395    , 840.8212    , 2.41        , 3           , 255         , 0           , 0
-0.07408878 , -0.10509403 , -9.813841   , -9.676175E-05, -7.994247E-05, -0.000340276165, 0.0118274568, -0.007920553, -7.60300245E-05, 916.287231  , 31.83395    , 840.8216    , 2.42        , 3           , 255         , 0           , 0
-0.0750116557, -0.115894079, -9.819189   , 0.0006249981, -0.000420279161, -0.0006676501, 0.011833759 , -0.007924674, -8.275581E-05, 916.254     , 31.8338146  , 840.82196   , 2.43        , 3           , 255         , 0           , 0
-0.07535358 , -0.118778013, -9.805557   , 0.000167154561, 3.3316217E-05, -0.000103237071, 0.0118354382, -0.00792432949, -8.37841653E-05, 916.254     , 31.8338146  , 840.8223    , 2.44        , 3           , 255         , 0           , 0
-0.0691341758, -0.11551787 , -9.811869   , -0.000140844626, -4.57578426E-05, -0.0005193459, 0.011834071 , -0.007924725, -8.898271E-05, 916.254     , 31.8338146  , 840.8227    , 2.45        , 3           , 255         , 0           , 0
-0.064679   , -0.108349189, -9.804318   , -0.000948748959, -0.0003066965, -0.000263609982, 0.011824606 , -0.00792776048, -9.165492E-05, 916.254     , 31.8338146  , 840.823059  , 2.46        , 3           , 255         , 0           , 0
-0.06452729 , -0.109663963, -9.808444   , 0.0001234238, -0.000402912265, -0.0008373473, 0.0118259061, -0.00793169 , -0.0001000755, 916.254     , 31.8338146  , 840.8234    , 2.47        , 3           , 255         , 0           , 0
-0.0611458123, -0.108332492, -9.807437   , 0.000310240663, -0.00024934893, -0.000438905263, 0.0118290447, -0.007934131, -0.00010449376, 916.254     , 31.8338146  , 840.8238    , 2.48        , 3           , 255         , 0           , 0
-0.0645848662, -0.113976046, -9.804525   , -0.000229636, -0.0005796469, 0.0006060314, 0.0118267005, -0.007939999, -9.850238E-05, 916.254     , 31.8338146  , 840.824158  , 2.49        , 3           , 255         , 0           , 0
-0.07159684 , -0.115647338, -9.804854   , 2.83914851E-05, -0.0003403053, 0.0001214939, 0.0118269762, -0.007943415, -9.732778E-05, 916.254     , 31.8338146  , 840.8245    , 2.5         , 3           , 255         , 0           , 0
-0.06979136 , -0.117424   , -9.810225   , -5.340731E-05, -0.000179892071, -0.00107931718, 0.01182207  , -0.007933549, -0.000108106171, 916.254     , 31.8338146  , 840.8229    , 2.51        , 3           , 255         , 0           , 0
-0.07549737 , -0.11619208 , -9.811462   , -0.0001799014, -0.000161321645, -0.000599376159, 0.0118203191, -0.00793509 , -0.000114118622, 916.254     , 31.8338146  , 840.823242  , 2.52        , 3           , 255         , 0           , 0
-0.0702388659, -0.11720182 , -9.811529   , -0.0002151801, -0.00029061 , -0.0003359668, 0.0118181948, -0.00793795753, -0.000117512405, 916.2665    , 31.8317928  , 840.8236    , 2.53        , 3           , 255         , 0           , 0
-0.07672931 , -0.108316757, -9.807688   , 0.000302220229, -0.000295763544, -0.0002307353, 0.0118212346, -0.00794088747, -0.000119854587, 916.2665    , 31.8317928  , 840.824     , 2.54        , 3           , 255         , 0           , 0
-0.07184992 , -0.104802229, -9.80493    , -0.000141810815, -0.00015793214, 0.000231637823, 0.0118197994, -0.007942494, -0.000117557014, 916.2665    , 31.8317928  , 840.824341  , 2.55        , 3           , 255         , 0           , 0
-0.0735688  , -0.116676293, -9.811125   , 0.000346047455, -0.0002383485, 0.000159618416, 0.0118232453, -0.007944894, -0.0001159891, 916.2665    , 31.8317928  , 840.8247    , 2.56        , 3           , 255         , 0           , 0
-0.08008534 , -0.121379472, -9.80773    , 0.0008501721, 1.53285655E-05, 0.0003759831, 0.0118317157, -0.007944785, -0.000112227666, 916.2665    , 31.8317928  , 840.8251    , 2.57        , 3           , 255         , 0           , 0
-0.07277648 , -0.118815266, -9.812347   , 4.526042E-05, 0.000502213137, 0.0008042379, 0.011832105 , -0.007939859, -0.000104126375, 916.2665    , 31.8317928  , 840.825439  , 2.58        , 3           , 255         , 0           , 0
-0.0675954446, -0.123768352, -9.804712   , -0.0005482961, -0.0001291008, -6.345792E-06, 0.0118266242, -0.007941149, -0.0001042051, 916.2665    , 31.8317928  , 840.8258    , 2.59        , 3           , 255         , 0           , 0
-0.0673466  , -0.116391741, -9.806021   , -9.095343E-05, -0.000344367756, -0.0001355663, 0.0118257254, -0.007944576, -0.0001056014, 916.2665    , 31.8317928  , 840.8262    , 2.6         , 3           , 255         , 0           , 0
-0.0694461  , -0.111044466, -9.806513   , 8.446921E-05, 9.062319E-05, 4.296846E-05, 0.0118267648, -0.007936513, -0.0001051626, 916.2665    , 31.8317928  , 840.807434  , 2.61        , 3           , 255         , 0           , 0
-0.06967799 , -0.110716663, -9.806007   , 6.232005E-05, -0.0003947501, 0.000130723172, 0.0118273776, -0.007940476, -0.000103902137, 916.2665    , 31.8317928  , 840.8077    , 2.62        , 3           , 255         , 0           , 0
-0.07000186 , -0.11362908 , -9.803273   , 0.000604581 , -0.00057662325, -0.0004718562, 0.01183346  , -0.007946185, -0.000108688604, 916.2316    , 31.8353653  , 840.8079    , 2.63        , 3           , 255         , 0           , 0
-0.07002844 , -0.1263291  , -9.808909   , 0.000401640369, -0.0006782186, -0.000424413825, 0.01183751  , -0.007952916, -0.000113012735, 916.2316    , 31.8353653  , 840.8082    , 2.64        , 3           , 255         , 0           , 0
-0.07130425 , -0.125037864, -9.814193   , 0.000300872547, 0.00011650665, 0.000109084373, 0.0118405093, -0.007951764, -0.000111908164, 916.2316    , 31.8353653  , 840.808533  , 2.65        , 3           , 255         , 0           , 0
-0.07507572 , -0.113806114, -9.806789   , 0.000273394457, 0.0005256941, 5.303441E-05, 0.0118432371, -0.007946514, -0.0001113156, 916.2316    , 31.8353653  , 840.808838  , 2.66        , 3           , 255         , 0           , 0
-0.06283565 , -0.106179141, -9.805471   , 0.000111506073, 0.000303426117, -0.000361535524, 0.01184438  , -0.007943437, -0.000114894807, 916.2316    , 31.8353653  , 840.809143  , 2.67        , 3           , 255         , 0           , 0
-0.0611768737, -0.111736156, -9.80573    , 0.0004789973, -0.000173559471, 0.000199796617, 0.0118491547, -0.007945196, -0.000112917522, 916.2316    , 31.8353653  , 840.809448  , 2.68        , 3           , 255         , 0           , 0
-0.07705116 , -0.111070752, -9.806516   , 0.0005170667, -0.000184576187, 0.000452952052, 0.01185429  , -0.007947096, -0.00010841016, 916.2316    , 31.8353653  , 840.809753  , 2.69        , 3           , 255         , 0           , 0
-0.06521835 , -0.105764195, -9.814602   , 0.0003404477, -0.0005717093, -0.0003283627, 0.01185772  , -0.007952771, -0.000111761328, 916.2316    , 31.8353653  , 840.810059  , 2.7         , 3           , 255         , 0           , 0
-0.07346226 , -0.112120531, -9.80878448 , 0.00012064456, -0.000562223839, -0.000469461782, 0.01185542  , -0.00794628 , -0.000116494164, 916.2316    , 31.8353653  , 840.841431  , 2.71        , 3           , 255         , 0           , 0
-0.07175653 , -0.110314511, -9.8056     , -0.0007406866, 0.00031943596, 3.76094831E-05, 0.0118480092, -0.007943091, -0.000116080249, 916.2316    , 31.8353653  , 840.8419    , 2.72        , 3           , 255         , 0           , 0
-0.06934512 , -0.104117468, -9.81112    , -0.0006945803, 0.0007580839, -0.000417290954, 0.011841096 , -0.007935462, -0.0001201631, 916.2487    , 31.8336124  , 840.8424    , 2.73        , 3           , 255         , 0           , 0
-0.06495906 , -0.113213442, -9.808693   , -0.00042919605, 0.000207388308, -0.000769789447, 0.0118368659, -0.007933296, -0.000127835941, 916.2487    , 31.8336124  , 840.8429    , 2.74        , 3           , 255         , 0           , 0
-0.06969353 , -0.10822878 , -9.810647   , -0.000231215454, -0.000702279445, -7.869048E-05, 0.011834559 , -0.007940309, -0.000128705913, 916.2487    , 31.8336124  , 840.8434    , 2.75        , 3           , 255         , 0           , 0
-0.06446477 , -0.111901   , -9.808235   , 0.000328747439, -0.0007936214, 0.000103746293, 0.01183784  , -0.007948257, -0.000127762454, 916.2487    , 31.8336124  , 840.8439    , 2.76        , 3           , 255         , 0           , 0
-0.06844555 , -0.117871679, -9.808641   , 0.000391049078, -0.000190290957, 0.00010073556, 0.0118417433, -0.007950171, -0.000126777682, 916.2487    , 31.8336124  , 840.84436   , 2.77        , 3           , 255         , 0           , 0
-0.07163639 , -0.115347363, -9.811594   , -0.000107768785, 4.707169E-05, 0.000213479318, 0.0118406489, -0.007949726, -0.00012463746, 916.2487    , 31.8336124  , 840.8449    , 2.78        , 3           , 255         , 0           , 0
-0.0815741345, -0.108281553, -9.808465   , 0.00037571782, -0.000313400436, 0.000164024459, 0.0118443919, -0.007952878, -0.000123034421, 916.2487    , 31.8336124  , 840.845459  , 2.79        , 3           , 255         , 0           , 0
-0.0711417943, -0.115569726, -9.813252   , 0.0003009297, -0.0003893749, -0.0003275372, 0.011847429 , -0.007956733, -0.000126355721, 916.2487    , 31.8336124  , 840.846     , 2.8         , 3           , 255         , 0           , 0
-0.0706646442, -0.120987162, -9.806546   , 0.000138955409, -4.919855E-05, -0.00013196771, 0.0118432082, -0.007947996, -0.000127636478, 916.2487    , 31.8336124  , 840.8487    , 2.81        , 3           , 255         , 0           , 0
-0.0722558349, -0.118415758, -9.808731   , 0.000154417125, 5.6495177E-05, 0.0002015823, 0.0118447356, -0.007947455, -0.000125614068, 916.2487    , 31.8336124  , 840.849243  , 2.82        , 3           , 255         , 0           , 0
-0.06879887 , -0.106713131, -9.808473   , 0.000264042 , -1.67579856E-06, 0.0004071898, 0.0118473452, -0.007947519, -0.000121542638, 916.289     , 31.8365116  , 840.8498    , 2.83        , 3           , 255         , 0           , 0
-0.06492112 , -0.122782551, -9.807622   , 0.000158405091, 0.0001321007, -0.0002002157, 0.0118489452, -0.00794617552, -0.000123529011, 916.289     , 31.8365116  , 840.850342  , 2.84        , 3           , 255         , 0           , 0
-0.06996898 , -0.126181766, -9.805239   , 0.000363099331, -3.729487E-05, -0.0005168492, 0.0118526174, -0.00794648752, -0.0001287016, 916.289     , 31.8365116  , 840.8509    , 2.85        , 3           , 255         , 0           , 0
-0.07343421 , -0.119655095, -9.811331   , 0.0006803445, 0.0002467996, 0.0005920811, 0.0118593741, -0.007944089, -0.00012275191, 916.289     , 31.8365116  , 840.85144   , 2.86        , 3           , 255         , 0           , 0
-0.075532794, -0.11879877 , -9.796358   , 0.0003543087, -0.000583718, 0.0006298957, 0.0118628656, -0.007949999, -0.000116522577, 916.289     , 31.8365116  , 840.852     , 2.87        , 3           , 255         , 0           , 0
-0.07473824 , -0.118242659, -9.80883    , 0.000674206065, -0.00017442675, 0.000263341877, 0.0118695879, -0.007951775, -0.00011391002, 916.289     , 31.8365116  , 840.852539  , 2.88        , 3           , 255         , 0           , 0
-0.07717143 , -0.120447412, -9.803861   , -6.02006839E-05, 0.0004497586, -0.000621511, 0.0118690366, -0.007947203, -0.000120071352, 916.289     , 31.8365116  , 840.8531    , 2.89        , 3           , 255         , 0           , 0
-0.08128597 , -0.111152209, -9.810663   , 0.000524246949, 0.000101917933, 0.0002536912, 0.0118742576, -0.007946215, -0.000117522504, 916.289     , 31.8365116  , 840.853638  , 2.9         , 3           , 255         , 0           , 0
-0.07413343 , -0.116563059, -9.810176   , 0.000405275554, -0.0004200245, -0.00011710597, 0.0118812332, -0.007943417, -0.000118766504, 916.289     , 31.8365116  , 840.799     , 2.91        , 3           , 255         , 0           , 0
-0.0743694454, -0.115654647, -9.800673   , -0.0006218467, 0.0003195628, -0.000212087849, 0.01187503  , -0.007940196, -0.000120849276, 916.289     , 31.8365116  , 840.799255  , 2.92        , 3           , 255         , 0           , 0
-0.07593709 , -0.1138468  , -9.799753   , -0.00079776207, -9.986844E-05, -0.000506802753, 0.0118670948, -0.007941135, -0.000125928826, 916.2615    , 31.8359051  , 840.7995    , 2.93        , 3           , 255         , 0           , 0
-0.0765306354, -0.118997157, -9.797815   , -0.0002749166, -0.000273732672, -0.000475260662, 0.0118643828, -0.00794381648, -0.000130713626, 916.2615    , 31.8359051  , 840.799744  , 2.94        , 3           , 255         , 0           , 0
-0.064503   , -0.101671018, -9.8075695  , -0.000170178624, -0.000328989, -6.5318316E-05, 0.0118626868, -0.00794709753, -0.0001314058, 916.2615    , 31.8359051  , 840.8       , 2.95        , 3           , 255         , 0           , 0
-0.06916256 , -0.109418452, -9.806219   , 0.000153567453, -0.0005502102, -5.64915754E-05, 0.0118642263, -0.007952593, -0.00013203593, 916.2615    , 31.8359051  , 840.800232  , 2.96        , 3           , 255         , 0           , 0
-0.0710301846, -0.103490591, -9.812666   , 0.0004299723, -0.000216862041, 3.20374529E-05, 0.0118685253, -0.007954764, -0.000131741312, 916.2615    , 31.8359051  , 840.8005    , 2.97        , 3           , 255         , 0           , 0
-0.06993619 , -0.113749184, -9.811112   , 3.807601E-05, 0.0002918807, -0.000282014458, 0.0118689295, -0.007951813, -0.000134526621, 916.2615    , 31.8359051  , 840.8007    , 2.98        , 3           , 255         , 0           , 0
-0.0674384758, -0.112276733, -9.808656   , -2.2817112E-06, -0.000196254172, -0.0001743779, 0.01186892  , -0.007953754, -0.000136293587, 916.2615    , 31.8359051  , 840.800964  , 2.99        , 3           , 255         , 0           , 0
-0.0720363  , -0.110866211, -9.807858   , 5.692411E-05, -0.000334448123, -0.0005236785, 0.01186953  , -0.007957037, -0.000141569733, 916.2615    , 31.8359051  , 840.8012    , 3           , 3           , 0           , 8.501237    , 300
-0.07908764 , -0.107948661, -9.81827    , 0.0006132832, -0.000204785349, -0.0002655053, 0.0118691549, -0.0079501085, -0.000144197009, 916.2615    , 31.8359051  , 840.7924    , 3.01        , 3           , 1           , 0           , 0
-0.0763908  , -0.114917919, -9.825145   , 1.46344755E-05, -0.000285266549, -0.0008054179, 0.0118693644, -0.007952865, -0.000152284527, 916.2615    , 31.8359051  , 840.7926    , 3.02        , 3           , 2           , 0           , 0
-0.07682264 , -0.115414307, -9.793116   , 8.504653E-05, 0.0002581951, -0.0002661667, 0.0118702352, -0.007950253, -0.000154915368, 916.250244  , 31.8356361  , 840.7928    , 3.03        , 3           , 3           , 0           , 0
-0.0763429  , -0.112393692, -9.804156   , -0.0006489043, 0.00069748715, 0.000285991264, 0.0118637234, -0.007943313, -0.000151972883, 916.250244  , 31.8356361  , 840.792969  , 3.04        , 3           , 4           , 0           , 0
-0.073771216, -0.119467482, -9.806396   , -0.000237803368, 0.000111866553, 0.0007564804, 0.0118612861, -0.007942284, -0.0001443953, 916.250244  , 31.8356361  , 840.793152  , 3.05        , 3           , 5           , 0           , 0
-0.07231887 , -0.123008646, -9.801481   , -0.000399911543, -3.00153479E-05, 0.000107467866, 0.0118572777, -0.007942596, -0.000143324243, 916.250244  , 31.8356361  , 840.793335  , 3.06        , 3           , 6           , 0           , 0
-0.07320617 , -0.112742588, -9.803574   , -0.000477369351, 0.000360723468, -0.000483196316, 0.0118525429, -0.007938933, -0.000148113148, 916.250244  , 31.8356361  , 840.7935    , 3.07        , 3           , 7           , 0           , 0
-0.07402224 , -0.120637737, -9.807987   , 0.000156941314, 0.00013788759, -0.000154978552, 0.0118541243, -0.007937535, -0.000149646483, 916.250244  , 31.8356361  , 840.793762  , 3.08        , 3           , 8           , 5           , 5
-0.06893515 , -0.121093139, -9.80466    , -0.000289756048, -0.000170550236, 0.0006373467, 0.0118511766, -0.007939317, -0.000143293641, 916.250244  , 31.8356361  , 840.794     , 3.09        , 3           , 9           , 5           , 0.1
-0.07169048 , -0.113771081, -9.810373   , -0.000765006058, 0.0004449488, 0.000377575634, 0.0118434969, -0.007934913, -0.000139465439, 916.250244  , 31.8356361  , 840.79425   , 3.1         , 3           , 10          , 0.1         , 0.1
-0.07530909 , -0.111992791, -9.814768   , -0.000110755391, -1.0986987E-05, 0.000220203277, 0.0118421055, -0.007930269, -0.00013726273, 916.250244  , 31.8356361  , 840.8022    , 3.11        , 3           , 11          , 0.008658206 , 0.008658205
-0.07898207 , -0.112347342, -9.818058   , -0.0003436783, -0.0003953142, -0.000255385938, 0.0118386885, -0.007934192, -0.00013986323, 916.250244  , 31.8356361  , 840.8025    , 3.12        , 3           , 12          , 0.174645633 , 0
-0.08636812 , -0.110393442, -9.811678   , -0.000291296485, -6.91196E-05, -0.0005106357, 0.0118358163, -0.007934823, -0.000144977443, 916.268     , 31.8350277  , 840.8028    , 3.13        , 3           , 13          , 0           , 0
-0.08082499 , -0.114136718, -9.80245    , -0.000790816, -1.45944068E-06, 0.000113218332, 0.0118279   , -0.007934852, -0.000143845507, 916.268     , 31.8350277  , 840.8031    , 3.14        , 3           , 14          , 7.137475E-05, 0.000166157173
-0.07246926 , -0.115195274, -9.808691   , -0.000927911839, 0.000113143353, -0.00011685137, 0.01181863  , -0.007933708, -0.00014500058, 916.268     , 31.8350277  , 840.8034    , 3.15        , 3           , 15          , 0           , 0.000111276087
-0.06776182 , -0.119669914, -9.801649   , 0.000273776182, 0.000106547639, 0.000181738869, 0.0118213529, -0.007932663, -0.000143170735, 916.268     , 31.8350277  , 840.8037    , 3.16        , 3           , 16          , 0           , 1.401298E-45
-0.07439086 , -0.122188367, -9.805559   , 0.000313179276, -0.000285172428, -8.26722E-05, 0.0118244924, -0.007935505, -0.000144031117, 916.268     , 31.8350277  , 840.804     , 3.17        , 3           , 20          , 0           , 0
-0.07116785 , -0.122266747, -9.815756   , 0.000301086344, -0.000268232747, 8.706736E-05, 0.0118274968, -0.007938198, -0.0001431922, 916.268     , 31.8350277  , 840.8043    , 3.18        , 3           , 21          , 0           , 0
-0.08107866 , -0.119361758, -9.818243   , -0.000225637341, 2.00273935E-05, -0.0006696292, 0.0118252933, -0.00793791749, -0.0001498857, 916.268     , 31.8350277  , 840.8046    , 3.19        , 3           , 22          , 0           , 0
-0.08233221 , -0.1154329  , -9.812352   , -0.00012409153, 0.000300263782, -0.000454026449, 0.0118240882, -0.007934861, -0.000154390189, 916.268     , 31.8350277  , 840.804932  , 3.2         , 3           , 40          , 0           , 0
-0.07968272 , -0.113136329, -9.81001949 , -0.000313075754, -0.00026312744, -0.0005405227, 0.0118213575, -0.007936527, -0.000159829, 916.268     , 31.8350277  , 840.7861    , 3.21        , 3           , 41          , 0           , 0
-0.06981931 , -0.115964375, -9.804945   , 0.000581410131, -0.00060109375, -0.000429797947, 0.0118272072, -0.00794248749, -0.000164197772, 916.268     , 31.8350277  , 840.786255  , 3.22        , 3           , 42          , 0           , 0
-0.07056061 , -0.113272861, -9.805562   , 0.0004616597, -0.000134828821, -0.000112441041, 0.0118318312, -0.007943822, -0.000165338075, 916.287     , 31.8359051  , 840.786438  , 3.23        , 3           , 255         , 0           , 0
-0.075193435, -0.117454991, -9.811209   , 0.0005538602, -0.0007937136, -0.000829620054, 0.0118374359, -0.007951659, -0.000173727633, 916.287     , 31.8359051  , 840.7866    , 3.24        , 3           , 255         , 0           , 0
-0.0824714154, -0.118430361, -9.819823   , 0.0009787839, -0.0004891575, -0.00141653477, 0.0118473368, -0.007956381, -0.00018795002, 916.287     , 31.8359051  , 840.7868    , 3.25        , 3           , 255         , 0           , 0
-0.08135233 , -0.114769779, -9.813891   , 9.686124E-05, -0.000196999463, 3.31187766E-06, 0.0118483044, -0.007958352, -0.000187940226, 916.287     , 31.8359051  , 840.787     , 3.26        , 3           , 255         , 0           , 0
-0.07461772 , -0.12026199 , -9.810556   , 0.000295003265, 2.63292168E-05, 0.000283558242, 0.0118512306, -0.007958121, -0.0001851017, 916.287     , 31.8359051  , 840.7872    , 3.27        , 3           , 255         , 0           , 0
-0.07310462 , -0.1133091  , -9.808306   , -0.000155817281, -0.000554343162, 0.0003157843, 0.0118496483, -0.007963701, -0.000182009753, 916.287     , 31.8359051  , 840.787354  , 3.28        , 3           , 255         , 0           , 0
-0.080922246, -0.115090907, -9.817988   , 6.24073436E-06, -0.0004780179, 0.000189961254, 0.0118496967, -0.007968505, -0.0001801669, 916.287     , 31.8359051  , 840.7876    , 3.29        , 3           , 255         , 0           , 0
-0.08731463 , -0.111179069, -9.808222   , 0.0001117563, 8.85264E-05 , 0.0004611259, 0.0118507771, -0.007967675, -0.000175545443, 916.287     , 31.8359051  , 840.787842  , 3.3         , 3           , 255         , 0           , 0
-0.08158852 , -0.113958336, -9.803755   , 0.0005235775, -0.000268604781, -9.178682E-05, 0.0118549746, -0.007969725, -0.000176486763, 916.287     , 31.8359051  , 840.7448    , 3.31        , 3           , 255         , 0           , 0
-0.07174517 , -0.118410572, -9.810983   , 0.000271356665, -0.000424101832, -0.000239756992, 0.0118577089, -0.007973937, -0.000178934453, 916.287     , 31.8359051  , 840.744751  , 3.32        , 3           , 255         , 0           , 0
-0.0810246244, -0.111551821, -9.808374   , -0.0007584576, -0.0005233085, -0.000734979054, 0.0118501838, -0.00797908 , -0.0001863458, 916.269836  , 31.8359718  , 840.7447    , 3.33        , 3           , 255         , 0           , 0
-0.07286995 , -0.116404131, -9.804268   , -0.0004451885, -0.000219059075, -0.0004468287, 0.0118457675, -0.00798122 , -0.000190839768, 916.269836  , 31.8359718  , 840.7446    , 3.34        , 3           , 255         , 0           , 0
-0.07593676 , -0.123073652, -9.80626    , 0.000431004155, -2.62428512E-05, -0.000367984438, 0.0118501065, -0.007981436, -0.00019452245, 916.269836  , 31.8359718  , 840.744568  , 3.35        , 3           , 255         , 0           , 0
-0.0758008137, -0.119998313, -9.81514    , 0.0005362254, -0.0003720583, 7.9751E-05  , 0.0118554644, -0.007985165, -0.000193769112, 916.269836  , 31.8359718  , 840.7445    , 3.36        , 3           , 255         , 0           , 0
-0.07582906 , -0.125063166, -9.809923   , -1.652999E-05, -8.377817E-05, 4.87083453E-05, 0.0118552959, -0.007986009, -0.000193292, 916.269836  , 31.8359718  , 840.744446  , 3.37        , 3           , 255         , 0           , 0
-0.07548292 , -0.116040684, -9.805483   , 0.000154870577, 0.0005798193, 5.11204562E-05, 0.0118568381, -0.007980218, -0.000192712061, 916.269836  , 31.8359718  , 840.7444    , 3.38        , 3           , 255         , 0           , 0
-0.07252874 , -0.112132326, -9.80353    , 0.000355368946, 0.000236327483, 9.64180654E-05, 0.0118603855, -0.007977867, -0.000191719912, 916.269836  , 31.8359718  , 840.7444    , 3.39        , 3           , 255         , 0           , 0
-0.0728663951, -0.106018759, -9.81714    , 0.0004484349, -0.000305691268, 0.00029351213, 0.0118648447, -0.007980958, -0.000188821243, 916.269836  , 31.8359718  , 840.7444    , 3.4         , 3           , 255         , 0           , 0
-0.06650778 , -0.107309483, -9.80997849 , 0.000441420882, -0.000241396861, 0.0005815452, 0.0118692666, -0.007980097, -0.000183035227, 916.269836  , 31.8359718  , 840.7317    , 3.41        , 3           , 255         , 0           , 0
-0.0649652258, -0.119486734, -9.819742   , -0.000121175406, 0.0004075282, 9.908917E-05, 0.0118680475, -0.007976034, -0.000181996031, 916.269836  , 31.8359718  , 840.731567  , 3.42        , 3           , 255         , 0           , 0
-0.0755881  , -0.116954163, -9.796384   , 0.0003351102, 0.0006616013, -0.0009359943, 0.011871472 , -0.007969308, -0.000191276878, 916.261963  , 31.8369846  , 840.731445  , 3.43        , 3           , 255         , 0           , 0
-0.07322307 , -0.117809795, -9.807388   , 0.000917826954, -0.000259081426, -0.000267016469, 0.0118806725, -0.007971866, -0.0001939776, 916.261963  , 31.8369846  , 840.7314    , 3.44        , 3           , 255         , 0           , 0
-0.0732387  , -0.128288388, -9.80718    , 0.000215644948, -0.000303034933, -0.000283943315, 0.011882849 , -0.007974862, -0.000196852867, 916.261963  , 31.8369846  , 840.7313    , 3.45        , 3           , 255         , 0           , 0
-0.07632778 , -0.1155564  , -9.81783    , 0.000621629937, -0.000144738515, 0.0006843095, 0.0118890116, -0.00797638949, -0.000190027407, 916.261963  , 31.8369846  , 840.731262  , 3.46        , 3           , 255         , 0           , 0
-0.0762341544, -0.115177952, -9.808981   , 0.000111048932, 0.00039774616, 0.000711735 , 0.0118900649, -0.00797249749, -0.000182863208, 916.261963  , 31.8369846  , 840.7312    , 3.47        , 3           , 255         , 0           , 0
-0.08515828 , -0.114567019, -9.814161   , -4.017341E-05, 0.0007326954, 0.0007229431, 0.0118896058, -0.007965256, -0.000175547117, 916.261963  , 31.8369846  , 840.73114   , 3.48        , 3           , 255         , 0           , 0
-0.08104742 , -0.107035354, -9.806146   , 0.000253769365, -6.79946461E-05, 0.0003686301, 0.0118921138, -0.007965979, -0.00017186912, 916.261963  , 31.8369846  , 840.7311    , 3.49        , 3           , 255         , 0           , 0
-0.07479149 , -0.117225327, -9.80450249 , -0.000374359865, -0.0005266911, -0.000286146533, 0.0118883941, -0.007971213, -0.000174793036, 916.261963  , 31.8369846  , 840.731     , 3.5         , 3           , 255         , 0           , 0
-0.07067318 , -0.116517127, -9.802717   , -0.000237996312, -0.000190641716, -0.000280326669, 0.0118853049, -0.007968924, -0.000177612965, 916.261963  , 31.8369846  , 840.7316    , 3.51        , 3           , 255         , 0           , 0
-0.07962926 , -0.108726837, -9.802037   , -0.0002925584, -7.826757E-05, -0.000601115054, 0.0118824281, -0.007969636, -0.000183633034, 916.261963  , 31.8369846  , 840.731567  , 3.52        , 3           , 255         , 0           , 0
-0.07352672 , -0.110804021, -9.81412    , 0.000455352332, -3.783524E-05, -0.000215877924, 0.011886999 , -0.007969988, -0.000185796162, 916.2566    , 31.8350964  , 840.7315    , 3.53        , 3           , 255         , 0           , 0
-0.07302505 , -0.107141472, -9.807519   , 0.000106920204, -0.0005207027, 1.10171095E-05, 0.0118880691, -0.007975194, -0.0001857479, 916.2566    , 31.8350964  , 840.731445  , 3.54        , 3           , 255         , 0           , 0
-0.078451246, -0.113807894, -9.811958   , -8.638054E-05, -0.0003998241, -0.0001282149, 0.011887216 , -0.007979177, -0.000187077487, 916.2566    , 31.8350964  , 840.7314    , 3.55        , 3           , 255         , 0           , 0
-0.07877567 , -0.113012716, -9.808843   , -0.0003507251, 7.5504664E-05, -0.00013664084, 0.011883718 , -0.007978406, -0.00018843486, 916.2566    , 31.8350964  , 840.7313    , 3.56        , 3           , 255         , 0           , 0
-0.07047164 , -0.12009263 , -9.802666   , 2.69522861E-05, 0.000242726936, 0.0003183626, 0.011883961 , -0.007976017, -0.000185222583, 916.2566    , 31.8350964  , 840.731262  , 3.57        , 3           , 255         , 0           , 0
-0.07498831 , -0.129910022, -9.803864   , 0.000295592559, 0.000382965663, -0.000108533655, 0.0118869273, -0.007972175, -0.000186262318, 916.2566    , 31.8350964  , 840.7312    , 3.58        , 3           , 255         , 0           , 0
-0.0733346  , -0.124374188, -9.807397   , -0.00078543683, 0.0002453473, -0.0006722627, 0.0118791265, -0.007969641, -0.000192955369, 916.2566    , 31.8350964  , 840.73114   , 3.59        , 3           , 255         , 0           , 0
-0.0744155943, -0.119187355, -9.799263   , 8.0443795E-05, 6.69179863E-05, -0.0005249752, 0.0118799722, -0.00796891 , -0.000198196838, 916.2566    , 31.8350964  , 840.7311    , 3.6         , 3           , 255         , 0           , 0
-0.07503383 , -0.114260592, -9.805451   , 2.346903E-05, 6.5258806E-05, 0.000163562625, 0.01187991  , -0.00796368 , -0.0001965513, 916.2566    , 31.8350964  , 840.7397    , 3.61        , 3           , 255         , 0           , 0
-0.07020839 , -0.110670507, -9.8093605  , 0.000373116956, -0.000815799343, 0.000954608666, 0.0118835634, -0.007971951, -0.000187102734, 916.2566    , 31.8350964  , 840.7397    , 3.62        , 3           , 255         , 0           , 0
-0.0665169  , -0.106877729, -9.804202   , -9.864484E-05, -0.000846413663, 0.00026217883, 0.0118825566, -0.00798044447, -0.000184581673, 916.2766    , 31.838129   , 840.7397    , 3.63        , 3           , 255         , 0           , 0
-0.0665994659, -0.107246436, -9.805193   , -0.00052034395, -6.18744525E-06, -0.000499992864, 0.0118773934, -0.007980447, -0.000189582031, 916.2766    , 31.838129   , 840.7397    , 3.64        , 3           , 255         , 0           , 0
-0.07092146 , -0.109607816, -9.808703   , -0.000370651047, -0.0008321636, -0.0005795892, 0.0118737342, -0.007988701, -0.000195476357, 916.2766    , 31.838129   , 840.739746  , 3.65        , 3           , 255         , 0           , 0
-0.07908225 , -0.113820456, -9.818348   , 0.0003404238, -0.0005598096, -7.111904E-05, 0.0118771438, -0.007994288, -0.000196253954, 916.2766    , 31.838129   , 840.7398    , 3.66        , 3           , 255         , 0           , 0
-0.07512534 , -0.10900028 , -9.809458   , 3.70793859E-05, 0.0001707479, -0.0001429177, 0.0118775265, -0.007992564, -0.000197662768, 916.2766    , 31.838129   , 840.739868  , 3.67        , 3           , 255         , 0           , 0
-0.07131828 , -0.117221639, -9.811941   , -0.0008629654, -4.782775E-05, 3.3434153E-05, 0.0118688941, -0.007993046, -0.000197334128, 916.2766    , 31.838129   , 840.7399    , 3.68        , 3           , 255         , 0           , 0
-0.06848607 , -0.112630293, -9.799797   , -0.00043038922, -0.000169932377, 0.000233437546, 0.0118645728, -0.007994773, -0.000195020068, 916.2766    , 31.838129   , 840.74      , 3.69        , 3           , 255         , 0           , 0
-0.0709406  , -0.115525447, -9.801109   , -0.000485648838, 0.000241700938, 0.000385745341, 0.0118596852, -0.007992404, -0.0001911342, 916.2766    , 31.838129   , 840.740051  , 3.7         , 3           , 255         , 0           , 0
-0.07723405 , -0.123098239, -9.797157   , 0.000426030369, 0.0004976619, -0.000318236067, 0.0118580507, -0.00797884353, -0.000194210079, 916.2766    , 31.838129   , 840.7187    , 3.71        , 3           , 255         , 0           , 0
-0.07092678 , -0.126103625, -9.809189   , -0.000140552089, 0.000171095962, -4.49283762E-05, 0.0118566481, -0.007977127, -0.00019463904, 916.2766    , 31.838129   , 840.7186    , 3.72        , 3           , 255         , 0           , 0
-0.0687042  , -0.1129424  , -9.81084251 , -6.607231E-05, 3.076915E-05, 0.0001143111, 0.0118559795, -0.007976833, -0.000193492378, 916.2394    , 31.83678    , 840.718567  , 3.73        , 3           , 255         , 0           , 0
-0.06744124 , -0.114459351, -9.811577   , -0.000134263857, 0.000304145971, 6.912951E-05, 0.0118546309, -0.0079738  , -0.000192765045, 916.2394    , 31.83678    , 840.7185    , 3.74        , 3           , 255         , 0           , 0
-0.06071015 , -0.110483646, -9.807843   , 0.000269516546, 0.0001419614, 0.000343971216, 0.0118572982, -0.007972422, -0.000189308732, 916.2394    , 31.83678    , 840.718445  , 3.75        , 3           , 255         , 0           , 0
-0.06842547 , -0.119713262, -9.80925    , 0.0004785378, 2.29226862E-05, 0.000341761741, 0.0118620554, -0.007972233, -0.0001858886, 916.2394    , 31.83678    , 840.7184    , 3.76        , 3           , 255         , 0           , 0
-0.0693028048, -0.110216819, -9.804103   , 0.000177630456, -0.0007077372, -0.000165285048, 0.0118638435, -0.007979291, -0.0001876253, 916.2394    , 31.83678    , 840.7183    , 3.77        , 3           , 255         , 0           , 0
-0.0746817142, -0.11285679 , -9.802013   , 0.0007630434, -0.000614165736, -0.000275943283, 0.0118714962, -0.007985397, -0.00019045746, 916.2394    , 31.83678    , 840.718262  , 3.78        , 3           , 255         , 0           , 0
-0.08185519 , -0.115548573, -9.803729   , -0.0004218833, 9.982016E-05, -7.864499E-05, 0.0118672848, -0.00798439048, -0.000191232029, 916.2394    , 31.83678    , 840.7182    , 3.79        , 3           , 255         , 0           , 0
-0.06867407 , -0.115808919, -9.808331   , -0.0003300545, 0.0008462745, -0.000291579461, 0.0118640075, -0.007975895, -0.000194047228, 916.2394    , 31.83678    , 840.71814   , 3.8         , 3           , 255         , 0           , 0
-0.074378334, -0.114032552, -9.813362   , 0.000336136145, 0.001185437 , -8.942616E-05, 0.0118671851, -0.007954675, -0.000194799257, 916.2394    , 31.83678    , 840.7529    , 3.81        , 3           , 255         , 0           , 0
-0.0676621646, -0.115139678, -9.813947   , 0.000207089455, 0.0005646185, -0.000198906549, 0.01186927  , -0.007949007, -0.000196721157, 916.2394    , 31.83678    , 840.7531    , 3.82        , 3           , 255         , 0           , 0
-0.06739152 , -0.11946249 , -9.813379   , -0.000219386769, 0.0005330605, 8.823675E-05, 0.0118670687, -0.007943685, -0.000195775589, 916.28125   , 31.8359051  , 840.7533    , 3.83        , 3           , 255         , 0           , 0
-0.0732429847, -0.115446068, -9.809961   , 5.06922952E-05, -0.0004189464, 0.00021627458, 0.0118675586, -0.0079479  , -0.00019366268, 916.28125   , 31.8359051  , 840.7535    , 3.84        , 3           , 255         , 0           , 0
-0.07510237 , -0.124417044, -9.796843   , 6.68993744E-06, -9.021453E-05, -0.000183763987, 0.0118676405, -0.00794878 , -0.000195510918, 916.28125   , 31.8359051  , 840.753662  , 3.85        , 3           , 255         , 0           , 0
-0.07220636 , -0.119427465, -9.795087   , -0.0003422312, 0.0004557396, -0.00024908263, 0.0118642375, -0.007944194, -0.000197947535, 916.28125   , 31.8359051  , 840.753845  , 3.86        , 3           , 255         , 0           , 0
-0.0703677163, -0.11568971 , -9.815485   , 0.0002491984, -0.000187188547, 0.000177730486, 0.0118667167, -0.007946087, -0.00019619253, 916.28125   , 31.8359051  , 840.754     , 3.87        , 3           , 255         , 0           , 0
-0.07214968 , -0.110040329, -9.812361   , 0.000369500485, -0.000314472418, 0.000416477938, 0.0118703777, -0.007949281, -0.00019206533, 916.28125   , 31.8359051  , 840.7542    , 3.88        , 3           , 255         , 0           , 0
-0.07541314 , -0.114826106, -9.805717   , 0.000448114239, -1.42432255E-05, 0.000195243076, 0.0118748434, -0.007949445, -0.000190114719, 916.28125   , 31.8359051  , 840.7544    , 3.89        , 3           , 255         , 0           , 0
-0.07153056 , -0.115448639, -9.80355    , -0.000352717179, 1.45338709E-05, 0.000105528896, 0.0118713081, -0.007949313, -0.000189057755, 916.28125   , 31.8359051  , 840.7546    , 3.9         , 3           , 255         , 0           , 0
-0.0680461153, -0.112353146, -9.810465   , -2.49062E-05, -0.0001430682, -0.0004067034, 0.0118710808, -0.007943576, -0.000193141444, 916.28125   , 31.8359051  , 840.724548  , 3.91        , 3           , 255         , 0           , 0
-0.07176372 , -0.11194066 , -9.804905   , -0.000229973724, -0.00028535226, 0.0006463475, 0.0118687293, -0.007946506, -0.000186712234, 916.28125   , 31.8359051  , 840.724548  , 3.92        , 3           , 255         , 0           , 0
-0.07576199 , -0.112186596, -9.811938   , -9.851401E-05, -8.32117948E-05, 0.0006508482, 0.0118676927, -0.007947415, -0.000180214061, 916.283     , 31.8330727  , 840.724548  , 3.93        , 3           , 255         , 0           , 0
-0.0748132244, -0.111059725, -9.806882   , 0.000199410424, 0.0007488108, 0.0002535854, 0.0118696652, -0.007939958, -0.000177589522, 916.283     , 31.8330727  , 840.724548  , 3.94        , 3           , 255         , 0           , 0
-0.07837431 , -0.115545668, -9.807853   , 0.000479514274, 0.0001671401, -0.000266956253, 0.01187448  , -0.007938256, -0.000180239062, 916.283     , 31.8330727  , 840.724548  , 3.95        , 3           , 255         , 0           , 0
-0.06746642 , -0.120744646, -9.811192   , 0.00132372335, -0.000673235161, 0.000183814132, 0.011887705 , -0.007945008, -0.000178481016, 916.283     , 31.8330727  , 840.724548  , 3.96        , 3           , 255         , 0           , 0
-0.06414849 , -0.117263809, -9.820804   , 0.000214731408, -0.0006170512, 0.000276891224, 0.0118898312, -0.00795121 , -0.000175785623, 916.283     , 31.8330727  , 840.724548  , 3.97        , 3           , 255         , 0           , 0
-0.0635308549, -0.120331906, -9.819985   , 0.000623290369, -0.000607265858, -0.000130218526, 0.0118960747, -0.007957265, -0.000177159935, 916.283     , 31.8330727  , 840.7246    , 3.98        , 3           , 255         , 0           , 0
-0.05953794 , -0.126697212, -9.810967   , -9.166403E-05, -0.000194603577, -0.0009861814, 0.0118952366, -0.007959093, -0.00018704425, 916.283     , 31.8330727  , 840.7247    , 3.99        , 3           , 255         , 0           , 0
-0.06089451 , -0.122034892, -9.806524   , 0.000189859333, -0.000314646255, -0.000237129134, 0.0118971542, -0.00796221 , -0.0001894528, 916.283     , 31.8330727  , 840.724731  , 4           , 3           , 0           , 9.501237    , 400
-0.07306186 , -0.115007415, -9.811      , 0.000382180966, -0.0003466435, -0.0006646402, 0.0119015817, -0.007955619, -0.000196144421, 916.283     , 31.8330727  , 840.6966    , 4.01        , 3           , 1           , 0           , 0
-0.0705572739, -0.115111269, -9.806766   , -0.000119544769, -0.000648111338, -0.000286441122, 0.01190041  , -0.007962066, -0.000199085771, 916.283     , 31.8330727  , 840.6965    , 4.02        , 3           , 2           , 0           , 0
-0.07280578 , -0.116990924, -9.808853   , -2.576807E-05, -0.000515115156, 0.0003176457, 0.0119001269, -0.007967255, -0.0001959708, 916.250549  , 31.83995    , 840.69635   , 4.03        , 3           , 3           , 0           , 0
-0.06874305 , -0.110691354, -9.807028   , 1.22034035E-05, 4.33709065E-05, -1.80361822E-05, 0.01190025  , -0.007966818, -0.000196146, 916.250549  , 31.83995    , 840.6962    , 4.04        , 3           , 4           , 0           , 0
-0.0763726458, -0.108246543, -9.808859   , -0.000111050984, 0.00116253272, 0.000363855972, 0.01189911  , -0.007955238, -0.000192369349, 916.250549  , 31.83995    , 840.6961    , 4.05        , 3           , 5           , 0           , 0
-0.0776038244, -0.113900825, -9.802737   , 0.000239562825, -0.00030495954, -0.000406001258, 0.011901537 , -0.007958236, -0.000196465364, 916.250549  , 31.83995    , 840.696     , 4.06        , 3           , 6           , 0           , 0
-0.0726121739, -0.113879159, -9.801604   , -0.000431041146, 0.0006077005, 0.00026224085, 0.0118972054, -0.007952192, -0.000193770815, 916.250549  , 31.83995    , 840.695862  , 4.07        , 3           , 7           , 0           , 0
-0.06799044 , -0.115689591, -9.807209   , -0.0003104397, 0.0003853498, -0.000202954951, 0.011894118 , -0.007948315, -0.00019575443, 916.250549  , 31.83995    , 840.69574   , 4.08        , 3           , 8           , 5           , 5
-0.07112323 , -0.11026746 , -9.811354   , 4.169868E-05, -0.000286582857, -0.0006585347, 0.0118945874, -0.007951102, -0.000202373441, 916.250549  , 31.83995    , 840.6956    , 4.09        , 3           , 9           , 5           , 0.1
-0.07073268 , -0.120744608, -9.809972   , 0.000193355489, -0.00053562416, -0.000288205658, 0.0118965441, -0.007956424, -0.000205319026, 916.250549  , 31.83995    , 840.6955    , 4.1         , 3           , 10          , 0.1         , 0.1
-0.0720552057, -0.119645774, -9.811252   , 0.000290124648, -0.000226070959, -0.0005568853, 0.0118963579, -0.007951658, -0.000210889542, 916.250549  , 31.83995    , 840.7179    , 4.11        , 3           , 11          , 0.008198471 , 0.008198466
-0.05912273 , -0.116600975, -9.811325   , 9.08402944E-05, -0.000309286173, -0.000320260529, 0.0118972929, -0.007954713, -0.000214128726, 916.250549  , 31.83995    , 840.717957  , 4.12        , 3           , 12          , 0.174648076 , 0
-0.0657126158, -0.10405536 , -9.799487   , 0.000444534642, 1.264966E-05, -0.000446999969, 0.0119017726, -0.007954533, -0.000218596921, 916.2953    , 31.8375912  , 840.718     , 4.13        , 3           , 13          , 0           , 0
-0.0748746544, -0.112011656, -9.816367   , 0.000157060334, -0.000103846767, 0.000191336643, 0.0119033279, -0.007955594, -0.000216696048, 916.2953    , 31.8375912  , 840.7181    , 4.14        , 3           , 14          , 7.142772E-05, 0.000165870166
-0.06695993 , -0.114049375, -9.81302452 , 0.0006104281, -0.000111984351, -0.0006701774, 0.0119094858, -0.007956635, -0.000223410723, 916.2953    , 31.8375912  , 840.71814   , 4.15        , 3           , 15          , 0           , 0.000111279049
-0.07879569 , -0.126589611, -9.81119    , 0.000441933516, -0.000306236267, -0.000370028574, 0.0119139357, -0.007959651, -0.000227147248, 916.2953    , 31.8375912  , 840.7182    , 4.16        , 3           , 16          , 0           , 1.401298E-45
-0.0766829  , -0.122293808, -9.805176   , -0.000311498152, 4.19818971E-05, 7.235678E-05, 0.0119108139, -0.007959239, -0.0002264187, 916.2953    , 31.8375912  , 840.718262  , 4.17        , 3           , 20          , 0           , 0
-0.07384572 , -0.119136177, -9.802781   , 0.000379007921, -0.000838902255, 0.000236386986, 0.0119145857, -0.00796765648, -0.000224154908, 916.2953    , 31.8375912  , 840.7183    , 4.18        , 3           , 21          , 0           , 0
-0.07178731 , -0.117016122, -9.801027   , -0.000238566776, -0.0005469409, 9.0624555E-05, 0.0119121931, -0.007973136, -0.00022331388, 916.2953    , 31.8375912  , 840.7184    , 4.19        , 3           , 22          , 0           , 0
-0.0772549361, -0.115520075, -9.808279   , 0.000315869 , 3.54696967E-05, -4.16157927E-05, 0.0119153541, -0.007972777, -0.000223725787, 916.2953    , 31.8375912  , 840.718445  , 4.2         , 3           , 40          , 0           , 0
-0.08545789 , -0.11622306 , -9.809424   , 0.0008346859, -0.000634053955, -0.000342138665, 0.011923614 , -0.007971814, -0.000227221608, 916.2953    , 31.8375912  , 840.6739    , 4.21        , 3           , 41          , 0           , 0
-0.08593544 , -0.120575026, -9.819159   , -0.000365068961, -0.000134245623, -3.27123344E-05, 0.0119199678, -0.007973152, -0.0002275647, 916.2953    , 31.8375912  , 840.6737    , 4.22        , 3           , 42          , 0           , 0
-0.07740441 , -0.114939824, -9.806041   , -9.978205E-05, -0.00102187379, -0.000581950648, 0.0119190169, -0.007983301, -0.000233505634, 916.248657  , 31.836916   , 840.6735    , 4.23        , 3           , 255         , 0           , 0
-0.0564287081, -0.11556574 , -9.803599   , 0.001250827 , -0.0004629501, -0.000665568165, 0.01193158  , -0.007987849, -0.00024021609, 916.248657  , 31.836916   , 840.67334   , 4.24        , 3           , 255         , 0           , 0
-0.05890126 , -0.114360705, -9.801625   , 0.0018889521, -0.00141662091, -0.000207357458, 0.0119504863, -0.00800199 , -0.000242458686, 916.248657  , 31.836916   , 840.673157  , 4.25        , 3           , 255         , 0           , 0
-0.0631611347, -0.111894749, -9.807896   , 0.00167459843, -0.00116289838, -0.000133988244, 0.0119672446, -0.00801360048, -0.000243937538, 916.248657  , 31.836916   , 840.673     , 4.26        , 3           , 255         , 0           , 0
-0.06661902 , -0.118698776, -9.797953   , 0.000863712339, -0.0006570867, -0.0002851979, 0.0119759031, -0.008020136, -0.000246868, 916.248657  , 31.836916   , 840.6728    , 4.27        , 3           , 255         , 0           , 0
-0.07454087 , -0.126427889, -9.807936   , 0.000260445348, -0.0006063207, 0.0003968996, 0.0119784763, -0.008026247, -0.00024297183, 916.248657  , 31.836916   , 840.6726    , 4.28        , 3           , 255         , 0           , 0
-0.07374512 , -0.12044736 , -9.814001   , -8.619536E-06, -0.000383599428, -0.000481912226, 0.0119784288, -0.008030025, -0.0002478366, 916.248657  , 31.836916   , 840.6724    , 4.29        , 3           , 255         , 0           , 0
-0.06658763 , -0.117963612, -9.81184    , -0.000556495157, 0.0003487933, 4.137749E-05, 0.01197286  , -0.008026542, -0.000247381075, 916.248657  , 31.836916   , 840.672241  , 4.3         , 3           , 255         , 0           , 0
-0.06445334 , -0.117974088, -9.808929   , -0.000787392, 9.54371644E-05, 0.000737323251, 0.0119655682, -0.008017077, -0.000240002046, 916.248657  , 31.836916   , 840.7009    , 4.31        , 3           , 255         , 0           , 0
-0.06756278 , -0.113094866, -9.799983   , 1.91654617E-05, -0.00117798743, 0.0008762029, 0.0119656883, -0.008028959, -0.0002313815, 916.248657  , 31.836916   , 840.7009    , 4.32        , 3           , 255         , 0           , 0
-0.06698879 , -0.109338284, -9.79327    , 0.0009939341, -0.00179141737, -0.000389998779, 0.0119756619, -0.00804682449, -0.000235495681, 916.271362  , 31.8384     , 840.7009    , 4.33        , 3           , 255         , 0           , 0
-0.05715247 , -0.112717047, -9.799205   , 0.00164331472, -0.00165105634, -0.00110202655, 0.0119921854, -0.0080632  , -0.000246713083, 916.271362  , 31.8384     , 840.7009    , 4.34        , 3           , 255         , 0           , 0
-0.06007415 , -0.11450319 , -9.806844   , 0.00169356284, -0.00146508263, -0.00044262383, 0.0120091578, -0.00807779748, -0.000251314836, 916.271362  , 31.8384     , 840.7009    , 4.35        , 3           , 255         , 0           , 0
-0.07927169 , -0.125222355, -9.810772   , 0.001235753 , -0.000706505147, 0.000187418045, 0.0120215   , -0.008084883, -0.000249525649, 916.271362  , 31.8384     , 840.7009    , 4.36        , 3           , 255         , 0           , 0
-0.08092    , -0.133640721, -9.80841351 , 0.00134850165, -0.00117278087, 0.00052532414, 0.0120349433, -0.008096673, -0.000244413823, 916.271362  , 31.8384     , 840.7009    , 4.37        , 3           , 255         , 0           , 0
-0.07310776 , -0.124962687, -9.80481148 , 0.0007587803, -0.000575277547, 0.000208664336, 0.0120425131, -0.008102449, -0.000242396563, 916.271362  , 31.8384     , 840.7009    , 4.38        , 3           , 255         , 0           , 0
-0.06978355 , -0.114972234, -9.799202   , 0.000636693148, -0.0005765738, 0.000218187342, 0.0120488629, -0.00810824148, -0.000240284251, 916.271362  , 31.8384     , 840.7009    , 4.39        , 3           , 255         , 0           , 0
-0.067349866, -0.1123993  , -9.806534   , 0.000196846857, -8.790812E-07, -3.227002E-05, 0.0120508345, -0.008108246, -0.000240607056, 916.271362  , 31.8384     , 840.7009    , 4.4         , 3           , 255         , 0           , 0
-0.0749643  , -0.1102161  , -9.811364   , -0.000229339144, 3.78679979E-05, 0.000101407561, 0.0120488005, -0.008094084, -0.000239590678, 916.271362  , 31.8384     , 840.6932    , 4.41        , 3           , 255         , 0           , 0
-0.07608799 , -0.109650575, -9.813189   , 0.00094035553, 0.000539604 , 0.0005546688, 0.0120581575, -0.00808875449, -0.000233979285, 916.271362  , 31.8384     , 840.6932    , 4.42        , 3           , 255         , 0           , 0
-0.06589437 , -0.111452796, -9.807044   , 0.00115157629, -0.0003235428, 0.00105112232, 0.01206959  , -0.008092117, -0.000223507785, 916.2602    , 31.836916   , 840.6932    , 4.43        , 3           , 255         , 0           , 0
-0.07200663 , -0.110349312, -9.797426   , 0.0009983392, -0.001135417, 0.0004120745, 0.0120795406, -0.00810352 , -0.000219524387, 916.2602    , 31.836916   , 840.6932    , 4.44        , 3           , 255         , 0           , 0
-0.07851784 , -0.121226951, -9.80914    , 0.00088894146, -0.0014075645, -0.000287347619, 0.0120884534, -0.0081175575, -0.000222567745, 916.2602    , 31.836916   , 840.6932    , 4.45        , 3           , 255         , 0           , 0
-0.07206488 , -0.113704666, -9.8103     , 0.00166467112, -0.0009915378, -0.0006339752, 0.012105152 , -0.008127395, -0.000229026962, 916.2602    , 31.836916   , 840.6932    , 4.46        , 3           , 255         , 0           , 0
-0.06897944 , -0.117720328, -9.81719    , 0.001318776 , 5.35466243E-05, -0.000102398168, 0.0121183479, -0.008126846, -0.0002300444, 916.2602    , 31.836916   , 840.6932    , 4.47        , 3           , 255         , 0           , 0
-0.0730348155, -0.113571882, -9.810915   , 0.000850483 , -0.00123493862, 0.000305304478, 0.0121268295, -0.00813923 , -0.000227141267, 916.2602    , 31.836916   , 840.6932    , 4.48        , 3           , 255         , 0           , 0
-0.07122265 , -0.103385687, -9.80585    , 0.000472048472, -0.00087174034, 0.000341070583, 0.0121315215, -0.00814798847, -0.0002238365, 916.2602    , 31.836916   , 840.6932    , 4.49        , 3           , 255         , 0           , 0
-0.08205446 , -0.117236413, -9.812196   , 0.00149209925, -0.00156862591, 0.000197860471, 0.0121464282, -0.008163694, -0.000222048431, 916.2602    , 31.836916   , 840.6932    , 4.5         , 3           , 255         , 0           , 0
-0.0801435  , -0.122746274, -9.810087   , 0.000667039654, -0.0008758747, -0.000183752592, 0.0121470774, -0.008165968, -0.000223942945, 916.2602    , 31.836916   , 840.7024    , 4.51        , 3           , 255         , 0           , 0
-0.074436076, -0.116330564, -9.815874   , 0.00100996182, -0.00111113291, -3.92918737E-05, 0.0121571822, -0.008177074, -0.000224470859, 916.2602    , 31.836916   , 840.702454  , 4.52        , 3           , 255         , 0           , 0
-0.0669731051, -0.1224921  , -9.797681   , 0.0007821076, -0.00126742688, 0.000564996968, 0.0121649578, -0.008189815, -0.000218975372, 916.3101    , 31.8371868  , 840.7025    , 4.53        , 3           , 255         , 0           , 0
-0.07481357 , -0.117889307, -9.799479   , 0.000966763531, -0.00161225407, 0.0007834459, 0.0121745616, -0.00820603 , -0.000211337639, 916.3101    , 31.8371868  , 840.7026    , 4.54        , 3           , 255         , 0           , 0
-0.0778293759, -0.126651853, -9.809902   , 0.00113173132, -0.00190815073, -0.000189885584, 0.0121858967, -0.008225087, -0.000213468753, 916.3101    , 31.8371868  , 840.702637  , 4.55        , 3           , 255         , 0           , 0
-0.07015835 , -0.123631492, -9.808426   , 0.00108100311, -0.00105479627, 0.000295962149, 0.0121966843, -0.008235672, -0.000210637911, 916.3101    , 31.8371868  , 840.7027    , 4.56        , 3           , 255         , 0           , 0
-0.073186025, -0.110759452, -9.804696   , 0.000231728656, 6.38700149E-05, -0.000487446261, 0.0121990414, -0.008234973, -0.00021550426, 916.3101    , 31.8371868  , 840.702759  , 4.57        , 3           , 255         , 0           , 0
-0.07768196 , -0.118302628, -9.80895    , -0.000789054262, 0.00104780518, -0.00062455266, 0.0121912025, -0.00822442 , -0.000221621609, 916.3101    , 31.8371868  , 840.7028    , 4.58        , 3           , 255         , 0           , 0
-0.07390039 , -0.116424844, -9.813825   , -0.00162681984, 0.00228532427, -2.74197882E-05, 0.0121749341, -0.008201565, -0.000221617345, 916.3101    , 31.8371868  , 840.702942  , 4.59        , 3           , 255         , 0           , 0
-0.0661998242, -0.11196427 , -9.8130455  , -0.00102212932, 0.00127142214, -0.000394637173, 0.0121647436, -0.008188801, -0.000225408716, 916.3101    , 31.8371868  , 840.703064  , 4.6         , 3           , 255         , 0           , 0
-0.07993823 , -0.116666354, -9.81295    , -0.00145777664, 0.000885590038, -0.000462311, 0.0121493647, -0.008172155, -0.000229916972, 916.3101    , 31.8371868  , 840.6403    , 4.61        , 3           , 255         , 0           , 0
-0.07113921 , -0.114817753, -9.80168152 , -0.000965047744, 0.000431306078, 0.000238179666, 0.0121396948, -0.008167871, -0.000227482975, 916.3101    , 31.8371868  , 840.64      , 4.62        , 3           , 255         , 0           , 0
-0.06755082 , -0.114139818, -9.802933   , -0.000444676029, 0.000393320515, 0.0003555778, 0.0121352188, -0.008163982, -0.000223879688, 916.2723    , 31.8392754  , 840.6397    , 4.63        , 3           , 255         , 0           , 0
-0.07520276 , -0.10646677 , -9.812569   , -0.0006763105, 0.00115822814, -0.000444458245, 0.0121284919, -0.008152347, -0.00022818349, 916.2723    , 31.8392754  , 840.6394    , 4.64        , 3           , 255         , 0           , 0
-0.07105845 , -0.109637879, -9.800939   , 9.75701259E-05, -4.869445E-05, -0.000409862521, 0.0121295005, -0.008152782, -0.000232287726, 916.2723    , 31.8392754  , 840.6391    , 4.65        , 3           , 255         , 0           , 0
-0.07154934 , -0.110696927, -9.80957    , 0.000828435645, -0.0004933115, 0.000445401733, 0.0121377492, -0.008157769, -0.000227893848, 916.2723    , 31.8392754  , 840.6388    , 4.66        , 3           , 255         , 0           , 0
-0.07614134 , -0.112496711, -9.80810452 , 0.000554994447, -9.997253E-05, -0.0001741587, 0.0121433139, -0.008158748, -0.00022964747, 916.2723    , 31.8392754  , 840.63855   , 4.67        , 3           , 255         , 0           , 0
-0.07928391 , -0.110642627, -9.804731   , -1.733702E-05, -0.000463060162, 0.000108914966, 0.0121431323, -0.008163391, -0.000228614619, 916.2723    , 31.8392754  , 840.6383    , 4.68        , 3           , 255         , 0           , 0
-0.08184905 , -0.113692477, -9.805486   , 0.0004403484, -0.000783699856, 0.000823493639, 0.0121474694, -0.00817132648, -0.000220475384, 916.2723    , 31.8392754  , 840.638062  , 4.69        , 3           , 255         , 0           , 0
-0.0795816854, -0.119731821, -9.800864   , 0.00020593284, -0.000361973827, -4.17978954E-05, 0.0121495323, -0.008174941, -0.0002209373, 916.2723    , 31.8392754  , 840.6378    , 4.7         , 3           , 255         , 0           , 0
-0.07206315 , -0.117010832, -9.796578   , 4.41281736E-05, 8.400793E-05, 0.00032109482, 0.0121428529, -0.008168716, -0.000217658424, 916.2723    , 31.8392754  , 840.638062  , 4.71        , 3           , 255         , 0           , 0
-0.0788787752, -0.11797221 , -9.815414   , -0.000557997148, -0.0003393981, 7.880058E-05, 0.0121372687, -0.008172118, -0.000216911663, 916.2723    , 31.8392754  , 840.6378    , 4.72        , 3           , 255         , 0           , 0
-0.09326971 , -0.115142539, -9.798694   , -9.141462E-05, -0.000378604629, -0.000689469045, 0.0121364119, -0.00817582 , -0.00022385185, 916.2859    , 31.8382645  , 840.6376    , 4.73        , 3           , 255         , 0           , 0
-0.08716228 , -0.120350219, -9.80469    , -0.000109945031, -0.000338286743, 0.000173826731, 0.0121352989, -0.008179222, -0.000222154747, 916.2859    , 31.8382645  , 840.6373    , 4.74        , 3           , 255         , 0           , 0
-0.08202099 , -0.1256651  , -9.805383   , 4.26209E-05 , 0.000353467418, 2.89380332E-05, 0.0121357227, -0.00817569252, -0.000221822527, 916.2859    , 31.8382645  , 840.6371    , 4.75        , 3           , 255         , 0           , 0
-0.07964653 , -0.121463239, -9.80464    , 0.000668826047, 2.86377035E-05, 0.000246779848, 0.0121423882, -0.008175437, -0.0002193514, 916.2859    , 31.8382645  , 840.636841  , 4.76        , 3           , 255         , 0           , 0
-0.0772445649, -0.11499393 , -9.808945   , 0.000412883877, 0.000130003653, 0.0008417696, 0.01214645  , -0.008174239, -0.000210918442, 916.2859    , 31.8382645  , 840.6366    , 4.77        , 3           , 255         , 0           , 0
-0.07517522 , -0.118445374, -9.810751   , 0.00043819545, -0.000583736633, -6.50204E-05, 0.0121508362, -0.008180067, -0.000211639519, 916.2859    , 31.8382645  , 840.636353  , 4.78        , 3           , 255         , 0           , 0
-0.08149937 , -0.107487105, -9.813301   , -0.000236112872, -1.81199284E-05, -0.0005113423, 0.0121485172, -0.008180185, -0.000216754808, 916.2859    , 31.8382645  , 840.6361    , 4.79        , 3           , 255         , 0           , 0
-0.08385594 , -0.115649842, -9.812508   , 0.0003532175, -0.0008238971, -0.000216345856, 0.0121520665, -0.008188398, -0.000219018228, 916.2859    , 31.8382645  , 840.635864  , 4.8         , 3           , 255         , 0           , 0
-0.07757452 , -0.11687398 , -9.810579   , 0.00107587711, -0.00166040659, 5.78423133E-05, 0.01216104  , -0.008205988, -0.000218627072, 916.2859    , 31.8382645  , 840.616943  , 4.81        , 3           , 255         , 0           , 0
-0.0835013539, -0.117307976, -9.80829048 , 0.00118516351, -0.00106716435, -0.000229241617, 0.0121729113, -0.008216629, -0.000221049166, 916.2859    , 31.8382645  , 840.6166    , 4.82        , 3           , 255         , 0           , 0
-0.08511223 , -0.113570765, -9.805923   , 0.0011006227, -0.000924371067, -4.55941336E-05, 0.0121839233, -0.008225867, -0.000221617651, 916.2354    , 31.8364449  , 840.6162    , 4.83        , 3           , 255         , 0           , 0
-0.0779854953, -0.119448386, -9.811716   , 0.00227501919, -0.002088177, 0.000507430057, 0.0122066336, -0.008246808, -0.000216798333, 916.2354    , 31.8364449  , 840.6159    , 4.84        , 3           , 255         , 0           , 0
-0.08468867 , -0.1165454  , -9.808978   , 0.00182826887, -0.00181559264, 0.0007984689, 0.0122248512, -0.008265061, -0.000209035949, 916.2354    , 31.8364449  , 840.6156    , 4.85        , 3           , 255         , 0           , 0
-0.08941011 , -0.116748415, -9.800556   , 0.00144118688, -0.00177138578, -3.828091E-05, 0.012239269 , -0.008282768, -0.000209635415, 916.2354    , 31.8364449  , 840.6153    , 4.86        , 3           , 255         , 0           , 0
-0.0820850655, -0.114516973, -9.802439   , 0.0007222727, -0.00090409955, -0.000390385336, 0.012246524 , -0.00829176 , -0.000213649677, 916.2354    , 31.8364449  , 840.615     , 4.87        , 3           , 255         , 0           , 0
-0.08717628 , -0.117642626, -9.80549049 , 0.00104442448, -0.00110982626, -1.80196366E-05, 0.0122569706, -0.008302854, -0.000213965817, 916.2354    , 31.8364449  , 840.6147    , 4.88        , 3           , 255         , 0           , 0
-0.0823443756, -0.112891629, -9.807083   , 0.000455054629, -0.0006604116, -0.000247391348, 0.0122615416, -0.008309427, -0.000216520537, 916.2354    , 31.8364449  , 840.6144    , 4.89        , 3           , 255         , 0           , 0
-0.07144805 , -0.114156507, -9.81371    , 0.0002877438, -0.000188578008, 4.33961759E-05, 0.0122644156, -0.008311318, -0.000216109722, 916.2354    , 31.8364449  , 840.6141    , 4.9         , 3           , 255         , 0           , 0
-0.07502687 , -0.122813664, -9.812381   , 0.000362365972, 0.0006436616, -0.000119821219, 0.0122638484, -0.008306093, -0.000217194014, 916.2354    , 31.8364449  , 840.6702    , 4.91        , 3           , 255         , 0           , 0
-0.07600673 , -0.123659171, -9.820994   , -0.0015412725, 0.001270742 , -0.000498144829, 0.012248476 , -0.008293326, -0.0002220194, 916.2354    , 31.8364449  , 840.6703    , 4.92        , 3           , 255         , 0           , 0
-0.0721618757, -0.12221761 , -9.808607   , -0.00107435451, 0.00103377388, -0.000554635655, 0.0122377789, -0.00828292 , -0.0002274388, 916.251648  , 31.8371868  , 840.670349  , 4.93        , 3           , 255         , 0           , 0
-0.07725416 , -0.115735449, -9.812842   , -0.000248330936, -0.000257989916, -0.000671203656, 0.0122353518, -0.008285418, -0.000234181978, 916.251648  , 31.8371868  , 840.6704    , 4.94        , 3           , 255         , 0           , 0
-0.07507237 , -0.1157756  , -9.801588   , -7.507861E-05, -0.0009995543, -0.000760831754, 0.0122346655, -0.008295317, -0.000241912057, 916.251648  , 31.8371868  , 840.6705    , 4.95        , 3           , 255         , 0           , 0
-0.06821034 , -0.121472478, -9.807344   , 0.00136176881, -0.000972831738, 6.84400657E-05, 0.0122482767, -0.008305055, -0.000241346788, 916.251648  , 31.8371868  , 840.670532  , 4.96        , 3           , 255         , 0           , 0
-0.06631129 , -0.11602249 , -9.811268   , 0.00112726924, -0.0008527993, -0.0005336441, 0.0122595942, -0.008313514, -0.000246787356, 916.251648  , 31.8371868  , 840.6706    , 4.97        , 3           , 255         , 0           , 0
-0.07140458 , -0.118645236, -9.811094   , 0.00103811931, -0.0006858751, -0.000180190938, 0.0122699915, -0.008320349, -0.000248673256, 916.251648  , 31.8371868  , 840.670654  , 4.98        , 3           , 255         , 0           , 0
-0.07167332 , -0.126859933, -9.809998   , 0.0005703512, -0.0005154746, -0.000498676847, 0.0122757377, -0.008325444, -0.000253722974, 916.251648  , 31.8371868  , 840.6707    , 4.99        , 3           , 255         , 0           , 0
-0.07869415 , -0.123404637, -9.81034851 , 0.0003330504, -0.001545198, -0.0003435735, 0.0122790961, -0.00834085047, -0.0002573482, 916.251648  , 31.8371868  , 840.6708    , 5           , 3           , 0           , -1          , 500
-0.07261181 , -0.118948534, -9.804991   , -7.214212E-05, -0.00010183124, -0.000434848916, 0.0122790132, -0.00833389349, -0.000261713954, 916.251648  , 31.8371868  , 840.69574   , 5.01        , 3           , 1           , 0           , 0
-0.07434024 , -0.108159266, -9.803918   , 0.0003594414, 0.0001560748, -0.0001435717, 0.0122826193, -0.008332315, -0.00026313038, 916.251648  , 31.8371868  , 840.696     , 5.02        , 3           , 2           , 0           , 0
-0.07356824 , -0.115135632, -9.803683   , 0.000943188 , -0.000346018554, -1.3734505E-05, 0.0122920517, -0.008335772, -0.000263310241, 916.233337  , 31.836647   , 840.6962    , 5.03        , 3           , 3           , 0           , 0
-0.0819100961, -0.118835531, -9.812393   , 0.00025196778, -0.000848795171, 0.000501850154, 0.0122945309, -0.008344319, -0.00025839638, 916.233337  , 31.836647   , 840.6965    , 5.04        , 3           , 4           , 0           , 0
-0.080293335, -0.118226156, -9.80892    , 0.0006439862, -0.00116164575, 0.000151676242, 0.01230096  , -0.008355953, -0.000257022533, 916.233337  , 31.836647   , 840.6967    , 5.05        , 3           , 5           , 0           , 0
-0.0792721957, -0.119496062, -9.81129    , 0.0005016694, -0.0002494468, 0.000306331029, 0.0123059489, -0.008358485, -0.000253990118, 916.233337  , 31.836647   , 840.69696   , 5.06        , 3           , 6           , 0           , 0
-0.0753681362, -0.121137284, -9.803861   , 0.0007016351, -0.00092441286, 8.0345E-05  , 0.0123129589, -0.008367737, -0.0002533005, 916.233337  , 31.836647   , 840.6972    , 5.07        , 3           , 7           , 0           , 0
-0.074771665, -0.118000068, -9.80583    , 0.001661982 , -0.0010731346, -0.000102439764, 0.0123295859, -0.008378454, -0.00025445706, 916.233337  , 31.836647   , 840.697449  , 5.08        , 3           , 8           , 5           , 5
-0.0719223246, -0.118977107, -9.810373   , 0.000204296113, -0.0009181802, -6.121147E-05, 0.0123316348, -0.008387626, -0.000255182327, 916.233337  , 31.836647   , 840.6977    , 5.09        , 3           , 9           , 5           , 0.1
-0.07547498 , -0.1182184  , -9.806039   , 0.0002831112, -0.000658883131, -0.000103575047, 0.0123344744, -0.008394201, -0.000256299274, 916.233337  , 31.836647   , 840.697937  , 5.1         , 3           , 10          , 0.1         , 0.1
