Acc X       , Acc Y       , Acc Z       , Gyro X      , Gyro Y      , Gyro Z      , Euler X     , Euler Y     , Euler Z     , Pres X      , Pres Y      , Pres Z      , Time        , Status      , LowRate X   , LowRate Y   , LowRate Z    
0.0193076618, -0.157079488, -9.823081   , 0           , 0.0134133911, 0           , 0.0159894936, 0.00196528644, 0           , 919.193054  , 30.6639843  , 814.2942    , 0           , 2           , 0           , 6.01423168  , 0
0.0218827222, -0.161786348, -9.806967   , -0.000910414965, 0.0129041076, -0.000381152029, 0.0159804281, 0.0020943305, -1.74845286E-06, 919.193054  , 30.6639843  , 814.2942    , 0.01        , 3           , 1           , 0           , 0
0.0225531459, -0.168915659, -9.803289   , -0.0006049577, 0.0130755622, -4.2925356E-05, 0.01597438  , 0.00222507352, -8.870324E-08, 919.193054  , 30.6639843  , 814.2942    , 0.02        , 3           , 2           , 0           , 0
0.017848162 , -0.160337   , -9.807621   , -0.0004422812, 0.0133652193, 0.000287694158, 0.0159699712, 0.002358659 , 4.92239724E-06, 919.15      , 30.21977    , 814.2942    , 0.03        , 3           , 3           , 0           , 0
0.02426399  , -0.153936282, -9.802084   , -0.00064474903, 0.0131826475, -0.000546169234, 0.0159635171, 0.00249055284, 1.566202E-06, 919.15      , 30.21977    , 814.2942    , 0.04        , 3           , 4           , 0           , 0
0.0304698888, -0.158795118, -9.800516   , -0.000155549264, 0.0128040444, -0.000243637827, 0.01596196  , 0.00261861249, 1.17394347E-06, 919.15      , 30.21977    , 814.2942    , 0.05        , 3           , 5           , 0           , 0
0.0248800553, -0.154288679, -9.80024052 , -0.000336365949, 0.0129398033, -0.0005204219, 0.0159585867, 0.00274807448, -1.964434E-06, 919.15      , 30.21977    , 814.2942    , 0.06        , 3           , 6           , 0           , 0
0.0252324641, -0.162521914, -9.80646    , -0.00014794209, 0.0132288756, 6.181956E-05, 0.0159571134, 0.00288033253, 7.64597246E-07, 919.15      , 30.21977    , 814.2942    , 0.07        , 3           , 7           , 0           , 0
0.01511727  , -0.161971465, -9.811869   , -0.000225184165, 0.0126080122, -0.000623411266, 0.0159548484, 0.00300649344, -3.457052E-06, 919.15      , 30.21977    , 814.2942    , 0.08        , 3           , 8           , 5           , 5
0.008892672 , -0.161111683, -9.81188    , 0.000147567363, 0.0128175039, -0.0007802361, 0.0159563068, 0.00313477358, -9.213281E-06, 919.15      , 30.21977    , 814.2942    , 0.09        , 3           , 9           , 5           , 0.1
0.0171869826, -0.153055117, -9.815004   , 1.70750718E-05, 0.0134728905, -0.0011067593, 0.0159564484, 0.003269659 , -1.812944E-05, 919.15      , 30.21977    , 814.2942    , 0.1         , 3           , 10          , 0.1         , 0.1
0.0204708651, -0.145473868, -9.827738   , -0.000787529571, 0.0126969572, 2.43687537E-05, 0.01595521  , 0.003387235 , -1.58381245E-05, 919.15      , 30.21977    , 814.6829    , 0.11        , 3           , 11          , 0.0109544508, 0.0109544508
0.025372941 , -0.141502619, -9.823319   , 0.000578250736, 0.01296438  , 0.000365521526, 0.0159610063, 0.00351680047, -1.01147534E-05, 919.15      , 30.21977    , 814.683     , 0.12        , 3           , 12          , 0.174642488 , 0
0.02896297  , -0.140248433, -9.811659   , 0.000519734 , 0.01296438  , -0.000433231937, 0.0159661938, 0.00364649342, -1.23769223E-05, 919.1469    , 30.2609615  , 814.683044  , 0.13        , 3           , 13          , 0           , 0
0.0380455181, -0.139651328, -9.805298   , -0.000112246606, 0.012771274 , -0.000483556185, 0.01596506  , 0.00377426436, -1.51728691E-05, 919.1469    , 30.2609615  , 814.6831    , 0.14        , 3           , 14          , 0.000304181449, 4.42394676E-10
0.040286243 , -0.157570571, -9.799976   , 0.000220713526, 0.01340501  , -0.000258852029, 0.015967261 , 0.00390833477, -1.562104E-05, 919.1469    , 30.2609615  , 814.683167  , 0.15        , 3           , 15          , 0           , 0.00213489821
0.038156338 , -0.152902856, -9.792836   , 0.00072161667, 0.0132751036, -7.335399E-05, 0.0159744844, 0.00404107757, -1.42344152E-05, 919.1469    , 30.2609615  , 814.6832    , 0.16        , 3           , 16          , 0           , 4.203895E-45
0.0315826237, -0.1491679  , -9.794785   , 0.000247046031, 0.0140024666, -0.000192728126, 0.0159769543, 0.0041811117, -1.39245049E-05, 919.1469    , 30.2609615  , 814.6833    , 0.17        , 3           , 20          , 0           , 0
0.02493237  , -0.157740682, -9.812146   , 0.000117724121, 0.0130720511, 0.000263117021, 0.0159781519, 0.00431176974, -9.20526E-06, 919.1469    , 30.2609615  , 814.68335   , 0.18        , 3           , 21          , 0           , 0
0.00944749452, -0.159391955, -9.826505   , -0.000157304472, 0.01271978  , 0.000322804321, 0.0159765985, 0.00443889573, -3.94538E-06, 919.1469    , 30.2609615  , 814.6834    , 0.19        , 3           , 22          , 0           , 0
0.004995591 , -0.160260767, -9.805423   , -0.0006968287, 0.0129907131, 6.181956E-05, 0.0159696434, 0.004568774 , -1.25245629E-06, 919.1469    , 30.2609615  , 814.6835    , 0.2         , 3           , 40          , 0           , 0
-0.00263552065, -0.162193045, -9.81423    , -0.00044403816, 0.0133739924, -0.000589471543, 0.01595352  , 0.004680836 , -5.06556262E-06, 919.1469    , 30.2609615  , 814.697937  , 0.21        , 3           , 41          , 0           , 0
-0.006420615, -0.169012189, -9.812333   , -0.000422386976, 0.01352321  , -0.00111027039, 0.015949253 , 0.004816225 , -1.40097545E-05, 919.1469    , 30.2609615  , 814.698     , 0.22        , 3           , 42          , 0           , 0
-0.00609067036, -0.169518039, -9.807604   , -5.431677E-05, 0.0130410334, -0.000664958032, 0.0159486867, 0.00494672172, -1.85786648E-05, 919.0924    , 30.2842216  , 814.698059  , 0.23        , 3           , 255         , 0           , 0
-0.003203299, -0.158226639, -9.818619   , -0.000150869382, 0.0134828351, -0.0005918122, 0.0159471575, 0.00508162426, -2.23458683E-05, 919.0924    , 30.2842216  , 814.6981    , 0.24        , 3           , 255         , 0           , 0
0.00502059469, -0.16492109 , -9.824321   , 6.540591E-06, 0.0133681428, -0.000354234362, 0.0159472153, 0.005215341 , -2.37559252E-05, 919.0924    , 30.2842216  , 814.6982    , 0.25        , 3           , 255         , 0           , 0
0.0251128264, -0.1647743  , -9.807444   , -6.543497E-05, 0.0131112523, 0.000401216559, 0.0159465913, 0.00534637  , -1.765375E-05, 919.0924    , 30.2842216  , 814.698242  , 0.26        , 3           , 255         , 0           , 0
0.0266394578, -0.156894341, -9.797981   , 0.000283909874, 0.012052686 , -0.000670809764, 0.0159494057, 0.00546698552, -2.24388459E-05, 919.0924    , 30.2842216  , 814.6983    , 0.27        , 3           , 255         , 0           , 0
0.03186983  , -0.145350918, -9.8087635  , 8.202717E-05, 0.0128929857, 0.0006259207, 0.01595027  , 0.00559579534, -1.41241653E-05, 919.0924    , 30.2842216  , 814.698364  , 0.28        , 3           , 255         , 0           , 0
0.0429734737, -0.150489777, -9.815283   , 0.0003839735, 0.0131229572, -0.0003138578, 0.0159541   , 0.005727056 , -1.51690838E-05, 919.0924    , 30.2842216  , 814.6985    , 0.29        , 3           , 255         , 0           , 0
0.0328877643, -0.158635139, -9.822316   , 0.000215445325, 0.0134535749, -0.000939401565, 0.0159562137, 0.005861721 , -2.24154028E-05, 919.0924    , 30.2842216  , 814.6986    , 0.3         , 3           , 255         , 0           , 0
0.0356629863, -0.158449009, -9.828359   , 0.0003798788, 0.0127121536, 0.000347381458, 0.0159658827, 0.00592849  , -1.687892E-05, 919.0924    , 30.2842216  , 814.868347  , 0.31        , 3           , 255         , 0           , 0
0.03723762  , -0.155083746, -9.811869   , 0.000440736127, 0.0134635074, 8.405605E-05, 0.0159703046, 0.006063092 , -1.38886708E-05, 919.0924    , 30.2842216  , 814.868469  , 0.32        , 3           , 255         , 0           , 0
0.04308439  , -0.156798646, -9.788342   , 0.00023592764, 0.0133096082, 0.000400046352, 0.0159727   , 0.006196104 , -7.763162E-06, 919.1431    , 30.3002     , 814.8686    , 0.33        , 3           , 255         , 0           , 0
0.0471943431, -0.154484242, -9.821798   , 0.000803539762, 0.0133347716, -0.000925357337, 0.01598069  , 0.006329579 , -1.48850932E-05, 919.1431    , 30.3002     , 814.8687    , 0.34        , 3           , 255         , 0           , 0
0.0340483673, -0.153202727, -9.822685   , 0.000684165745, 0.0132897133, -0.0007152823, 0.0159874987, 0.006462571 , -1.9912899E-05, 919.1431    , 30.3002     , 814.868835  , 0.35        , 3           , 255         , 0           , 0
0.023170488 , -0.151720971, -9.811682   , 0.0003845601, 0.0133060971, -0.000336679164, 0.0159913339, 0.00659566466, -2.11517345E-05, 919.1431    , 30.3002     , 814.868958  , 0.36        , 3           , 255         , 0           , 0
0.0156593062, -0.156414837, -9.800711   , 0.00053202227, 0.0127185909, 2.61247624E-05, 0.0159966685, 0.00672282744, -1.88564663E-05, 919.1431    , 30.3002     , 814.8691    , 0.37        , 3           , 255         , 0           , 0
0.0201907121, -0.150858372, -9.800845   , 0.0007239571, 0.01373444  , 0.000203430187, 0.0160039328, 0.006860118 , -1.46250159E-05, 919.1431    , 30.3002     , 814.8692    , 0.38        , 3           , 255         , 0           , 0
0.0222975686, -0.159619048, -9.815798   , 0.0009954746, 0.0139802108, -0.00018863182, 0.0160138924, 0.006999929 , -1.42729987E-05, 919.1431    , 30.3002     , 814.8693    , 0.39        , 3           , 255         , 0           , 0
0.0249875784, -0.1580543  , -9.815668   , 0.000154589419, 0.0135822976, 0.000158957671, 0.0160154644, 0.00713570463, -1.05085155E-05, 919.1431    , 30.3002     , 814.869446  , 0.4         , 3           , 255         , 0           , 0
0.03207358  , -0.15521428 , -9.810953   , 2.05852848E-05, 0.012816879 , 0.000646987231, 0.0160133727, 0.007208328 , -2.003836E-06, 919.1431    , 30.3002     , 814.838562  , 0.41        , 3           , 255         , 0           , 0
0.026523795 , -0.158705637, -9.791569   , 0.000280984648, 0.0132106952, 0.000227422221, 0.0160162132, 0.007340378 , 2.385629E-06, 919.1431    , 30.3002     , 814.8387    , 0.42        , 3           , 255         , 0           , 0
0.0283607841, -0.143999726, -9.809899   , -5.54864528E-05, 0.0132487323, -0.0007790653, 0.0160156153, 0.00747296866, -3.28219267E-06, 919.1119    , 30.31166    , 814.8388    , 0.43        , 3           , 255         , 0           , 0
0.0232894458, -0.150406078, -9.816105   , -0.000291308883, 0.0130538717, -0.000503451563, 0.0160126761, 0.007603569 , -6.225675E-06, 919.1119    , 30.31166    , 814.8389    , 0.44        , 3           , 255         , 0           , 0
0.02096549  , -0.155413508, -9.815996   , -7.479699E-05, 0.0132071851, 0.000349722337, 0.01601197  , 0.007735564 , -6.14276644E-07, 919.1119    , 30.31166    , 814.83905   , 0.45        , 3           , 255         , 0           , 0
0.01638204  , -0.15766117 , -9.81442451 , -0.000167253427, 0.0132616051, 0.000252584461, 0.016010331 , 0.00786811952, 4.034552E-06, 919.1119    , 30.31166    , 814.839233  , 0.46        , 3           , 255         , 0           , 0
0.00692673866, -0.167457357, -9.80489    , -0.000406586827, 0.0130486041, 0.000429305015, 0.0160063151, 0.007998516 , 1.04159326E-05, 919.1119    , 30.31166    , 814.8394    , 0.47        , 3           , 255         , 0           , 0
0.0118458048, -0.17253387 , -9.796213   , -0.0005768705, 0.0134207718, -0.0006514989, 0.0160005111, 0.008132806 , 6.04938032E-06, 919.1119    , 30.31166    , 814.8396    , 0.48        , 3           , 255         , 0           , 0
0.0151427481, -0.165310547, -9.805113   , -0.000231036654, 0.012592759 , -0.000117826276, 0.015998207 , 0.008258734 , 6.88590671E-06, 919.1119    , 30.31166    , 814.8398    , 0.49        , 3           , 255         , 0           , 0
0.009967978 , -0.165709957, -9.821836   , 0.000215445965, 0.0130433375, 0.000261362176, 0.0160004012, 0.008389106 , 1.15859175E-05, 919.1119    , 30.31166    , 814.839966  , 0.5         , 3           , 255         , 0           , 0
0.00899888  , -0.162809849, -9.811222   , 0.000667782035, 0.01276475  , 0.000186461257, 0.0160110984, 0.00841309  , 1.55266753E-05, 919.1119    , 30.31166    , 814.8788    , 0.51        , 3           , 255         , 0           , 0
0.00228422  , -0.159745947, -9.794738   , 8.144454E-05, 0.0129063614, 7.46944E-05 , 0.0160119347, 0.008542122 , 1.833998E-05, 919.1119    , 30.31166    , 814.878967  , 0.52        , 3           , 255         , 0           , 0
0.00251842523, -0.156128868, -9.797152   , 0.00011538426, 0.0129777519, 0.0006253368, 0.0160131585, 0.008671779 , 2.66705611E-05, 919.092     , 30.32184    , 814.87915   , 0.53        , 3           , 255         , 0           , 0
0.0166372   , -0.156676486, -9.81296349 , 0.0005665482, 0.013558235 , 0.000220986316, 0.0160188619, 0.008807306 , 3.10516443E-05, 919.092     , 30.32184    , 814.879333  , 0.54        , 3           , 255         , 0           , 0
0.00985337049, -0.1561228  , -9.816759   , 0.000169804785, 0.0122966161, 0.0004228691, 0.0160206165, 0.008930186 , 3.72496979E-05, 919.092     , 30.32184    , 814.8795    , 0.55        , 3           , 255         , 0           , 0
0.0123352436, -0.155375808, -9.805163   , -0.000277848128, 0.0131269684, 0.0002999839, 0.01601788  , 0.009061387 , 4.235199E-05, 919.092     , 30.32184    , 814.8797    , 0.56        , 3           , 255         , 0           , 0
0.0275604576, -0.151489764, -9.810251   , -0.0003603567, 0.0130760577, 3.08069866E-05, 0.0160143021, 0.009192123 , 4.475434E-05, 919.092     , 30.32184    , 814.8799    , 0.57        , 3           , 255         , 0           , 0
0.03261046  , -0.15103294 , -9.806845   , -0.0004141921, 0.013325925 , 0.000234445324, 0.0160102   , 0.00932532549, 4.92321669E-05, 919.092     , 30.32184    , 814.880066  , 0.58        , 3           , 255         , 0           , 0
0.0273014512, -0.152752236, -9.808882   , 0.000545482151, 0.01294147  , -0.000389928231, 0.0160156339, 0.009454782 , 4.740549E-05, 919.092     , 30.32184    , 814.880249  , 0.59        , 3           , 255         , 0           , 0
0.02067884  , -0.156233519, -9.820193   , 9.080721E-05, 0.0130626   , -0.000243051443, 0.0160165373, 0.009585428 , 4.7067344E-05, 919.092     , 30.32184    , 814.880432  , 0.6         , 3           , 255         , 0           , 0
0.0161171444, -0.16559808 , -9.81615448 , -0.000138579722, 0.0132064763, -0.000546752359, 0.0160127245, 0.009587487 , 4.36925257E-05, 919.092     , 30.32184    , 814.9378    , 0.61        , 3           , 255         , 0           , 0
0.023982849 , -0.152139112, -9.801178   , 0.0003634938, 0.0132802073, -0.000774382264, 0.0160163026, 0.00972039253, 3.807614E-05, 919.092     , 30.32184    , 814.938049  , 0.62        , 3           , 255         , 0           , 0
0.016607238 , -0.150204331, -9.797834   , 0.000545480871, 0.0131766321, -0.000104365638, 0.0160217658, 0.009852155 , 3.914349E-05, 919.1441    , 30.325346   , 814.9383    , 0.63        , 3           , 255         , 0           , 0
0.0179194324, -0.15298228 , -9.805838   , -0.000655867567, 0.0130929528, -0.000107876724, 0.016015213 , 0.009983083 , 4.01619436E-05, 919.1441    , 30.325346   , 814.938538  , 0.64        , 3           , 255         , 0           , 0
0.01682353  , -0.150612622, -9.810016   , 0.0001487374, 0.0128436713, -0.000219058478, 0.0160166975, 0.010111535 , 4.00286481E-05, 919.1441    , 30.325346   , 814.9388    , 0.65        , 3           , 255         , 0           , 0
0.0262967441, -0.1525038  , -9.816576   , -0.000167252932, 0.0131274778, -0.000240709633, 0.01601502  , 0.0102428291, 3.972417E-05, 919.1441    , 30.325346   , 814.939     , 0.66        , 3           , 255         , 0           , 0
0.028678894 , -0.15400216 , -9.800768   , -0.000165497418, 0.0127032306, -0.000272308942, 0.0160133559, 0.0103698848, 3.90356763E-05, 919.1441    , 30.325346   , 814.9393    , 0.67        , 3           , 255         , 0           , 0
0.0143828262, -0.159181386, -9.8039     , -0.000222258648, 0.0127816442, 0.000174758956, 0.0160111748, 0.0104976529, 4.28297E-05 , 919.1441    , 30.325346   , 814.9395    , 0.68        , 3           , 255         , 0           , 0
0.0112602329, -0.153793976, -9.805286   , -0.00037732796, 0.0126470551, 0.000144915422, 0.0160074364, 0.01062408  , 4.63034376E-05, 919.1441    , 30.325346   , 814.939758  , 0.69        , 3           , 255         , 0           , 0
0.0122679546, -0.157309309, -9.812609   , -0.000428237516, 0.01325914  , -0.0002898638, 0.016003143 , 0.0107566984, 4.55271947E-05, 919.1441    , 30.325346   , 814.94      , 0.7         , 3           , 255         , 0           , 0
0.0124388766, -0.161921114, -9.813962   , -9.1769296E-05, 0.0126516307, 1.67654362E-05, 0.0159979984, 0.0107316691, 4.76737368E-05, 919.1441    , 30.325346   , 814.9093    , 0.71        , 3           , 255         , 0           , 0
0.009404122 , -0.158614114, -9.806851   , -4.437077E-05, 0.0123572908, -0.000209109043, 0.0159975551, 0.0108552556, 4.75597772E-05, 919.1441    , 30.325346   , 814.909546  , 0.72        , 3           , 255         , 0           , 0
0.01306661  , -0.154984862, -9.808827   , -0.000260882662, 0.0133304251, -0.000431472668, 0.01599492  , 0.01098861  , 4.537762E-05, 919.127441  , 30.3326263  , 814.9098    , 0.73        , 3           , 255         , 0           , 0
0.01656339  , -0.152600825, -9.815188   , 0.000269864046, 0.0131735988, -0.000523929, 0.0159975849, 0.0111204078, 4.22463054E-05, 919.127441  , 30.3326263  , 814.910034  , 0.74        , 3           , 255         , 0           , 0
0.02360868  , -0.155069962, -9.811275   , -0.000327591726, 0.0126171047, -0.0007972021, 0.0159942415, 0.01124669  , 3.62931351E-05, 919.127441  , 30.3326263  , 814.9103    , 0.75        , 3           , 255         , 0           , 0
0.0229735766, -0.152704328, -9.819473   , 0.000252894184, 0.0130249672, -0.0001505923, 0.0159967747, 0.0113769425, 3.687067E-05, 919.127441  , 30.3326263  , 814.9105    , 0.76        , 3           , 255         , 0           , 0
0.0221425612, -0.159203768, -9.810898   , 0.000360564969, 0.013764618 , -0.0005180773, 0.0160003453, 0.0115146507, 3.389258E-05, 919.127441  , 30.3326263  , 814.910767  , 0.77        , 3           , 255         , 0           , 0
0.0208980627, -0.1615071  , -9.804026   , -0.000158478375, 0.0133175505, -0.000349549344, 0.0159987416, 0.0116478615, 3.25280453E-05, 919.127441  , 30.3326263  , 814.911     , 0.78        , 3           , 255         , 0           , 0
0.023822125 , -0.1620957  , -9.810949   , 0.000273375015, 0.0130062411, -0.000115482369, 0.0160014872, 0.0117779216, 3.3454402E-05, 919.127441  , 30.3326263  , 814.911255  , 0.79        , 3           , 255         , 0           , 0
0.0202383138, -0.1650736  , -9.808504   , 3.75526724E-05, 0.0130788023, 0.000156035181, 0.0160019044, 0.0119086653, 3.71073438E-05, 919.127441  , 30.3326263  , 814.9115    , 0.8         , 3           , 255         , 0           , 0
0.0269200448, -0.166214883, -9.80974    , 0.00081582705, 0.0125175063, -0.00023953605, 0.0160123818, 0.0118855862, 3.67433E-05 , 919.127441  , 30.3326263  , 814.908569  , 0.81        , 3           , 255         , 0           , 0
0.0289457683, -0.1605095  , -9.802805   , 0.000512710365, 0.0129212728, 0.000242642127, 0.0160175618, 0.0120147411, 4.12389782E-05, 919.127441  , 30.3326263  , 814.9088    , 0.82        , 3           , 255         , 0           , 0
0.0252311733, -0.1592947  , -9.79735    , 0.000166291342, 0.0130541055, 0.000246738084, 0.0160192773, 0.0121452231, 4.57972164E-05, 919.136841  , 30.3365364  , 814.9091    , 0.83        , 3           , 255         , 0           , 0
0.0264009628, -0.150469288, -9.80400848 , 0.000235926243, 0.0130377207, 0.000666302862, 0.0160217471, 0.0122754751, 5.45484872E-05, 919.136841  , 30.3365364  , 814.9094    , 0.84        , 3           , 255         , 0           , 0
0.0194057859, -0.151153654, -9.8040905  , -0.000139751108, 0.0132056642, 0.000438672723, 0.0160204284, 0.0124074407, 6.10506E-05 , 919.136841  , 30.3365364  , 814.9097    , 0.85        , 3           , 255         , 0           , 0
0.0210890863, -0.160233945, -9.807444   , -0.000320567779, 0.0133700958, 0.000755248358, 0.0160173438, 0.0125409989, 7.07442741E-05, 919.136841  , 30.3365364  , 814.910034  , 0.86        , 3           , 255         , 0           , 0
0.0201825947, -0.169962063, -9.801684   , -0.000222844857, 0.01301841  , -0.000124257989, 0.0160151236, 0.0126711838, 7.15868155E-05, 919.136841  , 30.3365364  , 814.910339  , 0.87        , 3           , 255         , 0           , 0
0.02928086  , -0.15904507 , -9.800222   , 0.0003991879, 0.0129657453, -0.000678411452, 0.0160190538, 0.0128009282, 6.688002E-05, 919.136841  , 30.3365364  , 814.910645  , 0.88        , 3           , 255         , 0           , 0
0.0289234016, -0.162157327, -9.814268   , 0.000230659731, 0.0134028662, -0.00024070614, 0.0160213578, 0.0129349735, 6.662019E-05, 919.136841  , 30.3365364  , 814.91095   , 0.89        , 3           , 255         , 0           , 0
0.0364041254, -0.162315637, -9.815012   , 0.0006250625, 0.0138066309, 0.00019173231, 0.01602766  , 0.0130729889, 7.07500149E-05, 919.136841  , 30.3365364  , 814.911255  , 0.9         , 3           , 255         , 0           , 0
0.0232694838, -0.1513367  , -9.810114   , -0.0003849308, 0.0136578288, 0.0004456977, 0.016029669 , 0.0130282473, 7.747056E-05, 919.136841  , 30.3365364  , 814.8979    , 0.91        , 3           , 255         , 0           , 0
0.0162012838, -0.1486011  , -9.80872    , 0.000233590952, 0.013096069 , 0.00100277644, 0.0160321612, 0.0131590255, 8.95972044E-05, 919.136841  , 30.3365364  , 814.8982    , 0.92        , 3           , 255         , 0           , 0
0.0197071247, -0.153295428, -9.803396   , -0.000400730351, 0.0136338379, -4.35020775E-05, 0.0160281789, 0.0132953515, 9.13478652E-05, 919.138855  , 30.3383579  , 814.8985    , 0.93        , 3           , 255         , 0           , 0
0.0209832136, -0.158782184, -9.801103   , 4.575227E-05, 0.0128924306, -0.000316190068, 0.016028624 , 0.0134243043, 9.02525644E-05, 919.138855  , 30.3383579  , 814.8988    , 0.94        , 3           , 255         , 0           , 0
0.0279051624, -0.157768339, -9.803403   , -0.000302422239, 0.0125027094, 0.0006908828, 0.0160257183, 0.0135492021, 9.916489E-05, 919.138855  , 30.3383579  , 814.8991    , 0.95        , 3           , 255         , 0           , 0
0.0204094   , -0.16171822 , -9.801553   , -0.000231617014, 0.0129936654, 0.000405906234, 0.0160234869, 0.0136790555, 0.000105305837, 919.138855  , 30.3383579  , 814.8994    , 0.96        , 3           , 255         , 0           , 0
0.0198548548, -0.156799316, -9.815655   , 0.000100757956, 0.0130609591, -2.536201E-05, 0.0160245188, 0.0138096474, 0.000107145206, 919.138855  , 30.3383579  , 814.8997    , 0.97        , 3           , 255         , 0           , 0
0.012607892 , -0.154899627, -9.80592251 , -0.000334606448, 0.0132054957, 0.000486659352, 0.0160212684, 0.0139416065, 0.000114127586, 919.138855  , 30.3383579  , 814.9       , 0.98        , 3           , 255         , 0           , 0
0.0134836929, -0.165953636, -9.812497   , -0.000343383959, 0.0127385315, -0.000114307273, 0.0160178468, 0.0140689891, 0.000115025221, 919.138855  , 30.3383579  , 814.9003    , 0.99        , 3           , 255         , 0           , 0
0.0124656167, -0.169690073, -9.814703   , -0.000242150025, 0.0126811843, 0.0006352917, 0.0160155445, 0.0141956778, 0.000123408914, 919.138855  , 30.3383579  , 814.900635  , 1           , 3           , 0           , 7.01423645  , 100
0.00314012845, -0.162829146, -9.809469   , 0.000132358342, 0.0125850094, 0.000520017231, 0.0160181578, 0.0141227851, 0.000130641361, 919.138855  , 30.3383579  , 814.887     , 1.01        , 3           , 1           , 0           , 0
0.00493595842, -0.157272965, -9.822257   , 0.00013879512, 0.0132521   , -0.000262936577, 0.0160195362, 0.0142553262, 0.000130134955, 919.138855  , 30.3383579  , 814.8873    , 1.02        , 3           , 2           , 0           , 0
0.0136944605, -0.156408519, -9.792856   , 0.000166883168, 0.01318071  , -0.000135370065, 0.0160212144, 0.0143871373, 0.00013089295, 919.11      , 30.3391     , 814.887634  , 1.03        , 3           , 3           , 0           , 0
0.0261193328, -0.161160335, -9.806635   , 0.000644379645, 0.0131426733, -0.0006819165, 0.0160275884, 0.0145186512, 0.000126180035, 919.11      , 30.3391     , 814.887939  , 1.04        , 3           , 4           , 0           , 0
0.028844405 , -0.155194521, -9.80979    , 0.000896001467, 0.0127061382, -0.0006520727, 0.0160364863, 0.0146457981, 0.000121697005, 919.11      , 30.3391     , 814.888245  , 1.05        , 3           , 5           , 0           , 0
0.0322481   , -0.159037784, -9.806882   , 1.94210443E-05, 0.012757048 , -1.833681E-05, 0.0160367042, 0.0147733539, 0.000123559425, 919.11      , 30.3391     , 814.88855   , 1.06        , 3           , 6           , 0           , 0
0.0268203672, -0.150322959, -9.80207    , 1.94210443E-05, 0.0127757741, -0.0002641069, 0.01603689  , 0.0149011333, 0.000122967322, 919.11      , 30.3391     , 814.888855  , 1.07        , 3           , 7           , 0           , 0
0.022074474 , -0.148507729, -9.804027   , 0.000398609351, 0.012726034 , -0.0003770443, 0.01604085  , 0.0150284329, 0.000121238336, 919.11      , 30.3391     , 814.88916   , 1.08        , 3           , 8           , 5           , 5
0.0250819083, -0.152357429, -9.810879   , -8.590908E-05, 0.0129027562, 4.48613428E-05, 0.016040029 , 0.015157436 , 0.000123756734, 919.11      , 30.3391     , 814.889465  , 1.09        , 3           , 9           , 5           , 0.1
0.0238215439, -0.159030229, -9.81232548 , -0.00015671429, 0.0131274592, -0.0002781509, 0.0160384513, 0.0152887339, 0.000123080943, 919.11      , 30.3391     , 814.8898    , 1.1         , 3           , 10          , 0.1         , 0.1
0.0323291   , -0.154297784, -9.797947   , -0.000225766125, 0.0129627809, -0.0009376304, 0.016034279 , 0.0152080329, 0.000115756484, 919.11      , 30.3391     , 814.908569  , 1.11        , 3           , 11          , 0.0100195706, 0.0100195957
0.0291464739, -0.150759667, -9.792605   , 6.27213158E-05, 0.0124870408, -0.0004542824, 0.0160348658, 0.0153329577, 0.00011321612, 919.11      , 30.3391     , 814.908936  , 1.12        , 3           , 12          , 0.174642846 , 0
0.0247397088, -0.1554436  , -9.807196   , -2.7394417E-05, 0.01308274  , -8.32863152E-05, 0.01603461  , 0.0154637778, 0.000114481067, 919.1171    , 30.3418636  , 814.9093    , 1.13        , 3           , 13          , 0           , 0
0.03275088  , -0.160378546, -9.821155   , 0.000758485054, 0.0131611545, -0.0009019353, 0.01604209  , 0.0155955143, 0.000107573 , 919.1171    , 30.3418636  , 814.909668  , 1.14        , 3           , 14          , 0.000304178538, 1.01314254E-06
0.0210840013, -0.152853966, -9.816519   , 0.000503352261, 0.0131763667, -0.000432631117, 0.0160470866, 0.01572733  , 0.000105361061, 919.1171    , 30.3418636  , 814.910034  , 1.15        , 3           , 15          , 0           , 0.00213488261
0.01401681  , -0.157200918, -9.812229   , 0.0006092675, 0.0136503531, 4.896149E-05, 0.0160532221, 0.0158638   , 0.000108041553, 919.1171    , 30.3418636  , 814.9104    , 1.16        , 3           , 16          , 0           , 4.203895E-45
0.01879886  , -0.1562366  , -9.804145   , 0.000578838866, 0.0130230542, -0.000255325343, 0.016059    , 0.01599405  , 0.000107579683, 919.1171    , 30.3418636  , 814.910767  , 1.17        , 3           , 20          , 0           , 0
0.0198605023, -0.153443143, -9.809412   , -0.000424723, 0.0133618657, -0.000689519569, 0.0160546768, 0.01612776  , 0.00010283025, 919.1171    , 30.3418636  , 814.911133  , 1.18        , 3           , 21          , 0           , 0
0.0198074188, -0.157751068, -9.812495   , -0.000142672376, 0.012834629 , 0.000477303751, 0.0160533618, 0.01625601  , 0.000109663764, 919.1171    , 30.3418636  , 814.9115    , 1.19        , 3           , 22          , 0           , 0
0.0150670316, -0.163531855, -9.80983    , -0.000104636507, 0.012722278 , 9.05082561E-05, 0.0160523634, 0.0163831934, 0.000112611233, 919.1171    , 30.3418636  , 814.911865  , 1.2         , 3           , 40          , 0           , 0
0.008484814 , -0.167337567, -9.79764    , -0.0001327271, 0.0125961872, -0.0005098685, 0.0160489958, 0.0162925478, 0.000109502274, 919.1171    , 30.3418636  , 814.920349  , 1.21        , 3           , 41          , 0           , 0
0.0145972129, -0.164747268, -9.801385   , -0.000161985459, 0.0132357748, -0.0010663626, 0.0160472356, 0.0164250527, 0.000100963065, 919.1171    , 30.3418636  , 814.9208    , 1.22        , 3           , 42          , 0           , 0
0.0013633098, -0.157734871, -9.81018448 , 9.490296E-05, 0.01360209  , -0.000391664682, 0.0160481557, 0.0165611133, 9.92294445E-05, 919.1319    , 30.3418636  , 814.9212    , 1.23        , 3           , 255         , 0           , 0
0.00218610838, -0.158446983, -9.80668449 , 0.000350621034, 0.0130918231, 0.000682702055, 0.0160518084, 0.0166919027, 0.00010815767, 919.1319    , 30.3418636  , 814.921631  , 1.24        , 3           , 255         , 0           , 0
0.0151200965, -0.165771455, -9.812378   , 0.000441321958, 0.0133288158, -0.000322615146, 0.0160562024, 0.01682522  , 0.000107071573, 919.1319    , 30.3418636  , 814.922058  , 1.25        , 3           , 255         , 0           , 0
0.01568507  , -0.160674483, -9.805376   , -0.0001292161, 0.0131907165, -6.6247303E-06, 0.0160549432, 0.0169571042, 0.000109123328, 919.1319    , 30.3418636  , 814.9225    , 1.26        , 3           , 255         , 0           , 0
0.0115483683, -0.164313883, -9.806494   , -0.000254441868, 0.0124106882, -0.000437892973, 0.0160523616, 0.0170812644, 0.000106736996, 919.1319    , 30.3418636  , 814.9229    , 1.27        , 3           , 255         , 0           , 0
0.0156777259, -0.159056187, -9.801641   , -0.000248005061, 0.0124826636, -0.000109614106, 0.0160498936, 0.0172060914, 0.000107644621, 919.1319    , 30.3418636  , 814.92334   , 1.28        , 3           , 255         , 0           , 0
0.03616973  , -0.1530634  , -9.816774   , -0.0005154265, 0.0136319324, -0.000266438816, 0.016044734 , 0.01734243  , 0.000107167936, 919.1319    , 30.3418636  , 814.923767  , 1.29        , 3           , 255         , 0           , 0
0.031088803 , -0.153056175, -9.8136425  , -1.51084969E-05, 0.0126295416, -0.000168130966, 0.0160445888, 0.0174687319, 0.000107513093, 919.1319    , 30.3418636  , 814.9242    , 1.3         , 3           , 255         , 0           , 0
0.0328434929, -0.151764482, -9.805265   , 0.000266364 , 0.0133577166, -0.0002401009, 0.0160522386, 0.0173500776, 0.000107342225, 919.1319    , 30.3418636  , 814.91626   , 1.31        , 3           , 255         , 0           , 0
0.03516109  , -0.147814468, -9.825215   , 4.868183E-05, 0.0130247558, -0.000220790273, 0.0160527211, 0.017480338 , 0.000107225271, 919.1319    , 30.3418636  , 814.9167    , 1.32        , 3           , 255         , 0           , 0
0.0275099073, -0.150849745, -9.798849   , 5.92148572E-05, 0.0124150123, 0.00043869298, 0.016053427 , 0.0176043976, 0.000113605325, 919.1705    , 30.3451672  , 814.9171    , 1.33        , 3           , 255         , 0           , 0
0.03792971  , -0.1541477  , -9.806961   , -0.000135060676, 0.0129393218, -0.00026701868, 0.0160520617, 0.0177338161, 0.000113012451, 919.1705    , 30.3451672  , 814.917542  , 1.34        , 3           , 255         , 0           , 0
0.0335728452, -0.157765955, -9.809271   , 0.000404463528, 0.0131335976, 0.000360865844, 0.0160562079, 0.01786507  , 0.000118729753, 919.1705    , 30.3451672  , 814.917969  , 1.35        , 3           , 255         , 0           , 0
0.031504944 , -0.1541765  , -9.808731   , 0.000341265433, 0.0129855508, -0.000110193621, 0.0160596389, 0.0179949272, 0.00011971331, 919.1705    , 30.3451672  , 814.9184    , 1.36        , 3           , 255         , 0           , 0
0.0200543329, -0.153880745, -9.797774   , -0.000583883957, 0.0125057129, -9.556464E-05, 0.0160538182, 0.01811998  , 0.000120765893, 919.1705    , 30.3451672  , 814.9188    , 1.37        , 3           , 255         , 0           , 0
0.0105167348, -0.160596177, -9.798799   , -0.0010151522, 0.0126765817, -6.279512E-05, 0.01604369  , 0.0182467364, 0.000122172612, 919.1705    , 30.3451672  , 814.91925   , 1.38        , 3           , 255         , 0           , 0
0.0149986241, -0.152117044, -9.801558   , -0.000720813056, 0.0129621429, -0.0005900309, 0.0160364136, 0.0183764361, 0.000118351476, 919.1705    , 30.3451672  , 814.9197    , 1.39        , 3           , 255         , 0           , 0
0.008219709 , -0.149550676, -9.802062   , -0.000184799879, 0.0132319061, 8.23263545E-05, 0.01603462  , 0.0185087211, 0.000121296667, 919.1705    , 30.3451672  , 814.9201    , 1.4         , 3           , 255         , 0           , 0
0.00249274331, -0.1568207  , -9.818983   , 0.0003406689, 0.0137130888, 0.000486097764, 0.0160307419, 0.0183799639, 0.000128220621, 919.1705    , 30.3451672  , 814.8725    , 1.41        , 3           , 255         , 0           , 0
-0.00126588 , -0.160751551, -9.819934   , 0.0008322094, 0.0135720642, 0.0006405818, 0.0160392188, 0.0185155645, 0.0001368031, 919.1705    , 30.3451672  , 814.872742  , 1.42        , 3           , 255         , 0           , 0
-0.0005350863, -0.161570951, -9.804908   , 3.34561046E-05, 0.0129020466, -0.0006064093, 0.0160394777, 0.0186446626, 0.000132808607, 919.1463    , 30.34456    , 814.873     , 1.43        , 3           , 255         , 0           , 0
0.00162780809, -0.167100579, -9.811197   , 1.41455967E-05, 0.013256073 , -0.000160511816, 0.0160396285, 0.01877723  , 0.000133329755, 919.1463    , 30.34456    , 814.8732    , 1.44        , 3           , 255         , 0           , 0
0.00356132537, -0.1723859  , -9.805995   , 0.000588779745, 0.0130143985, 0.0003035257, 0.0160456132, 0.0189073067, 0.000138453237, 919.1463    , 30.34456    , 814.8735    , 1.45        , 3           , 255         , 0           , 0
0.0139493   , -0.16348131 , -9.815978   , 0.0001768221, 0.01307116  , -0.000755041838, 0.0160472747, 0.0190381184, 0.000133000343, 919.1463    , 30.34456    , 814.8737    , 1.46        , 3           , 255         , 0           , 0
0.024417324 , -0.164456159, -9.813236   , -0.000248009339, 0.0128909284, -0.000207910547, 0.0160447955, 0.0191670414, 0.000132989881, 919.1463    , 30.34456    , 814.873962  , 1.47        , 3           , 255         , 0           , 0
0.0168103613, -0.153858423, -9.803409   , 0.0002131025, 0.0120857377, 0.00110052363, 0.016047176 , 0.0192877054, 0.00014593493, 919.1463    , 30.34456    , 814.8742    , 1.48        , 3           , 255         , 0           , 0
0.01643646  , -0.160025075, -9.8053875  , 0.000109527842, 0.0125398291, 0.0009314101, 0.016048491 , 0.0194129366, 0.000157261951, 919.1463    , 30.34456    , 814.874451  , 1.49        , 3           , 255         , 0           , 0
0.03896726  , -0.144419938, -9.818514   , -0.000133901718, 0.01317766  , -0.0004390513, 0.0160471033, 0.0195447654, 0.000154986265, 919.1463    , 30.34456    , 814.8747    , 1.5         , 3           , 255         , 0           , 0
0.0499219671, -0.144607514, -9.821109   , 0.000261093344, 0.0138501944, -0.0007562054, 0.01605392  , 0.0194387455, 0.0001497306, 919.1463    , 30.34456    , 814.8569    , 1.51        , 3           , 255         , 0           , 0
0.0531985275, -0.156096488, -9.818254   , 0.000167466613, 0.0134429168, 0.00013500452, 0.016055664 , 0.0195731372, 0.000153239278, 919.1463    , 30.34456    , 814.857056  , 1.52        , 3           , 255         , 0           , 0
0.04696821  , -0.151747167, -9.809396   , -0.0001046361, 0.0135681415, 5.09712845E-06, 0.0160546582, 0.0197087955, 0.000155468864, 919.1189    , 30.3431435  , 814.857239  , 1.53        , 3           , 255         , 0           , 0
0.0434073433, -0.157237768, -9.804398   , 0.000484042073, 0.013082453 , -5.45897055E-05, 0.016059529 , 0.019839609 , 0.000157023838, 919.1189    , 30.3431435  , 814.8574    , 1.54        , 3           , 255         , 0           , 0
0.0375959873, -0.150713459, -9.805655   , 0.000230079546, 0.0131392153, -0.0009165411, 0.016061686 , 0.0199711323, 0.0001499686, 919.1189    , 30.3431435  , 814.8576    , 1.55        , 3           , 255         , 0           , 0
0.0281611681, -0.15368107 , -9.809595   , 0.0001551781, 0.0132597592, 0.0003661455, 0.016063353 , 0.0201036483, 0.0001557603, 919.1189    , 30.3431435  , 814.8578    , 1.56        , 3           , 255         , 0           , 0
0.03395754  , -0.156823128, -9.812895   , -8.766627E-05, 0.0127834333, 0.000280710869, 0.0160625726, 0.0202314183, 0.000160621246, 919.1189    , 30.3431435  , 814.858     , 1.57        , 3           , 255         , 0           , 0
0.0318562463, -0.152692676, -9.7999115  , -0.000314125966, 0.0134721752, 0.000280710869, 0.01605953  , 0.02036607  , 0.00016559253, 919.1189    , 30.3431435  , 814.858154  , 1.58        , 3           , 255         , 0           , 0
0.0247012191, -0.147537753, -9.798108   , 4.86777E-05 , 0.0128729641, 0.0006119157, 0.0160601847, 0.0204946827, 0.000173779685, 919.1189    , 30.3431435  , 814.8584    , 1.59        , 3           , 255         , 0           , 0
0.0282636229, -0.159876451, -9.814516   , -0.000215817883, 0.0131667182, 0.000551643549, 0.01605818  , 0.02062624  , 0.00018141116, 919.1189    , 30.3431435  , 814.858643  , 1.6         , 3           , 255         , 0           , 0
0.01645814  , -0.15985772 , -9.824179   , -0.000465696357, 0.0132253934, 5.77687752E-05, 0.0160468686, 0.0205217171, 0.00018397496, 919.1189    , 30.3431435  , 814.8716    , 1.61        , 3           , 255         , 0           , 0
0.00837813  , -0.161952764, -9.82593    , -0.0004616002, 0.0126261814, 0.000393069582, 0.0160423759, 0.0206478965, 0.00018993199, 919.1189    , 30.3431435  , 814.8719    , 1.62        , 3           , 255         , 0           , 0
-0.00123018748, -0.169635728, -9.805431   , 0.000382210943, 0.0125969229, 0.000152566 , 0.0160462726, 0.0207738224, 0.0001934791, 919.170959  , 30.3482685  , 814.8722    , 1.63        , 3           , 255         , 0           , 0
-0.0101126153, -0.167974442, -9.795761   , -0.00047915522, 0.012476963 , -0.000202045543, 0.01604148  , 0.0208986048, 0.000193460728, 919.170959  , 30.3482685  , 814.8725    , 1.64        , 3           , 255         , 0           , 0
-0.00392189948, -0.162208125, -9.797232   , -0.0008887723, 0.012531383 , -0.000290990924, 0.0160325766, 0.021023944 , 0.000192560474, 919.170959  , 30.3482685  , 814.8728    , 1.65        , 3           , 255         , 0           , 0
0.0103516877, -0.162022561, -9.81353951 , -5.95902966E-05, 0.0127426293, 0.0001332555, 0.0160320513, 0.0211513285, 0.000195936285, 919.170959  , 30.3482685  , 814.8731    , 1.66        , 3           , 255         , 0           , 0
0.0194547027, -0.159740061, -9.817856   , 0.0003564636, 0.0125594717, 0.0006599061, 0.0160357971, 0.0212767981, 0.000204549913, 919.170959  , 30.3482685  , 814.8734    , 1.67        , 3           , 255         , 0           , 0
0.0274819545, -0.162059844, -9.807402   , 0.000240015332, 0.013467066 , 0.00025672582, 0.0160382967, 0.021411404 , 0.000209277423, 919.170959  , 30.3482685  , 814.8737    , 1.68        , 3           , 255         , 0           , 0
0.0252944827, -0.162258044, -9.809885   , -0.000153802219, 0.0134009421, -0.000233059283, 0.0160367526, 0.0215454362, 0.000209096121, 919.170959  , 30.3482685  , 814.874     , 1.69        , 3           , 255         , 0           , 0
0.0332620256, -0.151252553, -9.805261   , 0.000154580863, 0.0132265631, 0.0002731101, 0.0160384029, 0.0216776319, 0.000213949083, 919.170959  , 30.3482685  , 814.8743    , 1.7         , 3           , 255         , 0           , 0
0.02976035  , -0.154841691, -9.812671   , -0.000212891347, 0.01303175  , -0.00019442942, 0.0160428341, 0.02153031  , 0.00021423593, 919.170959  , 30.3482685  , 814.8285    , 1.71        , 3           , 255         , 0           , 0
0.0233003721, -0.155992672, -9.813945   , 0.0005349524, 0.0128246   , 0.000387812033, 0.016048314 , 0.02165847  , 0.000220172471, 919.170959  , 30.3482685  , 814.828552  , 1.72        , 3           , 255         , 0           , 0
0.0215429161, -0.154380023, -9.799581   , 0.000134698 , 0.0130574973, -7.17607327E-06, 0.0160497017, 0.0217890311, 0.00022219673, 919.1794    , 30.34921    , 814.8286    , 1.73        , 3           , 255         , 0           , 0
0.0203670319, -0.154620528, -9.797686   , 4.75080742E-05, 0.0133916261, 0.0005943759, 0.0160503536, 0.0219228286, 0.000230290534, 919.1794    , 30.34921    , 814.8287    , 1.74        , 3           , 255         , 0           , 0
0.0227248184, -0.150690243, -9.801526   , 0.0009030226, 0.0128398156, 3.495603E-05, 0.0160594359, 0.0220512021, 0.000232702034, 919.1794    , 30.34921    , 814.828735  , 1.75        , 3           , 255         , 0           , 0
0.0329730734, -0.153148383, -9.813543   , 0.000248220429, 0.0130323358, 0.0007775335, 0.0160621349, 0.0221813787, 0.000242571608, 919.1794    , 30.34921    , 814.8288    , 1.76        , 3           , 255         , 0           , 0
0.0213022828, -0.15258871 , -9.816479   , -0.000485579279, 0.0132067148, 0.000224550487, 0.0160573721, 0.0223133937, 0.00024693858, 919.1794    , 30.34921    , 814.828857  , 1.77        , 3           , 255         , 0           , 0
0.0116577372, -0.1588444  , -9.810497   , 0.0003874903, 0.01303292  , -0.00068128854, 0.0160611384, 0.02244381  , 0.000242218448, 919.1794    , 30.34921    , 814.8289    , 1.78        , 3           , 255         , 0           , 0
0.004779292 , -0.1629897  , -9.808125   , 0.000212525221, 0.0128942346, -0.0004671174, 0.0160632078, 0.0225728042, 0.000239618268, 919.1794    , 30.34921    , 814.829     , 1.79        , 3           , 255         , 0           , 0
0.008915178 , -0.162414163, -9.799597   , -0.000105220577, 0.0127684241, -2.5901245E-05, 0.0160621945, 0.0227004755, 0.000241410526, 919.1794    , 30.34921    , 814.8291    , 1.8         , 3           , 255         , 0           , 0
0.0100277644, -0.15836826 , -9.805265   , 7.149539E-05, 0.0131908655, -0.000149946427, 0.016060682 , 0.0225257147, 0.000241979375, 919.1794    , 30.34921    , 814.7775    , 1.81        , 3           , 255         , 0           , 0
0.0169757083, -0.152959377, -9.819325   , 0.000328968948, 0.0128707783, 0.000124496873, 0.0160640478, 0.0226543788, 0.000245292234, 919.1794    , 30.34921    , 814.777344  , 1.82        , 3           , 255         , 0           , 0
0.0131319286, -0.157545239, -9.807524   , 0.0003073178, 0.0132634258, -0.000236551161, 0.0160671175, 0.0227870289, 0.0002450578, 919.149963  , 30.348875   , 814.777161  , 1.83        , 3           , 255         , 0           , 0
0.0130962953, -0.1659846  , -9.802291   , -0.000233376748, 0.012898867 , -0.000500461669, 0.0160647128, 0.02291608  , 0.000242125316, 919.149963  , 30.348875   , 814.777     , 1.84        , 3           , 255         , 0           , 0
0.0150441919, -0.1610685  , -9.800875   , -0.000133313137, 0.0133313062, 0.000142052071, 0.0160634611, 0.0230493471, 0.000245687959, 919.149963  , 30.348875   , 814.7768    , 1.85        , 3           , 255         , 0           , 0
0.0241875313, -0.15069    , -9.815395   , -0.000355091528, 0.01310309  , 3.145542E-05, 0.0160599668, 0.0231803544, 0.000248107564, 919.149963  , 30.348875   , 814.7766    , 1.86        , 3           , 255         , 0           , 0
0.0235738363, -0.141152829, -9.822538   , 0.0003699306, 0.0136250583, -0.0006531903, 0.0160635635, 0.023316687 , 0.000243763716, 919.149963  , 30.348875   , 814.7764    , 1.87        , 3           , 255         , 0           , 0
0.0277563967, -0.154910222, -9.820684   , 0.000235342217, 0.0129673323, 0.000485545257, 0.0160660762, 0.0234462637, 0.0002507033, 919.149963  , 30.348875   , 814.776245  , 1.88        , 3           , 255         , 0           , 0
0.0219871737, -0.162733987, -9.810289   , 0.0004916454, 0.0131229861, 0.0006505621, 0.0160711948, 0.02357737  , 0.000259319058, 919.149963  , 30.348875   , 814.776062  , 1.89        , 3           , 255         , 0           , 0
0.0274396036, -0.159954876, -9.807274   , -0.000829077, 0.012643734 , 0.000271373661, 0.0160630159, 0.0237037465, 0.000264064816, 919.149963  , 30.348875   , 814.7759    , 1.9         , 3           , 255         , 0           , 0
0.027096685 , -0.161240622, -9.808569   , 0.00083045417, 0.0131416749, 0.000230422243, 0.01606994  , 0.0235542618, 0.00026844634, 919.149963  , 30.348875   , 814.763367  , 1.91        , 3           , 255         , 0           , 0
0.0243561845, -0.15629603 , -9.815714   , -0.000672255352, 0.0130088413, 0.000433475245, 0.0160633679, 0.0236842632, 0.0002748722, 919.149963  , 30.348875   , 814.7631    , 1.92        , 3           , 255         , 0           , 0
0.0252659377, -0.156100959, -9.804536   , -0.000457498973, 0.01213987  , 0.000178342452, 0.01605888  , 0.0238056127, 0.00027860605, 919.1639    , 30.3513012  , 814.7629    , 1.93        , 3           , 255         , 0           , 0
0.0272066146, -0.151894167, -9.796679   , -5.66594244E-05, 0.0131925866, 0.00041592028, 0.0160584636, 0.02393745  , 0.000284884823, 919.1639    , 30.3513012  , 814.762634  , 1.94        , 3           , 255         , 0           , 0
0.02766231  , -0.156866029, -9.808668   , -0.000363872241, 0.0129474   , -0.000367618632, 0.0160547867, 0.024066966 , 0.000283287663, 919.1639    , 30.3513012  , 814.7624    , 1.95        , 3           , 255         , 0           , 0
0.0316301845, -0.16617918 , -9.8025     , -0.000689225155, 0.0129093649, -0.0005027923, 0.0160478242, 0.0241961237, 0.0002803315, 919.1639    , 30.3513012  , 814.762146  , 1.96        , 3           , 255         , 0           , 0
0.0257519335, -0.157318473, -9.8144865  , 1.41458295E-05, 0.0131563032, 0.000342189334, 0.016048098 , 0.02432761  , 0.000285865652, 919.1639    , 30.3513012  , 814.7619    , 1.97        , 3           , 255         , 0           , 0
0.0269467048, -0.155889645, -9.81235    , 0.0001335199, 0.013028739 , 0.000173075823, 0.0160495229, 0.02445785  , 0.000289688061, 919.1639    , 30.3513012  , 814.761658  , 1.98        , 3           , 255         , 0           , 0
0.0207578577, -0.15747574 , -9.80845    , -0.000369138725, 0.01266301  , -0.0007286669, 0.0160457045, 0.02458458  , 0.000284433 , 919.1639    , 30.3513012  , 814.7614    , 1.99        , 3           , 255         , 0           , 0
0.0112233842, -0.148105413, -9.805861   , 0.0003119959, 0.0128531884, -0.000494600041, 0.0160487518, 0.0247131679, 0.000281549175, 919.1639    , 30.3513012  , 814.761169  , 2           , 3           , 0           , 8.014236    , 200
0.009336406 , -0.156642288, -9.809521   , -0.000439946481, 0.0128436694, -0.000320793479, 0.0160431974, 0.0245257448, 0.000280374516, 919.1639    , 30.3513012  , 814.7336    , 2.01        , 3           , 1           , 0           , 0
0.02607308  , -0.166411012, -9.81736    , -0.0005979417, 0.0135037387, 0.000201761024, 0.01603732  , 0.02466073  , 0.0002845588, 919.1639    , 30.3513012  , 814.7332    , 2.02        , 3           , 2           , 0           , 0
0.0270529874, -0.15681453 , -9.816361   , 0.000371680449, 0.0130473087, 0.000297143124, 0.0160411578, 0.0247911327, 0.000289623917, 919.1245    , 30.3496838  , 814.732849  , 2.03        , 3           , 3           , 0           , 0
0.0185458846, -0.162852   , -9.81178951 , 0.000394501985, 0.012798612 , -0.0003254749, 0.016045073 , 0.024919156 , 0.0002884223, 919.1245    , 30.3496838  , 814.7325    , 2.04        , 3           , 4           , 0           , 0
0.0260505043, -0.158451885, -9.807772   , 0.0008831166, 0.0135037387, -0.00036994752, 0.0160538647, 0.0250542276, 0.000286890223, 919.1245    , 30.3496838  , 814.7321    , 2.05        , 3           , 5           , 0           , 0
0.0282636937, -0.148896649, -9.801796   , -0.000423561782, 0.0138226543, -2.52837781E-05, 0.0160496775, 0.02519244  , 0.000288856565, 919.1245    , 30.3496838  , 814.73175   , 2.06        , 3           , 6           , 0           , 0
0.0303577725, -0.151891753, -9.808179   , 0.000419664168, 0.0136552965, -0.000120081007, 0.0160538964, 0.0253289845, 0.000289848 , 919.1245    , 30.3496838  , 814.7314    , 2.07        , 3           , 7           , 0           , 0
0.027672749 , -0.143369257, -9.808575   , 0.000207833626, 0.0136617338, -0.0006947154, 0.0160558578, 0.0254656989, 0.0002850936, 919.1245    , 30.3496838  , 814.731     , 2.08        , 3           , 8           , 5           , 5
0.0271545649, -0.150524229, -9.817324   , -1.45299127E-05, 0.0131935989, 0.000143244164, 0.0160558   , 0.0255975872, 0.000288645155, 919.1245    , 30.3496838  , 814.730652  , 2.09        , 3           , 9           , 5           , 0.1
0.0251480155, -0.154823914, -9.816      , -0.000133318841, 0.0130443815, -0.0004875661, 0.0160543937, 0.0257280935, 0.000285863469, 919.1245    , 30.3496838  , 814.7303    , 2.1         , 3           , 10          , 0.1         , 0.1
0.0252252258, -0.150490254, -9.820345   , -4.26257029E-05, 0.0126913926, -0.000258754, 0.0160507672, 0.0255652573, 0.000285231945, 919.1245    , 30.3496838  , 814.7545    , 2.11        , 3           , 11          , 0.009294266 , 0.00929431152
0.02644221  , -0.153261274, -9.810919   , -0.0004820863, 0.0129588135, -0.000608684029, 0.0160458442, 0.0256949216, 0.000281224231, 919.1245    , 30.3496838  , 814.754333  , 2.12        , 3           , 12          , 0.174643889 , 0
0.0330811776, -0.1553069  , -9.81069    , 0.00014111682, 0.0129652508, -0.0003248779, 0.01604722  , 0.0258246083, 0.000280055829, 919.13      , 30.349144   , 814.75415   , 2.13        , 3           , 13          , 0           , 0
0.0297281686, -0.151139408, -9.808342   , 0.000228306744, 0.0130770169, -0.0005121315, 0.0160494242, 0.02595544  , 0.000277032843, 919.13      , 30.349144   , 814.753967  , 2.14        , 3           , 14          , 0.000304195448, 6.15242334E-06
0.0227371138, -0.163661346, -9.811634   , -0.0005341662, 0.012806084 , 0.000407751417, 0.0160442423, 0.02608342  , 0.000283166766, 919.13      , 30.349144   , 814.7538    , 2.15        , 3           , 15          , 0           , 0.00213480019
0.0156646557, -0.16429019 , -9.805606   , -0.000947294233, 0.01251467  , -0.0003055674, 0.0160347447, 0.0262085944, 0.000282118272, 919.13      , 30.349144   , 814.7536    , 2.16        , 3           , 16          , 0           , 4.203895E-45
0.006625662 , -0.165957168, -9.807432   , -0.0004510724, 0.0132028274, -0.000750879757, 0.0160300918, 0.0263407249, 0.000276725332, 919.13      , 30.349144   , 814.7534    , 2.17        , 3           , 20          , 0           , 0
0.003797828 , -0.166011438, -9.81442451 , -9.58759047E-05, 0.013095743 , 0.000369130634, 0.0160292834, 0.0264716   , 0.0002825172, 919.13      , 30.349144   , 814.753235  , 2.18        , 3           , 21          , 0           , 0
0.017354371 , -0.154351473, -9.812721   , -0.000241582544, 0.0128651857, 0.000448127976, 0.0160270426, 0.0266001578, 0.0002890619, 919.13      , 30.349144   , 814.753052  , 2.19        , 3           , 22          , 0           , 0
0.0136995511, -0.154214889, -9.807573   , 0.000135850336, 0.0122086294, 0.000311198877, 0.0160285365, 0.0267221741, 0.00029413178, 919.13      , 30.349144   , 814.752869  , 2.2         , 3           , 40          , 0           , 0
0.0172234774, -0.151926309, -9.810303   , 3.578831E-05, 0.0124945445, -0.000175062334, 0.0160294566, 0.026536718 , 0.000294398749, 919.13      , 30.349144   , 814.7679    , 2.21        , 3           , 41          , 0           , 0
0.0230464581, -0.161577   , -9.81625652 , 0.0002610777, 0.0125770532, -0.000174477231, 0.0160320736, 0.0266624968, 0.0002946704, 919.13      , 30.349144   , 814.7678    , 2.22        , 3           , 42          , 0           , 0
0.0281093065, -0.152405649, -9.801615   , -0.00014327286, 0.01287666  , -0.000453016837, 0.0160305742, 0.02679132  , 0.000292204175, 919.1855    , 30.3514366  , 814.767761  , 2.23        , 3           , 255         , 0           , 0
0.02103069  , -0.154241934, -9.808968   , -6.1349434E-05, 0.0132382913, 0.000643001636, 0.01603019  , 0.0269235745, 0.000300758285, 919.1855    , 30.3514366  , 814.7677    , 2.24        , 3           , 255         , 0           , 0
0.0219267551, -0.158141643, -9.80841351 , 0.000111860078, 0.0134735294, -0.000619204249, 0.0160311982, 0.0270583853, 0.000296725455, 919.1855    , 30.3514366  , 814.767639  , 2.25        , 3           , 255         , 0           , 0
0.0229676832, -0.156067625, -9.808731   , 0.000296187733, 0.0129749682, -0.00051562977, 0.016034076 , 0.0271881986, 0.000293648831, 919.1855    , 30.3514366  , 814.7676    , 2.26        , 3           , 255         , 0           , 0
0.02936225  , -0.160903141, -9.813608   , -0.000121036486, 0.0131505169, 0.000135661568, 0.0160329565, 0.02731966  , 0.000297114952, 919.1855    , 30.3514366  , 814.7675    , 2.27        , 3           , 255         , 0           , 0
0.0288444646, -0.154668316, -9.807346   , -0.000101725993, 0.0137953712, 0.0004159566, 0.0160321128, 0.0274575278, 0.0003034879, 919.1855    , 30.3514366  , 814.767456  , 2.28        , 3           , 255         , 0           , 0
0.0272749569, -0.154206067, -9.809023   , -0.000400746445, 0.0132482406, -4.281453E-05, 0.0160281546, 0.0275900029, 0.000305184 , 919.1855    , 30.3514366  , 814.7674    , 2.29        , 3           , 255         , 0           , 0
0.01791511  , -0.148184255, -9.816496   , -0.0008548362, 0.0123792663, 0.000175452791, 0.01601971  , 0.027713744 , 0.00030892322, 919.1855    , 30.3514366  , 814.767334  , 2.3         , 3           , 255         , 0           , 0
0.01800852  , -0.156870574, -9.803723   , -0.00034925915, 0.012371351 , 0.00054529286, 0.01601368  , 0.0275147334, 0.000316283928, 919.1855    , 30.3514366  , 814.709045  , 2.31        , 3           , 255         , 0           , 0
0.01666254  , -0.164106816, -9.798451   , 0.000189094688, 0.0126879262, 0.000705043552, 0.0160158221, 0.0276414827, 0.00032536863, 919.1855    , 30.3514366  , 814.7086    , 2.32        , 3           , 255         , 0           , 0
0.009639706 , -0.164812654, -9.801307   , -0.000524809351, 0.0131168533, -0.000190262333, 0.016010575 , 0.0277726669, 0.000325566769, 919.136353  , 30.3515034  , 814.7082    , 2.33        , 3           , 255         , 0           , 0
0.0162350815, -0.16128318 , -9.80456    , -0.00110002863, 0.0129594449, -0.000142863719, 0.0159995928, 0.02790226  , 0.000326212466, 919.136353  , 30.3515034  , 814.707764  , 2.34        , 3           , 255         , 0           , 0
0.0136215212, -0.169723064, -9.81455    , -0.000455759582, 0.0132368142, 5.66781964E-05, 0.01599511  , 0.0280345958, 0.0003288976, 919.136353  , 30.3515034  , 814.707336  , 2.35        , 3           , 255         , 0           , 0
0.0140225692, -0.162255988, -9.811706   , -5.43348724E-05, 0.012614781 , 0.000259731431, 0.0159946922, 0.02816068  , 0.000333513832, 919.136353  , 30.3515034  , 814.707     , 2.36        , 3           , 255         , 0           , 0
0.020635264 , -0.161443025, -9.809484   , 0.000254633429, 0.0128266113, -0.000211328268, 0.0159972385, 0.0282889679, 0.000333452423, 919.136353  , 30.3515034  , 814.7066    , 2.37        , 3           , 255         , 0           , 0
0.0131101925, -0.159067482, -9.808688   , 0.000376348267, 0.0129571045, -0.000242927345, 0.01600099  , 0.028418554 , 0.00033309625, 919.136353  , 30.3515034  , 814.706238  , 2.38        , 3           , 255         , 0           , 0
0.0170799643, -0.155584738, -9.806883   , 0.000165688049, 0.0128968321, -0.000511519, 0.0160025563, 0.0285475813, 0.00033004416, 919.136353  , 30.3515034  , 814.7059    , 2.39        , 3           , 255         , 0           , 0
0.0195727833, -0.164280891, -9.80932    , -0.000444056233, 0.0125416359, -0.000527318567, 0.0159980245, 0.0286730621, 0.000326777081, 919.136353  , 30.3515034  , 814.7055    , 2.4         , 3           , 255         , 0           , 0
0.01879625  , -0.157433182, -9.813037   , -0.000279602449, 0.012798002 , -0.0001680078, 0.0160026532, 0.0284216572, 0.00032735485, 919.136353  , 30.3515034  , 814.7194    , 2.41        , 3           , 255         , 0           , 0
0.0215596147, -0.155819565, -9.82407951 , 9.470183E-06, 0.0127915647, 0.0006933585, 0.0160030033, 0.02854944  , 0.000336337951, 919.136353  , 30.3515034  , 814.7191    , 2.42        , 3           , 255         , 0           , 0
0.0179049559, -0.15988718 , -9.833077   , -0.0005364909, 0.01246036  , 0.000554673839, 0.0159978531, 0.0286739375, 0.000343880616, 919.1784    , 30.3528519  , 814.7188    , 2.43        , 3           , 255         , 0           , 0
0.0177754648, -0.152438849, -9.816283   , -0.000338704325, 0.01308883  , -0.000245249947, 0.0159944575, 0.0288048461, 0.000343521766, 919.1784    , 30.3528519  , 814.7185    , 2.44        , 3           , 255         , 0           , 0
0.03445296  , -0.152766377, -9.806776   , 0.000372273818, 0.0130191967, 0.0003305548, 0.0159983337, 0.0289349668, 0.0003489115, 919.1784    , 30.3528519  , 814.718262  , 2.45        , 3           , 255         , 0           , 0
0.0186930336, -0.16418618 , -9.803175   , 0.0004705819, 0.0129074287, -0.000359942438, 0.0160029959, 0.02906408  , 0.0003473772, 919.1784    , 30.3528519  , 814.718     , 2.46        , 3           , 255         , 0           , 0
0.0188073311, -0.1564998  , -9.816363   , -0.0004809  , 0.0125867575, 0.00027086772, 0.0159983225, 0.0291898847, 0.0003521014, 919.1784    , 30.3528519  , 814.7178    , 2.47        , 3           , 255         , 0           , 0
0.0170099251, -0.157806635, -9.828632   , -0.0006096368, 0.0127348034, 6.957003E-05, 0.0159923062, 0.0293172058, 0.0003548348, 919.1784    , 30.3528519  , 814.7175    , 2.48        , 3           , 255         , 0           , 0
0.0201124754, -0.152279586, -9.819311   , 0.000210767641, 0.0131976726, 0.000117553864, 0.01599451  , 0.02944914  , 0.000358122168, 919.1784    , 30.3528519  , 814.7173    , 2.49        , 3           , 255         , 0           , 0
0.0237928722, -0.153786018, -9.807075   , 0.0004682413, 0.0134340795, -2.52272E-05, 0.0159992464, 0.029583469 , 0.000360019534, 919.1784    , 30.3528519  , 814.717041  , 2.5         , 3           , 255         , 0           , 0
0.03618209  , -0.158224553, -9.795114   , 0.0004553653, 0.0129288035, -0.000314870966, 0.0160029456, 0.0294309389, 0.000358915218, 919.1784    , 30.3528519  , 814.673035  , 2.51        , 3           , 255         , 0           , 0
0.039975062 , -0.162134185, -9.808017   , 0.000209595048, 0.0129440175, 0.000163795892, 0.01600515  , 0.0295603368, 0.0003626259, 919.1784    , 30.3528519  , 814.6725    , 2.52        , 3           , 255         , 0           , 0
0.0370916948, -0.1731022  , -9.81702    , 0.0006689513, 0.0132699553, -0.000477547524, 0.01601176  , 0.02969309  , 0.0003599742, 919.163757  , 30.35373    , 814.671936  , 2.53        , 3           , 255         , 0           , 0
0.02392881  , -0.161276057, -9.819941   , 0.00013761947, 0.0130475909, -0.000350566115, 0.0160130952, 0.0298236   , 0.00035855762, 919.163757  , 30.35373    , 814.6714    , 2.54        , 3           , 255         , 0           , 0
0.02003347  , -0.160812661, -9.817304   , -0.0003112038, 0.0135397166, -0.0004997838, 0.016009897 , 0.0299590584, 0.000355727039, 919.163757  , 30.35373    , 814.670837  , 2.55        , 3           , 255         , 0           , 0
0.0130017865, -0.1597786  , -9.805452   , -0.000176615344, 0.0130060455, -0.000371047063, 0.01600808  , 0.0300891548, 0.0003540984, 919.163757  , 30.35373    , 814.6703    , 2.56        , 3           , 255         , 0           , 0
0.00568419136, -0.1540679  , -9.797316   , 0.000203743373, 0.0130411554, 0.000341686653, 0.0160102826, 0.0302194916, 0.000359604921, 919.163757  , 30.35373    , 814.6698    , 2.57        , 3           , 255         , 0           , 0
0.0125846062, -0.158277854, -9.81796    , 0.000127086445, 0.013008385 , -0.0004910063, 0.0160114672, 0.0303496365, 0.000356776844, 919.163757  , 30.35373    , 814.6693    , 2.58        , 3           , 255         , 0           , 0
0.0244552977, -0.164539814, -9.824188   , -0.000225184223, 0.0132459626, -0.00102233817, 0.0160089675, 0.0304822363, 0.0003486718, 919.163757  , 30.35373    , 814.6688    , 2.59        , 3           , 255         , 0           , 0
0.01842498  , -0.166483313, -9.809729   , 0.000189699378, 0.0129405065, -0.000813433435, 0.0160106756, 0.0306117553, 0.000342607527, 919.163757  , 30.35373    , 814.668335  , 2.6         , 3           , 255         , 0           , 0
0.0189108737, -0.166133627, -9.800954   , 0.000254672079, 0.0129435239, 0.000222915784, 0.01601928  , 0.0304055177, 0.0003470905, 919.163757  , 30.35373    , 814.650452  , 2.61        , 3           , 255         , 0           , 0
0.0158809852, -0.156920567, -9.802687   , 0.0004372443, 0.0127047766, -0.0004318864, 0.0160235818, 0.0305326115, 0.0003448067, 919.163757  , 30.35373    , 814.649841  , 2.62        , 3           , 255         , 0           , 0
0.0160575267, -0.152491927, -9.803829   , -0.000382575032, 0.013233182 , -5.50388359E-05, 0.0160197988, 0.0306649357, 0.000346377055, 919.1581    , 30.3517056  , 814.649231  , 2.63        , 3           , 255         , 0           , 0
0.0150012821, -0.148257256, -9.814306   , 0.0001961554, 0.0128768161, 0.000127533451, 0.0160218626, 0.0307936668, 0.000349716633, 919.1581    , 30.3517056  , 814.6486    , 2.64        , 3           , 255         , 0           , 0
0.024064742 , -0.146613449, -9.808477   , -9.17469151E-05, 0.0129563976, 0.0007729728, 0.016021248 , 0.0309230853, 0.000359525438, 919.1581    , 30.3517056  , 814.648     , 2.65        , 3           , 255         , 0           , 0
0.0321224444, -0.15557839 , -9.812259   , 0.000492249965, 0.0128428759, 0.000315957237, 0.01602633  , 0.0310514458, 0.0003647448, 919.1581    , 30.3517056  , 814.6474    , 2.66        , 3           , 255         , 0           , 0
0.0281183477, -0.153224111, -9.805047   , 0.00025993865, 0.012904318 , 0.000156791648, 0.01602904  , 0.03118044  , 0.000368382345, 919.1581    , 30.3517056  , 814.6468    , 2.67        , 3           , 255         , 0           , 0
0.02139974  , -0.156940341, -9.808481   , -0.0005581252, 0.0131887095, 0.000129289 , 0.0160235669, 0.0313122869, 0.000371790433, 919.1581    , 30.3517056  , 814.6462    , 2.68        , 3           , 255         , 0           , 0
0.03203839  , -0.1566499  , -9.814203   , -0.00145050522, 0.0128990514, -0.000361666549, 0.0160090122, 0.03144131  , 0.000370239228, 919.1581    , 30.3517056  , 814.645569  , 2.69        , 3           , 255         , 0           , 0
0.025390517 , -0.152366146, -9.808327   , -0.000147922969, 0.0132127013, -0.0001855311, 0.01600754  , 0.0315734521, 0.000370499067, 919.1581    , 30.3517056  , 814.644958  , 2.7         , 3           , 255         , 0           , 0
0.01972342  , -0.158708945, -9.79265    , 0.00042318835, 0.0127625866, 0.000103561906, 0.0160082448, 0.03131648  , 0.000373465358, 919.1581    , 30.3517056  , 814.638367  , 2.71        , 3           , 255         , 0           , 0
0.0214917753, -0.160818875, -9.801692   , 0.000654329429, 0.0131546482, -0.000412555761, 0.0160147231, 0.0314480662, 0.000371445378, 919.1581    , 30.3517056  , 814.637756  , 2.72        , 3           , 255         , 0           , 0
0.01845257  , -0.156712636, -9.803665   , 0.000711675733, 0.0131997066, 0.000295496779, 0.0160219986, 0.0315799974, 0.000376516749, 919.1702    , 30.3520432  , 814.637146  , 2.73        , 3           , 255         , 0           , 0
0.0226427875, -0.1571113  , -9.822539   , -0.0005405821, 0.0130463932, -1.756777E-05, 0.0160166528, 0.03171044  , 0.000378431985, 919.1702    , 30.3520432  , 814.636536  , 2.74        , 3           , 255         , 0           , 0
0.0144591574, -0.154076219, -9.812616   , -0.000705014041, 0.0130879385, 0.000118776225, 0.016009707 , 0.0318412781, 0.000381716643, 919.1702    , 30.3520432  , 814.6359    , 2.75        , 3           , 255         , 0           , 0
0.0181646068, -0.152604565, -9.808965   , 0.000306154863, 0.0130171347, -9.363936E-05, 0.0160128027, 0.0319714434, 0.000382865022, 919.1702    , 30.3520432  , 814.6353    , 2.76        , 3           , 255         , 0           , 0
0.0144505128, -0.153469652, -9.808031   , -5.957461E-05, 0.0128936637, -0.000854942133, 0.0160119981, 0.03210049  , 0.000376378157, 919.1702    , 30.3520432  , 814.6347    , 2.77        , 3           , 255         , 0           , 0
0.0109422859, -0.153753176, -9.816461   , -0.000452807, 0.0130212307, -0.000204821466, 0.0160074718, 0.0322307162, 0.00037641477, 919.1702    , 30.3520432  , 814.6341    , 2.78        , 3           , 255         , 0           , 0
0.0239379313, -0.162665755, -9.808719   , -0.0004241338, 0.0129691511, -0.00029669248, 0.0160031989, 0.03236044  , 0.0003755233, 919.1702    , 30.3520432  , 814.6335    , 2.79        , 3           , 255         , 0           , 0
0.0210844819, -0.157895356, -9.808862   , 0.0002915257, 0.0124483509, 0.00074783084, 0.0160064232, 0.0324847847, 0.000384997722, 919.1702    , 30.3520432  , 814.6329    , 2.8         , 3           , 255         , 0           , 0
0.0131781455, -0.154074609, -9.814204   , 2.35180778E-05, 0.0128981471, -0.000223524752, 0.0160062667, 0.0322238356, 0.000384814281, 919.1702    , 30.3520432  , 814.6109    , 2.81        , 3           , 255         , 0           , 0
0.0169556979, -0.161743447, -9.799868   , 0.0005601163, 0.01292448  , -0.000424237223, 0.016011795 , 0.0323531255, 0.0003826404, 919.1702    , 30.3520432  , 814.610168  , 2.82        , 3           , 255         , 0           , 0
0.0196669362, -0.150447711, -9.802762   , 0.0002242304, 0.0128887845, -0.0005951059, 0.016013911 , 0.03248208  , 0.0003787518, 919.1506    , 30.3524475  , 814.609436  , 2.83        , 3           , 255         , 0           , 0
0.0254147947, -0.151655167, -9.808676   , 0.000598737446, 0.0127863791, 0.000100072706, 0.0160199963, 0.0326099135, 0.000381801743, 919.1506    , 30.3524475  , 814.6087    , 2.84        , 3           , 255         , 0           , 0
0.0282099638, -0.1426833  , -9.806055   , 0.0008556258, 0.0129039986, -0.0004318445, 0.0160284787, 0.032739    , 0.0003795505, 919.1506    , 30.3524475  , 814.608     , 2.85        , 3           , 255         , 0           , 0
0.0340140425, -0.154218167, -9.811853   , 0.000436060946, 0.0127670709, 0.000489793951, 0.0160330683, 0.03286657  , 0.000386497937, 919.1506    , 30.3524475  , 814.607239  , 2.86        , 3           , 255         , 0           , 0
0.02027773  , -0.157786876, -9.807951   , 0.000203749572, 0.0124504939, -0.000245176139, 0.0160350911, 0.0329910964, 0.000386042317, 919.1506    , 30.3524475  , 814.6065    , 2.87        , 3           , 255         , 0           , 0
0.0118466783, -0.162462756, -9.806387   , 0.0005607016, 0.0127208428, 0.000503838062, 0.0160409324, 0.0331182   , 0.000393123919, 919.1506    , 30.3524475  , 814.6058    , 2.88        , 3           , 255         , 0           , 0
0.0192958266, -0.159366459, -9.805916   , -5.15510328E-06, 0.0130385878, 0.0002639196, 0.0160410348, 0.0332485251, 0.000397856726, 919.1506    , 30.3524475  , 814.605042  , 2.89        , 3           , 255         , 0           , 0
0.0260851234, -0.161468863, -9.81133    , -0.000422964542, 0.0133902747, 1.93195883E-05, 0.0160368849, 0.0333824046, 0.00040019874, 919.1506    , 30.3524475  , 814.6043    , 2.9         , 3           , 255         , 0           , 0
0.0251901951, -0.151197761, -9.81115    , -0.000126292362, 0.0124952374, 0.00020601158, 0.0160335861, 0.03310169  , 0.00040419228, 919.1506    , 30.3524475  , 814.613831  , 2.91        , 3           , 255         , 0           , 0
0.012901959 , -0.158880308, -9.803231   , 2.234013E-05, 0.0123986853, -0.000330586685, 0.0160337649, 0.03322571  , 0.000402874 , 919.1506    , 30.3524475  , 814.613159  , 2.92        , 3           , 255         , 0           , 0
0.008677377 , -0.166819558, -9.802608   , -0.000133899535, 0.0127854813, -0.000253929757, 0.0160324089, 0.03335359  , 0.000402384525, 919.165161  , 30.35238    , 814.612549  , 2.93        , 3           , 255         , 0           , 0
0.009488256 , -0.169233054, -9.807781   , -0.000197682763, 0.0125947148, 0.000159198185, 0.0160305537, 0.03347949  , 0.0004059973, 919.165161  , 30.35238    , 814.611938  , 2.94        , 3           , 255         , 0           , 0
0.0146735329, -0.165992081, -9.811301   , -0.000468030048, 0.0127351554, 3.338745E-05, 0.0160259511, 0.03360681  , 0.00040837354, 919.165161  , 30.35238    , 814.6113    , 2.95        , 3           , 255         , 0           , 0
0.012005588 , -0.164676741, -9.8129015  , -0.000141506709, 0.01288964  , 6.615673E-05, 0.0160246287, 0.0337356776, 0.000411101966, 919.165161  , 30.35238    , 814.6107    , 2.96        , 3           , 255         , 0           , 0
0.0136130024, -0.157730669, -9.799701   , 0.000189697981, 0.0129908742, 0.000221811235, 0.0160266645, 0.0338655263, 0.000415403832, 919.165161  , 30.35238    , 814.6101    , 2.97        , 3           , 255         , 0           , 0
0.020916013 , -0.156238   , -9.818609   , 0.000394506467, 0.0125198141, -0.000264462782, 0.01603059  , 0.03399075  , 0.000414765964, 919.165161  , 30.35238    , 814.6095    , 2.98        , 3           , 255         , 0           , 0
0.033922825 , -0.152352482, -9.812418   , -0.000687467749, 0.0128281964, -0.0004253838, 0.0160236415, 0.0341190845, 0.000412567431, 919.165161  , 30.35238    , 814.6089    , 2.99        , 3           , 255         , 0           , 0
0.03267813  , -0.157963142, -9.813726   , -0.0005768711, 0.0129861925, -0.0004306502, 0.0160177946, 0.0342489965, 0.000410340464, 919.165161  , 30.35238    , 814.6083    , 3           , 3           , 0           , 9.014236    , 300
0.0373732075, -0.157886714, -9.813433   , 0.000363506668, 0.0127044069, -0.000217040069, 0.0160250328, 0.033985734 , 0.0004103277, 919.165161  , 30.35238    , 814.596863  , 3.01        , 3           , 1           , 0           , 0
0.0294481665, -0.157433867, -9.804141   , -0.000147344326, 0.0125973225, -0.000403708545, 0.01602349  , 0.03411176  , 0.0004083085, 919.165161  , 30.35238    , 814.5962    , 3.02        , 3           , 2           , 0           , 0
0.0245513115, -0.1572724  , -9.80122948 , 0.000477029069, 0.0122918645, 0.0007332715, 0.0160285775, 0.03423454  , 0.000417615258, 919.176636  , 30.3539982  , 814.5955    , 3.03        , 3           , 3           , 0           , 0
0.0248697829, -0.154200345, -9.808918   , 0.000318448758, 0.0127371764, 0.000304343645, 0.0160319358, 0.0343618356, 0.000422702928, 919.176636  , 30.3539982  , 814.594849  , 3.04        , 3           , 4           , 0           , 0
0.0225112233, -0.1510905  , -9.813411   , 3.05465073E-05, 0.01295954  , -0.0004628105, 0.0160321519, 0.03449149  , 0.0004201514, 919.176636  , 30.3539982  , 814.5942    , 3.05        , 3           , 5           , 0           , 0
0.0225830022, -0.1531085  , -9.806068   , 0.000451866945, 0.0130315153, 0.000181458425, 0.016036801 , 0.0346217528, 0.000424057478, 919.176636  , 30.3539982  , 814.5935    , 3.06        , 3           , 6           , 0           , 0
0.0162615087, -0.151967674, -9.806656   , -6.19099E-05, 0.0125411451, -5.319342E-05, 0.0160362348, 0.0347471535, 0.000425537466, 919.176636  , 30.3539982  , 814.592834  , 3.07        , 3           , 7           , 0           , 0
0.01414904  , -0.160005927, -9.807146   , 0.000639120466, 0.0128729362, 0.000111238565, 0.0160427354, 0.03487584  , 0.000428716216, 919.176636  , 30.3539982  , 814.592163  , 3.08        , 3           , 8           , 5           , 5
0.0126898587, -0.16645886 , -9.811794   , -0.000151440472, 0.0133065451, -0.000336999656, 0.0160411764, 0.03500894  , 0.000427480467, 919.176636  , 30.3539982  , 814.5915    , 3.09        , 3           , 9           , 5           , 0.1
0.009639466 , -0.160262465, -9.8173275  , -2.9725692E-05, 0.0126540828, -0.00106904365, 0.0160405748, 0.0351356231, 0.000418815966, 919.176636  , 30.3539982  , 814.5908    , 3.1         , 3           , 10          , 0.1         , 0.1
0.0117640765, -0.1562345  , -9.813272   , 0.000279241445, 0.0128567256, -0.0003674028, 0.016042931 , 0.0348664857, 0.000417190226, 919.176636  , 30.3539982  , 814.565857  , 3.11        , 3           , 11          , 0.008743365 , 0.008743434
0.0126555562, -0.153850809, -9.809733   , -6.320217E-06, 0.012433649 , 0.000469971215, 0.0160431024, 0.03499073  , 0.000423887861, 919.176636  , 30.3539982  , 814.565063  , 3.12        , 3           , 12          , 0.174645633 , 0
0.00565277226, -0.16383484 , -9.813491   , -0.000735438545, 0.0126343612, -9.12039541E-05, 0.016035784 , 0.0351170674, 0.000425003032, 919.1604    , 30.3524475  , 814.5643    , 3.13        , 3           , 13          , 0           , 0
0.0139950337, -0.169887751, -9.813769   , -0.000434077461, 0.0129257757, -0.0002058968, 0.0160314478, 0.03524633  , 0.000425016682, 919.1604    , 30.3524475  , 814.5635    , 3.14        , 3           , 14          , 0.000304170331, 1.81234154E-05
0.0180371515, -0.161979541, -9.809774   , -0.00037673107, 0.0123763029, 0.000305539463, 0.0160278548, 0.03537003  , 0.000430058426, 919.1604    , 30.3524475  , 814.5627    , 3.15        , 3           , 15          , 0           , 0.00213460787
0.0237686429, -0.153685108, -9.811619   , 0.000259345717, 0.012301987 , -0.0003439961, 0.0160303935, 0.0354930833, 0.0004285898, 919.1604    , 30.3524475  , 814.5619    , 3.16        , 3           , 16          , 0           , 4.203895E-45
0.0281621329, -0.162662119, -9.800903   , 0.0003120108, 0.0123423636, -0.0003814468, 0.01603345  , 0.0356165469, 0.000426753337, 919.1604    , 30.3524475  , 814.5611    , 3.17        , 3           , 20          , 0           , 0
0.0244998336, -0.1585603  , -9.794832   , -0.0002152249, 0.0132996971, -0.000214089057, 0.0160312988, 0.0357495546, 0.000426745 , 919.1604    , 30.3524475  , 814.5603    , 3.18        , 3           , 21          , 0           , 0
0.02289575  , -0.155673519, -9.806272   , -0.0008893376, 0.0136543084, -0.000556997, 0.0160222817, 0.03588616  , 0.000423361751, 919.1604    , 30.3524475  , 814.5595    , 3.19        , 3           , 22          , 0           , 0
0.0283948835, -0.148011878, -9.818568   , 7.723807E-06, 0.012801134 , 0.000124722719, 0.0160224754, 0.0360141434, 0.0004266618, 919.1604    , 30.3524475  , 814.5587    , 3.2         , 3           , 40          , 0           , 0
0.0265641622, -0.156624272, -9.821875   , 1.12412381E-05, 0.0133425007, 0.0008263651, 0.01602443  , 0.03574347  , 0.000437120732, 919.1604    , 30.3524475  , 814.5617    , 3.21        , 3           , 41          , 0           , 0
0.0187746249, -0.162736923, -9.80838    , -0.000483225071, 0.0128971878, 0.000598734943, 0.0160198826, 0.03587232  , 0.000445178477, 919.1604    , 30.3524475  , 814.561     , 3.22        , 3           , 42          , 0           , 0
0.0226943363, -0.157651022, -9.806733   , -2.79649685E-05, 0.0130680585, 0.0005589437, 0.0160198789, 0.0360029   , 0.000452865352, 919.1526    , 30.3522453  , 814.560242  , 3.23        , 3           , 255         , 0           , 0
0.0150358882, -0.151590183, -9.799095   , -0.000115154879, 0.0135689611, 0.000145230209, 0.0160188563, 0.03613854  , 0.0004564932, 919.1526    , 30.3522453  , 814.5595    , 3.24        , 3           , 255         , 0           , 0
0.0176813453, -0.160690933, -9.811405   , 0.000230093778, 0.0132202022, 0.000759655843, 0.0160215087, 0.0362706   , 0.000466212747, 919.1526    , 30.3522453  , 814.5588    , 3.25        , 3           , 255         , 0           , 0
0.0163653847, -0.158168837, -9.823217   , 0.000368193258, 0.012443685 , -0.000393123366, 0.0160251185, 0.0363950767, 0.0004642745, 919.1526    , 30.3522453  , 814.558044  , 3.26        , 3           , 255         , 0           , 0
0.0227044448, -0.154821068, -9.815539   , 0.0003137727, 0.0119784763, 0.0006022458, 0.0160285458, 0.03651475  , 0.000472221029, 919.1526    , 30.3522453  , 814.5573    , 3.27        , 3           , 255         , 0           , 0
0.0159326829, -0.151094958, -9.791435   , -0.000214633314, 0.0129908165, 0.000222472474, 0.0160265546, 0.0366446041, 0.000476530171, 919.1526    , 30.3522453  , 814.5566    , 3.28        , 3           , 255         , 0           , 0
0.0144660594, -0.160241768, -9.794519   , 0.0009164949, 0.0129709207, 0.000219546724, 0.016035879 , 0.03677426  , 0.000480807415, 919.1526    , 30.3522453  , 814.555847  , 3.29        , 3           , 255         , 0           , 0
0.01059739  , -0.161538765, -9.806216   , 0.000263448281, 0.013398678 , -0.0003369475, 0.0160384662, 0.0369082838, 0.000479586452, 919.1526    , 30.3522453  , 814.5551    , 3.3         , 3           , 255         , 0           , 0
0.019763846 , -0.171994716, -9.809354   , 6.97604555E-05, 0.01308201  , -0.000202329131, 0.0160396378, 0.0366081148, 0.000479678361, 919.1526    , 30.3522453  , 814.569641  , 3.31        , 3           , 255         , 0           , 0
0.01790501  , -0.163694784, -9.810214   , 0.000154024514, 0.0130732311, 0.0006291936, 0.0160414856, 0.0367387235, 0.000488071848, 919.1526    , 30.3522453  , 814.569031  , 3.32        , 3           , 255         , 0           , 0
0.0182343032, -0.161410064, -9.810812   , 0.000685941544, 0.01284326  , -4.78450675E-05, 0.0160484016, 0.0368671454, 0.000489655067, 919.174255  , 30.35447    , 814.5684    , 3.33        , 3           , 255         , 0           , 0
0.0109745814, -0.160204083, -9.809931   , -0.000115152419, 0.0125957336, 3.934512E-05, 0.0160473362, 0.03699308  , 0.000492071442, 919.174255  , 30.35447    , 814.5678    , 3.34        , 3           , 255         , 0           , 0
0.0191163924, -0.157029539, -9.810817   , -0.0005417393, 0.0128567191, -0.0007295648, 0.0160417259, 0.037121743 , 0.0004868359, 919.174255  , 30.35447    , 814.5672    , 3.35        , 3           , 255         , 0           , 0
0.0177262388, -0.15852201 , -9.815487   , -0.0003328346, 0.0128461868, -6.71555754E-05, 0.01603845  , 0.0372502   , 0.0004882258, 919.174255  , 30.35447    , 814.5666    , 3.36        , 3           , 255         , 0           , 0
0.0328994542, -0.169692069, -9.815631   , -0.000397203024, 0.0130158858, 1.1256896E-05, 0.0160345566, 0.03738034  , 0.000490427 , 919.174255  , 30.35447    , 814.566     , 3.37        , 3           , 255         , 0           , 0
0.0225915648, -0.157322973, -9.805818   , -0.000303576264, 0.0134676332, 0.0002529309, 0.0160316955, 0.0375149548, 0.0004951184, 919.174255  , 30.35447    , 814.565369  , 3.38        , 3           , 255         , 0           , 0
0.0235941969, -0.152629644, -9.804702   , -0.000134462927, 0.0136028063, 0.0002388868, 0.01603052  , 0.03765093  , 0.0004996905, 919.174255  , 30.35447    , 814.564758  , 3.39        , 3           , 255         , 0           , 0
0.023818247 , -0.1587229  , -9.807556   , 0.000210200582, 0.0130457291, -0.0001964774, 0.0160326269, 0.037781395 , 0.0004998175, 919.174255  , 30.35447    , 814.564148  , 3.4         , 3           , 255         , 0           , 0
0.0267741736, -0.161373839, -9.806074   , -0.00151777838, 0.0128432242, -0.000115695177, 0.01602184  , 0.0375075825, 0.0005008825, 919.174255  , 30.35447    , 814.547058  , 3.41        , 3           , 255         , 0           , 0
0.0180307664, -0.15572308 , -9.811705   , -0.000528845761, 0.0126963481, 0.000264663482, 0.01601673  , 0.03763448  , 0.0005055656, 919.174255  , 30.35447    , 814.5463    , 3.42        , 3           , 255         , 0           , 0
0.0207973886, -0.1567556  , -9.813456   , 0.000159896037, 0.012754865 , -0.000341569772, 0.0160182714, 0.03776207  , 0.0005041924, 919.10614   , 30.35238    , 814.5456    , 3.43        , 3           , 255         , 0           , 0
0.0142469909, -0.166634962, -9.808104   , -0.000373776478, 0.01270688  , -0.000542867347, 0.0160144046, 0.0378891975, 0.0005007971, 919.10614   , 30.35238    , 814.544861  , 3.44        , 3           , 255         , 0           , 0
0.0158644132, -0.159094557, -9.807116   , 0.000266981631, 0.0127098067, -0.0003954051, 0.0160170011, 0.0380163528, 0.0004988777, 919.10614   , 30.35238    , 814.5441    , 3.45        , 3           , 255         , 0           , 0
0.0180310346, -0.149426371, -9.80464    , 3.29147442E-05, 0.0125804842, 0.0003144024, 0.0160175245, 0.0381420851, 0.000504039752, 919.10614   , 30.35238    , 814.5434    , 3.46        , 3           , 255         , 0           , 0
0.0178447552, -0.15467833 , -9.812481   , 0.00027868498, 0.0127987517, -0.000432855915, 0.0160202254, 0.03827012  , 0.00050176034, 919.10614   , 30.35238    , 814.5427    , 3.47        , 3           , 255         , 0           , 0
0.0203911029, -0.162344933, -9.809136   , 0.000108986511, 0.0125986245, -0.0003088005, 0.0160212722, 0.03839614  , 0.00050069025, 919.10614   , 30.35238    , 814.542053  , 3.48        , 3           , 255         , 0           , 0
0.01336962  , -0.155313313, -9.802665   , 0.000228945777, 0.01240669  , 6.278069E-05, 0.01602366  , 0.03852017  , 0.0005033077, 919.10614   , 30.35238    , 814.5414    , 3.49        , 3           , 255         , 0           , 0
0.0123168677, -0.150604   , -9.811426   , -0.000312333927, 0.0130070718, -0.000123887556, 0.0160205718, 0.0386502445, 0.0005041535, 919.10614   , 30.35238    , 814.5407    , 3.5         , 3           , 255         , 0           , 0
0.0213733669, -0.15368022 , -9.814493   , -0.0002801487, 0.0138752265, 1.30736735E-05, 0.0160179567, 0.0383578576, 0.000506511948, 919.10614   , 30.35238    , 814.623962  , 3.51        , 3           , 255         , 0           , 0
0.01998296  , -0.155679926, -9.821663   , -0.0005259189, 0.0131086586, -0.00016891351, 0.0160127152, 0.0384889469, 0.000506922544, 919.10614   , 30.35238    , 814.6238    , 3.52        , 3           , 255         , 0           , 0
0.02538244  , -0.167312369, -9.806046   , 0.000117765041, 0.0129857725, -1.96958426E-05, 0.0160139631, 0.0386187956, 0.0005088062, 919.138367  , 30.35373    , 814.6236    , 3.53        , 3           , 255         , 0           , 0
0.0222079065, -0.154009819, -9.799967   , -4.08153E-05, 0.0127130849, 0.0006432985, 0.0160138849, 0.03874581  , 0.000517280365, 919.138367  , 30.35373    , 814.6234    , 3.54        , 3           , 255         , 0           , 0
0.0284930356, -0.150996566, -9.802126   , 0.000334862038, 0.0130887637, 0.000309753232, 0.0160174333, 0.0388766266, 0.0005224773, 919.138367  , 30.35373    , 814.6232    , 3.55        , 3           , 255         , 0           , 0
0.027046347 , -0.159769088, -9.802228   , 0.000337202742, 0.012987528 , -2.4962239E-05, 0.0160208754, 0.0390064828, 0.0005243096, 919.138367  , 30.35373    , 814.6231    , 3.56        , 3           , 255         , 0           , 0
0.0288452841, -0.152648181, -9.808487   , -0.00017715928, 0.0128605468, 0.000131277135, 0.0160192363, 0.03913505  , 0.0005276848, 919.138367  , 30.35373    , 814.623     , 3.57        , 3           , 255         , 0           , 0
0.0255116932, -0.149747863, -9.815628   , -0.00024386833, 0.0123415031, 0.000182186719, 0.0160169452, 0.0392584242, 0.000531486061, 919.138367  , 30.35373    , 814.622864  , 3.58        , 3           , 255         , 0           , 0
0.02191714  , -0.1543972  , -9.811145   , 0.000232457824, 0.0131531311, -0.000449793879, 0.0160191748, 0.03939     , 0.0005290938, 919.138367  , 30.35373    , 814.622742  , 3.59        , 3           , 255         , 0           , 0
0.022354953 , -0.158752   , -9.804582   , 0.0001821334, 0.0132964961, -0.000341537874, 0.0160209462, 0.03952301  , 0.000527807861, 919.138367  , 30.35373    , 814.6226    , 3.6         , 3           , 255         , 0           , 0
0.0225507431, -0.1583246  , -9.809978   , -2.91195756E-05, 0.0129620684, -0.000466731144, 0.0160188489, 0.03922318  , 0.0005251483, 919.138367  , 30.35373    , 814.648438  , 3.61        , 3           , 255         , 0           , 0
0.0234276261, -0.160887808, -9.811668   , -0.000127427629, 0.0134155741, -0.000424013939, 0.016017491 , 0.0393573865, 0.0005230562, 919.138367  , 30.35373    , 814.648438  , 3.62        , 3           , 255         , 0           , 0
0.0243044589, -0.15917775 , -9.810909   , -0.000681581, 0.0131551744, -0.000244367635, 0.01601066  , 0.0394889675, 0.0005227191, 919.142456  , 30.3541336  , 814.648438  , 3.63        , 3           , 255         , 0           , 0
0.02247428  , -0.159455016, -9.808235   , 0.000137653115, 0.0129737724, -0.000357304816, 0.0160119776, 0.039618738 , 0.000521222537, 919.142456  , 30.3541336  , 814.6485    , 3.64        , 3           , 255         , 0           , 0
0.01593505  , -0.158458263, -9.80413151 , -0.0004270333, 0.0127578452, 0.000550289638, 0.0160080064, 0.0397462063, 0.000528772944, 919.142456  , 30.3541336  , 814.64856   , 3.65        , 3           , 255         , 0           , 0
0.0228414573, -0.157438979, -9.807401   , 4.92928375E-05, 0.0129884025, -3.66331078E-05, 0.0160085689, 0.0398760848, 0.000530487159, 919.142456  , 30.3541336  , 814.6486    , 3.66        , 3           , 255         , 0           , 0
0.0159312151, -0.146291584, -9.802986   , -0.000627745641, 0.0133558856, 6.401539E-05, 0.0160024017, 0.0400096141, 0.0005332669, 919.142456  , 30.3541336  , 814.6487    , 3.67        , 3           , 255         , 0           , 0
0.0219177119, -0.160978049, -9.811132   , 0.000196754962, 0.01266656  , 0.0001435983, 0.0160045065, 0.0401362367, 0.0005367323, 919.142456  , 30.3541336  , 814.648743  , 3.68        , 3           , 255         , 0           , 0
0.0264872871, -0.16027236 , -9.810501   , 0.0002646344, 0.0126928929, 4.704576E-05, 0.016007252 , 0.040263135 , 0.0005392363, 919.142456  , 30.3541336  , 814.6488    , 3.69        , 3           , 255         , 0           , 0
0.0263688564, -0.158697888, -9.812353   , 8.8499015E-05, 0.0131387906, -0.0004228435, 0.01600805  , 0.040394567 , 0.0005371097, 919.142456  , 30.3541336  , 814.648865  , 3.7         , 3           , 255         , 0           , 0
0.0290402267, -0.164295316, -9.808548   , -2.19576759E-06, 0.0133596   , -3.835396E-05, 0.0160092115, 0.0400953181, 0.0005389103, 919.142456  , 30.3541336  , 814.665161  , 3.71        , 3           , 255         , 0           , 0
0.0342163071, -0.160274833, -9.808355   , 0.000234796986, 0.0132964011, -0.00042339426, 0.01601147  , 0.0402283259, 0.000536803855, 919.142456  , 30.3541336  , 814.665344  , 3.72        , 3           , 255         , 0           , 0
0.0234072562, -0.154382631, -9.805255   , 0.0004319983, 0.0133291716, -0.00101792417, 0.0160154644, 0.04036176  , 0.0005287539, 919.1252    , 30.3553467  , 814.6655    , 3.73        , 3           , 255         , 0           , 0
0.0263799671, -0.154631481, -9.806402   , -0.0002333368, 0.01299504  , -0.000204541837, 0.0160131343, 0.0404917262, 0.000528789766, 919.1252    , 30.3553467  , 814.6657    , 3.74        , 3           , 255         , 0           , 0
0.0186357815, -0.160219073, -9.815367   , 0.000628614449, 0.0130038168, -0.000446215738, 0.0160193183, 0.0406218059, 0.0005264088, 919.1252    , 30.3553467  , 814.6659    , 3.75        , 3           , 255         , 0           , 0
0.0194254126, -0.15923427 , -9.81206    , 9.552718E-05, 0.012712989 , -3.83541919E-05, 0.0160203427, 0.0407489166, 0.000528063159, 919.1252    , 30.3553467  , 814.6661    , 3.76        , 3           , 255         , 0           , 0
0.02110805  , -0.1575143  , -9.807014   , 7.095016E-05, 0.0128932213, -0.00063463964, 0.01602088  , 0.04087793  , 0.0005237796, 919.1252    , 30.3553467  , 814.66626   , 3.77        , 3           , 255         , 0           , 0
0.0188490823, -0.158346176, -9.806618   , 0.000417954318, 0.0129213091, 0.000539790839, 0.0160253588, 0.04100704  , 0.0005312531, 919.1252    , 30.3553467  , 814.666443  , 3.78        , 3           , 255         , 0           , 0
0.0206105113, -0.158577323, -9.802369   , -6.831964E-05, 0.0126977749, 0.00034668576, 0.0160249   , 0.0411339439, 0.0005367588, 919.1252    , 30.3553467  , 814.6666    , 3.79        , 3           , 255         , 0           , 0
0.0148908887, -0.16143164 , -9.803057   , -0.000470329542, 0.0133350212, 0.000460208161, 0.0160204787, 0.04126719  , 0.0005435024, 919.1252    , 30.3553467  , 814.6668    , 3.8         , 3           , 255         , 0           , 0
0.0204157755, -0.158794373, -9.804176   , -0.0005422933, 0.013282937 , 0.0006843654, 0.0160176065, 0.04094064  , 0.0005525689, 919.1252    , 30.3553467  , 814.705261  , 3.81        , 3           , 255         , 0           , 0
0.0125004528, -0.15804188 , -9.810862   , -0.000267264724, 0.0128364554, -6.230804E-05, 0.0160149932, 0.0410689972, 0.000554002938, 919.1252    , 30.3553467  , 814.7057    , 3.82        , 3           , 255         , 0           , 0
0.0171881411, -0.152039424, -9.810211   , -0.000242687689, 0.0128996521, -0.000467828941, 0.0160124544, 0.04119804  , 0.000551388657, 919.15155   , 30.35211    , 814.7061    , 3.83        , 3           , 255         , 0           , 0
0.0105633689, -0.146462813, -9.802202   , 0.000185654731, 0.0131038753, -0.000468414277, 0.0160142016, 0.0413291343, 0.000548801152, 919.15155   , 30.35211    , 814.706543  , 3.84        , 3           , 255         , 0           , 0
0.017815331 , -0.161798447, -9.800182   , -7.357437E-05, 0.013078128 , 1.47498213E-06, 0.0160135534, 0.0414598919, 0.000550911936, 919.15155   , 30.35211    , 814.707     , 3.85        , 3           , 255         , 0           , 0
0.0250489172, -0.163510516, -9.807007   , -0.0005171311, 0.0126802148, -0.000180511968, 0.01600839  , 0.0415867046, 0.000551137258, 919.15155   , 30.35211    , 814.7074    , 3.86        , 3           , 255         , 0           , 0
0.0247733444, -0.160345718, -9.810376   , 3.76073876E-05, 0.013291128 , -0.0005602855, 0.01600862  , 0.0417196751, 0.000547659758, 919.15155   , 30.35211    , 814.7078    , 3.87        , 3           , 255         , 0           , 0
0.02153998  , -0.154297322, -9.810437   , 6.218444E-05, 0.0132478271, -0.0006550825, 0.0160090551, 0.0418522432, 0.0005432266, 919.15155   , 30.35211    , 814.708252  , 3.88        , 3           , 255         , 0           , 0
0.0242640488, -0.158151552, -9.804887   , -0.000125069084, 0.0129330074, -0.000101514161, 0.01600785  , 0.041981563 , 0.000544282841, 919.15155   , 30.35211    , 814.7087    , 3.89        , 3           , 255         , 0           , 0
0.015273178 , -0.158378065, -9.807391   , -0.000167786289, 0.0130635   , -0.000301641528, 0.01600613  , 0.0421122275, 0.000543357 , 919.15155   , 30.35211    , 814.7091    , 3.9         , 3           , 255         , 0           , 0
0.0154693546, -0.167106748, -9.80287    , -0.0003392388, 0.0130492533, -1.48687977E-05, 0.01600298  , 0.0417611562, 0.0005453044, 919.15155   , 30.35211    , 814.704     , 3.91        , 3           , 255         , 0           , 0
0.0271650665, -0.164557531, -9.814886   , -0.0007155013, 0.0125237741, 0.0001647775, 0.0159959737, 0.04188635  , 0.0005489586, 919.15155   , 30.35211    , 814.7044    , 3.92        , 3           , 255         , 0           , 0
0.0242847   , -0.153560549, -9.799343   , -2.91001343E-05, 0.01342025  , 9.74831637E-05, 0.0159958135, 0.0420205146, 0.000552082667, 919.156433  , 30.3525143  , 814.704834  , 3.93        , 3           , 255         , 0           , 0
0.0274001118, -0.159689218, -9.808203   , -0.0003778598, 0.013022921 , -0.000205633231, 0.015992038 , 0.04215076  , 0.000552109268, 919.156433  , 30.3525143  , 814.705261  , 3.94        , 3           , 255         , 0           , 0
0.0271945186, -0.1648184  , -9.805334   , 5.28232777E-05, 0.0126314452, -0.0004578404, 0.015992457 , 0.0422771238, 0.0005495493, 919.156433  , 30.3525143  , 814.7057    , 3.95        , 3           , 255         , 0           , 0
0.021213958 , -0.1538337  , -9.804849   , -0.000664006569, 0.0128321582, -0.000183982076, 0.0159858242, 0.0424054526, 0.000549761462, 919.156433  , 30.3525143  , 814.7061    , 3.96        , 3           , 255         , 0           , 0
0.02245571  , -0.154327229, -9.805332   , -0.000236834516, 0.0128941853, -0.000158234965, 0.0159834754, 0.0425343923, 0.000550240744, 919.156433  , 30.3525143  , 814.706543  , 3.97        , 3           , 255         , 0           , 0
0.0229439363, -0.1569751  , -9.812984   , 0.0003079562, 0.0130978217, -0.000100303208, 0.0159866046, 0.04266537  , 0.0005513323, 919.156433  , 30.3525143  , 814.707     , 3.98        , 3           , 255         , 0           , 0
0.0272297021, -0.151487991, -9.811705   , 0.0005999547, 0.01284386  , 0.000770425657, 0.01599302  , 0.0427936651, 0.000561097753, 919.156433  , 30.3525143  , 814.7074    , 3.99        , 3           , 255         , 0           , 0
0.0166232344, -0.156335354, -9.810801   , 0.0008205627, 0.013038137 , -0.000425656326, 0.0160011314, 0.0429240838, 0.000558925443, 919.156433  , 30.3525143  , 814.7078    , 4           , 3           , 0           , -1          , 400
0.0222988781, -0.154754922, -9.806063   , 0.000163429679, 0.0131274667, -0.000457799877, 0.0160043333, 0.0425891764, 0.00055651716, 919.156433  , 30.3525143  , 814.69574   , 4.01        , 3           , 1           , 0           , 0
0.009470322 , -0.150871441, -9.817116   , -0.000109258224, 0.0134340953, 0.000165988225, 0.016003402 , 0.0427234732, 0.0005603301, 919.156433  , 30.3525143  , 814.6961    , 4.02        , 3           , 2           , 0           , 0
0.014564788 , -0.160457179, -9.78926849 , 0.000312647346, 0.0133363716, -7.334491E-05, 0.0160065871, 0.04285682  , 0.0005617323, 919.112244  , 30.3521786  , 814.6965    , 4.03        , 3           , 3           , 0           , 0
0.01572938  , -0.1590865  , -9.805795   , 0.0005467143, 0.0126874214, -0.000526264543, 0.0160119142, 0.0429837666, 0.000558498432, 919.112244  , 30.3521786  , 814.696838  , 4.04        , 3           , 4           , 0           , 0
0.0124461576, -0.158720747, -9.812897   , 0.0009440427, 0.0131766209, 0.000213386724, 0.0160215367, 0.0431154668, 0.0005627462, 919.112244  , 30.3521786  , 814.6972    , 4.05        , 3           , 5           , 0           , 0
0.0126066059, -0.157663554, -9.811417   , 0.00111783738, 0.0130478833, 0.000291799428, 0.0160329323, 0.0432458855, 0.0005677597, 919.112244  , 30.3521786  , 814.6976    , 4.06        , 3           , 6           , 0           , 0
0.0207817964, -0.164723843, -9.805855   , -5.36673761E-05, 0.01330009  , 0.000246156473, 0.0160325933, 0.0433788337, 0.0005723574, 919.112244  , 30.3521786  , 814.697937  , 4.07        , 3           , 7           , 0           , 0
0.0157195851, -0.161185622, -9.807094   , 0.000130075117, 0.0131947612, -3.70647758E-05, 0.01603397  , 0.04351076  , 0.0005741038, 919.112244  , 30.3521786  , 814.6983    , 4.08        , 3           , 8           , 5           , 5
0.022368636 , -0.150976375, -9.804825   , 0.000597038656, 0.0127640776, 6.885058E-05, 0.0160400569, 0.0436383672, 0.00057684147, 919.112244  , 30.3521786  , 814.698669  , 4.09        , 3           , 9           , 5           , 0.1
0.03474123  , -0.154376253, -9.810958   , 0.0006450224, 0.0131432656, -7.74413347E-05, 0.016046565 , 0.0437697843, 0.0005781769, 919.112244  , 30.3521786  , 814.699036  , 4.1         , 3           , 10          , 0.1         , 0.1
0.0325612724, -0.157294184, -9.810612   , 0.000141780358, 0.0132136829, -0.0007362955, 0.0160479583, 0.0434161   , 0.000572938763, 919.112244  , 30.3521786  , 814.7511    , 4.11        , 3           , 11          , 0.008273222 , 0.008273314
0.0323533677, -0.156878665, -9.812248   , -0.000216341956, 0.01299015  , -0.0004723851, 0.01604568  , 0.04354605  , 0.0005702975, 919.112244  , 30.3521786  , 814.7518    , 4.12        , 3           , 12          , 0.174648076 , 0
0.0238874927, -0.145984218, -9.792532   , -0.000144951569, 0.0129386541, 0.000414143316, 0.0160445   , 0.0436753556, 0.0005765201, 919.1174    , 30.3555489  , 814.752441  , 4.13        , 3           , 13          , 0           , 0
0.0286678039, -0.155667588, -9.815529   , -0.0002298008, 0.0124260476, 0.001057242 , 0.0160427522, 0.0437994264, 0.0005890963, 919.1174    , 30.3555489  , 814.7531    , 4.14        , 3           , 14          , 0.000304117042, 3.97707045E-05
0.0305806212, -0.149599344, -9.810454   , 0.000434364018, 0.0123962034, 0.000247955555, 0.0160472915, 0.04392333  , 0.0005935686, 919.1174    , 30.3555489  , 814.7538    , 4.15        , 3           , 15          , 0           , 0.00213426
0.0376278833, -0.157444134, -9.808568   , 0.0002611545, 0.0129339723, 0.000109271146, 0.0160500426, 0.0440526381, 0.0005967399, 919.1174    , 30.3555489  , 814.7545    , 4.16        , 3           , 16          , 0           , 4.203895E-45
0.03275507  , -0.1664332  , -9.802908   , 0.0005168727, 0.0131896911, 0.0007125784, 0.0160556156, 0.0441843979, 0.0006059907, 919.1174    , 30.3555489  , 814.755249  , 4.17        , 3           , 20          , 0           , 0
0.02649568  , -0.158446461, -9.807137   , -0.000296509854, 0.0132259708, 0.0005697978, 0.0160529986, 0.0443165526, 0.000613818644, 919.1174    , 30.3555489  , 814.756     , 4.18        , 3           , 21          , 0           , 0
0.0215096213, -0.157560125, -9.804165   , 7.390097E-05, 0.01315458  , -0.000456000329, 0.01605363  , 0.0444481447, 0.00061136845, 919.1174    , 30.3555489  , 814.7567    , 4.19        , 3           , 22          , 0           , 0
0.0183092337, -0.1592068  , -9.801671   , 0.000336055935, 0.0126209073, -2.06360128E-05, 0.01605707  , 0.04457434  , 0.000613190234, 919.1174    , 30.3555489  , 814.757446  , 4.2         , 3           , 40          , 0           , 0
0.0158583522, -0.159245417, -9.810003   , 0.000404514867, 0.012932905 , 0.0007933765, 0.0160604343, 0.0442164429, 0.000623159052, 919.1174    , 30.3555489  , 814.794067  , 4.21        , 3           , 41          , 0           , 0
0.029491771 , -0.158623844, -9.804522   , 0.00062804867, 0.0129937632, 1.217844E-05, 0.016066812 , 0.0443463549, 0.000625369954, 919.1174    , 30.3555489  , 814.795     , 4.22        , 3           , 42          , 0           , 0
0.0250071324, -0.1582026  , -9.80943    , 0.0005355923, 0.0124741346, -0.00023710297, 0.016072154 , 0.0444711149, 0.000625003362, 919.1655    , 30.35501    , 814.7959    , 4.23        , 3           , 255         , 0           , 0
0.02270616  , -0.158487827, -9.816515   , -0.0003427437, 0.01268187  , -0.000613950659, 0.01606854  , 0.04459801  , 0.0006208987, 919.1655    , 30.35501    , 814.7968    , 4.24        , 3           , 255         , 0           , 0
0.0225748383, -0.154001981, -9.809482   , 0.0004068555, 0.0133138495, -0.000429037726, 0.0160725154, 0.0447312035, 0.000618746039, 919.1655    , 30.35501    , 814.7977    , 4.25        , 3           , 255         , 0           , 0
0.0165904015, -0.1566673  , -9.79890251 , 0.0007749257, 0.0131874541, 0.000247415621, 0.0160804689, 0.04486302  , 0.00062334456, 919.1655    , 30.35501    , 814.7987    , 4.26        , 3           , 255         , 0           , 0
0.0127655994, -0.161612719, -9.80190849 , -0.00024736143, 0.0132916132, -5.57010062E-05, 0.0160780661, 0.04499592  , 0.000624926237, 919.1655    , 30.35501    , 814.7997    , 4.27        , 3           , 255         , 0           , 0
0.009814988 , -0.160023347, -9.809858   , -0.000343914027, 0.012824066 , 6.07471447E-05, 0.0160747468, 0.0451241359, 0.0006275979, 919.1655    , 30.35501    , 814.800659  , 4.28        , 3           , 255         , 0           , 0
0.0103601813, -0.167907864, -9.814474   , -0.000274279126, 0.0127959773, -0.000256413361, 0.01607198  , 0.0452521145, 0.0006270901, 919.1655    , 30.35501    , 814.801636  , 4.29        , 3           , 255         , 0           , 0
0.0252650883, -0.161771774, -9.803941   , 5.39996836E-05, 0.0133829   , -1.41542405E-05, 0.01607261  , 0.0453859344, 0.0006291015, 919.1655    , 30.35501    , 814.8026    , 4.3         , 3           , 255         , 0           , 0
0.0237888284, -0.161887333, -9.802158   , -0.000292989862, 0.0128147658, 0.0007114995, 0.0160723981, 0.0450344533, 0.000638387341, 919.1655    , 30.35501    , 814.7641    , 4.31        , 3           , 255         , 0           , 0
0.0194225051, -0.153914154, -9.803793   , -0.000350921415, 0.0128937643, -0.00032073562, 0.0160688367, 0.0451634154, 0.000637251243, 919.1655    , 30.35501    , 814.764832  , 4.32        , 3           , 255         , 0           , 0
0.0155366017, -0.157884687, -9.811093   , -0.0004322597, 0.0133256176, 5.78674953E-05, 0.0160646345, 0.04529665  , 0.0006399734, 919.128967  , 30.3523121  , 814.765564  , 4.33        , 3           , 255         , 0           , 0
0.0129033867, -0.162498072, -9.815659   , -8.642583E-05, 0.0128697734, -8.49133357E-05, 0.0160638262, 0.0454253331, 0.000641192659, 919.128967  , 30.3523121  , 814.7663    , 4.34        , 3           , 255         , 0           , 0
0.00072616525, -0.167411581, -9.818502   , 1.6563572E-05, 0.0129364813, -0.000363453059, 0.01606392  , 0.0455547422, 0.000639635138, 919.128967  , 30.3523121  , 814.767     , 4.35        , 3           , 255         , 0           , 0
0.00338585349, -0.163030237, -9.809283   , 0.000393996452, 0.0125877215, 0.000165538164, 0.0160680264, 0.0456805751, 0.000643316365, 919.128967  , 30.3523121  , 814.767761  , 4.36        , 3           , 255         , 0           , 0
0.0119980844, -0.164845377, -9.809625   , 0.00061987096, 0.0126269292, -2.58113723E-05, 0.0160743054, 0.04580683  , 0.000645089254, 919.128967  , 30.3523121  , 814.7685    , 4.37        , 3           , 255         , 0           , 0
0.0161090288, -0.162360072, -9.799428   , 0.000505763339, 0.0127966264, -0.000571772456, 0.0160791948, 0.0459348559, 0.000641425548, 919.128967  , 30.3523121  , 814.7692    , 4.38        , 3           , 255         , 0           , 0
0.0218022559, -0.157742441, -9.806996   , -1.73761218E-05, 0.0125391539, -0.000100127421, 0.0160790682, 0.0460602455, 0.0006424416, 919.128967  , 30.3523121  , 814.769958  , 4.39        , 3           , 255         , 0           , 0
0.0232259221, -0.153851032, -9.804358   , 0.000406870182, 0.0130985733, 0.0001485683, 0.0160833   , 0.046191182 , 0.00064603705, 919.128967  , 30.3523121  , 814.7707    , 4.4         , 3           , 255         , 0           , 0
0.02613384  , -0.153243661, -9.802353   , 0.000400454679, 0.01309091  , 3.91902868E-05, 0.0160907619, 0.04583664  , 0.0006486897, 919.128967  , 30.3523121  , 814.788635  , 4.41        , 3           , 255         , 0           , 0
0.0184952952, -0.153450251, -9.819286   , -9.699725E-07, 0.0129007315, 0.0007571904, 0.0160911921, 0.04596551  , 0.000658346456, 919.128967  , 30.3523121  , 814.7895    , 4.42        , 3           , 255         , 0           , 0
0.0191722624, -0.1590235  , -9.804443   , -3.49096663E-05, 0.0126947528, -0.0007244529, 0.0160906054, 0.04609255  , 0.0006531401, 919.1065    , 30.3533916  , 814.790344  , 4.43        , 3           , 255         , 0           , 0
0.00267280452, -0.159040481, -9.814975   , -0.000382499, 0.0130113279, -0.000403781421, 0.01608669  , 0.0462227   , 0.000651193841, 919.1065    , 30.3533916  , 814.7912    , 4.44        , 3           , 255         , 0           , 0
0.0141538857, -0.145123735, -9.808067   , -0.000155454123, 0.0131061245, -0.000233497587, 0.0160851236, 0.04635379  , 0.000650967 , 919.1065    , 30.3533916  , 814.792053  , 4.45        , 3           , 255         , 0           , 0
0.03027781  , -0.145963579, -9.808436   , 0.000234852429, 0.0130259581, -0.000332391, 0.0160874128, 0.04648407  , 0.0006497374, 919.1065    , 30.3533916  , 814.7929    , 4.46        , 3           , 255         , 0           , 0
0.0324204154, -0.151110128, -9.81653    , 0.000307413167, 0.0125718676, 0.000309537631, 0.0160907265, 0.0466097258, 0.000654860458, 919.1065    , 30.3533916  , 814.793762  , 4.47        , 3           , 255         , 0           , 0
0.0278280638, -0.1540165  , -9.813936   , 0.0006766536, 0.0124881882, 0.0004131121, 0.0160977766, 0.046734523 , 0.0006610075, 919.1065    , 30.3533916  , 814.7946    , 4.48        , 3           , 255         , 0           , 0
0.0246713068, -0.162475228, -9.80054    , 5.87170944E-05, 0.0133483848, 0.000211229315, 0.0160985626, 0.0468679443, 0.000665272644, 919.1065    , 30.3533916  , 814.7955    , 4.49        , 3           , 255         , 0           , 0
0.0246285368, -0.1548371  , -9.799799   , 0.000644469459, 0.0129926028, 0.000301345019, 0.0161052458, 0.04699781  , 0.0006703834, 919.1065    , 30.3533916  , 814.7963    , 4.5         , 3           , 255         , 0           , 0
0.0153254522, -0.1644437  , -9.809203   , -0.000466204277, 0.0132985944, -0.000505553442, 0.0160961114, 0.0466597825, 0.0006672636, 919.1065    , 30.3533916  , 814.842163  , 4.51        , 3           , 255         , 0           , 0
0.0142907528, -0.159305677, -9.814739   , -0.0007248482, 0.01333663  , -0.000275582541, 0.016088834 , 0.046793174 , 0.0006666535, 919.1065    , 30.3533916  , 814.8433    , 4.52        , 3           , 255         , 0           , 0
0.0181154273, -0.15584214 , -9.819658   , -0.000161917327, 0.0129732415, -0.000330588315, 0.0160871577, 0.04692294  , 0.000665433647, 919.1611    , 30.3527851  , 814.8445    , 4.53        , 3           , 255         , 0           , 0
0.0221647117, -0.154371351, -9.824124   , 0.000381117861, 0.012855038 , 5.91331627E-05, 0.0160910878, 0.0470514633, 0.0006680959, 919.1611    , 30.3527851  , 814.845642  , 4.54        , 3           , 255         , 0           , 0
0.0262615923, -0.157658875, -9.808733   , 0.000475914974, 0.0131136812, -0.000228769146, 0.0160958376, 0.0471826233, 0.0006679186, 919.1611    , 30.3527851  , 814.8468    , 4.55        , 3           , 255         , 0           , 0
0.0253715664, -0.164672047, -9.801764   , 0.0005736379, 0.0129849445, 0.000123501522, 0.0161017329, 0.04731243  , 0.0006712474, 919.1611    , 30.3527851  , 814.847961  , 4.56        , 3           , 255         , 0           , 0
0.0243980847, -0.161904529, -9.800276   , 0.000362392515, 0.013272847 , 3.09664756E-08, 0.0161054563, 0.0474451333, 0.000673387549, 919.1611    , 30.3527851  , 814.8491    , 4.57        , 3           , 255         , 0           , 0
0.0230790284, -0.1619909  , -9.812348   , -0.000112178124, 0.0133056156, -0.000170252519, 0.0161043536, 0.04757821  , 0.00067382853, 919.1611    , 30.3527851  , 814.8503    , 4.58        , 3           , 255         , 0           , 0
0.02154057  , -0.164664045, -9.810173   , 0.000706470862, 0.012994308 , -0.000517256558, 0.0161112733, 0.0477082133, 0.000670746143, 919.1611    , 30.3527851  , 814.85144   , 4.59        , 3           , 255         , 0           , 0
0.0141544882, -0.159879789, -9.809547   , 1.48031686E-05, 0.0135724526, -0.000136898132, 0.0161114577, 0.0478439331, 0.000671564834, 919.1611    , 30.3527851  , 814.8526    , 4.6         , 3           , 255         , 0           , 0
0.0129704569, -0.1559479  , -9.813397   , 6.63154351E-05, 0.0133764707, 0.00014461414, 0.0161148589, 0.04753475  , 0.000675291347, 919.1611    , 30.3527851  , 814.813     , 4.61        , 3           , 255         , 0           , 0
0.0224683639, -0.1602132  , -9.818762   , -0.000204031821, 0.012632722 , -0.000258566346, 0.0161127932, 0.0476610959, 0.000674741 , 919.1611    , 30.3527851  , 814.8139    , 4.62        , 3           , 255         , 0           , 0
0.02648046  , -0.1563832  , -9.80932    , -0.000237386354, 0.0130481925, -0.0003521929, 0.0161103513, 0.0477916263, 0.0006733202, 919.1404    , 30.3535271  , 814.8148    , 4.63        , 3           , 255         , 0           , 0
0.026842799 , -0.156994015, -9.802488   , 6.807092E-05, 0.0129896738, -0.000129244057, 0.0161110684, 0.04792152  , 0.000674121431, 919.1404    , 30.3535271  , 814.815735  , 4.64        , 3           , 255         , 0           , 0
0.0260105673, -0.163302436, -9.794693   , 0.0001365355, 0.0131687354, 1.3536308E-05, 0.01611254  , 0.0480531864, 0.000676381 , 919.1404    , 30.3535271  , 814.81665   , 4.65        , 3           , 255         , 0           , 0
0.0291540232, -0.159915045, -9.80172    , 0.000110202964, 0.0129668526, -0.000636584242, 0.0161134358, 0.048182942 , 0.0006721002, 919.1404    , 30.3535271  , 814.817566  , 4.66        , 3           , 255         , 0           , 0
0.0304953642, -0.160669491, -9.808183   , 0.0004613033, 0.012849235 , -0.000334638171, 0.0161179863, 0.0483114645, 0.00067082356, 919.1404    , 30.3535271  , 814.8185    , 4.67        , 3           , 255         , 0           , 0
0.01571497  , -0.158561349, -9.815846   , 4.29087668E-05, 0.0129024843, 0.0004132057, 0.0161187127, 0.0484404042, 0.000677041651, 919.1404    , 30.3535271  , 814.8194    , 4.68        , 3           , 255         , 0           , 0
0.0135020111, -0.156599522, -9.818001   , 0.000382305734, 0.0127362972, 0.000592852244, 0.0161229242, 0.0485676564, 0.000685031759, 919.1404    , 30.3535271  , 814.8203    , 4.69        , 3           , 255         , 0           , 0
0.02788409  , -0.164065257, -9.804191   , -0.000290636555, 0.0122213494, 0.000127058942, 0.0161201749, 0.04868983  , 0.000688276137, 919.1404    , 30.3535271  , 814.8212    , 4.7         , 3           , 255         , 0           , 0
0.0126770912, -0.156720713, -9.787741   , -0.0006077875, 0.0126751559, -0.000235107844, 0.0161153823, 0.0483357832, 0.0006880299, 919.1404    , 30.3535271  , 814.8155    , 4.71        , 3           , 255         , 0           , 0
0.0119956378, -0.15886724 , -9.805449   , -0.000351484254, 0.01286943  , 0.000600511 , 0.01611226  , 0.0484643653, 0.0006961174, 919.1404    , 30.3535271  , 814.8164    , 4.72        , 3           , 255         , 0           , 0
0.0109517444, -0.162784785, -9.821272   , -0.0004632512, 0.0124258725, 1.94401946E-05, 0.0161077362, 0.0485886037, 0.0006983159, 919.1485    , 30.353054   , 814.8173    , 4.73        , 3           , 255         , 0           , 0
0.009369111 , -0.158584684, -9.824582   , 0.000351886818, 0.0125031164, -0.0003591634, 0.0161111783, 0.04871366  , 0.0006967369, 919.1485    , 30.353054   , 814.818237  , 4.74        , 3           , 255         , 0           , 0
0.0189677291, -0.155056149, -9.81719    , 0.000189210259, 0.0131520657, -2.795877E-05, 0.0161131583, 0.0488451757, 0.000698578544, 919.1485    , 30.353054   , 814.819153  , 4.75        , 3           , 255         , 0           , 0
0.0169283636, -0.157853991, -9.792503   , -0.000247909658, 0.0127799008, 0.000233025989, 0.0161108971, 0.0489729121, 0.0007029728, 919.1485    , 30.353054   , 814.820068  , 4.76        , 3           , 255         , 0           , 0
0.0132108312, -0.15279828 , -9.80924    , -0.000670400332, 0.0129905595, -0.00014733267, 0.0161042213, 0.0491028279, 0.0007035927, 919.1485    , 30.353054   , 814.821     , 4.77        , 3           , 255         , 0           , 0
0.0141524617, -0.152470544, -9.814096   , -0.0004954354, 0.013297773 , -0.0006248291, 0.0160990655, 0.0492358953, 0.0006994815, 919.1485    , 30.353054   , 814.8219    , 4.78        , 3           , 255         , 0           , 0
0.0227687582, -0.157909423, -9.8163805  , -7.938147E-05, 0.0130362036, -0.000436990638, 0.0160981566, 0.0493663028, 0.0006972081, 919.1485    , 30.353054   , 814.8228    , 4.79        , 3           , 255         , 0           , 0
0.0339524038, -0.162207827, -9.807103   , -0.0005516114, 0.01285363  , 0.000421449775, 0.0160929542, 0.0494947545, 0.000703498255, 919.1485    , 30.353054   , 814.8237    , 4.8         , 3           , 255         , 0           , 0
0.0313683972, -0.1543217  , -9.800407   , 6.45669352E-05, 0.0122441184, 2.300297E-05, 0.01609314  , 0.0491389744, 0.0007056726, 919.1485    , 30.353054   , 814.8059    , 4.81        , 3           , 255         , 0           , 0
0.03187718  , -0.158451468, -9.822224   , 0.000219051115, 0.0128965806, -0.0001507916, 0.0160953589, 0.0492679477, 0.000706240942, 919.1485    , 30.353054   , 814.8067    , 4.82        , 3           , 255         , 0           , 0
0.0235403217, -0.1526699  , -9.81069851 , 0.000183941069, 0.01275614  , 7.859408E-05, 0.0160973351, 0.0493954681, 0.0007090834, 919.1383    , 30.354538   , 814.8075    , 4.83        , 3           , 255         , 0           , 0
0.02513069  , -0.149253473, -9.821753   , -0.0001297086, 0.0131663419, 0.00031968276, 0.0160963   , 0.049527064 , 0.000714405265, 919.1383    , 30.354538   , 814.8083    , 4.84        , 3           , 255         , 0           , 0
0.0189856477, -0.1527208  , -9.808516   , 0.0004419998, 0.012659586 , 0.0005525795, 0.01610109  , 0.049653545 , 0.0007219773, 919.1383    , 30.354538   , 814.8091    , 4.85        , 3           , 255         , 0           , 0
0.0221304316, -0.156194314, -9.802831   , 0.0002828343, 0.0126613416, -0.000614244, 0.0161037147, 0.04978023  , 0.000717869145, 919.1383    , 30.354538   , 814.8099    , 4.86        , 3           , 255         , 0           , 0
0.0153521094, -0.160073429, -9.804144   , 0.0004806208, 0.0132675758, -0.0002081379, 0.01610852  , 0.0499129146, 0.0007179251, 919.1383    , 30.354538   , 814.810669  , 4.87        , 3           , 255         , 0           , 0
0.0125817982, -0.1524206  , -9.81857    , 0.000350128539, 0.0130569153, -0.000244418276, 0.0161120016, 0.0500435047, 0.000717584 , 919.1383    , 30.354538   , 814.811462  , 4.88        , 3           , 255         , 0           , 0
0.0189064387, -0.156390145, -9.818802   , 0.000615794561, 0.0126695344, -0.0005703564, 0.016117977 , 0.05017027  , 0.000713918067, 919.1383    , 30.354538   , 814.812256  , 4.89        , 3           , 255         , 0           , 0
0.0162928514, -0.158343047, -9.800293   , 0.000899600447, 0.0132330516, -0.0008541625, 0.01612665  , 0.0503027141, 0.0007075031, 919.1383    , 30.354538   , 814.813049  , 4.9         , 3           , 255         , 0           , 0
0.0135921361, -0.154041722, -9.793082   , 0.000140619813, 0.0129577192, -5.36027364E-05, 0.016125299 , 0.0499738045, 0.000708916166, 919.1383    , 30.354538   , 814.8112    , 4.91        , 3           , 255         , 0           , 0
0.0207794663, -0.147265047, -9.820094   , 0.0004361292, 0.0123889372, 3.88536137E-05, 0.0161297768, 0.05009767  , 0.0007113054, 919.1383    , 30.354538   , 814.812     , 4.92        , 3           , 255         , 0           , 0
0.03418638  , -0.151878208, -9.816046   , 0.000641523045, 0.0124252178, 0.000155302 , 0.0161363725, 0.0502218753, 0.000714866968, 919.115     , 30.3531227  , 814.8128    , 4.93        , 3           , 255         , 0           , 0
0.03948403  , -0.146243766, -9.81724    , 0.00165971392, 0.0117932372, 0.0008288296, 0.0161534827, 0.0503396578, 0.00072507083, 919.115     , 30.3531227  , 814.8136    , 4.94        , 3           , 255         , 0           , 0
0.0258455817, -0.151618645, -9.803888   , 0.0009077741, 0.0123830857, 0.0005005507, 0.0161629133, 0.05046339  , 0.0007320852, 919.115     , 30.3531227  , 814.8144    , 4.95        , 3           , 255         , 0           , 0
0.0273620076, -0.1633446  , -9.785993   , 0.0018229757, 0.0124632539, 0.0005444384, 0.01618152  , 0.0505879   , 0.0007395537, 919.115     , 30.3531227  , 814.8152    , 4.96        , 3           , 255         , 0           , 0
0.02755656  , -0.158051178, -9.797763   , 0.0008047847, 0.0124872467, -0.0006990421, 0.0161893163, 0.0507128648, 0.0007345791, 919.115     , 30.3531227  , 814.816     , 4.97        , 3           , 255         , 0           , 0
0.0142947342, -0.1625472  , -9.824575   , 0.000385219726, 0.0125440061, -7.64241E-05, 0.0161932316, 0.0508383   , 0.000735847338, 919.115     , 30.3531227  , 814.8168    , 4.98        , 3           , 255         , 0           , 0
0.0173992738, -0.167500228, -9.814731   , 0.000216106331, 0.01312859  , -0.000310490956, 0.0161953438, 0.0509696156, 0.000734867644, 919.115     , 30.3531227  , 814.8176    , 4.99        , 3           , 255         , 0           , 0
0.0271169543, -0.1640247  , -9.797954   , 4.28968924E-05, 0.0133515373, 0.0002822834, 0.0161960274, 0.05110306  , 0.0007398588, 919.115     , 30.3531227  , 814.8185    , 5           , 3           , 0           , -1          , 500
0.0271289013, -0.16308549 , -9.795956   , 0.000130658591, 0.0130967563, -0.000263618072, 0.0161952656, 0.0507154465, 0.000739238865, 919.115     , 30.3531227  , 814.84906   , 5.01        , 3           , 1           , 0           , 0
0.0319153145, -0.161599591, -9.803566   , 0.000310890144, 0.012645008 , -0.000456138048, 0.0161982439, 0.0508419462, 0.000736722839, 919.115     , 30.3531227  , 814.8501    , 5.02        , 3           , 2           , 0           , 0
0.0312103741, -0.165793508, -9.818757   , 0.000106666732, 0.0124115255, -0.0003695333, 0.0161992218, 0.0509661026, 0.000735036156, 919.113953  , 30.3517742  , 814.851135  , 5.03        , 3           , 3           , 0           , 0
0.0163765848, -0.160467342, -9.812785   , 0.000614006771, 0.0126982573, -8.221646E-05, 0.0162054244, 0.05109307  , 0.000736272952, 919.113953  , 30.3517742  , 814.8522    , 5.04        , 3           , 4           , 0           , 0
0.008710407 , -0.155241162, -9.809047   , 0.00081705983, 0.0126730949, -0.0004772041, 0.016213458 , 0.051219862 , 0.0007335522, 919.113953  , 30.3517742  , 814.8532    , 5.05        , 3           , 5           , 0           , 0
0.009517549 , -0.153534487, -9.79849148 , 8.677103E-05, 0.0126549546, 3.07210721E-05, 0.0162144452, 0.051346384 , 0.0007359142, 919.113953  , 30.3517742  , 814.854248  , 5.06        , 3           , 6           , 0           , 0
0.0171401873, -0.161105245, -9.803122   , -0.000121548466, 0.01304058  , 4.65204939E-05, 0.01621336  , 0.05147677  , 0.000738497 , 919.113953  , 30.3517742  , 814.8553    , 5.07        , 3           , 7           , 0           , 0
0.01613024  , -0.169340208, -9.82011    , 7.857871E-05, 0.0132623585, -0.0002466482, 0.0162141323, 0.0516094044, 0.0007381806, 919.113953  , 30.3517742  , 814.8563    , 5.08        , 3           , 8           , 5           , 5
0.02428057  , -0.167874232, -9.818922   , 0.000602303364, 0.0129680187, 0.000105037121, 0.0162203144, 0.0517390519, 0.0007413379, 919.113953  , 30.3517742  , 814.857361  , 5.09        , 3           , 9           , 5           , 0.1
0.0233214181, -0.1641975  , -9.810351   , 0.000120710756, 0.01304058  , -0.000361340819, 0.0162214432, 0.0518694967, 0.0007398383, 919.113953  , 30.3517742  , 814.8584    , 5.1         , 3           , 10          , 0.1         , 0.1
0.0218032673, -0.152129263, -9.807292   , -0.0006013602, 0.0124236885, -0.000520447269, 0.0162185319, 0.0515028238, 0.000736812653, 919.113953  , 30.3517742  , 814.8844    , 5.11        , 3           , 11          , 0.007889474 , 0.007889594
0.0161644239, -0.152754277, -9.806382   , -0.0005428435, 0.012476353 , -0.00020445697, 0.0162131041, 0.0516276   , 0.0007367915, 919.113953  , 30.3517742  , 814.885559  , 5.12        , 3           , 12          , 0.1746512   , 0
0.0176990815, -0.154520437, -9.814473   , -0.0004281507, 0.01227096  , 0.0004216719, 0.016209146 , 0.05175024  , 0.0007430049, 919.167969  , 30.3546047  , 814.8868    , 5.13        , 3           , 13          , 0           , 0
0.0189325884, -0.146785229, -9.822554   , 0.00054205663, 0.0130065149, 0.000278305728, 0.0162148178, 0.0518802255, 0.000747902552, 919.167969  , 30.3546047  , 814.888     , 5.14        , 3           , 14          , 0.000304095243, 7.13873451E-05
0.02001109  , -0.161535218, -9.811832   , 7.68486352E-05, 0.0136150876, -3.15951183E-06, 0.0162156969, 0.0520163625, 0.0007500815, 919.167969  , 30.3546047  , 814.8892    , 5.15        , 3           , 15          , 0           , 0.00213375338
0.0208612531, -0.160590142, -9.798433   , 0.00017223091, 0.012885971 , 9.10526142E-05, 0.0162175763, 0.0521451831, 0.000753085362, 919.167969  , 30.3546047  , 814.890442  , 5.16        , 3           , 16          , 0           , 4.203895E-45
