Acc X       , Acc Y       , Acc Z       , Gyro X      , Gyro Y      , Gyro Z      , Euler X     , Euler Y     , Euler Z     , Pres X      , Pres Y      , Pres Z      , Time        , Status      , LowRate X   , LowRate Y   , LowRate Z    
-0.130372778, 0.128282458 , -9.786574   , 0           , 0           , 0           , -0.0131072532, -0.0133196618, 0           , 922.929565  , 32.2851028  , 780.6865    , 0           , 2           , 0           , 5.00823164  , 0
-0.13496688 , 0.130217478 , -9.791987   , -0.000827487966, 0.00022434257, -0.00108251313, -0.01311514 , -0.0133176306, -1.08543118E-05, 922.929565  , 32.2851028  , 780.6865    , 0.01        , 3           , 1           , 0           , 0
-0.131150052, 0.131940961 , -9.796658   , -0.000102354796, 0.000351699535, -0.0003728892, -0.013116112, -0.0133141605, -1.46292541E-05, 922.929565  , 32.2851028  , 780.6865    , 0.02        , 3           , 2           , 0           , 0
-0.125438184, 0.125940055 , -9.795514   , 9.08997E-05 , 8.976746E-05, 6.7641784E-05, -0.0131152123, -0.0133132534, -1.39646309E-05, 922.9017    , 31.8511848  , 780.6865    , 0.03        , 3           , 3           , 0           , 0
-0.130900159, 0.127474755 , -9.794085   , -0.000125302176, 4.76880523E-05, 0.000247037737, -0.0131164985, -0.0133127449, -1.15005541E-05, 922.9017    , 31.8511848  , 780.6865    , 0.04        , 3           , 4           , 0           , 0
-0.131654233, 0.125757739 , -9.791132   , -0.00021334464, -0.000200801151, -2.47755233E-05, -0.0131186284, -0.0133147566, -1.17219524E-05, 922.9017    , 31.8511848  , 780.6865    , 0.05        , 3           , 5           , 0           , 0
-0.134074882, 0.131649181 , -9.79182    , 0.0002520348, -3.28526658E-05, 0.000139395357, -0.0131161269, -0.0133150667, -1.03237317E-05, 922.9017    , 31.8511848  , 780.6865    , 0.06        , 3           , 6           , 0           , 0
-0.129533291, 0.12454772  , -9.798088   , 0.000259397872, -7.918943E-05, 0.0004901199, -0.0131135983, -0.013315795, -5.412243E-06, 922.9017    , 31.8511848  , 780.6865    , 0.07        , 3           , 7           , 0           , 0
-0.1389842  , 0.1257936   , -9.793696   , 0.00012859772, 8.342572E-05, 0.000113271381, -0.0131123271, -0.0133149447, -4.29050351E-06, 922.9017    , 31.8511848  , 780.6865    , 0.08        , 3           , 8           , 5           , 5
-0.124108538, 0.128181    , -9.791109   , 0.000349721551, 0.000130865024, -0.000443832279, -0.01310877 , -0.0133136939, -8.745895E-06, 922.9017    , 31.8511848  , 780.6865    , 0.09        , 3           , 9           , 5           , 0.1
-0.131093949, 0.128540486 , -9.797111   , 0.000116718351, 0.0002849014, -0.00060097815, -0.0131075243, -0.013310927, -1.47928795E-05, 922.9017    , 31.8511848  , 780.6865    , 0.1         , 3           , 10          , 0.1         , 0.1
-0.126917943, 0.12349838  , -9.792988   , 0.000161701522, -0.0004861037, 0.000315986224, -0.0131041622, -0.0133186225, -1.15931862E-05, 922.9017    , 31.8511848  , 780.9377    , 0.11        , 3           , 11          , 0.0109544508, 0.0109544508
-0.127573669, 0.127648249 , -9.786827   , 0.000331765856, -0.000460041221, -9.855867E-07, -0.0131008439, -0.0133232223, -1.15427592E-05, 922.9017    , 31.8511848  , 780.9377    , 0.12        , 3           , 12          , 0.174642488 , 0
-0.127294764, 0.12211144  , -9.78775    , -0.000118159282, 0.000151295637, -0.000161045638, -0.0131020043, -0.0133217312, -1.31730094E-05, 922.909546  , 31.8882942  , 780.9377    , 0.13        , 3           , 13          , 0           , 0
-0.132424518, 0.125578254 , -9.794475   , -0.000499787566, -9.973312E-05, 0.0005073367, -0.01310707 , -0.0133226616, -8.086685E-06, 922.909546  , 31.8882942  , 780.9377    , 0.14        , 3           , 14          , -0.000538828259, -0.00028669578
-0.12971063 , 0.131152287 , -9.80101    , -0.000256620871, 2.68933363E-05, 9.315549E-05, -0.0131096477, -0.0133223794, -7.15867873E-06, 922.909546  , 31.8882942  , 780.9377    , 0.15        , 3           , 15          , 0           , 3.71201531E-05
-0.11969658 , 0.120099381 , -9.782291   , 0.000104558683, -0.000241025758, 0.000761877454, -0.0131087042, -0.0133246891, 4.91520041E-07, 922.909546  , 31.8882942  , 780.9377    , 0.16        , 3           , 16          , 0           , 1.401298E-45
-0.130982712, 0.1326497   , -9.788982   , -0.000159522111, -8.875001E-05, 0.000621746352, -0.0131103806, -0.0133254956, 6.720482E-06, 922.909546  , 31.8882942  , 780.9377    , 0.17        , 3           , 20          , 0           , 0
-0.1369802  , 0.128622726 , -9.794624   , -1.08414679E-05, 0.00016597737, 0.000255203136, -0.0131105222, -0.0133238025, 9.250695E-06, 922.909546  , 31.8882942  , 780.9377    , 0.18        , 3           , 21          , 0           , 0
-0.134757549, 0.136398226 , -9.796473   , 0.000144082063, -8.763172E-05, -7.01706449E-05, -0.013109073, -0.0133246873, 8.560495E-06, 922.909546  , 31.8882942  , 780.937744  , 0.19        , 3           , 22          , 0           , 0
-0.137089342, 0.13902308  , -9.799379   , 0.0006668662, 0.0006339188, 0.0006225769, -0.0131024867, -0.0133182686, 1.47030532E-05, 922.909546  , 31.8882942  , 780.9378    , 0.2         , 3           , 40          , 0           , 0
-0.1347247  , 0.130289    , -9.799291   , 0.0007626106, 6.693753E-05, 4.814489E-05, -0.0130960876, -0.0133170467, 1.5191983E-05, 922.909546  , 31.8882942  , 780.902161  , 0.21        , 3           , 41          , 0           , 0
-0.122197166, 0.12407662  , -9.800635   , 0.0006004047, -0.000240508263, -7.255064E-05, -0.0130900759, -0.0133194607, 1.44979849E-05, 922.909546  , 31.8882942  , 780.9022    , 0.22        , 3           , 42          , 0           , 0
-0.134581745, 0.12968348  , -9.794182   , 0.000544237 , 0.000314927282, 0.000593180943, -0.0130847134, -0.0133162374, 2.038845E-05, 922.9142    , 31.91516    , 780.9023    , 0.23        , 3           , 255         , 0           , 0
-0.130443275, 0.1311051   , -9.796624   , 0.000533922459, 0.000381706923, -0.000227754164, -0.0130793424, -0.0133124487, 1.80610277E-05, 922.9142    , 31.91516    , 780.902344  , 0.24        , 3           , 255         , 0           , 0
-0.12270008 , 0.12818335  , -9.800347   , 2.052181E-05, -0.000452505745, -0.00118294568, -0.01307898 , -0.0133171268, 6.29100941E-06, 922.9142    , 31.91516    , 780.9024    , 0.25        , 3           , 255         , 0           , 0
-0.12492694 , 0.1308723   , -9.798384   , -1.85555546E-05, -0.000134890754, -0.000308364426, -0.0130791245, -0.0133185163, 3.225078E-06, 922.9142    , 31.91516    , 780.902466  , 0.26        , 3           , 255         , 0           , 0
-0.124098852, 0.125868663 , -9.787583   , -0.0002657727, 0.000221518989, -0.000939664256, -0.01308166 , -0.0133164264, -6.20032733E-06, 922.9142    , 31.91516    , 780.9025    , 0.27        , 3           , 255         , 0           , 0
-0.138205066, 0.130775258 , -9.793465   , -6.27142144E-05, -0.000189693732, -0.000133267138, -0.0130822668, -0.0133183394, -7.50815161E-06, 922.9142    , 31.91516    , 780.9026    , 0.28        , 3           , 255         , 0           , 0
-0.12310835 , 0.129668862 , -9.799822   , 5.86862152E-05, -0.00023238259, -0.000201363146, -0.013081654, -0.0133206891, -9.491339E-06, 922.9142    , 31.91516    , 780.902649  , 0.29        , 3           , 255         , 0           , 0
-0.11867249 , 0.130830616 , -9.802302   , -0.000316503865, -1.69868581E-05, 0.00102486275, -0.0130849537, -0.0133207226, 7.592845E-07, 922.9142    , 31.91516    , 780.9027    , 0.3         , 3           , 255         , 0           , 0
-0.12750186 , 0.128223926 , -9.79528    , -0.000304067449, -4.77122667E-05, -0.000110051231, -0.0130908424, -0.0133122206, -2.96848981E-07, 922.9142    , 31.91516    , 780.8774    , 0.31        , 3           , 255         , 0           , 0
-0.124374293, 0.125655979 , -9.801313   , -0.0004900805, -0.00010802949, 0.000864530331, -0.0130958585, -0.0133131864, 8.36241E-06 , 922.9142    , 31.91516    , 780.877441  , 0.32        , 3           , 255         , 0           , 0
-0.128347009, 0.133401185 , -9.782855   , 0.000264052738, 8.576356E-05, -0.000428548, -0.01309316 , -0.0133123845, 4.06579466E-06, 922.89325   , 31.9304237  , 780.8775    , 0.33        , 3           , 255         , 0           , 0
-0.132659554, 0.137018    , -9.789824   , 0.0002935456, 9.756336E-05, -0.00037294 , -0.0130901746, -0.0133114615, 3.23706871E-07, 922.89325   , 31.9304237  , 780.877563  , 0.34        , 3           , 255         , 0           , 0
-0.131158724, 0.125171691 , -9.786285   , 0.000198833179, -0.000231742044, 0.000190829276, -0.0130882114, -0.0133137517, 2.26229577E-06, 922.89325   , 31.9304237  , 780.8776    , 0.35        , 3           , 255         , 0           , 0
-0.131849736, 0.122275308 , -9.788111   , 0.000124860439, -0.0004026781, 0.000160325289, -0.0130869849, -0.0133177582, 3.918203E-06, 922.89325   , 31.9304237  , 780.8777    , 0.36        , 3           , 255         , 0           , 0
-0.133742481, 0.124349214 , -9.793973   , 1.58773037E-05, 0.000133694077, 0.000600647239, -0.0130869066, -0.0133163426, 9.907051E-06, 922.89325   , 31.9304237  , 780.877747  , 0.37        , 3           , 255         , 0           , 0
-0.130421668, 0.123041138 , -9.789264   , 0.0002939452, 0.000239668181, -0.000417918956, -0.0130839106, -0.0133139994, 5.69659E-06 , 922.89325   , 31.9304237  , 780.8778    , 0.38        , 3           , 255         , 0           , 0
-0.125055119, 0.125078544 , -9.783549   , -3.22540873E-05, 0.000403100916, -3.796757E-05, -0.0130842272, -0.0133099742, 5.264178E-06, 922.89325   , 31.9304237  , 780.877869  , 0.39        , 3           , 255         , 0           , 0
-0.127126724, 0.131175667 , -9.793398   , 9.886999E-05, 0.000207577832, 0.000227006793, -0.0130832689, -0.0133078685, 7.50702338E-06, 922.89325   , 31.9304237  , 780.8779    , 0.4         , 3           , 255         , 0           , 0
-0.1256443  , 0.121909305 , -9.796877   , 0.000273635 , -0.000383427483, 1.55354646E-05, -0.0130778309, -0.0133067193, 7.67657548E-06, 922.89325   , 31.9304237  , 780.9127    , 0.41        , 3           , 255         , 0           , 0
-0.124427855, 0.125842422 , -9.79286    , 8.198508E-05, -0.0001136903, -0.0007201291, -0.0130769173, -0.0133079495, 4.90312E-07 , 922.89325   , 31.9304237  , 780.9128    , 0.42        , 3           , 255         , 0           , 0
-0.124864578, 0.126205534 , -9.788993   , -0.000657018041, 0.000220833754, -0.000307380571, -0.0130834449, -0.0133057833, -2.6123073E-06, 922.8737    , 31.9429741  , 780.912842  , 0.43        , 3           , 255         , 0           , 0
-0.130091459, 0.1309022   , -9.797201   , -0.0001751961, 0.000207079967, -0.000415085437, -0.0130851408, -0.013303766, -6.790168E-06, 922.8737    , 31.9429741  , 780.9129    , 0.44        , 3           , 255         , 0           , 0
-0.137260348, 0.131633639 , -9.794637   , -5.724642E-05, 0.0003993964, -0.000170872168, -0.0130856922, -0.0132997958, -8.551098E-06, 922.8737    , 31.9429741  , 780.912964  , 0.45        , 3           , 255         , 0           , 0
-0.13503401 , 0.128408879 , -9.78937149 , -0.000779405469, 0.000122615646, 0.000274169055, -0.0130935218, -0.0132985348, -5.82552275E-06, 922.8737    , 31.9429741  , 780.913     , 0.46        , 3           , 255         , 0           , 0
-0.1325343  , 0.117884323 , -9.795103   , -0.0003269299, -0.000215940643, 0.000103582228, -0.0130968029, -0.0133006787, -4.76145169E-06, 922.8737    , 31.9429741  , 780.9131    , 0.47        , 3           , 255         , 0           , 0
-0.12754187 , 0.123135269 , -9.797316   , 0.000167689286, -7.082295E-05, 0.0006834728, -0.0130952178, -0.0133012971, 2.08239612E-06, 922.8737    , 31.9429741  , 780.913147  , 0.48        , 3           , 255         , 0           , 0
-0.130674511, 0.1257633   , -9.793326   , -4.37962E-05, 0.000317173544, 2.40501176E-05, -0.0130956592, -0.0132981222, 2.28136741E-06, 922.8737    , 31.9429741  , 780.9132    , 0.49        , 3           , 255         , 0           , 0
-0.135807335, 0.1322057   , -9.800788   , -0.000346970919, 0.000153231667, -0.000317730475, -0.0130990855, -0.0132966321, -9.15942167E-07, 922.8737    , 31.9429741  , 780.913269  , 0.5         , 3           , 255         , 0           , 0
-0.131696373, 0.120893873 , -9.793984   , -0.000128571468, -0.000152873225, 0.0007733299, -0.0130948909, -0.0132983346, 6.762968E-06, 922.8737    , 31.9429741  , 780.970154  , 0.51        , 3           , 255         , 0           , 0
-0.131182224, 0.124077044 , -9.795986   , -0.000289549935, 5.7301324E-05, 0.00054822024, -0.013097859, -0.0132976891, 1.22375413E-05, 922.8737    , 31.9429741  , 780.9703    , 0.52        , 3           , 255         , 0           , 0
-0.14663218 , 0.136942118 , -9.79516    , 0.000204431883, 9.000607E-05, 0.000616216043, -0.0130958967, -0.0132967085, 1.83877764E-05, 922.9133    , 31.9507771  , 780.9704    , 0.53        , 3           , 255         , 0           , 0
-0.1417683  , 0.125339031 , -9.799655   , 0.0004964617, -1.03142229E-05, 0.000204730066, -0.0130909616, -0.0132967839, 2.0436386E-05, 922.9133    , 31.9507771  , 780.9705    , 0.54        , 3           , 255         , 0           , 0
-0.13536866 , 0.128703341 , -9.796877   , 0.000323487824, 0.000269413518, 0.0008305528, -0.0130878352, -0.0132939843, 2.87064631E-05, 922.9133    , 31.9507771  , 780.970642  , 0.55        , 3           , 255         , 0           , 0
-0.127352029, 0.126476526 , -9.795137   , 0.00016088257, 0.000314631761, 0.0006246394, -0.0130863115, -0.0132907545, 3.49115544E-05, 922.9133    , 31.9507771  , 780.970764  , 0.56        , 3           , 255         , 0           , 0
-0.135087222, 0.13453564  , -9.794803   , 1.93287851E-05, -2.584912E-05, -0.000165435864, -0.0130860955, -0.0132910339, 3.326061E-05, 922.9133    , 31.9507771  , 780.9709    , 0.57        , 3           , 255         , 0           , 0
-0.12154074 , 0.127567917 , -9.79013252 , 0.000678272045, 0.00010119837, -9.344828E-05, -0.0130793  , -0.0132900337, 3.231292E-05, 922.9133    , 31.9507771  , 780.971     , 0.58        , 3           , 255         , 0           , 0
-0.129148334, 0.128494367 , -9.792062   , 0.000286913128, 0.00041935296, 9.228055E-05, -0.0130764442, -0.0132858325, 3.3180866E-05, 922.9133    , 31.9507771  , 780.9711    , 0.59        , 3           , 255         , 0           , 0
-0.136891574, 0.133253053 , -9.795562   , 8.393597E-05, 0.0001568263, 0.000347615045, -0.0130756516, -0.0132842166, 3.66364366E-05, 922.9133    , 31.9507771  , 780.971252  , 0.6         , 3           , 255         , 0           , 0
-0.134399265, 0.127403736 , -9.788427   , 0.000262203539, -0.000299877051, 0.0003909779, -0.0130743114, -0.0132973241, 4.060169E-05, 922.9133    , 31.9507771  , 780.9477    , 0.61        , 3           , 255         , 0           , 0
-0.129425555, 0.132723957 , -9.805746   , -0.000108384, -0.000253455335, -9.520369E-05, -0.0130753824, -0.0132998712, 3.96828145E-05, 922.9133    , 31.9507771  , 780.9478    , 0.62        , 3           , 255         , 0           , 0
-0.126385033, 0.134713382 , -9.778473   , 0.0002582   , -8.188232E-05, -0.0002231312, -0.013072771, -0.0133007187, 3.7462265E-05, 922.914856  , 31.955864   , 780.947937  , 0.63        , 3           , 255         , 0           , 0
-0.127926841, 0.1295034   , -9.794032   , 1.52520952E-05, 0.000140939825, -0.000116695883, -0.0130726025, -0.0132993245, 3.627691E-05, 922.914856  , 31.955864   , 780.948059  , 0.64        , 3           , 255         , 0           , 0
-0.132682949, 0.130779058 , -9.792847   , 0.000182665419, 0.000189693063, -8.11208156E-05, -0.0130707668, -0.0132974386, 3.544092E-05, 922.914856  , 31.955864   , 780.9482    , 0.65        , 3           , 255         , 0           , 0
-0.131468639, 0.135345727 , -9.789589   , 0.000941241044, 0.000304162182, 0.0001465144, -0.01306137 , -0.0132943792, 3.686628E-05, 922.914856  , 31.955864   , 780.9483    , 0.66        , 3           , 255         , 0           , 0
-0.134132281, 0.125518948 , -9.793541   , 0.00038538815, 0.000333320262, 5.43662463E-06, -0.0130575188, -0.013291046, 3.6877118E-05, 922.914856  , 31.955864   , 780.9484    , 0.67        , 3           , 255         , 0           , 0
-0.12812911 , 0.121195838 , -9.794588   , -0.000262345944, 0.0001036226, 0.000167006729, -0.0130601646, -0.013289988, 3.8533628E-05, 922.914856  , 31.955864   , 780.948547  , 0.68        , 3           , 255         , 0           , 0
-0.13626273 , 0.127759084 , -9.790262   , -0.0002714616, 0.000217873647, 0.000302378437, -0.0130629186, -0.0132877706, 4.15288923E-05, 922.914856  , 31.955864   , 780.948669  , 0.69        , 3           , 255         , 0           , 0
-0.129571319, 0.123844944 , -9.791029   , -0.0007776698, 0.000246072916, 0.000288904179, -0.0130707333, -0.0132852737, 4.438572E-05, 922.914856  , 31.955864   , 780.9488    , 0.7         , 3           , 255         , 0           , 0
-0.119164072, 0.12050911  , -9.799925   , -0.00017051911, 0.000116138224, 0.000728497631, -0.0130756432, -0.013286869, 5.1696632E-05, 922.914856  , 31.955864   , 780.929138  , 0.71        , 3           , 255         , 0           , 0
-0.129703715, 0.1230824   , -9.799615   , 0.0002610068, 0.000164476529, 0.0007145917, -0.0130731277, -0.0132851312, 5.88208968E-05, 922.914856  , 31.955864   , 780.92926   , 0.72        , 3           , 255         , 0           , 0
-0.142620951, 0.124911427 , -9.791237   , 0.000115512725, -6.03289227E-05, 0.000250786368, -0.0130720064, -0.0132857012, 6.133659E-05, 922.9087    , 31.9586468  , 780.9294    , 0.73        , 3           , 255         , 0           , 0
-0.130919054, 0.119320735 , -9.7881     , 0.0008532886, 6.89807348E-06, 0.000603723747, -0.0130635556, -0.0132855549, 6.73728136E-05, 922.9087    , 31.9586468  , 780.9295    , 0.74        , 3           , 255         , 0           , 0
-0.133865863, 0.128263786 , -9.790564   , 0.000827990065, 1.83295924E-06, -0.000119457633, -0.0130552594, -0.0132855522, 6.617803E-05, 922.9087    , 31.9586468  , 780.9296    , 0.75        , 3           , 255         , 0           , 0
-0.141475365, 0.118545271 , -9.795117   , -2.84499838E-05, 0.000193743879, 2.97917541E-05, -0.0130555462, -0.01328361 , 6.645064E-05, 922.9087    , 31.9586468  , 780.929749  , 0.76        , 3           , 255         , 0           , 0
-0.1329797  , 0.12098626  , -9.794278   , -0.0007610831, 0.00017033692, -0.000370549678, -0.0130631095, -0.0132819563, 6.27229747E-05, 922.9087    , 31.9586468  , 780.9299    , 0.77        , 3           , 255         , 0           , 0
-0.131555572, 0.126586467 , -9.796202   , -6.600586E-05, 0.000131135836, 0.000494743348, -0.013063835, -0.01328058 , 6.765317E-05, 922.9087    , 31.9586468  , 780.93      , 0.78        , 3           , 255         , 0           , 0
-0.131166965, 0.122280195 , -9.790118   , -9.06031346E-06, 0.000139651223, 0.00025752277, -0.0130639588, -0.01327915 , 7.02101E-05 , 922.9087    , 31.9586468  , 780.9301    , 0.79        , 3           , 255         , 0           , 0
-0.132832527, 0.126431808 , -9.793951   , 0.0005815043, -6.739746E-05, -0.0005484792, -0.013058072, -0.0132798953, 6.473424E-05, 922.9087    , 31.9586468  , 780.930237  , 0.8         , 3           , 255         , 0           , 0
-0.127899259, 0.130607933 , -9.797728   , 0.0002522244, 0.000130499131, 0.0002443445, -0.01304122 , -0.013286002, 6.69698E-05 , 922.9087    , 31.9586468  , 780.9228    , 0.81        , 3           , 255         , 0           , 0
-0.12487755 , 0.1217042   , -9.78749752 , 0.000126218831, 8.513831E-06, 0.000548894634, -0.01304003 , -0.0132858446, 7.245751E-05, 922.9087    , 31.9586468  , 780.9229    , 0.82        , 3           , 255         , 0           , 0
-0.136243016, 0.121679738 , -9.798394   , -4.658167E-05, -0.000215299922, -3.25836845E-05, -0.0130404932, -0.0132880015, 7.215976E-05, 922.893555  , 31.9606133  , 780.923035  , 0.83        , 3           , 255         , 0           , 0
-0.135167554, 0.136974752 , -9.796804   , 0.000562452 , -0.000144474528, 2.82882938E-05, -0.0130348736, -0.0132894423, 7.246147E-05, 922.893555  , 31.9606133  , 780.923157  , 0.84        , 3           , 255         , 0           , 0
-0.131057858, 0.128039777 , -9.797632   , -0.0001254254, -0.000192323874, 0.000142613149, -0.0130361458, -0.0132913468, 7.391263E-05, 922.893555  , 31.9606133  , 780.9233    , 0.85        , 3           , 255         , 0           , 0
-0.136925608, 0.136278957 , -9.793773   , 0.000105711282, 5.238001E-05, 0.000107415894, -0.0130351046, -0.0132908085, 7.49799437E-05, 922.893555  , 31.9606133  , 780.9234    , 0.86        , 3           , 255         , 0           , 0
-0.1287069  , 0.129892334 , -9.793715   , -0.00021651946, -3.17959057E-05, 0.000378833356, -0.01303732 , -0.0132910777, 7.877235E-05, 922.893555  , 31.9606133  , 780.9235    , 0.87        , 3           , 255         , 0           , 0
-0.127749354, 0.14156957  , -9.795345   , -0.000703496044, -0.000294498139, 0.0002462335, -0.013044388, -0.01329399 , 8.127303E-05, 922.893555  , 31.9606133  , 780.923645  , 0.88        , 3           , 255         , 0           , 0
-0.131441072, 0.133198664 , -9.793848   , 0.000181619253, -0.000214624888, -0.000118916461, -0.0130425561, -0.0132961525, 8.01119E-05 , 922.893555  , 31.9606133  , 780.923767  , 0.89        , 3           , 255         , 0           , 0
-0.1257967  , 0.128731415 , -9.797197   , 0.0007316599, -2.138273E-05, 9.26140056E-05, -0.0130352536, -0.0132963536, 8.104082E-05, 922.893555  , 31.9606133  , 780.9239    , 0.9         , 3           , 255         , 0           , 0
-0.126197144, 0.124450207 , -9.794493   , 0.0005894502, -9.523501E-06, 0.0007574263, -0.0130379358, -0.0132973744, 8.872888E-05, 922.893555  , 31.9606133  , 780.9355    , 0.91        , 3           , 255         , 0           , 0
-0.12992008 , 0.1367703   , -9.794533   , 0.000100473757, 0.000165681413, 0.0008558969, -0.0130370436, -0.0132956058, 9.726606E-05, 922.893555  , 31.9606133  , 780.935669  , 0.92        , 3           , 255         , 0           , 0
-0.130076438, 0.1354018   , -9.797878   , -4.11837245E-05, 9.023986E-05, 8.008485E-05, -0.0130374664, -0.0132946931, 9.805512E-05, 922.884155  , 31.96387    , 780.935852  , 0.93        , 3           , 255         , 0           , 0
-0.127905384, 0.133270234 , -9.799747   , -0.000285436283, 0.000317674247, 0.00013557887, -0.0130403386, -0.0132915  , 9.936947E-05, 922.884155  , 31.96387    , 780.936035  , 0.94        , 3           , 255         , 0           , 0
-0.124417976, 0.139899373 , -9.78642    , -0.000122717, -0.0004516503, 0.0004691658, -0.0130416285, -0.0132959541, 0.000104119928, 922.884155  , 31.96387    , 780.9362    , 0.95        , 3           , 255         , 0           , 0
-0.135043338, 0.1281542   , -9.800725   , -0.000116496, -0.0003051635, 0.0006390959, -0.0130428793, -0.01329892 , 0.000110550551, 922.884155  , 31.96387    , 780.9364    , 0.96        , 3           , 255         , 0           , 0
-0.134629637, 0.137015969 , -9.789725   , -3.31335468E-06, -0.000580487831, 0.000289156131, -0.0130429519, -0.0133046871, 0.000113517766, 922.884155  , 31.96387    , 780.9366    , 0.97        , 3           , 255         , 0           , 0
-0.130459636, 0.1336353   , -9.78023052 , -0.000295763079, -0.000209469756, 0.000121706093, -0.0130459275, -0.0133067658, 0.000114762122, 922.884155  , 31.96387    , 780.936768  , 0.98        , 3           , 255         , 0           , 0
-0.130861253, 0.124372944 , -9.786398   , 0.000189937855, -0.000316972379, -9.79249E-05, -0.0130440164, -0.0133099481, 0.000113824244, 922.884155  , 31.96387    , 780.936951  , 0.99        , 3           , 255         , 0           , 0
-0.12354885 , 0.128548771 , -9.797743   , 0.000193435088, 0.000457816641, 5.43501774E-05, -0.0130420886, -0.0133053632, 0.000114308037, 922.884155  , 31.96387    , 780.937134  , 1           , 3           , 0           , 6.00823641  , 100
-0.12039157 , 0.1263083   , -9.791679   , -0.000135211856, 1.76249887E-06, 3.67851826E-05, -0.0130568929, -0.0133026093, 0.000114854542, 922.884155  , 31.96387    , 780.956848  , 1.01        , 3           , 1           , 0           , 0
-0.130614012, 0.13080804  , -9.805598   , 4.51503438E-05, -5.041738E-05, -0.000170754, -0.0130564189, -0.0133031355, 0.000113153626, 922.884155  , 31.96387    , 780.9571    , 1.02        , 3           , 2           , 0           , 0
-0.130517438, 0.124195494 , -9.790209   , -0.000195459288, 0.000125000428, -7.841279E-05, -0.0130583625, -0.013301895, 0.000112353184, 922.8693    , 31.966856   , 780.957336  , 1.03        , 3           , 3           , 0           , 0
-0.130083889, 0.123890854 , -9.795359   , -0.000196502078, 1.03499042E-06, 0.0004163153, -0.0130603844, -0.0133018307, 0.000116516116, 922.8693    , 31.966856   , 780.9576    , 1.04        , 3           , 4           , 0           , 0
-0.134738714, 0.127888143 , -9.797846   , -0.0003904458, -1.85660319E-05, -0.00012398728, -0.0130642718, -0.0133020328, 0.000115278679, 922.8693    , 31.966856   , 780.9578    , 1.05        , 3           , 5           , 0           , 0
-0.137921527, 0.127573043 , -9.799641   , 0.000372683455, -0.0002231003, -2.07539451E-05, -0.0130605437, -0.0133042661, 0.0001151003, 922.8693    , 31.966856   , 780.958069  , 1.06        , 3           , 6           , 0           , 0
-0.129730716, 0.130134225 , -9.794268   , 0.000359123369, -0.00016606992, 0.000203587464, -0.0130569795, -0.0133059015, 0.000117157833, 922.8693    , 31.966856   , 780.9583    , 1.07        , 3           , 7           , 0           , 0
-0.132243946, 0.12997058  , -9.788335   , 0.0001181878, -0.000138263713, 0.0006032481, -0.0130558787, -0.0133072045, 0.000123208243, 922.8693    , 31.966856   , 780.958557  , 1.08        , 3           , 8           , 5           , 5
-0.138466924, 0.130518883 , -9.786646   , 0.0003019918, -0.000199317758, -0.0005752124, -0.013052782, -0.013309272, 0.000117482254, 922.8693    , 31.966856   , 780.9588    , 1.09        , 3           , 9           , 5           , 0.1
-0.1315592  , 0.126348034 , -9.79770851 , -0.000524376868, -7.66466837E-05, -0.000156678638, -0.0130580049, -0.01331006 , 0.000115925504, 922.8693    , 31.966856   , 780.959045  , 1.1         , 3           , 10          , 0.1         , 0.1
-0.133583665, 0.125747621 , -9.804691   , -0.000222758215, 0.0002670233, -0.000163767152, -0.0130597167, -0.013310845, 0.000114246432, 922.8693    , 31.966856   , 780.991     , 1.11        , 3           , 11          , 0.009285888 , 0.009285887
-0.131763071, 0.130397886 , -9.79677    , 0.0005101494, 3.339458E-05, 0.0005262391, -0.0130546866, -0.0133104427, 0.000119504351, 922.8693    , 31.966856   , 780.991333  , 1.12        , 3           , 12          , 0.174642846 , 0
-0.140511423, 0.127318427 , -9.794655   , -0.000160178926, -0.000180948322, 0.000813162769, -0.0130563965, -0.0133121461, 0.000127659427, 922.886047  , 31.9665833  , 780.991638  , 1.13        , 3           , 13          , 0           , 0
-0.1368391  , 0.129799992 , -9.79750252 , -0.000664301042, -0.000210875558, -0.000253838516, -0.0130630061, -0.0133142862, 0.000125148625, 922.886047  , 31.9665833  , 780.991943  , 1.14        , 3           , 14          , -0.0005388173, -0.0002866829
-0.126767486, 0.129288986 , -9.806336   , -0.0002537922, -8.145723E-05, -0.0004363077, -0.0130654871, -0.013315158, 0.000120796278, 922.886047  , 31.9665833  , 780.992249  , 1.15        , 3           , 15          , 0           , 3.712018E-05
-0.129452735, 0.124558449 , -9.803105   , 1.732324E-05, -0.000275866856, -0.0003096863, -0.0130652729, -0.0133179575, 0.00011773553, 922.886047  , 31.9665833  , 780.992554  , 1.16        , 3           , 16          , 0           , 1.401298E-45
-0.138970047, 0.119347431 , -9.804133   , 0.00049338676, 0.000264029019, -0.000255910738, -0.0130603053, -0.01331535 , 0.000115142 , 922.886047  , 31.9665833  , 780.992859  , 1.17        , 3           , 20          , 0           , 0
-0.13458848 , 0.126883626 , -9.797402   , 0.0005672318, -1.07429514E-05, -0.000604049943, -0.0130545534, -0.013315537, 0.000109103035, 922.886047  , 31.9665833  , 780.993164  , 1.18        , 3           , 21          , 0           , 0
-0.129007891, 0.13047114  , -9.795068   , 8.193235E-05, -0.000142068515, -4.02799451E-05, -0.0130537283, -0.0133169629, 0.000108718785, 922.886047  , 31.9665833  , 780.993469  , 1.19        , 3           , 22          , 0           , 0
-0.124191605, 0.125011131 , -9.795184   , 3.74336378E-05, 0.000389595079, -0.000111839559, -0.013053339, -0.0133130848, 0.000107549553, 922.886047  , 31.9665833  , 780.9938    , 1.2         , 3           , 40          , 0           , 0
-0.129042476, 0.126697034 , -9.794667   , -0.000125354738, 0.000118425756, -0.00022430766, -0.0130522931, -0.0133160092, 0.000105260886, 922.886047  , 31.9665833  , 781.0041    , 1.21        , 3           , 41          , 0           , 0
-0.133498088, 0.128172085 , -9.799724   , 0.000405919855, 0.00036697957, 0.000242605034, -0.0130482661, -0.0133123072, 0.000107638989, 922.886047  , 31.9665833  , 781.004456  , 1.22        , 3           , 42          , 0           , 0
-0.125462219, 0.1226028   , -9.790764   , 2.13949825E-05, 0.000423753547, 0.000522985938, -0.0130481208, -0.0133080026, 0.000112813454, 922.9156    , 31.9686871  , 781.0048    , 1.23        , 3           , 255         , 0           , 0
-0.131096512, 0.125458315 , -9.798678   , -0.000488919846, 0.000107520522, -0.000263735943, -0.0130529748, -0.0133069623, 0.000110162109, 922.9156    , 31.9686871  , 781.0052    , 1.24        , 3           , 255         , 0           , 0
-0.142934114, 0.13720645  , -9.795483   , -0.000295763777, -0.000186398684, -0.000571615936, -0.0130558563, -0.0133089  , 0.000104470404, 922.9156    , 31.9686871  , 781.005554  , 1.25        , 3           , 255         , 0           , 0
-0.132721886, 0.129201159 , -9.793836   , 5.89987321E-05, 0.000103975384, 0.000231068014, -0.0130552985, -0.01330783 , 0.000106767468, 922.9156    , 31.9686871  , 781.0059    , 1.26        , 3           , 255         , 0           , 0
-0.1305652  , 0.120392963 , -9.802684   , 4.0226616E-05, 0.000310542149, 0.00028161236, -0.0130549325, -0.0133046871, 0.000109542983, 922.9156    , 31.9686871  , 781.0063    , 1.27        , 3           , 255         , 0           , 0
-0.129813164, 0.124197915 , -9.791046   , 0.0003977879, 3.1672942E-05, -0.000260673434, -0.0130509185, -0.013304404, 0.000106932173, 922.9156    , 31.9686871  , 781.006653  , 1.28        , 3           , 255         , 0           , 0
-0.130510762, 0.13221398  , -9.793648   , 0.0007131335, 0.0002900084, -0.00066546083, -0.0130436979, -0.0133015933, 0.000100239871, 922.9156    , 31.9686871  , 781.007     , 1.29        , 3           , 255         , 0           , 0
-0.1339941  , 0.130566046 , -9.789406   , 0.000422570942, 0.00035860436, 9.032627E-05, -0.0130394846, -0.0132979946, 0.000101096346, 922.9156    , 31.9686871  , 781.0074    , 1.3         , 3           , 255         , 0           , 0
-0.14431867 , 0.131492734 , -9.792612   , -7.57181551E-05, -0.000417412783, -0.000212487415, -0.0130397063, -0.0133061009, 9.90191838E-05, 922.9156    , 31.9686871  , 780.986     , 1.31        , 3           , 255         , 0           , 0
-0.134609759, 0.133112967 , -9.789883   , 3.67488246E-05, -0.000444068, -9.317162E-05, -0.0130393254, -0.0133105526, 9.8145385E-05, 922.9156    , 31.9686871  , 780.9863    , 1.32        , 3           , 255         , 0           , 0
-0.125710413, 0.127810776 , -9.792517   , -0.000372703362, 4.34814137E-06, 0.000397772965, -0.0130431047, -0.0133104576, 0.000102122453, 922.92804   , 31.969162   , 780.986633  , 1.33        , 3           , 255         , 0           , 0
-0.125896543, 0.135797858 , -9.798762   , -0.000205365068, 0.000280424778, 0.0006853315, -0.0130452495, -0.013307564, 0.000108939035, 922.92804   , 31.969162   , 780.986938  , 1.34        , 3           , 255         , 0           , 0
-0.125094622, 0.13031508  , -9.798645   , -0.000295333273, -2.69498851E-05, 0.0005698269, -0.01304828 , -0.0133077586, 0.0001146407, 922.92804   , 31.969162   , 780.987244  , 1.35        , 3           , 255         , 0           , 0
-0.128042832, 0.130324692 , -9.795702   , -0.000336712634, -0.000223478128, 0.000184398377, -0.01305167 , -0.0133099668, 0.0001165138, 922.92804   , 31.969162   , 780.987549  , 1.36        , 3           , 255         , 0           , 0
-0.138401553, 0.117427386 , -9.792544   , -0.0001521617, -0.000187862373, -0.0004417741, -0.0130531332, -0.013311903, 0.000112120666, 922.92804   , 31.969162   , 780.987854  , 1.37        , 3           , 255         , 0           , 0
-0.130440727, 0.1238245   , -9.781794   , 0.000345962471, -0.000222962466, 0.0005613532, -0.0130497506, -0.01331406 , 0.000117763186, 922.92804   , 31.969162   , 780.988159  , 1.38        , 3           , 255         , 0           , 0
-0.125934541, 0.123593688 , -9.793677   , 0.000629753049, -0.0002510142, 0.000391782582, -0.0130435051, -0.01331652 , 0.000121713696, 922.92804   , 31.969162   , 780.988464  , 1.39        , 3           , 255         , 0           , 0
-0.128994942, 0.129900008 , -9.797447   , 0.000408845459, -6.902937E-05, -0.000321666565, -0.0130393738, -0.0133172516, 0.000118506112, 922.92804   , 31.969162   , 780.9888    , 1.4         , 3           , 255         , 0           , 0
-0.126474828, 0.1373253   , -9.791807   , 0.00062889  , -0.000130609522, 0.0003081388, -0.0130346622, -0.0133195771, 0.000121624922, 922.92804   , 31.969162   , 780.956543  , 1.41        , 3           , 255         , 0           , 0
-0.125959218, 0.13759008  , -9.793722   , 0.000338310871, -0.0001446202, -0.000364982232, -0.0130312312, -0.01332107 , 0.000117994023, 922.92804   , 31.969162   , 780.9567    , 1.42        , 3           , 255         , 0           , 0
-0.137424231, 0.1324667   , -9.79311    , 0.000212040148, -0.000107849308, 0.000101316604, -0.0130291246, -0.0133221354, 0.000119021213, 922.8852    , 31.9686871  , 780.9569    , 1.43        , 3           , 255         , 0           , 0
-0.12968412 , 0.12590839  , -9.791192   , 0.0002651577, -0.000471930864, 0.000366829627, -0.0130265225, -0.0133268069, 0.00012275092, 922.8852    , 31.9686871  , 780.9571    , 1.44        , 3           , 255         , 0           , 0
-0.124134682, 0.119677588 , -9.795641   , -0.000799753761, -0.000269988348, 0.000276809733, -0.013034557, -0.01332947 , 0.000125554128, 922.8852    , 31.9686871  , 780.9573    , 1.45        , 3           , 255         , 0           , 0
-0.123979412, 0.125652432 , -9.799475   , -0.000503284449, -0.000163558609, 3.99880846E-05, -0.0130395964, -0.0133311  , 0.000125975319, 922.8852    , 31.9686871  , 780.957458  , 1.46        , 3           , 255         , 0           , 0
-0.126542971, 0.138376385 , -9.796637   , 0.000146990234, -0.000164297147, 0.000374815019, -0.013038178, -0.0133326938, 0.000129744818, 922.8852    , 31.9686871  , 780.957642  , 1.47        , 3           , 255         , 0           , 0
-0.131262138, 0.135269836 , -9.788772   , -5.60065964E-05, 0.000502400042, -0.000119260571, -0.01303872 , -0.0133276861, 0.000128486718, 922.8852    , 31.9686871  , 780.9578    , 1.48        , 3           , 255         , 0           , 0
-0.127536416, 0.134761989 , -9.793094   , 0.000343542226, 0.0004847777, 0.000448309031, -0.013035344, -0.01332278 , 0.000132906527, 922.8852    , 31.9686871  , 780.958     , 1.49        , 3           , 255         , 0           , 0
-0.125957042, 0.1299702   , -9.794167   , -0.0001925801, 0.0003411981, 0.000177657654, -0.0130372923, -0.0133193452, 0.000134638583, 922.8852    , 31.9686871  , 780.9582    , 1.5         , 3           , 255         , 0           , 0
-0.140040755, 0.12656793  , -9.799897   , -0.000249121455, 0.0005569899, -0.000305808062, -0.0130499993, -0.0133071095, 0.00013164444, 922.8852    , 31.9686871  , 780.9735    , 1.51        , 3           , 255         , 0           , 0
-0.137723938, 0.126668677 , -9.802579   , -0.000103916042, 0.0004884327, -0.0004869698, -0.0130509716, -0.013302288, 0.0001267111, 922.8852    , 31.9686871  , 780.9738    , 1.52        , 3           , 255         , 0           , 0
-0.1319881  , 0.13562052  , -9.796666   , -0.000492203631, 0.0002594737, -0.000830464647, -0.0130557837, -0.0132998042, 0.000118372758, 922.9129    , 31.9711285  , 780.9741    , 1.53        , 3           , 255         , 0           , 0
-0.136509717, 0.131386667 , -9.791796   , -0.000371892762, 0.000187903832, -0.000168349783, -0.013059481, -0.0132979471, 0.000116664763, 922.9129    , 31.9711285  , 780.9744    , 1.54        , 3           , 255         , 0           , 0
-0.1337014  , 0.133020416 , -9.798414   , -0.000376306416, 1.64931407E-06, -0.0003283582, -0.0130632  , -0.0132979723, 0.000113381022, 922.9129    , 31.9711285  , 780.974731  , 1.55        , 3           , 255         , 0           , 0
-0.142089978, 0.124770224 , -9.794527   , 0.000308616844, 1.96413021E-05, -0.0004561719, -0.0130600529, -0.0132978354, 0.00010881685, 922.9129    , 31.9711285  , 780.975037  , 1.56        , 3           , 255         , 0           , 0
-0.142940328, 0.1240196   , -9.800286   , 4.578661E-05, 0.000116671814, -0.000343372347, -0.0130595481, -0.0132967131, 0.000105367959, 922.9129    , 31.9711285  , 780.975342  , 1.57        , 3           , 255         , 0           , 0
-0.130579159, 0.12663205  , -9.799735   , 0.0003711977, 0.0003040008, -2.736372E-05, -0.0130558312, -0.0132936761, 0.000105054634, 922.9129    , 31.9711285  , 780.975647  , 1.58        , 3           , 255         , 0           , 0
-0.13845937 , 0.1206993   , -9.792816   , -9.540119E-06, 0.00047527923, -0.0003201906, -0.0130558843, -0.01328897 , 0.000101790749, 922.9129    , 31.9711285  , 780.975952  , 1.59        , 3           , 255         , 0           , 0
-0.130572587, 0.123748995 , -9.790042   , 0.000126190134, 0.0006439825, -0.00024935056, -0.0130545888, -0.0132825617, 9.921321E-05, 922.9129    , 31.9711285  , 780.976257  , 1.6         , 3           , 255         , 0           , 0
-0.13359651 , 0.126528189 , -9.787168   , 0.0004299259, -0.000121963589, 0.000354040967, -0.0130489822, -0.0132964728, 0.000102751481, 922.9129    , 31.9711285  , 780.960266  , 1.61        , 3           , 255         , 0           , 0
-0.131465718, 0.127557963 , -9.789752   , -0.000118937809, 0.000230141872, -0.0006786455, -0.01305008 , -0.0132942609, 9.593514E-05, 922.9129    , 31.9711285  , 780.9605    , 1.62        , 3           , 255         , 0           , 0
-0.137073234, 0.129793286 , -9.794455   , -0.0002521589, 0.000175330948, -0.00089579646, -0.0130524822, -0.0132926246, 8.695448E-05, 922.8934    , 31.9716721  , 780.960754  , 1.63        , 3           , 255         , 0           , 0
-0.134233326, 0.1258443   , -9.789248   , 1.81425712E-05, -7.270099E-05, -0.000168399667, -0.0130522782, -0.0132933725, 8.528001E-05, 922.8934    , 31.9716721  , 780.961     , 1.64        , 3           , 255         , 0           , 0
-0.138359   , 0.126896322 , -9.79626    , -0.000223008683, 0.000170344472, 0.000190439532, -0.0130545348, -0.0132916449, 8.716212E-05, 922.8934    , 31.9716721  , 780.961243  , 1.65        , 3           , 255         , 0           , 0
-0.136342376, 0.125645384 , -9.792774   , -0.000328285445, -0.000332827884, -0.000216827175, -0.0130577888, -0.0132950023, 8.50373544E-05, 922.8934    , 31.9716721  , 780.9615    , 1.66        , 3           , 255         , 0           , 0
-0.130384773, 0.1333882   , -9.79511452 , -0.00024361955, -0.000165635982, -0.000371970382, -0.0130601767, -0.0132967066, 8.133937E-05, 922.8934    , 31.9716721  , 780.961731  , 1.67        , 3           , 255         , 0           , 0
-0.131718338, 0.129255444 , -9.801437   , 0.000800484442, -0.000327937625, -0.00037559084, -0.0130521217, -0.0133000333, 7.762636E-05, 922.8934    , 31.9716721  , 780.962     , 1.68        , 3           , 255         , 0           , 0
-0.128881976, 0.131719768 , -9.796552   , 0.0005486084, 0.0003129789, 0.000473128137, -0.0130466986, -0.0132968416, 8.231671E-05, 922.8934    , 31.9716721  , 780.9622    , 1.69        , 3           , 255         , 0           , 0
-0.136789262, 0.134580314 , -9.799072   , 3.088999E-05, 0.0002473231, -0.0001693326, -0.0130463662, -0.01329439 , 8.059114E-05, 922.8934    , 31.9716721  , 780.962463  , 1.7         , 3           , 255         , 0           , 0
-0.1335045  , 0.132676676 , -9.794012   , -0.00046969665, 0.0003956245, -0.0004889829, -0.0130539611, -0.0132991206, 7.568921E-05, 922.8934    , 31.9716721  , 780.968933  , 1.71        , 3           , 255         , 0           , 0
-0.131099463, 0.125259042 , -9.792378   , -0.00023767032, -0.000288775249, -0.000130224929, -0.01305632 , -0.0133020245, 7.44246863E-05, 922.8934    , 31.9716721  , 780.9692    , 1.72        , 3           , 255         , 0           , 0
-0.135025382, 0.125816181 , -9.793855   , 0.000453282672, 4.595284E-05, 0.0008079809, -0.0130518945, -0.0133014591, 8.24983363E-05, 922.8623    , 31.9709263  , 780.9694    , 1.73        , 3           , 255         , 0           , 0
-0.1398361  , 0.132197842 , -9.798846   , 1.69142149E-05, 0.000158128358, 9.529962E-05, -0.013051738, -0.0132998666, 8.343067E-05, 922.8623    , 31.9709263  , 780.969666  , 1.74        , 3           , 255         , 0           , 0
-0.134432614, 0.128364041 , -9.794241   , 0.00011034208, -2.990989E-05, -0.000152656663, -0.0130506139, -0.0133001851, 8.19080451E-05, 922.8623    , 31.9709263  , 780.9699    , 1.75        , 3           , 255         , 0           , 0
-0.12924549 , 0.127475962 , -9.79394    , -0.000319266284, -0.000200413982, 0.000834403734, -0.0130539192, -0.01330208 , 9.02780448E-05, 922.8623    , 31.9709263  , 780.9702    , 1.76        , 3           , 255         , 0           , 0
-0.132736042, 0.121560752 , -9.793367   , -0.000136589224, 0.0004378651, -0.000178367511, -0.0130552622, -0.0132977264, 8.843725E-05, 922.8623    , 31.9709263  , 780.9705    , 1.77        , 3           , 255         , 0           , 0
-0.132164553, 0.126433447 , -9.794436   , 0.000117802963, 7.564857E-05, 3.480754E-05, -0.0130540878, -0.0132969646, 8.877544E-05, 922.8623    , 31.9709263  , 780.9708    , 1.78        , 3           , 255         , 0           , 0
-0.13599363 , 0.137092561 , -9.800109   , -0.0002153138, 0.000163930512, 0.000216191853, -0.0130562671, -0.0132952975, 9.09159062E-05, 922.8623    , 31.9709263  , 780.9711    , 1.79        , 3           , 255         , 0           , 0
-0.122075215, 0.1269663   , -9.795911   , -3.74924275E-05, -0.0001364181, 0.000816576066, -0.0130567523, -0.0132965548, 9.909931E-05, 922.8623    , 31.9709263  , 780.971436  , 1.8         , 3           , 255         , 0           , 0
-0.1245034  , 0.12062224  , -9.794245   , -7.582066E-05, -0.000448762847, 0.000453890825, -0.0130587434, -0.01330601 , 0.000103712307, 922.8623    , 31.9709263  , 781.012451  , 1.81        , 3           , 255         , 0           , 0
-0.134656161, 0.1265062   , -9.794764   , -0.0005113871, -0.000488011632, 0.000263436872, -0.0130638937, -0.0133108553, 0.000106410342, 922.8623    , 31.9709263  , 781.013     , 1.82        , 3           , 255         , 0           , 0
-0.123398617, 0.125351742 , -9.797674   , -0.000203990086, -0.0002500228, -3.71224851E-05, -0.0130659277, -0.0133133577, 0.000106071784, 922.9204    , 31.9724865  , 781.01355   , 1.83        , 3           , 255         , 0           , 0
-0.134951264, 0.1238655   , -9.794286   , -0.000377444434, -4.899135E-05, -8.771941E-05, -0.0130696911, -0.0133138588, 0.000105201027, 922.9204    , 31.9724865  , 781.0141    , 1.84        , 3           , 255         , 0           , 0
-0.144188121, 0.135131672 , -9.79933    , -0.000498251, -5.545476E-05, -2.72754951E-05, -0.01307467 , -0.0133144166, 0.00010493552, 922.9204    , 31.9724865  , 781.014648  , 1.85        , 3           , 255         , 0           , 0
-0.136760026, 0.123051241 , -9.796755   , 0.00046000586, 0.0001470184, 0.000701475365, -0.0130701624, -0.0133128548, 0.000111930894, 922.9204    , 31.9724865  , 781.0152    , 1.86        , 3           , 255         , 0           , 0
-0.125585362, 0.130360767 , -9.794128   , 0.000484335353, 0.000364280859, 0.0008486032, -0.0130654331, -0.0133091034, 0.00012036915, 922.9204    , 31.9724865  , 781.015747  , 1.87        , 3           , 255         , 0           , 0
-0.129568547, 0.132201225 , -9.795992   , 0.000245222938, -3.97826079E-05, 0.000713862129, -0.0130630769, -0.013309407, 0.000127512816, 922.9204    , 31.9724865  , 781.0163    , 1.88        , 3           , 255         , 0           , 0
-0.133434132, 0.130933613 , -9.795928   , 0.0005106609, 0.000225226191, 7.782629E-05, -0.0130579807, -0.0133071449, 0.000128261658, 922.9204    , 31.9724865  , 781.016846  , 1.89        , 3           , 255         , 0           , 0
-0.1285459  , 0.131402925 , -9.795996   , -0.0001633559, -0.000200768816, 2.0259522E-05, -0.0130596161, -0.0133091491, 0.000128490457, 922.9204    , 31.9724865  , 781.0174    , 1.9         , 3           , 255         , 0           , 0
-0.13070038 , 0.129541412 , -9.795623   , -8.62987363E-05, 0.000108654465, 0.000372944458, -0.01306028 , -0.0133102816, 0.0001322023, 922.9204    , 31.9724865  , 780.986633  , 1.91        , 3           , 255         , 0           , 0
-0.133445591, 0.131187558 , -9.792994   , -8.373265E-05, 0.000440826319, -0.000173153268, -0.0130610932, -0.013305896, 0.000130413231, 922.9204    , 31.9724865  , 780.987     , 1.92        , 3           , 255         , 0           , 0
-0.138196468, 0.129576162 , -9.797723   , -0.0002427047, 0.000210535247, 0.0005436042, -0.0130635919, -0.0133037185, 0.000135821654, 922.8611    , 31.9737072  , 780.987366  , 1.93        , 3           , 255         , 0           , 0
-0.138850525, 0.13465102  , -9.798249   , -6.888196E-05, -0.000422820158, -0.000286283961, -0.0130642448, -0.0133079849, 0.000133014109, 922.8611    , 31.9737072  , 780.987732  , 1.94        , 3           , 255         , 0           , 0
-0.130818963, 0.133449286 , -9.797808   , -0.000128295913, -0.000189436018, -0.0002801786, -0.013065489, -0.0133099156, 0.000130237124, 922.8611    , 31.9737072  , 780.9881    , 1.95        , 3           , 255         , 0           , 0
-0.128953308, 0.128558412 , -9.795871   , -0.000283630157, 0.0005122461, 0.000443750963, -0.0130683836, -0.0133047355, 0.000134607617, 922.8611    , 31.9737072  , 780.988464  , 1.96        , 3           , 255         , 0           , 0
-0.140764445, 0.119877204 , -9.80056    , -9.191589E-05, 0.000116111813, 0.000710257154, -0.0130693968, -0.013303482, 0.000141694851, 922.8611    , 31.9737072  , 780.988831  , 1.97        , 3           , 255         , 0           , 0
-0.130556971, 0.13482298  , -9.796857   , 0.000349639769, 0.0002519278, 3.11773474E-05, -0.0130659053, -0.013300959, 0.000141973709, 922.8611    , 31.9737072  , 780.9892    , 1.98        , 3           , 255         , 0           , 0
-0.126314789, 0.13413839  , -9.787765   , 0.000387398759, 0.000131782741, -0.000156933762, -0.0130620105, -0.0132996617, 0.0001403872, 922.8611    , 31.9737072  , 780.989563  , 1.99        , 3           , 255         , 0           , 0
-0.128044724, 0.124327376 , -9.789973   , -0.000223591982, -0.000301939261, 9.637293E-05, -0.0130642606, -0.013302668, 0.000141390337, 922.8611    , 31.9737072  , 780.9899    , 2           , 3           , 0           , 7.00823641  , 200
-0.143688112, 0.1324979   , -9.79302    , 0.0004532743, -5.70977572E-05, 0.000320101739, -0.01306394 , -0.013307876, 0.000144654245, 922.8611    , 31.9737072  , 781.032532  , 2.01        , 3           , 1           , 0           , 0
-0.137634844, 0.122178175 , -9.797386   , 0.000235678774, 0.00044139917, 5.72183271E-05, -0.0130615886, -0.0133034578, 0.000145168771, 922.8611    , 31.9737072  , 781.033142  , 2.02        , 3           , 2           , 0           , 0
-0.127775654, 0.130597666 , -9.792841   , -0.0003221059, 0.0001936977, 0.000258495362, -0.0130648445, -0.0133014852, 0.000147728351, 922.8755    , 31.9709263  , 781.033752  , 2.03        , 3           , 3           , 0           , 0
-0.1292754  , 0.13198474  , -9.790215   , -3.107608E-05, -0.000291563163, 0.000304053945, -0.0130651956, -0.0133043611, 0.000150806925, 922.8755    , 31.9709263  , 781.034363  , 2.04        , 3           , 4           , 0           , 0
-0.133367032, 0.1262416   , -9.792149   , 0.000298028579, -4.18893178E-05, -0.000469678052, -0.0130621539, -0.0133048417, 0.000146115723, 922.8755    , 31.9709263  , 781.035     , 2.05        , 3           , 5           , 0           , 0
-0.130136013, 0.137079835 , -9.791595   , 2.96437065E-05, 0.000338257843, 6.321989E-05, -0.0130618652, -0.0133014508, 0.000146703736, 922.8755    , 31.9709263  , 781.0356    , 2.06        , 3           , 6           , 0           , 0
-0.140187547, 0.125414148 , -9.799324   , -0.000446936756, -0.000302562141, -0.000217844092, -0.0130663067, -0.0133045055, 0.000144564867, 922.8755    , 31.9709263  , 781.0362    , 2.07        , 3           , 7           , 0           , 0
-0.135125116, 0.1301512   , -9.795853   , 0.00010261836, -0.000127436535, -0.0004379083, -0.0130652227, -0.0133058373, 0.000140202537, 922.8755    , 31.9709263  , 781.036865  , 2.08        , 3           , 8           , 5           , 5
-0.127192348, 0.131221265 , -9.797393   , -0.0001186491, 0.000433902373, -0.0005127633, -0.01306634 , -0.0133015653, 0.0001350183, 922.8755    , 31.9709263  , 781.037537  , 2.09        , 3           , 9           , 5           , 0.1
-0.1336165  , 0.126768366 , -9.795231   , -0.0003553494, -3.215624E-05, -0.0006352585, -0.0130698076, -0.0133019695, 0.000128670057, 922.8755    , 31.9709263  , 781.0382    , 2.1         , 3           , 10          , 0.1         , 0.1
-0.135591388, 0.126958877 , -9.789521   , 0.0002794679, -0.000209418329, 0.00029265022, -0.0130701382, -0.0133113721, 0.000131664958, 922.8755    , 31.9709263  , 781.0582    , 2.11        , 3           , 11          , 0.008309252 , 0.008309249
-0.138996765, 0.1283897   , -9.790811   , 0.000495152955, -0.000111123809, 0.00015311937, -0.01306521 , -0.0133124627, 0.000133210633, 922.8755    , 31.9709263  , 781.059     , 2.12        , 3           , 12          , 0.174643889 , 0
-0.130808026, 0.118426815 , -9.79598    , -0.000157822622, 1.49389089E-05, -0.0005300327, -0.0130667156, -0.0133123826, 0.000127908468, 922.9249    , 31.973978   , 781.0598    , 2.13        , 3           , 13          , 0           , 0
-0.130833477, 0.123598084 , -9.797865   , -0.000347340363, 0.000503791438, -0.000135335562, -0.0130701689, -0.0133073628, 0.000126489293, 922.9249    , 31.973978   , 781.0606    , 2.14        , 3           , 14          , -0.0005387732, -0.000286585448
-0.131499588, 0.123095751 , -9.78918648 , 0.000308242423, 0.000118874843, -0.000105910454, -0.0130670723, -0.0133061875, 0.000125414677, 922.9249    , 31.973978   , 781.0614    , 2.15        , 3           , 15          , 0           , 3.71208625E-05
-0.119255327, 0.129240438 , -9.797733   , 0.000255790015, -0.000104203384, 0.000238884881, -0.0130645474, -0.013307198, 0.0001278171, 922.9249    , 31.973978   , 781.0622    , 2.16        , 3           , 16          , 0           , 1.401298E-45
-0.132170156, 0.128800541 , -9.788765   , 8.853452E-05, -1.06428924E-05, 0.000764418335, -0.0130637642, -0.0133072054, 0.0001354625, 922.9249    , 31.973978   , 781.063     , 2.17        , 3           , 20          , 0           , 0
-0.136933118, 0.120252989 , -9.792059   , 2.50669545E-05, -4.9099006E-05, 3.363984E-05, -0.0130635174, -0.0133076916, 0.0001358053, 922.9249    , 31.973978   , 781.0638    , 2.18        , 3           , 21          , 0           , 0
-0.126673982, 0.131279275 , -9.798231   , -0.00014345604, 7.18032243E-06, -0.0006565424, -0.0130648641, -0.0133077055, 0.000129239081, 922.9249    , 31.973978   , 781.0646    , 2.19        , 3           , 22          , 0           , 0
-0.129539385, 0.123979546 , -9.793129   , -0.000332558819, 2.37367931E-06, 0.000268310978, -0.0130682243, -0.0133076478, 0.000131921828, 922.9249    , 31.973978   , 781.065369  , 2.2         , 3           , 40          , 0           , 0
-0.130929664, 0.123547629 , -9.791658   , 0.0003751873, -0.000527663156, 0.000689910143, -0.0130587406, -0.0133148488, 0.00013881216, 922.9249    , 31.973978   , 781.019836  , 2.21        , 3           , 41          , 0           , 0
-0.126349837, 0.123359837 , -9.788772   , 0.0005751328, -0.000175375957, 0.000181088661, -0.013053013, -0.01331658 , 0.0001406459, 922.9249    , 31.973978   , 781.0203    , 2.22        , 3           , 42          , 0           , 0
-0.130334571, 0.122693241 , -9.791699   , 0.000105740764, 0.0004031544, 0.000446749153, -0.0130520146, -0.0133124925, 0.00014506068, 922.9009    , 31.9730282  , 781.0208    , 2.23        , 3           , 255         , 0           , 0
-0.137633368, 0.1301851   , -9.7954     , -0.000286308117, -6.42216764E-06, 0.000672896451, -0.0130549688, -0.0133124674, 0.000151790329, 922.9009    , 31.9730282  , 781.0213    , 2.24        , 3           , 255         , 0           , 0
-0.1330034  , 0.1265488   , -9.787856   , 0.000484821823, 0.000590597745, -7.99674E-05, -0.0130501082, -0.013306573, 0.0001509136, 922.9009    , 31.9730282  , 781.0218    , 2.25        , 3           , 255         , 0           , 0
-0.1340713  , 0.123545006 , -9.79178    , 0.000321664469, 0.000541339163, -5.75739978E-05, -0.013046883, -0.01330117 , 0.000150267238, 922.9009    , 31.9730282  , 781.0223    , 2.26        , 3           , 255         , 0           , 0
-0.12791869 , 0.123922244 , -9.791702   , -0.000135331182, 8.762922E-05, 1.75274981E-05, -0.0130482391, -0.01330029 , 0.000150431064, 922.9009    , 31.9730282  , 781.022766  , 2.27        , 3           , 255         , 0           , 0
-0.1293996  , 0.1209959   , -9.79726    , -0.000254306477, -0.000216047192, 0.0005116583, -0.0130508486, -0.0133023839, 0.000155575748, 922.9009    , 31.9730282  , 781.023254  , 2.28        , 3           , 255         , 0           , 0
-0.129906267, 0.121835671 , -9.79906    , -0.000370231, -5.802716E-05, -0.000256385334, -0.013054519, -0.0133029977, 0.000153019486, 922.9009    , 31.9730282  , 781.023743  , 2.29        , 3           , 255         , 0           , 0
-0.140031442, 0.1298115   , -9.795562   , -9.2128E-05 , 0.0002791751, -0.0002757504, -0.0130554028, -0.0133002428, 0.00015022562, 922.9009    , 31.9730282  , 781.024231  , 2.3         , 3           , 255         , 0           , 0
-0.14214015 , 0.120008752 , -9.793088   , -0.000323687331, 0.00016299753, 7.69387E-05 , -0.0130515108, -0.0133021986, 0.000150878768, 922.9009    , 31.9730282  , 781.0141    , 2.31        , 3           , 255         , 0           , 0
-0.132138222, 0.123751208 , -9.791766   , -1.42192584E-05, 0.000342630083, -0.000112406648, -0.0130516374, -0.0132987881, 0.00014971  , 922.9009    , 31.9730282  , 781.0145    , 2.32        , 3           , 255         , 0           , 0
-0.13362357 , 0.128059074 , -9.790342   , 7.047996E-05, -0.000124484068, 8.096259E-05, -0.0130509436, -0.0133000212, 0.000150535867, 922.8748    , 31.9761486  , 781.014954  , 2.33        , 3           , 255         , 0           , 0
-0.13450183 , 0.128359556 , -9.792159   , -0.000282949244, -0.000243254675, 0.0003143236, -0.0130538158, -0.0133024128, 0.000153710775, 922.8748    , 31.9761486  , 781.0154    , 2.34        , 3           , 255         , 0           , 0
-0.132728353, 0.116704606 , -9.791092   , -2.78181979E-05, 0.000296117476, 0.00101132155, -0.0130542293, -0.0132993227, 0.000163785124, 922.8748    , 31.9761486  , 781.0158    , 2.35        , 3           , 255         , 0           , 0
-0.1374532  , 0.117871307 , -9.799849   , -0.000316133723, 0.000313693075, 0.000779173162, -0.0130574927, -0.0132960835, 0.000171535736, 922.8748    , 31.9761486  , 781.016235  , 2.36        , 3           , 255         , 0           , 0
-0.141509026, 0.1296162   , -9.791768   , 0.000259976718, 0.0002056479, 8.394201E-05, -0.0130549045, -0.013294016, 0.000172348271, 922.8748    , 31.9761486  , 781.016663  , 2.37        , 3           , 255         , 0           , 0
-0.124647543, 0.133828953 , -9.790111   , -0.000363013649, 0.000460221781, -0.0003227426, -0.0130584911, -0.0132894563, 0.000169060833, 922.8748    , 31.9761486  , 781.0171    , 2.38        , 3           , 255         , 0           , 0
-0.127940655, 0.126377746 , -9.7926445  , -0.000102111604, 0.000365778978, 0.000200999813, -0.0130595369, -0.0132857729, 0.000171023 , 922.8748    , 31.9761486  , 781.0175    , 2.39        , 3           , 255         , 0           , 0
-0.138724685, 0.128507257 , -9.793524   , 2.23635579E-05, 0.0003406928, -0.000276414066, -0.0130592762, -0.0132824015, 0.000168214421, 922.8748    , 31.9761486  , 781.017944  , 2.4         , 3           , 255         , 0           , 0
-0.122418106, 0.125247747 , -9.7920475  , 0.000178129645, 0.000228514138, -0.000243881615, -0.0130517483, -0.0132897962, 0.000165669888, 922.8748    , 31.9761486  , 781.042542  , 2.41        , 3           , 255         , 0           , 0
-0.125388831, 0.133138865 , -9.78933048 , 6.24829263E-05, 0.000157925038, -1.25012666E-05, -0.0130511215, -0.0132882185, 0.000165524267, 922.8748    , 31.9761486  , 781.043152  , 2.42        , 3           , 255         , 0           , 0
-0.130946964, 0.115835585 , -9.792473   , 0.000151191285, -7.398988E-05, 0.000189832834, -0.013049636, -0.0132889338, 0.000167432212, 922.8805    , 31.973978   , 781.043762  , 2.43        , 3           , 255         , 0           , 0
-0.130297288, 0.124827363 , -9.798811   , 0.000474829139, -0.00033927444, 0.00110864558, -0.0130450362, -0.0132921832, 0.0001785627, 922.8805    , 31.973978   , 781.0444    , 2.44        , 3           , 255         , 0           , 0
-0.1286794  , 0.125722647 , -9.790824   , 0.0008825042, 0.000120188386, 9.95847658E-05, -0.013036225, -0.0132909687, 0.000179542869, 922.8805    , 31.973978   , 781.045     , 2.45        , 3           , 255         , 0           , 0
-0.134044185, 0.131487578 , -9.794477   , 0.0009500147, -0.0003669501, -0.000243444592, -0.0130266929, -0.0132946689, 0.000177156282, 922.8805    , 31.973978   , 781.0456    , 2.46        , 3           , 255         , 0           , 0
-0.1350393  , 0.130956382 , -9.798601   , 4.60975571E-06, 0.000177627167, 0.000328977825, -0.013026691, -0.0132928491, 0.000180422852, 922.8805    , 31.973978   , 781.0462    , 2.47        , 3           , 255         , 0           , 0
-0.1220606  , 0.124108337 , -9.798016   , 0.000120153447, 0.000396188349, -0.000380714, -0.0130254375, -0.0132889384, 0.0001765642, 922.8805    , 31.973978   , 781.0468    , 2.48        , 3           , 255         , 0           , 0
-0.129739672, 0.125239223 , -9.791212   , 5.679112E-05, -5.41334157E-05, -0.0002193759, -0.0130248405, -0.0132895084, 0.00017437755, 922.8805    , 31.973978   , 781.0474    , 2.49        , 3           , 255         , 0           , 0
-0.138460129, 0.129655764 , -9.791572   , 5.02346666E-05, -4.0980638E-05, 0.0004470447, -0.0130243972, -0.01328986 , 0.000178853239, 922.8805    , 31.973978   , 781.048035  , 2.5         , 3           , 255         , 0           , 0
-0.1402326  , 0.123918436 , -9.79523849 , 2.7586706E-05, -8.77137354E-05, 6.639834E-05, -0.0130218817, -0.0132897329, 0.000179498747, 922.8805    , 31.973978   , 781.061462  , 2.51        , 3           , 255         , 0           , 0
-0.1388708  , 0.135807037 , -9.791204   , 0.0007286989, -0.0006354165, -4.665374E-05, -0.01301459 , -0.0132960957, 0.000179114955, 922.8805    , 31.973978   , 781.0622    , 2.52        , 3           , 255         , 0           , 0
-0.131096512, 0.13720122  , -9.796646   , 0.000442610617, 0.000180333445, 0.000308587245, -0.0130102057, -0.01329425 , 0.0001821773, 922.915955  , 31.9761486  , 781.0629    , 2.53        , 3           , 255         , 0           , 0
-0.129537731, 0.13992022  , -9.789696   , -0.000396480784, 0.000805137 , -2.6125279E-05, -0.0130141638, -0.0132862031, 0.0001818113, 922.915955  , 31.9761486  , 781.06366   , 2.54        , 3           , 255         , 0           , 0
-0.133188471, 0.138439476 , -9.785472   , -0.0002185682, -0.000280525448, -2.249237E-05, -0.0130163478, -0.01328901 , 0.000181622876, 922.915955  , 31.9761486  , 781.0644    , 2.55        , 3           , 255         , 0           , 0
-0.135150045, 0.130626336 , -9.78329    , 8.77731363E-05, -1.147826E-06, 0.000903795939, -0.01301559 , -0.013288904, 0.0001906608, 922.915955  , 31.9761486  , 781.0651    , 2.56        , 3           , 255         , 0           , 0
-0.1278203  , 0.130009487 , -9.795964   , -0.000344477419, 8.821237E-05, 0.000189335522, -0.0130190616, -0.0132879978, 0.000192542633, 922.915955  , 31.9761486  , 781.065857  , 2.57        , 3           , 255         , 0           , 0
-0.141756386, 0.138035327 , -9.800167   , -0.00059403 , 0.0006011523, -0.000638011436, -0.0130249141, -0.0132820709, 0.000186084377, 922.915955  , 31.9761486  , 781.0666    , 2.58        , 3           , 255         , 0           , 0
-0.142696649, 0.133977249 , -9.797739   , 0.000206941011, 0.000119127712, -0.000254540268, -0.0130228112, -0.0132809114, 0.0001835235, 922.915955  , 31.9761486  , 781.0673    , 2.59        , 3           , 255         , 0           , 0
-0.130719692, 0.1295606   , -9.795919   , -0.0003411107, 0.000700248638, 0.000255400519, -0.0130262543, -0.0132738762, 0.000185986239, 922.915955  , 31.9761486  , 781.068054  , 2.6         , 3           , 255         , 0           , 0
-0.12206354 , 0.128886074 , -9.798377   , 0.000182688 , 0.0003742024, 0.000684390659, -0.0130375652, -0.0132803433, 0.000192954525, 922.915955  , 31.9761486  , 781.030945  , 2.61        , 3           , 255         , 0           , 0
-0.130324289, 0.129423976 , -9.801421   , 0.000330882584, 8.096015E-05, 0.000477282418, -0.0130343195, -0.0132794706, 0.000197716712, 922.915955  , 31.9761486  , 781.031433  , 2.62        , 3           , 255         , 0           , 0
-0.129514277, 0.12018095  , -9.798674   , 0.000294011959, -3.555324E-06, 0.000742529344, -0.013031478, -0.0132794129, 0.0002051423, 922.9353    , 31.9772358  , 781.0319    , 2.63        , 3           , 255         , 0           , 0
-0.129639357, 0.121848747 , -9.796347   , 0.000180991716, -0.000285587739, 0.000337787846, -0.0130297141, -0.0132822236, 0.000208557321, 922.9353    , 31.9772358  , 781.0324    , 2.64        , 3           , 255         , 0           , 0
-0.129795685, 0.134455353 , -9.789724   , 0.000177948823, -0.000386885251, 0.0002738819, -0.0130279716, -0.0132860569, 0.0002113465, 922.9353    , 31.9772358  , 781.0329    , 2.65        , 3           , 255         , 0           , 0
-0.1295605  , 0.1350717   , -9.799758   , 0.000311097945, -0.000175586116, 0.000261018839, -0.0130248964, -0.0132877789, 0.000213979525, 922.9353    , 31.9772358  , 781.0334    , 2.66        , 3           , 255         , 0           , 0
-0.130674079, 0.1335642   , -9.799331   , 7.704308E-06, 0.000136707 , -6.8088746E-05, -0.0130248088, -0.0132864211, 0.000213280829, 922.9353    , 31.9772358  , 781.0339    , 2.67        , 3           , 255         , 0           , 0
-0.13225916 , 0.125155315 , -9.787806   , -0.000266378571, -1.09067769E-05, 0.000423408 , -0.0130275292, -0.0132864751, 0.000217516237, 922.9353    , 31.9772358  , 781.034363  , 2.68        , 3           , 255         , 0           , 0
-0.135908723, 0.129245132 , -9.789665   , 0.000181651587, 8.546506E-05, 0.0004446573, -0.0130257718, -0.0132855624, 0.000221951588, 922.9353    , 31.9772358  , 781.034851  , 2.69        , 3           , 255         , 0           , 0
-0.136530489, 0.128861576 , -9.793119   , 0.000427854131, 0.000148388179, 0.000525247247, -0.0130215622, -0.0132840108, 0.000227184617, 922.9353    , 31.9772358  , 781.035339  , 2.7         , 3           , 255         , 0           , 0
-0.139672756, 0.125568151 , -9.801592   , -5.547545E-05, 1.65599922E-05, 0.000706623658, -0.0130240638, -0.0132846078, 0.00023427316, 922.9353    , 31.9772358  , 780.9756    , 2.71        , 3           , 255         , 0           , 0
-0.134555012, 0.12982513  , -9.790855   , 0.000237044937, 0.000318804377, 0.0003411306, -0.0130217383, -0.0132813742, 0.000237642875, 922.9353    , 31.9772358  , 780.9757    , 2.72        , 3           , 255         , 0           , 0
-0.122999206, 0.124192312 , -9.794204   , -0.0002332236, -0.000383254344, -0.000245667354, -0.0130240377, -0.0132852392, 0.000235236177, 922.928955  , 31.9760818  , 780.9758    , 2.73        , 3           , 255         , 0           , 0
-0.124524452, 0.127700955 , -9.80155    , 1.28467218E-05, 0.000359568774, -0.0005434189, -0.0130238365, -0.0132817132, 0.000229755271, 922.928955  , 31.9760818  , 780.975952  , 2.74        , 3           , 255         , 0           , 0
-0.128951609, 0.1281642   , -9.802783   , 4.8508693E-05, -0.000132267567, 0.000461614545, -0.0130234128, -0.0132829761, 0.000234388543, 922.928955  , 31.9760818  , 780.9761    , 2.75        , 3           , 255         , 0           , 0
-0.128446072, 0.129910648 , -9.793472   , 1.65152014E-05, -0.000481806666, 0.000274570571, -0.0130232861, -0.0132877594, 0.000237196946, 922.928955  , 31.9760818  , 780.9762    , 2.76        , 3           , 255         , 0           , 0
-0.133533284, 0.121332727 , -9.800111   , 0.000431945926, -0.0002870031, 0.000429448148, -0.0130190244, -0.013290572, 0.0002415287, 922.928955  , 31.9760818  , 780.9763    , 2.77        , 3           , 255         , 0           , 0
-0.1423324  , 0.111411259 , -9.797155   , -0.0005984329, 0.000228270248, 0.000126481988, -0.0130250249, -0.0132882735, 0.000242763781, 922.928955  , 31.9760818  , 780.97644   , 2.78        , 3           , 255         , 0           , 0
-0.132902235, 0.123752154 , -9.792545   , -2.88629089E-05, 3.423827E-05, 0.000785663 , -0.0130254179, -0.0132878283, 0.0002506158, 922.928955  , 31.9760818  , 780.976563  , 2.79        , 3           , 255         , 0           , 0
-0.127923265, 0.127567962 , -9.792921   , 0.000114207622, -4.212369E-05, 0.0004540004, -0.0130243357, -0.0132881906, 0.000255161169, 922.928955  , 31.9760818  , 780.9767    , 2.8         , 3           , 255         , 0           , 0
-0.1325266  , 0.13028951  , -9.789839   , 0.0002907689, -0.000296028564, 0.0007885638, -0.0130172074, -0.0132933967, 0.0002630277, 922.928955  , 31.9760818  , 780.9331    , 2.81        , 3           , 255         , 0           , 0
-0.131812781, 0.125505939 , -9.795164   , 0.0001385411, -0.000208738609, 0.0009832167, -0.0130159529, -0.0132953543, 0.000272886828, 922.928955  , 31.9760818  , 780.933     , 2.82        , 3           , 255         , 0           , 0
-0.135013178, 0.1313241   , -9.787953   , 1.977256E-06, 0.000227742377, -0.00022963417, -0.0130159045, -0.01329311 , 0.0002705609, 922.913452  , 31.9752674  , 780.932861  , 2.83        , 3           , 255         , 0           , 0
-0.137369663, 0.122285627 , -9.79536152 , -0.000172059925, -4.283531E-05, 0.000559135864, -0.0130176982, -0.0132934637, 0.00027615772, 922.913452  , 31.9752674  , 780.932739  , 2.84        , 3           , 255         , 0           , 0
-0.13259691 , 0.126193091 , -9.803967   , -0.00017820287, 0.000212719635, 3.641098E-05, -0.0130194854, -0.0132913319, 0.0002764941, 922.913452  , 31.9752674  , 780.9326    , 2.85        , 3           , 255         , 0           , 0
-0.124039009, 0.133403748 , -9.799683   , 0.00010716531, -0.000257863081, -0.0007677058, -0.013018311, -0.01329401 , 0.0002688508, 922.913452  , 31.9752674  , 780.9325    , 2.86        , 3           , 255         , 0           , 0
-0.121008232, 0.124917008 , -9.793241   , 0.00044619976, -0.000201486924, 0.0005044553, -0.0130139161, -0.0132959606, 0.0002739215, 922.913452  , 31.9752674  , 780.9324    , 2.87        , 3           , 255         , 0           , 0
-0.126576945, 0.113979958 , -9.792042   , -0.000175558671, -6.974474E-05, 0.0005632176, -0.0130157471, -0.0132965837, 0.000279562635, 922.913452  , 31.9752674  , 780.932251  , 2.88        , 3           , 255         , 0           , 0
-0.1285557  , 0.11917194  , -9.787028   , -0.000407133484, -0.000188304053, -1.81129672E-05, -0.0130198169, -0.0132984687, 0.000279406 , 922.913452  , 31.9752674  , 780.9321    , 2.89        , 3           , 255         , 0           , 0
-0.134279773, 0.131370634 , -9.792043   , -0.0003327586, 0.000127635547, -0.000499302, -0.0130230766, -0.0132972561, 0.000274396472, 922.913452  , 31.9752674  , 780.932     , 2.9         , 3           , 255         , 0           , 0
-0.1410145  , 0.138671711 , -9.79318    , 0.0002694452, 8.940585E-05, -0.0006147717, -0.0130170854, -0.0132967923, 0.000268194446, 922.913452  , 31.9752674  , 780.9161    , 2.91        , 3           , 255         , 0           , 0
-0.1290957  , 0.129832327 , -9.800624   , -0.00026471162, 0.0001121588, -0.000300873857, -0.0130196922, -0.01329571 , 0.000265171169, 922.913452  , 31.9752674  , 780.915833  , 2.92        , 3           , 255         , 0           , 0
-0.13131687 , 0.132550985 , -9.80388451 , 0.000251594116, -0.000169054343, -6.04006527E-05, -0.0130171683, -0.0132974079, 0.0002645892, 922.9103    , 31.9736385  , 780.9156    , 2.93        , 3           , 255         , 0           , 0
-0.140592888, 0.134401083 , -9.803838   , 0.000492876 , -0.0006012997, 0.000295618 , -0.01301228 , -0.0133033814, 0.000267623574, 922.9103    , 31.9736385  , 780.915344  , 2.94        , 3           , 255         , 0           , 0
-0.124657832, 0.1264799   , -9.795551   , 4.37340932E-05, -0.000103387341, 0.0001899276, -0.0130118681, -0.0133043909, 0.000269536249, 922.9103    , 31.9736385  , 780.9151    , 2.95        , 3           , 255         , 0           , 0
-0.129005164, 0.125953734 , -9.794743   , -0.000237422821, 0.000207158271, 0.000298230938, -0.0130142821, -0.0133022806, 0.0002724915, 922.9103    , 31.9736385  , 780.914856  , 2.96        , 3           , 255         , 0           , 0
-0.1323807  , 0.119738296 , -9.792796   , 0.0002908097, 0.000552125566, -0.000661863247, -0.013011287, -0.01329685 , 0.0002658012, 922.9103    , 31.9736385  , 780.9147    , 2.97        , 3           , 255         , 0           , 0
-0.134945571, 0.11473757  , -9.793562   , 0.0001639474, 0.000282807567, -0.0007298644, -0.01300955 , -0.0132941147, 0.000258465938, 922.9103    , 31.9736385  , 780.9145    , 2.98        , 3           , 255         , 0           , 0
-0.130075887, 0.117717788 , -9.785652   , -0.0005763783, 9.996818E-05, -1.65282781E-05, -0.0130153093, -0.0132931182, 0.000258287619, 922.9103    , 31.9736385  , 780.9143    , 2.99        , 3           , 255         , 0           , 0
-0.136644319, 0.124422707 , -9.79482    , -0.00017673301, -5.60739136E-05, -0.0006102956, -0.013016996, -0.013293758, 0.000252192083, 922.9103    , 31.9736385  , 780.9141    , 3           , 3           , 0           , 8.008237    , 300
-0.136954308, 0.121964619 , -9.792818   , -0.0003643777, 0.000167414488, -0.000464100827, -0.0130188921, -0.0132964887, 0.000247506978, 922.9103    , 31.9736385  , 780.9053    , 3.01        , 3           , 1           , 0           , 0
-0.121340707, 0.133814961 , -9.790844   , -0.0005196199, 6.27163245E-05, -0.000341038132, -0.0130240424, -0.0132959057, 0.000244088515, 922.9103    , 31.9736385  , 780.905     , 3.02        , 3           , 2           , 0           , 0
-0.126350269, 0.13580659  , -9.794321   , 0.0001067234, -4.38886345E-05, 2.88671436E-05, -0.0130229788, -0.0132963406, 0.000244382885, 922.920044  , 31.9761486  , 780.9048    , 3.03        , 3           , 3           , 0           , 0
-0.132768154, 0.130400687 , -9.789782   , 0.0002616819, -0.0002170575, -0.0009681166, -0.0130202342, -0.0132986354, 0.000234730163, 922.920044  , 31.9761486  , 780.904541  , 3.04        , 3           , 4           , 0           , 0
-0.127453774, 0.136204213 , -9.789486   , 0.0001963446, 0.000104102437, -0.0004958048, -0.0130182039, -0.0132976584, 0.000229758676, 922.920044  , 31.9761486  , 780.9043    , 3.05        , 3           , 5           , 0           , 0
-0.125303835, 0.131975219 , -9.79275    , -0.0002304109, 0.000225541735, 5.11178077E-05, -0.0130205154, -0.0132953972, 0.000230240461, 922.920044  , 31.9761486  , 780.904053  , 3.06        , 3           , 6           , 0           , 0
-0.125590175, 0.128565162 , -9.788856   , -0.000264165, 0.000494303764, 0.0006966886, -0.0130232479, -0.0132903634, 0.000237142827, 922.920044  , 31.9761486  , 780.9038    , 3.07        , 3           , 7           , 0           , 0
-0.121217489, 0.123307005 , -9.78793049 , -9.348267E-05, -0.0004033346, 0.000432276865, -0.0130242407, -0.0132943392, 0.000241518064, 922.920044  , 31.9761486  , 780.903564  , 3.08        , 3           , 8           , 5           , 5
-0.129290849, 0.1188642   , -9.791226   , -0.000173305161, 2.63966213E-05, -0.000165770878, -0.0130259525, -0.0132940961, 0.000239856949, 922.920044  , 31.9761486  , 780.9033    , 3.09        , 3           , 9           , 5           , 0.1
-0.13464421 , 0.124932572 , -9.797722   , 9.708159E-05, -3.059543E-05, -0.000535036263, -0.0130249113, -0.0132944724, 0.000234510677, 922.920044  , 31.9761486  , 780.9031    , 3.1         , 3           , 10          , 0.1         , 0.1
-0.131856218, 0.132848009 , -9.803956   , -0.0005338826, -0.000141590222, -0.000447175116, -0.0130325686, -0.013291331, 0.000230089063, 922.920044  , 31.9761486  , 780.882141  , 3.11        , 3           , 11          , 0.007556158 , 0.00755615439
-0.125703022, 0.129102454 , -9.796826   , -0.0005166486, 0.000186855774, 0.000172034866, -0.013037757, -0.01328944 , 0.000231785 , 922.920044  , 31.9761486  , 780.8818    , 3.12        , 3           , 12          , 0.174645633 , 0
-0.125323683, 0.122128591 , -9.794964   , -0.000193457119, 9.1294E-05  , 0.000245973672, -0.013039723, -0.0132884961, 0.0002342328, 922.9139    , 31.9759464  , 780.8814    , 3.13        , 3           , 13          , 0           , 0
-0.136485487, 0.125900581 , -9.790469   , 0.000141203171, 0.000212735031, 0.000724128855, -0.0130384071, -0.0132862739, 0.000241446178, 922.9139    , 31.9759464  , 780.881042  , 3.14        , 3           , 14          , -0.000538813241, -0.000286486436
-0.127893418, 0.125177413 , -9.796308   , 0.000385016669, -0.000136899384, 0.00117039075, -0.0130347125, -0.013287493, 0.0002531677, 922.9139    , 31.9759464  , 780.8807    , 3.15        , 3           , 15          , 0           , 3.71226961E-05
-0.133931562, 0.126711532 , -9.794859   , 0.000135233044, -5.03529736E-05, 0.0008638845, -0.0130334767, -0.0132878814, 0.000261812878, 922.9139    , 31.9759464  , 780.8803    , 3.16        , 3           , 16          , 0           , 1.401298E-45
-0.133440211, 0.113810144 , -9.793828   , -0.0002104977, -0.0001469306, -0.000277128478, -0.0130355433, -0.0132893864, 0.000259060849, 922.9139    , 31.9759464  , 780.879944  , 3.17        , 3           , 20          , 0           , 0
-0.129320428, 0.120750263 , -9.795347   , -0.000179450784, -1.14831491E-05, -0.0005124637, -0.0130372709, -0.013289568, 0.0002539378, 922.9139    , 31.9759464  , 780.8796    , 3.18        , 3           , 21          , 0           , 0
-0.120320305, 0.116349265 , -9.802179   , 3.16624646E-05, 0.000131098481, 0.000109899804, -0.0130369682, -0.0132882437, 0.0002550197, 922.9139    , 31.9759464  , 780.8792    , 3.19        , 3           , 22          , 0           , 0
-0.136246532, 0.120719135 , -9.79245    , -0.000157210859, -0.000150136068, 0.00036578963, -0.01303859 , -0.0132896965, 0.000258697051, 922.9139    , 31.9759464  , 780.878845  , 3.2         , 3           , 40          , 0           , 0
-0.141400769, 0.129433319 , -9.793125   , 0.000245563628, 0.000232010454, 0.000182356613, -0.0130292717, -0.0132871512, 0.000260398869, 922.9139    , 31.9759464  , 780.8701    , 3.21        , 3           , 41          , 0           , 0
-0.135320559, 0.1270749   , -9.8002615  , -0.000450306572, -6.914543E-05, -0.000133919137, -0.0130337561, -0.01328786 , 0.0002590687, 922.9139    , 31.9759464  , 780.8697    , 3.22        , 3           , 42          , 0           , 0
-0.132537633, 0.12606521  , -9.787506   , 0.000221198978, 0.000158323848, -0.00111944426, -0.0130313952, -0.0132864248, 0.000247853866, 922.8805    , 31.9756737  , 780.869263  , 3.23        , 3           , 255         , 0           , 0
-0.127148151, 0.129431516 , -9.794851   , -0.000137899828, 3.589294E-05, -0.000103729726, -0.0130327614, -0.0132860793, 0.00024681192, 922.8805    , 31.9756737  , 780.868835  , 3.24        , 3           , 255         , 0           , 0
-0.125620857, 0.134818628 , -9.79267    , 3.87564069E-05, 0.0005038824, 0.000193339409, -0.0130323991, -0.0132810147, 0.0002486796, 922.8805    , 31.9756737  , 780.8684    , 3.25        , 3           , 255         , 0           , 0
-0.123819187, 0.128782779 , -9.794267   , -4.70429659E-05, 0.000216131739, -0.000128868152, -0.0130328527, -0.01327887 , 0.000247362768, 922.8805    , 31.9756737  , 780.868     , 3.26        , 3           , 255         , 0           , 0
-0.12578401 , 0.131210282 , -9.791618   , -0.000275814265, -7.420685E-05, -9.663751E-05, -0.0130355973, -0.0132796243, 0.000246406038, 922.8805    , 31.9756737  , 780.867554  , 3.27        , 3           , 255         , 0           , 0
-0.125752255, 0.132645682 , -9.793566   , 0.000335846125, -0.00022622227, -0.000440002128, -0.0130321812, -0.0132819433, 0.000242035632, 922.8805    , 31.9756737  , 780.8671    , 3.28        , 3           , 255         , 0           , 0
-0.130095035, 0.13425234  , -9.790543   , 8.70154763E-05, -0.000454847119, 0.0002698286, -0.0130313477, -0.0132864574, 0.000244793133, 922.8805    , 31.9756737  , 780.8667    , 3.29        , 3           , 255         , 0           , 0
-0.140771672, 0.130328268 , -9.794147   , 0.000263351365, -0.000129228079, 0.000409261673, -0.0130287679, -0.013287697, 0.0002489025, 922.8805    , 31.9756737  , 780.866333  , 3.3         , 3           , 255         , 0           , 0
-0.1340669  , 0.127459124 , -9.796845   , -0.0005673937, -5.91391E-05, -0.000449415762, -0.0130394846, -0.013289676, 0.000244483934, 922.8805    , 31.9756737  , 780.906555  , 3.31        , 3           , 255         , 0           , 0
-0.134515256, 0.140504181 , -9.795498   , -0.000390567759, 8.997871E-05, -0.0006199001, -0.0130433086, -0.0132888574, 0.000238273336, 922.8805    , 31.9756737  , 780.906433  , 3.32        , 3           , 255         , 0           , 0
-0.133962959, 0.13894853  , -9.797937   , -0.000435758149, 0.000133897556, 0.000335283868, -0.01304771 , -0.0132874744, 0.000241608635, 922.8779    , 31.9764881  , 780.9063    , 3.33        , 3           , 255         , 0           , 0
-0.135097951, 0.131590545 , -9.799658   , -0.000153398025, 0.000412660243, 0.000362129766, -0.0130492914, -0.0132833  , 0.000245176 , 922.8779    , 31.9764881  , 780.9062    , 3.34        , 3           , 255         , 0           , 0
-0.130591661, 0.130754262 , -9.789025   , 0.00034426045, 0.0003535443, 3.73857256E-06, -0.0130458483, -0.0132797649, 0.000245167263, 922.8779    , 31.9764881  , 780.906067  , 3.35        , 3           , 255         , 0           , 0
-0.134927243, 0.131200165 , -9.790815   , -4.876795E-05, 0.000122496436, -0.000591557, -0.0130462581, -0.0132786166, 0.000239235844, 922.8779    , 31.9764881  , 780.905945  , 3.36        , 3           , 255         , 0           , 0
-0.13672699 , 0.126086041 , -9.790376   , -0.000485780765, -0.000259792258, -0.0004941688, -0.0130510507, -0.0132812792, 0.000234328167, 922.8779    , 31.9764881  , 780.9058    , 3.37        , 3           , 255         , 0           , 0
-0.122240938, 0.125345737 , -9.803085   , -0.000185861019, -0.0005398771, -0.000138680422, -0.0130528919, -0.013286694, 0.00023301183, 922.8779    , 31.9764881  , 780.9057    , 3.38        , 3           , 255         , 0           , 0
-0.122680351, 0.118427612 , -9.801575   , -0.000120130251, 0.00022587803, -0.000225987911, -0.0130540635, -0.0132844653, 0.000230722522, 922.8779    , 31.9764881  , 780.9056    , 3.39        , 3           , 255         , 0           , 0
-0.131545544, 0.129011884 , -9.79172    , 9.314506E-06, 0.000281110377, -0.0005780274, -0.013053894, -0.0132817291, 0.000224905671, 922.8779    , 31.9764881  , 780.905457  , 3.4         , 3           , 255         , 0           , 0
-0.132611439, 0.125117064 , -9.787452   , 7.258495E-08, 6.995138E-05, -8.57012346E-05, -0.0130571919, -0.0132834129, 0.0002240835, 922.8779    , 31.9764881  , 780.944031  , 3.41        , 3           , 255         , 0           , 0
-0.132054552, 0.126660392 , -9.787486   , 0.0004109578, -0.000198337686, 0.00026674624, -0.0130531173, -0.0132853631, 0.000226776843, 922.8779    , 31.9764881  , 780.944153  , 3.42        , 3           , 255         , 0           , 0
-0.141499072, 0.1308128   , -9.795054   , 0.000258264074, 0.0004955848, 0.000871206168, -0.01305065 , -0.0132802948, 0.000235424013, 922.920166  , 31.9762173  , 780.9443    , 3.43        , 3           , 255         , 0           , 0
-0.131973326, 0.132242128 , -9.798792   , 0.000375408417, -3.23684944E-05, -0.000293494726, -0.013046857, -0.0132806571, 0.000232493359, 922.920166  , 31.9762173  , 780.9444    , 3.44        , 3           , 255         , 0           , 0
-0.130599976, 0.138729855 , -9.79854    , 0.0007960349, -7.433261E-05, -0.0004579568, -0.0130388364, -0.013281459, 0.0002279236, 922.920166  , 31.9762173  , 780.9445    , 3.45        , 3           , 255         , 0           , 0
-0.12650843 , 0.133178726 , -9.791073   , -7.565209E-05, 0.00037330616, -0.0002470019, -0.0130395573, -0.0132777579, 0.000225404961, 922.920166  , 31.9762173  , 780.944641  , 3.46        , 3           , 255         , 0           , 0
-0.142774343, 0.136007935 , -9.791213   , -4.26360639E-05, 0.000175023481, -0.000235482759, -0.0130399521, -0.0132760387, 0.000223027368, 922.920166  , 31.9762173  , 780.944763  , 3.47        , 3           , 255         , 0           , 0
-0.128345653, 0.12913993  , -9.7981     , -0.0003295208, 0.000191592815, 0.000102732578, -0.0130432611, -0.01327411 , 0.000224029674, 922.920166  , 31.9762173  , 780.9449    , 3.48        , 3           , 255         , 0           , 0
-0.122427441, 0.133635581 , -9.794372   , 4.606438E-05, 0.000144468824, 0.0009426055, -0.0130429249, -0.0132725416, 0.000233436687, 922.920166  , 31.9762173  , 780.945     , 3.49        , 3           , 255         , 0           , 0
-0.129791766, 0.127686083 , -9.796836   , -0.00039821252, 0.000675215444, 0.000442247 , -0.013046965, -0.0132657327, 0.000237770946, 922.920166  , 31.9762173  , 780.9451    , 3.5         , 3           , 255         , 0           , 0
-0.1302324  , 0.132288933 , -9.793817   , 8.732971E-05, 0.000402883947, -9.548978E-05, -0.01305221 , -0.013264739, 0.000236844877, 922.920166  , 31.9762173  , 780.918     , 3.51        , 3           , 255         , 0           , 0
-0.129867464, 0.125311449 , -9.790263   , -0.000389722642, 0.000335644349, 0.0002580944, -0.01305614 , -0.013261348, 0.00023938193, 922.920166  , 31.9762173  , 780.918     , 3.52        , 3           , 255         , 0           , 0
-0.12789458 , 0.121594928 , -9.789868   , -0.000397166237, -0.0003293529, -3.990206E-05, -0.013060106, -0.0132646477, 0.000239025918, 922.917     , 31.9766922  , 780.918     , 3.53        , 3           , 255         , 0           , 0
-0.12968798 , 0.123623706 , -9.800673   , 0.000132957037, 4.761992E-05, -0.000239289948, -0.0130587444, -0.0132642016, 0.00023662686, 922.917     , 31.9766922  , 780.918     , 3.54        , 3           , 255         , 0           , 0
-0.134962037, 0.124153472 , -9.798596   , 0.0001510808, 0.000241322647, 0.000238099718, -0.0130572654, -0.0132617569, 0.0002389763, 922.917     , 31.9766922  , 780.918     , 3.55        , 3           , 255         , 0           , 0
-0.139354557, 0.129582524 , -9.792479   , -0.0002430277, -2.300454E-05, 0.000141702942, -0.0130597139, -0.0132619683, 0.0002403963, 922.917     , 31.9766922  , 780.918     , 3.56        , 3           , 255         , 0           , 0
-0.13117367 , 0.127653152 , -9.799436   , -0.0001412346, -0.0002337539, 0.0004148959, -0.0130611807, -0.0132642528, 0.0002445757, 922.917     , 31.9766922  , 780.918     , 3.57        , 3           , 255         , 0           , 0
-0.13014999 , 0.137482047 , -9.797187   , 3.61436978E-05, -2.056043E-05, 0.00047811243, -0.0130608836, -0.0132643953, 0.000249359378, 922.917     , 31.9766922  , 780.918     , 3.58        , 3           , 255         , 0           , 0
-0.14141202 , 0.133254573 , -9.78949451 , -0.0002207337, 0.000340076716, -0.0004922309, -0.0130630247, -0.0132610584, 0.000244392781, 922.917     , 31.9766922  , 780.918     , 3.59        , 3           , 255         , 0           , 0
-0.13643077 , 0.138459384 , -9.79624    , -9.06583155E-05, 0.0004638002, -0.00081259507, -0.0130638229, -0.0132565266, 0.000236206412, 922.917     , 31.9766922  , 780.918     , 3.6         , 3           , 255         , 0           , 0
-0.134262636, 0.139900371 , -9.791151   , 0.0001584997, 0.00014226776, -0.000331181567, -0.0130644785, -0.0132602351, 0.000232906372, 922.917     , 31.9766922  , 780.899353  , 3.61        , 3           , 255         , 0           , 0
-0.135491878, 0.124946609 , -9.787203   , 0.00017962858, -0.0002076375, 5.96944155E-05, -0.0130626885, -0.0132623035, 0.00023353046, 922.917     , 31.9766922  , 780.899231  , 3.62        , 3           , 255         , 0           , 0
-0.12959303 , 0.118310593 , -9.793253   , -0.000149441534, -0.000138725212, -0.0002566937, -0.0130641516, -0.0132637247, 0.000230981663, 922.8964    , 31.9775734  , 780.8991    , 3.63        , 3           , 255         , 0           , 0
-0.123499334, 0.120195545 , -9.794192   , -0.0002897748, -3.875012E-05, 0.000234850886, -0.01306708 , -0.0132640814, 0.0002333352, 922.8964    , 31.9775734  , 780.899     , 3.64        , 3           , 255         , 0           , 0
-0.135609373, 0.121564828 , -9.805271   , -0.000509199861, 5.348178E-06, 0.000551932259, -0.0130722448, -0.0132639557, 0.0002388537, 922.8964    , 31.9775734  , 780.898865  , 3.65        , 3           , 255         , 0           , 0
-0.135854527, 0.133536056 , -9.797089   , -5.41956979E-05, 7.35704962E-05, 7.012875E-05, -0.0130727952, -0.0132632107, 0.000239545334, 922.8964    , 31.9775734  , 780.898743  , 3.66        , 3           , 255         , 0           , 0
-0.124976419, 0.136345536 , -9.80242348 , -0.0005985485, -0.0001391033, -0.0006871945, -0.0130786886, -0.01326469 , 0.000232691731, 922.8964    , 31.9775734  , 780.8986    , 3.67        , 3           , 255         , 0           , 0
-0.1391342  , 0.1208336   , -9.795081   , -0.000405065774, 5.174766E-05, 0.0001735622, -0.0130827613, -0.0132641494, 0.000234420513, 922.8964    , 31.9775734  , 780.8985    , 3.68        , 3           , 255         , 0           , 0
-0.135393947, 0.122041248 , -9.793211   , 0.000119582808, -3.313215E-05, -0.0006668208, -0.0130814789, -0.0132645685, 0.000227756813, 922.8964    , 31.9775734  , 780.8984    , 3.69        , 3           , 255         , 0           , 0
-0.130516186, 0.120215617 , -9.797928   , 8.42521E-05 , 8.181867E-05, 2.0207448E-05, -0.013080637, -0.013263748, 0.000227948171, 922.8964    , 31.9775734  , 780.898254  , 3.7         , 3           , 255         , 0           , 0
-0.132826969, 0.124271676 , -9.79208    , -0.000454021734, 0.0001682314, -0.00106833188, -0.0130816689, -0.0132659255, 0.000217198409, 922.8964    , 31.9775734  , 780.911743  , 3.71        , 3           , 255         , 0           , 0
-0.1368933  , 0.133870289 , -9.78863049 , -0.00033776724, 0.000267534633, -0.000817163, -0.0130849369, -0.0132633559, 0.000208991958, 922.8964    , 31.9775734  , 780.911743  , 3.72        , 3           , 255         , 0           , 0
-0.132826924, 0.13254     , -9.790632   , -0.000177879177, 0.000433434441, 0.000222801871, -0.0130867446, -0.0132589918, 0.00021116322, 922.8921    , 31.977438   , 780.911743  , 3.73        , 3           , 255         , 0           , 0
-0.136826456, 0.1310154   , -9.792167   , -3.23314453E-05, 2.85681162E-05, 0.000107546475, -0.0130870817, -0.0132586928, 0.000212234925, 922.8921    , 31.977438   , 780.911743  , 3.74        , 3           , 255         , 0           , 0
-0.141626567, 0.131182045 , -9.793939   , 1.10823894E-05, 0.000152063134, 0.000118136661, -0.0130869858, -0.0132571561, 0.000213396343, 922.8921    , 31.977438   , 780.911743  , 3.75        , 3           , 255         , 0           , 0
-0.129408479, 0.126951858 , -9.792287   , 0.000315082958, 0.0002780928, 0.000547139556, -0.0130839078, -0.0132543044, 0.000218831236, 922.8921    , 31.977438   , 780.911743  , 3.76        , 3           , 255         , 0           , 0
-0.128752723, 0.134027168 , -9.788967   , -0.000190536666, 0.000288708979, 6.22497537E-05, -0.0130858207, -0.01325141 , 0.000219415946, 922.8921    , 31.977438   , 780.911743  , 3.77        , 3           , 255         , 0           , 0
-0.133303553, 0.136287063 , -9.787278   , 4.923565E-05, 0.000254499057, 0.000133986352, -0.0130853448, -0.0132488478, 0.000220722475, 922.8921    , 31.977438   , 780.911743  , 3.78        , 3           , 255         , 0           , 0
-0.130562216, 0.133603737 , -9.791657   , 0.000203280186, 0.000482381758, 0.000261655223, -0.0130833471, -0.0132439928, 0.000223275856, 922.8921    , 31.977438   , 780.911743  , 3.79        , 3           , 255         , 0           , 0
-0.12946479 , 0.134941921 , -9.791137   , 0.000194707827, 0.0004350394, -0.000590993732, -0.0130813206, -0.01323972 , 0.000217309149, 922.8921    , 31.977438   , 780.911743  , 3.8         , 3           , 255         , 0           , 0
-0.143528655, 0.124533728 , -9.797571   , -6.741891E-05, 0.00019420372, 0.000218978137, -0.0130895935, -0.0132447025, 0.000219573732, 922.8921    , 31.977438   , 780.929565  , 3.81        , 3           , 255         , 0           , 0
-0.1323165  , 0.121881291 , -9.804071   , 0.00039767992, 0.0005351951, -0.000160728727, -0.0130855953, -0.0132393716, 0.00021789645, 922.8921    , 31.977438   , 780.9297    , 3.82        , 3           , 255         , 0           , 0
-0.132997319, 0.136646226 , -9.798705   , -0.00031094742, 0.000335629185, -0.0006256505, -0.0130886212, -0.0132360971, 0.000211596169, 922.892944  , 31.9770317  , 780.9298    , 3.83        , 3           , 255         , 0           , 0
-0.13408269 , 0.13943857  , -9.801168   , -0.000646920758, 0.000417291536, 0.000756779744, -0.0130951907, -0.0132318269, 0.000219109133, 922.892944  , 31.9770317  , 780.929932  , 3.84        , 3           , 255         , 0           , 0
-0.143704012, 0.13242124  , -9.791943   , -0.000396924966, 0.00021671431, 0.000655624433, -0.0130992457, -0.0132295713, 0.000225636846, 922.892944  , 31.9770317  , 780.930054  , 3.85        , 3           , 255         , 0           , 0
-0.136125773, 0.127472043 , -9.795074   , -0.00012532383, 0.0005418487, -8.577713E-05, -0.0131004881, -0.013224165, 0.0002247081, 922.892944  , 31.9770317  , 780.9302    , 3.86        , 3           , 255         , 0           , 0
-0.134665862, 0.125216469 , -9.791385   , 0.000274720922, 0.000215138716, -0.000556119659, -0.0130976671, -0.0132220862, 0.000219118854, 922.892944  , 31.9770317  , 780.9303    , 3.87        , 3           , 255         , 0           , 0
-0.132932812, 0.12366955  , -9.797413   , 0.0003988595, 0.0001928878, 0.000237787914, -0.01309371 , -0.0132201258, 0.000221471433, 922.892944  , 31.9770317  , 780.9304    , 3.88        , 3           , 255         , 0           , 0
-0.128801271, 0.128407046 , -9.794553   , 0.000370827 , 0.000406260951, 0.00057763  , -0.0130900778, -0.0132159917, 0.000227194425, 922.892944  , 31.9770317  , 780.930542  , 3.89        , 3           , 255         , 0           , 0
-0.1268424  , 0.123924777 , -9.792429   , 0.0003560362, 0.000105091909, 0.000236009146, -0.01308655 , -0.01321491 , 0.0002295407, 922.892944  , 31.9770317  , 780.930664  , 3.9         , 3           , 255         , 0           , 0
-0.13500905 , 0.129345864 , -9.801689   , 0.00011526086, -9.60115E-06, -3.26030422E-05, -0.0130854519, -0.0132218907, 0.000229216719, 922.892944  , 31.9770317  , 780.9445    , 3.91        , 3           , 255         , 0           , 0
-0.120843552, 0.1300079   , -9.800942   , 0.000507287 , -0.000124650134, -0.0001438024, -0.01308036 , -0.0132231554, 0.000227795055, 922.892944  , 31.9770317  , 780.9447    , 3.92        , 3           , 255         , 0           , 0
-0.127040923, 0.12215434  , -9.790333   , 0.0006342073, -0.000147286308, 0.000354378222, -0.0130740674, -0.01322458 , 0.000231358 , 922.870667  , 31.9778461  , 780.944946  , 3.93        , 3           , 255         , 0           , 0
-0.134566382, 0.1322478   , -9.802576   , 0.000484402466, -0.000123463571, 0.0003311384, -0.0130692674, -0.0132257715, 0.00023468546, 922.870667  , 31.9778461  , 780.9452    , 3.94        , 3           , 255         , 0           , 0
-0.1341816  , 0.1339092   , -9.797017   , 1.7843442E-05, 0.000378604862, -0.000162776589, -0.0130690662, -0.0132220108, 0.000233008235, 922.870667  , 31.9778461  , 780.945435  , 3.95        , 3           , 255         , 0           , 0
-0.121919058, 0.130285949 , -9.792317   , -5.29314857E-05, -0.000157353556, -0.000165463513, -0.0130695729, -0.0132236034, 0.000231374215, 922.870667  , 31.9778461  , 780.9457    , 3.96        , 3           , 255         , 0           , 0
-0.129741117, 0.129511446 , -9.798598   , -0.000239368412, 0.000105999192, 0.0004738297, -0.01307203 , -0.0132224821, 0.000236098553, 922.870667  , 31.9778461  , 780.9459    , 3.97        , 3           , 255         , 0           , 0
-0.132338718, 0.132403553 , -9.796188   , -0.0002523624, 0.000161763048, -0.0007154481, -0.0130744576, -0.0132209575, 0.000228923062, 922.870667  , 31.9778461  , 780.946167  , 3.98        , 3           , 255         , 0           , 0
-0.124715589, 0.123789951 , -9.789295   , 5.72706922E-05, 0.000151043409, -0.000176467991, -0.0130738616, -0.01321947 , 0.000227138662, 922.870667  , 31.9778461  , 780.9464    , 3.99        , 3           , 255         , 0           , 0
-0.1362661  , 0.130641967 , -9.791128   , -0.000137845811, -0.00027549066, 0.0003691819, -0.0130752884, -0.0132221766, 0.000230866412, 922.870667  , 31.9778461  , 780.946655  , 4           , 3           , 0           , 9.008237    , 400
-0.137185484, 0.130444124 , -9.79464    , -0.00014204724, -0.000100005651, -9.329223E-05, -0.01307866 , -0.0132233379, 0.00022997256, 922.870667  , 31.9778461  , 780.99      , 4.01        , 3           , 1           , 0           , 0
-0.121986285, 0.135145277 , -9.796117   , -2.50207377E-05, 0.0003343769, -0.0004005142, -0.0130788572, -0.0132200466, 0.0002259238, 922.870667  , 31.9778461  , 780.9905    , 4.02        , 3           , 2           , 0           , 0
-0.138937   , 0.1350753   , -9.788029   , 0.000291548815, -0.000165367674, -0.0007104492, -0.013075849, -0.0132217929, 0.000218841073, 922.8963    , 31.9779129  , 780.990967  , 4.03        , 3           , 3           , 0           , 0
-0.130856   , 0.124551654 , -9.791768   , 0.000424602942, 7.43062E-05 , -5.27876437E-05, -0.0130715957, -0.0132210571, 0.000218303525, 922.8963    , 31.9779129  , 780.991455  , 4.04        , 3           , 4           , 0           , 0
-0.124377206, 0.131529927 , -9.801469   , 0.00029814025, -3.53224168E-05, 0.000306232774, -0.0130686555, -0.01322137 , 0.0002213704, 922.8963    , 31.9779129  , 780.991943  , 4.05        , 3           , 5           , 0           , 0
-0.127315924, 0.1317915   , -9.794642   , 0.000220463728, 0.000145903439, -0.0001907059, -0.013066425, -0.0132199368, 0.000219444322, 922.8963    , 31.9779129  , 780.992432  , 4.06        , 3           , 6           , 0           , 0
-0.135253519, 0.131654635 , -9.794901   , -0.000280445442, 0.0002610024, -0.000414344831, -0.0130691752, -0.0132173812, 0.00021526686, 922.8963    , 31.9779129  , 780.9929    , 4.07        , 3           , 7           , 0           , 0
-0.140978247, 0.128341749 , -9.79534    , 2.88111623E-05, 0.000107854677, -0.0005237263, -0.0130688176, -0.0132163716, 0.000210015627, 922.8963    , 31.9779129  , 780.9934    , 4.08        , 3           , 8           , 5           , 5
-0.135673717, 0.126854181 , -9.792773   , -2.14070315E-05, -0.0001836922, 0.000697642856, -0.0130691249, -0.0132181169, 0.000217015884, 922.8963    , 31.9779129  , 780.9939    , 4.09        , 3           , 9           , 5           , 0.1
-0.1328803  , 0.1324238   , -9.797209   , -0.000418701558, 0.0003637637, -3.054916E-05, -0.0130733056, -0.0132144839, 0.00021666284, 922.8963    , 31.9779129  , 780.9944    , 4.1         , 3           , 10          , 0.1         , 0.1
-0.138624564, 0.130470678 , -9.790268   , 8.138351E-05, -0.000257699634, -0.00046434204, -0.013076555, -0.0132216457, 0.000212107741, 922.8963    , 31.9779129  , 780.9946    , 4.11        , 3           , 11          , 0.00699738646, 0.00699738227
-0.130612388, 0.133951917 , -9.789334   , -4.86415229E-05, -0.000231001235, -9.232722E-05, -0.01307703 , -0.0132239675, 0.00021121469, 922.8963    , 31.9779129  , 780.9951    , 4.12        , 3           , 12          , 0.174648076 , 0
-0.12754634 , 0.127396628 , -9.79086    , -0.000442112621, -8.976107E-05, -8.35841347E-05, -0.01308144 , -0.0132248746, 0.0002103906, 922.9035    , 31.976963   , 780.9956    , 4.13        , 3           , 13          , 0           , 0
-0.133381441, 0.1293941   , -9.797438   , 7.04765553E-05, 0.000235463114, -2.70900855E-05, -0.0130807292, -0.0132225249, 0.0002100889, 922.9035    , 31.976963   , 780.996155  , 4.14        , 3           , 14          , -0.000538684, -0.0002862747
-0.146938533, 0.133363515 , -9.799402   , 0.0004027681, 2.54128827E-06, 0.00013456904, -0.0130767208, -0.0132224821, 0.000211434221, 922.9035    , 31.976963   , 780.9967    , 4.15        , 3           , 15          , 0           , 3.71237475E-05
-0.137370616, 0.132768467 , -9.786403   , -8.695159E-05, -9.420232E-05, -0.0005887587, -0.0130775115, -0.0132235009, 0.000205559118, 922.9035    , 31.976963   , 780.997253  , 4.16        , 3           , 16          , 0           , 1.401298E-45
-0.137124613, 0.122598805 , -9.79393    , 2.60700472E-06, -0.00018054375, -1.68025854E-05, -0.0130774844, -0.0132253077, 0.00020541469, 922.9035    , 31.976963   , 780.9978    , 4.17        , 3           , 20          , 0           , 0
-0.132054329, 0.126121372 , -9.787488   , -0.000523161667, 0.000114448456, 0.000889333431, -0.013082834, -0.0132240495, 0.000214292857, 922.9035    , 31.976963   , 780.998352  , 4.18        , 3           , 21          , 0           , 0
-0.125019863, 0.121234059 , -9.784989   , 5.15739957E-05, -0.000347439083, 0.000274050777, -0.0130823553, -0.0132274851, 0.000217078734, 922.9035    , 31.976963   , 780.9989    , 4.19        , 3           , 22          , 0           , 0
-0.139372557, 0.118266441 , -9.794193   , -0.000152722583, -0.000168526662, 0.000330048031, -0.0130839255, -0.013229127, 0.000220401169, 922.9035    , 31.976963   , 780.999451  , 4.2         , 3           , 40          , 0           , 0
-0.139650315, 0.126663685 , -9.792317   , 0.000160775409, -5.86745155E-05, -0.0003770205, -0.0130813345, -0.0132395746, 0.000216626373, 922.9035    , 31.976963   , 780.9886    , 4.21        , 3           , 41          , 0           , 0
-0.136405259, 0.130410641 , -9.787302   , 0.000281453715, 0.000101685437, 0.0004802788, -0.0130785834, -0.0132384952, 0.000221415758, 922.9035    , 31.976963   , 780.9891    , 4.22        , 3           , 42          , 0           , 0
-0.13844423 , 0.128859133 , -9.792799   , -0.000292492332, -0.000163497287, -0.000147051935, -0.0130814891, -0.01324015 , 0.000219966649, 922.8699    , 31.977438   , 780.989563  , 4.23        , 3           , 255         , 0           , 0
-0.127632946, 0.128707737 , -9.795595   , -0.000406448729, 4.85561468E-05, 0.0005834732, -0.01308563 , -0.0132395877, 0.000225794909, 922.8699    , 31.977438   , 780.990051  , 4.24        , 3           , 255         , 0           , 0
-0.127274156, 0.127551243 , -9.793517   , 0.000343506428, 8.87364149E-06, 0.0001510349, -0.0130822156, -0.01323948 , 0.000227304059, 922.8699    , 31.977438   , 780.99054   , 4.25        , 3           , 255         , 0           , 0
-0.133892074, 0.126823619 , -9.786367   , 0.000170034182, 0.000114480586, -0.000395047478, -0.0130804619, -0.0132383872, 0.00022333872, 922.8699    , 31.977438   , 780.991     , 4.26        , 3           , 255         , 0           , 0
-0.126036867, 0.12310259  , -9.790037   , 0.0002800563, -0.0003279948, -0.0001671369, -0.01307764 , -0.0132416887, 0.0002217103, 922.8699    , 31.977438   , 780.9915    , 4.27        , 3           , 255         , 0           , 0
-0.13098368 , 0.1217226   , -9.798797   , 0.00109390868, -6.679981E-05, 0.000825920957, -0.0130668115, -0.0132422512, 0.000229978032, 922.8699    , 31.977438   , 780.992     , 4.28        , 3           , 255         , 0           , 0
-0.131343275, 0.133136258 , -9.799423   , 0.0007800159, 0.000186694117, 0.0002783531, -0.013059048, -0.0132403467, 0.000232737118, 922.8699    , 31.977438   , 780.9925    , 4.29        , 3           , 255         , 0           , 0
-0.132013351, 0.1246477   , -9.793735   , 0.0003408214, 7.891905E-05, 3.163243E-05, -0.0130556431, -0.0132395532, 0.000233043116, 922.8699    , 31.977438   , 780.993     , 4.3         , 3           , 255         , 0           , 0
-0.136845112, 0.133558393 , -9.799278   , -7.389899E-05, 0.000329753442, -0.000219517824, -0.0130547713, -0.0132406643, 0.000230784019, 922.8699    , 31.977438   , 781.030457  , 4.31        , 3           , 255         , 0           , 0
-0.135536522, 0.135984689 , -9.803384   , 0.0001278792, 0.000606032554, -0.000247630669, -0.0130534582, -0.0132346377, 0.000228228673, 922.8699    , 31.977438   , 781.0312    , 4.32        , 3           , 255         , 0           , 0
-0.140123218, 0.129791841 , -9.795097   , -0.000477442576, 0.000303542969, -0.00075022527, -0.0130581325, -0.0132317012, 0.000220686954, 922.8967    , 31.975132   , 781.0319    , 4.33        , 3           , 255         , 0           , 0
-0.122783124, 0.128434867 , -9.796294   , 1.82327931E-05, 3.545184E-05, -0.000304176472, -0.013057909, -0.0132313864, 0.000217640627, 922.8967    , 31.975132   , 781.032654  , 4.34        , 3           , 255         , 0           , 0
-0.1332103  , 0.134184718 , -9.79505    , -6.37274934E-06, 0.000249027624, -0.0007051111, -0.0130578792, -0.0132289883, 0.000210557148, 922.8967    , 31.975132   , 781.0334    , 4.35        , 3           , 255         , 0           , 0
-0.131670669, 0.131831691 , -9.789206   , -0.00016807433, -7.922112E-05, -0.00062906486, -0.0130594764, -0.0132298628, 0.000204276992, 922.8967    , 31.975132   , 781.0341    , 4.36        , 3           , 255         , 0           , 0
-0.128274873, 0.125708237 , -9.792608   , 0.000316600315, -0.000135121663, -0.0003104955, -0.0130562708, -0.0132312551, 0.00020118976, 922.8967    , 31.975132   , 781.034851  , 4.37        , 3           , 255         , 0           , 0
-0.129831284, 0.128765732 , -9.797596   , -4.174246E-05, 0.000174632354, -0.000307514216, -0.013056647, -0.0132295489, 0.000198091875, 922.8967    , 31.975132   , 781.0356    , 4.38        , 3           , 255         , 0           , 0
-0.13271448 , 0.121685669 , -9.799665   , -2.94278143E-05, 7.610052E-05, 0.000836054562, -0.0130570512, -0.0132286781, 0.000206442288, 922.8967    , 31.975132   , 781.0363    , 4.39        , 3           , 255         , 0           , 0
-0.135646969, 0.137472659 , -9.795148   , 0.000524322561, -0.00021337127, 0.0005523756, -0.0130518815, -0.01323074 , 0.000211993785, 922.8967    , 31.975132   , 781.037048  , 4.4         , 3           , 255         , 0           , 0
-0.1372281  , 0.13184233  , -9.796605   , 5.626568E-05, -7.021436E-05, -0.000134480215, -0.01305496 , -0.0132354116, 0.000210706625, 922.8967    , 31.975132   , 781.0303    , 4.41        , 3           , 255         , 0           , 0
-0.139393419, 0.122467577 , -9.79439    , 0.00019034362, -0.000457697985, -0.000370926631, -0.0130530084, -0.0132400366, 0.0002070572, 922.8967    , 31.975132   , 781.030945  , 4.42        , 3           , 255         , 0           , 0
-0.127237216, 0.118558489 , -9.795171   , 0.0006574608, -0.0002470412, -0.000207309582, -0.0130464081, -0.0132425344, 0.000205016375, 922.884949  , 31.9745884  , 781.0316    , 4.43        , 3           , 255         , 0           , 0
-0.127571419, 0.126789033 , -9.793593   , 0.000779809 , -0.0002883702, -0.0001313501, -0.0130385933, -0.0132454336, 0.0002037405, 922.884949  , 31.9745884  , 781.0323    , 4.44        , 3           , 255         , 0           , 0
-0.138510138, 0.132586464 , -9.788722   , -0.000447955681, -0.000276280654, -0.000341386476, -0.0130430283, -0.0132482406, 0.00020036276, 922.884949  , 31.9745884  , 781.032959  , 4.45        , 3           , 255         , 0           , 0
-0.136681065, 0.130721122 , -9.793562   , 2.13754247E-05, -0.000153500034, -0.000718342, -0.0130427191, -0.0132498685, 0.000193199521, 922.884949  , 31.9745884  , 781.0336    , 4.46        , 3           , 255         , 0           , 0
-0.1316435  , 0.130688369 , -9.793463   , 7.83181749E-05, 0.000210534665, -0.0006478468, -0.0130418492, -0.0132478485, 0.000186693738, 922.884949  , 31.9745884  , 781.0343    , 4.47        , 3           , 255         , 0           , 0
-0.1332022  , 0.1304059   , -9.79241848 , 0.000183541648, 7.90482154E-05, -0.00016085431, -0.0130399931, -0.0132470792, 0.000185074925, 922.884949  , 31.9745884  , 781.035     , 4.48        , 3           , 255         , 0           , 0
-0.1345695  , 0.12970753  , -9.796746   , -0.000877451967, 0.000211255276, -0.000342285784, -0.0130487215, -0.0132450135, 0.000181624579, 922.884949  , 31.9745884  , 781.035645  , 4.49        , 3           , 255         , 0           , 0
-0.130104691, 0.121960357 , -9.796587   , -3.343937E-05, 0.000125817489, -3.93610135E-05, -0.0130490512, -0.0132437591, 0.000181214564, 922.884949  , 31.9745884  , 781.0363    , 4.5         , 3           , 255         , 0           , 0
-0.139104262, 0.127438545 , -9.789344   , 0.000322602456, 0.000204916869, 0.0002917533, -0.0130456248, -0.013247326, 0.000184102129, 922.884949  , 31.9745884  , 781.0462    , 4.51        , 3           , 255         , 0           , 0
-0.131602719, 0.125408426 , -9.792916   , 0.000558246858, 0.000413521717, -6.08679366E-05, -0.0130400341, -0.0132431984, 0.000183439537, 922.884949  , 31.9745884  , 781.046936  , 4.52        , 3           , 255         , 0           , 0
-0.1303381  , 0.1243871   , -9.79282951 , 0.000127180479, -0.000404080027, 0.000443156634, -0.0130388224, -0.0132471807, 0.0001879237, 922.8926    , 31.9768276  , 781.047668  , 4.53        , 3           , 255         , 0           , 0
-0.132257462, 0.1240736   , -9.794832   , 0.0002007127, 0.000133236244, 0.000140748452, -0.0130368341, -0.01324583 , 0.000189313767, 922.8926    , 31.9768276  , 781.0484    , 4.54        , 3           , 255         , 0           , 0
-0.132921591, 0.126725689 , -9.792335   , 0.000101873244, 5.87285758E-05, 4.88607548E-05, -0.0130358217, -0.0132452371, 0.000189794708, 922.8926    , 31.9768276  , 781.049133  , 4.55        , 3           , 255         , 0           , 0
-0.12306048 , 0.127098128 , -9.788401   , -2.09796126E-05, 0.0005311118, 0.0003304524, -0.0130360741, -0.0132398857, 0.000193029933, 922.8926    , 31.9768276  , 781.049866  , 4.56        , 3           , 255         , 0           , 0
-0.142594263, 0.1277633   , -9.794985   , 2.1104177E-05, 0.000315695623, 0.000207847508, -0.0130358888, -0.0132367015, 0.000195067216, 922.8926    , 31.9768276  , 781.0506    , 4.57        , 3           , 255         , 0           , 0
-0.142025992, 0.1280308   , -9.79816151 , 0.000338790356, -0.000253131322, -0.00013962097, -0.0130324839, -0.0132392505, 0.000193704022, 922.8926    , 31.9768276  , 781.0514    , 4.58        , 3           , 255         , 0           , 0
-0.134513661, 0.123448454 , -9.790275   , 6.362607E-05, 3.951398E-06, 0.000239762448, -0.0130318794, -0.0132391807, 0.000196101086, 922.8926    , 31.9768276  , 781.0522    , 4.59        , 3           , 255         , 0           , 0
-0.126050353, 0.124510311 , -9.787729   , 0.0001681869, 0.0003484392, 9.410663E-05, -0.0130302086, -0.0132356836, 0.000196996712, 922.8926    , 31.9768276  , 781.053     , 4.6         , 3           , 255         , 0           , 0
-0.137024477, 0.116814137 , -9.79201    , 2.23950483E-05, 4.82875039E-05, 0.00065678294, -0.0130271362, -0.01324129 , 0.00020351923, 922.8926    , 31.9768276  , 781.0496    , 4.61        , 3           , 255         , 0           , 0
-0.136220843, 0.1318588   , -9.79517651 , 6.02993241E-05, -0.000190019578, 3.34841679E-05, -0.0130265383, -0.0132431872, 0.000203878808, 922.8926    , 31.9768276  , 781.050354  , 4.62        , 3           , 255         , 0           , 0
-0.129384309, 0.135640219 , -9.796061   , -2.2466993E-06, -0.0001788084, 0.000148923456, -0.0130265811, -0.0132449549, 0.00020539129, 922.8573    , 31.9768963  , 781.0511    , 4.63        , 3           , 255         , 0           , 0
-0.131839991, 0.130458325 , -9.790266   , -3.07004666E-06, -8.151156E-05, -0.000159020085, -0.0130265914, -0.01324579 , 0.000203811753, 922.8573    , 31.9768963  , 781.0518    , 4.64        , 3           , 255         , 0           , 0
-0.1383569  , 0.127767771 , -9.795254   , 0.000224306539, -7.36322254E-05, -0.000104218721, -0.0130243348, -0.01324654 , 0.000202779192, 922.8573    , 31.9768963  , 781.052551  , 4.65        , 3           , 255         , 0           , 0
-0.1290739  , 0.126784965 , -9.792325   , 0.000396518357, 0.000121783945, 0.000236559776, -0.0130204028, -0.013245292, 0.00020512889, 922.8573    , 31.9768963  , 781.0533    , 4.66        , 3           , 255         , 0           , 0
-0.133178383, 0.13543418  , -9.796961   , 6.138519E-05, 0.0007336242, -0.000510388869, -0.0130197182, -0.0132380258, 0.000199929607, 922.8573    , 31.9768963  , 781.054     , 4.67        , 3           , 255         , 0           , 0
-0.133579284, 0.14101705  , -9.800275   , -0.000375621836, 0.000274427759, 0.000275594153, -0.0130235115, -0.0132352449, 0.000202649753, 922.8573    , 31.9768963  , 781.054749  , 4.68        , 3           , 255         , 0           , 0
-0.128074855, 0.134983942 , -9.792812   , 0.0003390754, 0.000460336072, 0.0005823889, -0.0130201969, -0.013230565, 0.000208413578, 922.8573    , 31.9768963  , 781.0555    , 4.69        , 3           , 255         , 0           , 0
-0.136084408, 0.122414552 , -9.794249   , 0.00101459038, 0.0004215207, -3.09145144E-05, -0.0130100464, -0.0132263564, 0.000208049547, 922.8573    , 31.9768963  , 781.0562    , 4.7         , 3           , 255         , 0           , 0
-0.132996961, 0.131520256 , -9.791916   , 0.000111582864, 7.870961E-05, 0.000181793963, -0.0130127538, -0.0132304393, 0.000209907477, 922.8573    , 31.9768963  , 781.102234  , 4.71        , 3           , 255         , 0           , 0
-0.135602236, 0.135998324 , -9.792346   , 5.235459E-05, 0.000254227838, -0.0002185469, -0.0130122006, -0.0132279256, 0.000207689 , 922.8573    , 31.9768963  , 781.1033    , 4.72        , 3           , 255         , 0           , 0
-0.1357977  , 0.125864014 , -9.790453   , -0.00015242619, 0.00048616837, 0.000123846912, -0.013013741, -0.0132230492, 0.000208864192, 922.8765    , 31.9792023  , 781.1043    , 4.73        , 3           , 255         , 0           , 0
-0.137327939, 0.118621409 , -9.794161   , -0.000100337376, -4.668141E-05, 0.0001778295, -0.0130147683, -0.0132234935, 0.000210648534, 922.8765    , 31.9792023  , 781.105347  , 4.74        , 3           , 255         , 0           , 0
-0.1334959  , 0.12075913  , -9.792586   , -0.0001808143, 8.634821E-05, -4.098818E-05, -0.0130165694, -0.0132226348, 0.000210227387, 922.8765    , 31.9792023  , 781.1064    , 4.75        , 3           , 255         , 0           , 0
-0.125992343, 0.122557476 , -9.787158   , -0.0005161803, 9.330921E-05, -0.00030530052, -0.01302169 , -0.0132217426, 0.000207162288, 922.8765    , 31.9792023  , 781.1074    , 4.76        , 3           , 255         , 0           , 0
-0.128491536, 0.125460982 , -9.790063   , 0.000139520329, -0.000110135152, -0.000190821738, -0.01302027 , -0.0132228686, 0.000205268458, 922.8765    , 31.9792023  , 781.108459  , 4.77        , 3           , 255         , 0           , 0
-0.130742833, 0.123472653 , -9.791287   , -8.991116E-05, 0.000223920259, 0.0004116823, -0.0130212223, -0.0132205756, 0.000209356032, 922.8765    , 31.9792023  , 781.1095    , 4.78        , 3           , 255         , 0           , 0
-0.123442009, 0.124316551 , -9.800371   , 0.00033127924, 8.47451156E-05, -0.000719082833, -0.0130178146, -0.0132198213, 0.000202154333, 922.8765    , 31.9792023  , 781.110535  , 4.79        , 3           , 255         , 0           , 0
-0.136219233, 0.125428542 , -9.795637   , 0.000293660269, -0.000263471942, -0.000339267077, -0.0130148334, -0.0132225007, 0.000198796057, 922.8765    , 31.9792023  , 781.1116    , 4.8         , 3           , 255         , 0           , 0
-0.139121711, 0.127044767 , -9.79648    , -0.000279104745, 3.021938E-05, 7.853581E-05, -0.013014392, -0.0132261217, 0.000199534552, 922.8765    , 31.9792023  , 781.122559  , 4.81        , 3           , 255         , 0           , 0
-0.136091381, 0.132525787 , -9.80285    , 0.0003582044, -0.000136501039, -0.000342752377, -0.0130107654, -0.0132275317, 0.000196124878, 922.8765    , 31.9792023  , 781.123657  , 4.82        , 3           , 255         , 0           , 0
-0.136578634, 0.12885496  , -9.790036   , 0.0003250018, -5.76677267E-05, 1.45570666E-05, -0.013007517, -0.0132281063, 0.00019627795, 922.8529    , 31.9784565  , 781.124756  , 4.83        , 3           , 255         , 0           , 0
-0.141194269, 0.124730885 , -9.793117   , 3.915635E-05, -0.000422744459, -0.0002495175, -0.0130070923, -0.0132323671, 0.000193837826, 922.8529    , 31.9784565  , 781.125854  , 4.84        , 3           , 255         , 0           , 0
-0.128897235, 0.120661475 , -9.797114   , 0.000115861592, 0.000238231762, 0.0005051607, -0.0130060008, -0.0132299177, 0.000198858339, 922.8529    , 31.9784565  , 781.126953  , 4.85        , 3           , 255         , 0           , 0
-0.120306335, 0.127613068 , -9.8021     , 0.000494317734, 0.00011697803, 0.000132797664, -0.013001075, -0.0132287312, 0.000200171053, 922.8529    , 31.9784565  , 781.1281    , 4.86        , 3           , 255         , 0           , 0
-0.121794783, 0.124602877 , -9.8032     , -0.000181629439, 4.558271E-06, 7.372338E-05, -0.0130029013, -0.0132286763, 0.000200907685, 922.8529    , 31.9784565  , 781.1293    , 4.87        , 3           , 255         , 0           , 0
-0.131532162, 0.125464886 , -9.801966   , -1.405942E-05, 0.000355911325, -0.000233034138, -0.01300301 , -0.0132251475, 0.000198531125, 922.8529    , 31.9784565  , 781.130432  , 4.88        , 3           , 255         , 0           , 0
-0.133104488, 0.127110571 , -9.798594   , -8.44626338E-05, 0.000382520549, 3.058054E-05, -0.0130038578, -0.0132213188, 0.00019878718, 922.8529    , 31.9784565  , 781.1316    , 4.89        , 3           , 255         , 0           , 0
-0.1260113  , 0.124524727 , -9.794493   , -0.000128510816, 2.02975061E-05, 0.0008876493, -0.01300526 , -0.0132210013, 0.000207660836, 922.8529    , 31.9784565  , 781.132751  , 4.9         , 3           , 255         , 0           , 0
-0.118616447, 0.121821463 , -9.7962265  , 0.00027332484, -7.691939E-06, 0.000252988742, -0.0130012929, -0.0132230725, 0.000210174927, 922.8529    , 31.9784565  , 781.1739    , 4.91        , 3           , 255         , 0           , 0
-0.129325449, 0.128500074 , -9.803563   , -0.000197622692, 0.000227099663, -0.000173789085, -0.0130032459, -0.0132208243, 0.000208407539, 922.8529    , 31.9784565  , 781.1753    , 4.92        , 3           , 255         , 0           , 0
-0.135882661, 0.131447226 , -9.793785   , 0.000452508626, 0.000204605356, -0.000368939334, -0.0129986741, -0.0132188294, 0.00020469162, 922.903931  , 31.9793377  , 781.1767    , 4.93        , 3           , 255         , 0           , 0
-0.137501091, 0.124258742 , -9.788017   , 0.000340120925, 5.75199374E-06, 0.000198465743, -0.0129952971, -0.0132187437, 0.0002066755, 922.903931  , 31.9793377  , 781.1781    , 4.94        , 3           , 255         , 0           , 0
-0.128439918, 0.130515918 , -9.798395   , -0.000260056462, 0.00040545722, 0.000255658815, -0.0129979309, -0.0132146571, 0.000209179343, 922.903931  , 31.9793377  , 781.1795    , 4.95        , 3           , 255         , 0           , 0
-0.133782461, 0.136150211 , -9.79305649 , -0.000410520646, -0.000232864317, 0.000767128135, -0.0130021377, -0.0132168857, 0.000216880711, 922.903931  , 31.9793377  , 781.1809    , 4.96        , 3           , 255         , 0           , 0
-0.1319041  , 0.131524533 , -9.793461   , 0.000441543467, -0.000157233735, -0.000134390371, -0.0129977036, -0.0132184755, 0.0002155573, 922.903931  , 31.9793377  , 781.1823    , 4.97        , 3           , 255         , 0           , 0
-0.124174893, 0.129137665 , -9.795231   , -0.000211637933, -0.000444398931, -0.000518045155, -0.0129997535, -0.0132229878, 0.000210434708, 922.903931  , 31.9793377  , 781.1837    , 4.98        , 3           , 255         , 0           , 0
-0.122486725, 0.124146484 , -9.789913   , 1.64968078E-05, 0.00013759057, -0.00121117779, -0.0129994284, -0.0132217715, 0.000198305308, 922.903931  , 31.9793377  , 781.1851    , 4.99        , 3           , 255         , 0           , 0
-0.1355547  , 0.118876792 , -9.791118   , -0.000794002844, 0.000139455078, -0.0005778448, -0.01300729 , -0.01322045 , 0.000192508858, 922.903931  , 31.9793377  , 781.1865    , 5           , 3           , 0           , -1          , 500
-0.133805558, 0.128928855 , -9.78861    , 0.000196914712, 0.0002929899, 0.000287859846, -0.01300582 , -0.0132179009, 0.000195355373, 922.903931  , 31.9793377  , 781.147644  , 5.01        , 3           , 1           , 0           , 0
-0.142607361, 0.129130945 , -9.800054   , 8.57479754E-05, -0.00018386275, -0.0001211364, -0.0130049465, -0.0132197561, 0.000194167951, 922.903931  , 31.9793377  , 781.1488    , 5.02        , 3           , 2           , 0           , 0
-0.1416738  , 0.125414684 , -9.791479   , -0.000498349953, -0.000292867626, -0.0003149952, -0.0130098891, -0.0132227233, 0.00019105614, 922.8949    , 31.97676    , 781.149963  , 5.03        , 3           , 3           , 0           , 0
-0.137531221, 0.137179568 , -9.797987   , -0.000309956726, -7.151763E-05, 0.000161643111, -0.013013009, -0.013223418, 0.000192681851, 922.8949    , 31.97676    , 781.1511    , 5.04        , 3           , 4           , 0           , 0
-0.135276482, 0.132271558 , -9.796573   , 0.0007305571, 0.000142088436, -0.0004922691, -0.0130056376, -0.013222062, 0.000187740792, 922.8949    , 31.97676    , 781.1523    , 5.05        , 3           , 5           , 0           , 0
-0.137922138, 0.131013528 , -9.791755   , -0.000122602971, 1.90396677E-05, -0.0005060661, -0.0130067961, -0.0132219372, 0.000182677744, 922.8949    , 31.97676    , 781.153442  , 5.06        , 3           , 6           , 0           , 0
-0.132242069, 0.128294155 , -9.795398   , -0.000277769461, 5.803276E-05, -0.0005568108, -0.0130095007, -0.01322143 , 0.000177102193, 922.8949    , 31.97676    , 781.1546    , 5.07        , 3           , 7           , 0           , 0
-0.129646555, 0.122263707 , -9.799189   , 0.000117957359, 0.000114263719, -0.000327065063, -0.0130082779, -0.0132203288, 0.000173816763, 922.8949    , 31.97676    , 781.155762  , 5.08        , 3           , 8           , 5           , 5
-0.134328142, 0.120306239 , -9.798494   , -0.0004497121, -3.56398523E-05, 0.000401917845, -0.0130128274, -0.0132206343, 0.0001778405, 922.8949    , 31.97676    , 781.1569    , 5.09        , 3           , 9           , 5           , 0.1
