Acc X       , Acc Y       , Acc Z       , Gyro X      , Gyro Y      , Gyro Z      , Euler X     , Euler Y     , Euler Z     , Pres X      , Pres Y      , Pres Z      , Time        , Status      , LowRate X   , LowRate Y   , LowRate Z    
-0.120443091, 0.133419722 , -9.785523   , 0           , 0           , 0           , -0.0136335539, -0.0123065282, 0           , 923.0824    , 31.6581745  , 779.3152    , 0           , 2           , 0           , 5.01423168  , 0
-0.122887768, 0.13452068  , -9.79998    , 0.000167520251, 8.83241E-05 , -0.000353429525, -0.0136318533, -0.0123054683, -3.54618464E-06, 923.0824    , 31.6581745  , 779.3152    , 0.01        , 3           , 1           , 0           , 0
-0.128033489, 0.132304758 , -9.79157448 , -3.82720755E-05, -9.812336E-05, -0.000970563153, -0.0136321168, -0.0123065813, -1.323803E-05, 923.0824    , 31.6581745  , 779.3152    , 0.02        , 3           , 2           , 0           , 0
-0.128106788, 0.130814761 , -9.798933   , 0.000318645965, 7.19367745E-05, 0.0004322547, -0.0136289857, -0.0123058017, -8.925461E-06, 923.0458    , 31.2226276  , 779.3152    , 0.03        , 3           , 3           , 0           , 0
-0.122524366, 0.134084865 , -9.795912   , -0.0006701333, 0.000142172052, 0.000233712708, -0.0136357155, -0.0123043479, -6.60781961E-06, 923.0458    , 31.2226276  , 779.3152    , 0.04        , 3           , 4           , 0           , 0
-0.125733346, 0.123838231 , -9.794959   , -2.49876321E-05, -0.000220447371, 0.000320554856, -0.0136360032, -0.01230651 , -3.372349E-06, 923.0458    , 31.2226276  , 779.3152    , 0.05        , 3           , 5           , 0           , 0
-0.120385505, 0.131726027 , -9.795812   , 0.000107118045, -3.15967372E-05, 0.0005893447, -0.0136350058, -0.0123067452, 2.52515952E-06, 923.0458    , 31.2226276  , 779.3152    , 0.06        , 3           , 6           , 0           , 0
-0.128122345, 0.137984246 , -9.796468   , -0.000121787438, 0.000474139553, 0.0005009856, -0.0136362845, -0.0123019358, 7.47015838E-06, 923.0458    , 31.2226276  , 779.3152    , 0.07        , 3           , 7           , 0           , 0
-0.124889553, 0.134752914 , -9.805159   , 0.000413719681, 0.000662457 , 0.0005356795, -0.0136322128, -0.0122952415, 1.27364128E-05, 923.0458    , 31.2226276  , 779.3152    , 0.08        , 3           , 8           , 5           , 5
-0.116927288, 0.130780846 , -9.795618   , 0.0005434265, 0.0003119503, -0.000499479647, -0.013626717, -0.0122921895, 7.699301E-06, 923.0458    , 31.2226276  , 779.3152    , 0.09        , 3           , 9           , 5           , 0.1
-0.124517024, 0.132655546 , -9.797675   , 0.0004705378, -0.00024843702, 5.47139462E-05, -0.0136220194, -0.0122946659, 8.280265E-06, 923.0458    , 31.2226276  , 779.3152    , 0.1         , 3           , 10          , 0.1         , 0.1
-0.131083071, 0.135997921 , -9.798935   , -3.19404935E-05, -7.3828116E-05, 0.000154370049, -0.0136184311, -0.0123067517, 9.785616E-06, 923.0458    , 31.2226276  , 779.6456    , 0.11        , 3           , 11          , 0.0109544508, 0.0109544508
-0.127589673, 0.136448026 , -9.799314   , 9.078774E-05, -8.45567556E-05, -8.001016E-05, -0.0136175137, -0.0123076085, 8.997061E-06, 923.0458    , 31.2226276  , 779.6456    , 0.12        , 3           , 12          , 0.174642488 , 0
-0.118047394, 0.137345478 , -9.788913   , 0.000389162858, 0.0003742379, -0.000185383615, -0.0136135994, -0.01230389 , 7.092355E-06, 923.0387    , 31.2617054  , 779.6456    , 0.13        , 3           , 13          , 0           , 0
-0.110475883, 0.128744274 , -9.787871   , 0.000477967435, 0.0003790993, 0.000339212216, -0.0136088617, -0.0123000564, 1.04327364E-05, 923.0387    , 31.2617054  , 779.6456    , 0.14        , 3           , 14          , -0.000237287837, -1.45788881E-05
-0.123705007, 0.125083059 , -9.793829   , 0.000206801342, 0.000116780073, 0.0007989935, -0.013606892, -0.0122987805, 1.84064484E-05, 923.0387    , 31.2617054  , 779.6456    , 0.15        , 3           , 15          , 0           , 5.04166528E-05
-0.119322434, 0.141197413 , -9.800253   , 0.0006481103, 7.33968E-05 , -1.60845339E-05, -0.013600409, -0.0122980475, 1.823562E-05, 923.0387    , 31.2617054  , 779.6457    , 0.16        , 3           , 16          , 0           , 1.401298E-45
-0.114747681, 0.130945921 , -9.793634   , 0.000195070228, 4.09504974E-05, 8.56963161E-05, -0.0135984691, -0.0122976266, 1.9086985E-05, 923.0387    , 31.2617054  , 779.645752  , 0.17        , 3           , 20          , 0           , 0
-0.122401372, 0.126696035 , -9.800072   , -4.5085384E-05, -5.19706155E-05, 0.0007710296, -0.0135990158, -0.012298042, 2.68040239E-05, 923.0387    , 31.2617054  , 779.6458    , 0.18        , 3           , 21          , 0           , 0
-0.132864535, 0.134732813 , -9.790422   , 6.994794E-05, -8.152148E-05, -0.000428411673, -0.0135982633, -0.0122989155, 2.25311742E-05, 923.0387    , 31.2617054  , 779.6459    , 0.19        , 3           , 22          , 0           , 0
-0.115967318, 0.136512786 , -9.789774   , 5.515525E-06, -0.000206699071, 7.692602E-05, -0.0135982186, -0.0123009719, 2.332851E-05, 923.0387    , 31.2617054  , 779.645935  , 0.2         , 3           , 40          , 0           , 0
-0.124035619, 0.1428955   , -9.796671   , 0.000473926368, -0.0001844125, 0.0002485915, -0.0135938134, -0.0123068709, 2.584312E-05, 923.0387    , 31.2617054  , 779.677734  , 0.21        , 3           , 41          , 0           , 0
-0.123501465, 0.1322933   , -9.792959   , 9.940982E-05, 0.00017166906, -0.000100313351, -0.0135928057, -0.0123051666, 2.48166925E-05, 923.0387    , 31.2617054  , 779.6778    , 0.22        , 3           , 42          , 0           , 0
-0.118424848, 0.13510181  , -9.791611   , -0.00020900277, 4.553461E-05, 0.000287002884, -0.0135949319, -0.012304672, 2.7680413E-05, 923.061951  , 31.28667    , 779.677856  , 0.23        , 3           , 255         , 0           , 0
-0.1179832  , 0.126394346 , -9.787394   , 0.0007734796, 0.0002860608, -0.00032114808, -0.0135871563, -0.0123018548, 2.44301864E-05, 923.061951  , 31.28667    , 779.6779    , 0.24        , 3           , 255         , 0           , 0
-0.114656135, 0.125226974 , -9.787663   , 0.000213384934, -8.83037355E-05, 0.000103141974, -0.0135850366, -0.0123027246, 2.5473566E-05, 923.061951  , 31.28667    , 779.678     , 0.25        , 3           , 255         , 0           , 0
-0.122511171, 0.128687739 , -9.783977   , -0.000270967372, -0.0001627334, -0.000114223134, -0.0135877319, -0.0123043675, 2.43534851E-05, 923.061951  , 31.28667    , 779.67804   , 0.26        , 3           , 255         , 0           , 0
-0.118952617, 0.138491839 , -9.786455   , 6.74373441E-05, -0.000152667315, 0.000194604247, -0.0135870809, -0.0123058679, 2.63201946E-05, 923.061951  , 31.28667    , 779.6781    , 0.27        , 3           , 255         , 0           , 0
-0.11848893 , 0.132823482 , -9.795369   , -9.340365E-06, -1.36904091E-05, 4.7229405E-05, -0.01358718 , -0.0123059992, 2.67943251E-05, 923.061951  , 31.28667    , 779.678162  , 0.28        , 3           , 255         , 0           , 0
-0.124404393, 0.134533957 , -9.789386   , -1.58273469E-05, -6.37305347E-05, 0.0002597668, -0.0135873705, -0.0123066008, 2.9400544E-05, 923.061951  , 31.28667    , 779.6782    , 0.29        , 3           , 255         , 0           , 0
-0.123496555, 0.1385853   , -9.797406   , 0.0008292986, 7.84129152E-05, 0.000117820244, -0.013579092, -0.0123058  , 3.056806E-05, 923.061951  , 31.28667    , 779.6783    , 0.3         , 3           , 255         , 0           , 0
-0.118955791, 0.134515762 , -9.795958   , -9.50398244E-05, 0.000261013134, 0.0003514623, -0.013582184, -0.0123039214, 3.407291E-05, 923.061951  , 31.28667    , 779.6187    , 0.31        , 3           , 255         , 0           , 0
-0.120617792, 0.131624848 , -9.79204    , 0.000201954565, 6.0183178E-05, 2.538794E-05, -0.0135801677, -0.012303316, 3.43186075E-05, 923.061951  , 31.28667    , 779.6188    , 0.32        , 3           , 255         , 0           , 0
-0.122718111, 0.134539962 , -9.791489   , 0.000146890816, -0.0004070614, 0.000214226282, -0.013578725, -0.012307358, 3.65160522E-05, 922.9944    , 31.3041058  , 779.618835  , 0.33        , 3           , 255         , 0           , 0
-0.118792   , 0.129616231 , -9.79069    , -0.000423969119, 0.000315033976, -0.0006143587, -0.013582889, -0.01230429 , 3.03299257E-05, 922.9944    , 31.3041058  , 779.6189    , 0.34        , 3           , 255         , 0           , 0
-0.124377146, 0.1313838   , -9.793943   , -0.0006342539, 0.0005588371, -0.0005910967, -0.0135891577, -0.0122987852, 2.434329E-05, 922.9944    , 31.3041058  , 779.618958  , 0.35        , 3           , 255         , 0           , 0
-0.122249626, 0.145128042 , -9.788124   , -7.573688E-05, 0.0003268117, 0.000101445345, -0.0135899289, -0.0122955041, 2.53132948E-05, 922.9944    , 31.3041058  , 779.619     , 0.36        , 3           , 255         , 0           , 0
-0.122151174, 0.13943775  , -9.786873   , -6.83349645E-05, 4.22634621E-05, -0.0005189284, -0.0135905473, -0.0122951521, 2.01184866E-05, 922.9944    , 31.3041058  , 779.6191    , 0.37        , 3           , 255         , 0           , 0
-0.124187589, 0.136044532 , -9.79165    , -0.000294459576, -0.000295317324, -0.0003778179, -0.0135934465, -0.0122981537, 1.63806053E-05, 922.9944    , 31.3041058  , 779.619141  , 0.38        , 3           , 255         , 0           , 0
-0.114393078, 0.130591989 , -9.793117   , -6.901678E-05, 0.00048437182, 0.000238590525, -0.0135941664, -0.0122932773, 1.8700568E-05, 922.9944    , 31.3041058  , 779.6192    , 0.39        , 3           , 255         , 0           , 0
-0.114139438, 0.123372637 , -9.789508   , 0.0003314365, 8.737377E-05, 0.000150583292, -0.0135908695, -0.0122923832, 2.01944567E-05, 922.9944    , 31.3041058  , 779.619263  , 0.4         , 3           , 255         , 0           , 0
-0.118044175, 0.139590949 , -9.787216   , 0.000181219773, 8.015761E-06, 0.000410103239, -0.0135914916, -0.0122914277, 2.43235463E-05, 922.9944    , 31.3041058  , 779.742859  , 0.41        , 3           , 255         , 0           , 0
-0.127666146, 0.136972621 , -9.79255    , -0.000439799041, 0.000156195514, 6.481965E-05, -0.0135958958, -0.0122898575, 2.49504847E-05, 922.9944    , 31.3041058  , 779.7429    , 0.42        , 3           , 255         , 0           , 0
-0.117664516, 0.135587126 , -9.792242   , -0.000201686824, -6.904359E-05, -9.724342E-05, -0.013597901, -0.0122905606, 2.398747E-05, 923.0201    , 31.3144855  , 779.743     , 0.43        , 3           , 255         , 0           , 0
-0.11145886 , 0.131637469 , -9.794013   , 7.129605E-05, 0.000615260855, 2.187035E-05, -0.01359719 , -0.0122844074, 2.412251E-05, 923.0201    , 31.3144855  , 779.743042  , 0.44        , 3           , 255         , 0           , 0
-0.118732117, 0.126918554 , -9.78949    , 0.000119524862, 0.000543087663, 0.000272393459, -0.0135960281, -0.0122789424, 2.67724972E-05, 923.0201    , 31.3144855  , 779.7431    , 0.45        , 3           , 255         , 0           , 0
-0.115320228, 0.1343053   , -9.791564   , -0.000121591918, 0.000193625761, 0.0002864378, -0.0135972789, -0.0122769652, 2.96104172E-05, 923.0201    , 31.3144855  , 779.743164  , 0.46        , 3           , 255         , 0           , 0
-0.120491229, 0.142996743 , -9.79904    , -0.0002970383, 0.000224578645, 0.000810759666, -0.0136003485, -0.01227461 , 3.76871358E-05, 923.0201    , 31.3144855  , 779.7432    , 0.47        , 3           , 255         , 0           , 0
-0.125581473, 0.1383285   , -9.791177   , -3.593696E-05, -7.26015E-05, 0.000200637252, -0.0136007322, -0.0122753093, 3.97032964E-05, 923.0201    , 31.3144855  , 779.7433    , 0.48        , 3           , 255         , 0           , 0
-0.1243124  , 0.137412235 , -9.796793   , -0.0002202227, -4.90021775E-05, 0.000476672431, -0.0136029925, -0.012275734, 4.44764773E-05, 923.0201    , 31.3144855  , 779.743347  , 0.49        , 3           , 255         , 0           , 0
-0.115783535, 0.142423362 , -9.789596   , 0.000637138844, -3.533401E-05, 0.0005038471, -0.0135966819, -0.012276019, 4.951955E-05, 923.0201    , 31.3144855  , 779.743469  , 0.5         , 3           , 255         , 0           , 0
-0.113007858, 0.142529577 , -9.794638   , 0.000215579043, 0.0005509637, 0.0004128358, -0.0136071378, -0.0122676548, 5.37269261E-05, 923.0201    , 31.3144855  , 779.7709    , 0.51        , 3           , 255         , 0           , 0
-0.119364463, 0.141782716 , -9.787061   , 0.000378512224, 0.000441181415, -0.0004347809, -0.0136032989, -0.0122633027, 4.931928E-05, 923.0201    , 31.3144855  , 779.771     , 0.52        , 3           , 255         , 0           , 0
-0.118422151, 0.136830047 , -9.782688   , -0.000360614678, 6.52129456E-05, -0.0002205222, -0.0136068771, -0.0122626787, 4.71052772E-05, 923.029541  , 31.3202534  , 779.7711    , 0.53        , 3           , 255         , 0           , 0
-0.119073167, 0.131364554 , -9.791338   , 0.000217470573, 0.000512381957, -1.175045E-05, -0.0136047  , -0.0122575583, 4.69180668E-05, 923.029541  , 31.3202534  , 779.77124   , 0.54        , 3           , 255         , 0           , 0
-0.117452942, 0.140483856 , -9.79604149 , -0.000224603733, 0.00048307862, 0.000248716067, -0.0136069758, -0.012252694, 4.93393964E-05, 923.029541  , 31.3202534  , 779.771362  , 0.55        , 3           , 255         , 0           , 0
-0.114224017, 0.134882718 , -9.791658   , -0.000114118084, -0.000155529924, -8.21826E-05, -0.0136081083, -0.0122542605, 4.85387754E-05, 923.029541  , 31.3202534  , 779.7715    , 0.56        , 3           , 255         , 0           , 0
-0.124751225, 0.1360306   , -9.794081   , 6.511199E-05, 0.0004058751, -0.000378246739, -0.01360741 , -0.0122502567, 4.470124E-05, 923.029541  , 31.3202534  , 779.7716    , 0.57        , 3           , 255         , 0           , 0
-0.121037483, 0.136966318 , -9.79546452 , -0.000620432838, 0.0002465538, -5.964101E-05, -0.0136136059, -0.012247798, 4.40712975E-05, 923.029541  , 31.3202534  , 779.7717    , 0.58        , 3           , 255         , 0           , 0
-0.122004293, 0.1369125   , -9.788048   , -0.000159021423, 9.918111E-05, 0.0005633893, -0.0136152636, -0.01224673 , 4.96914436E-05, 923.029541  , 31.3202534  , 779.771851  , 0.59        , 3           , 255         , 0           , 0
-0.126391485, 0.132412344 , -9.789014   , -7.30591855E-05, 0.0001400355, 0.0004303976, -0.0136160459, -0.0122452714, 5.39761641E-05, 923.029541  , 31.3202534  , 779.772     , 0.6         , 3           , 255         , 0           , 0
-0.119862869, 0.1349788   , -9.786832   , 0.000440536678, 5.317231E-05, -0.0001312331, -0.0136263091, -0.0122430949, 5.28364326E-05, 923.029541  , 31.3202534  , 779.7756    , 0.61        , 3           , 255         , 0           , 0
-0.113850616, 0.130945131 , -9.78414249 , 0.00015895025, 5.2197327E-05, 0.000208719372, -0.0136247464, -0.0122425435, 5.491643E-05, 923.029541  , 31.3202534  , 779.7757    , 0.62        , 3           , 255         , 0           , 0
-0.122240663, 0.13181667  , -9.786795   , 9.402426E-05, 0.000259402033, -0.0001154634, -0.013623789, -0.0122399665, 5.37264932E-05, 923.0222    , 31.3250027  , 779.7758    , 0.63        , 3           , 255         , 0           , 0
-0.1274352  , 0.128957838 , -9.790746   , 0.000257027656, -2.46746713E-05, -3.50552873E-05, -0.0136212138, -0.0122402171, 5.33793136E-05, 923.0222    , 31.3250027  , 779.77594   , 0.64        , 3           , 255         , 0           , 0
-0.122387156, 0.13283141  , -9.800783   , 0.0004853533, 9.630902E-05, -0.000280574255, -0.0136163281, -0.0122392951, 5.056058E-05, 923.0222    , 31.3250027  , 779.776062  , 0.65        , 3           , 255         , 0           , 0
-0.1159297  , 0.130378291 , -9.798185   , -0.0005945916, 0.000202973388, -0.000297453837, -0.0136222364, -0.0122373039, 4.755852E-05, 923.0222    , 31.3250027  , 779.7762    , 0.66        , 3           , 255         , 0           , 0
-0.116999462, 0.1382297   , -9.793447   , -0.000104121849, 0.000349209033, -0.000201256247, -0.0136232534, -0.01223384 , 4.549847E-05, 923.0222    , 31.3250027  , 779.7763    , 0.67        , 3           , 255         , 0           , 0
-0.124038711, 0.133759111 , -9.791971   , -0.00013270085, 0.000616134144, -6.80851153E-05, -0.0136245722, -0.012227688, 4.47337079E-05, 923.0222    , 31.3250027  , 779.7764    , 0.68        , 3           , 255         , 0           , 0
-0.119457185, 0.135964155 , -9.795507   , 0.00027620545, 0.000447462924, -0.00048385284, -0.0136217494, -0.01222328 , 3.98344273E-05, 923.0222    , 31.3250027  , 779.77655   , 0.69        , 3           , 255         , 0           , 0
-0.116443254, 0.134998441 , -9.794588   , -7.838277E-05, -0.0001818699, -0.000117378084, -0.0136225186, -0.0122251138, 3.868547E-05, 923.0222    , 31.3250027  , 779.7767    , 0.7         , 3           , 255         , 0           , 0
-0.12314906 , 0.135190263 , -9.800294   , 0.000116862459, 2.004479E-05, -0.000190632942, -0.0136210667, -0.0122249164, 3.677332E-05, 923.0222    , 31.3250027  , 779.789246  , 0.71        , 3           , 255         , 0           , 0
-0.133926377, 0.135641724 , -9.798742   , 0.000612443837, 0.0005635425, -8.007369E-05, -0.0136149321, -0.0122192958, 3.589587E-05, 923.0222    , 31.3250027  , 779.789368  , 0.72        , 3           , 255         , 0           , 0
-0.119610175, 0.128185034 , -9.791064   , 0.0005105521, 0.0004819776, 0.000248491 , -0.0136098564, -0.0122144409, 3.83150655E-05, 922.9984    , 31.3327351  , 779.7895    , 0.73        , 3           , 255         , 0           , 0
-0.122701108, 0.132014409 , -9.792572   , -3.959083E-05, 0.000200095528, 0.00114834309, -0.0136103928, -0.012212283, 4.977077E-05, 922.9984    , 31.3327351  , 779.7896    , 0.74        , 3           , 255         , 0           , 0
-0.126664832, 0.13294366  , -9.794233   , -0.0002944304, 9.56481454E-05, 0.000190514169, -0.0136133581, -0.0122113  , 5.16628024E-05, 922.9984    , 31.3327351  , 779.789734  , 0.75        , 3           , 255         , 0           , 0
-0.125703245, 0.130161732 , -9.796731   , -0.0007834875, 0.000570431061, 0.0003196717, -0.0136212306, -0.0122055542, 5.47817E-05 , 922.9984    , 31.3327351  , 779.789856  , 0.76        , 3           , 255         , 0           , 0
-0.116155505, 0.125106141 , -9.792677   , -7.519034E-05, 0.0006316894, 0.0001555597, -0.0136220008, -0.0121992175, 5.6251185E-05, 922.9984    , 31.3327351  , 779.79      , 0.77        , 3           , 255         , 0           , 0
-0.120466784, 0.127699926 , -9.799314   , -0.000511234568, -2.48846154E-05, -0.000120876619, -0.0136270979, -0.012199481, 5.50458572E-05, 922.9984    , 31.3327351  , 779.7901    , 0.78        , 3           , 255         , 0           , 0
-0.124209046, 0.128726244 , -9.79408    , -0.000174613044, -0.0003554441, -0.000360429374, -0.0136288013, -0.0122030852, 5.14901622E-05, 922.9984    , 31.3327351  , 779.7903    , 0.79        , 3           , 255         , 0           , 0
-0.127752155, 0.13137126  , -9.798246   , -4.093557E-05, 0.0005630766, 0.0004541195, -0.0136292661, -0.012197393, 5.595442E-05, 922.9984    , 31.3327351  , 779.790466  , 0.8         , 3           , 255         , 0           , 0
-0.129181653, 0.132597312 , -9.789786   , 0.0002996364, 0.000377830933, -5.52808378E-05, -0.0136193018, -0.0122051816, 5.52651945E-05, 922.9984    , 31.3327351  , 779.829346  , 0.81        , 3           , 255         , 0           , 0
-0.124997035, 0.135757819 , -9.788285   , 0.000123649108, 4.10257744E-05, 0.0006444292, -0.0136181433, -0.0122046825, 6.17036058E-05, 922.9984    , 31.3327351  , 779.8295    , 0.82        , 3           , 255         , 0           , 0
-0.123841986, 0.147236854 , -9.79278    , 0.000261252047, -0.000279434636, 0.0006569081, -0.01361561 , -0.0122073879, 6.831046E-05, 923.024963  , 31.3332787  , 779.8297    , 0.83        , 3           , 255         , 0           , 0
-0.119151451, 0.141772985 , -9.79113    , 0.0001216705, 8.10337951E-07, 0.000315297366, -0.0136144329, -0.0122073367, 7.146318E-05, 923.024963  , 31.3332787  , 779.8299    , 0.84        , 3           , 255         , 0           , 0
-0.110028245, 0.126383632 , -9.787655   , -0.000209545469, 0.000161702555, 9.912028E-05, -0.01361654 , -0.012205706, 7.24323254E-05, 923.024963  , 31.3332787  , 779.8301    , 0.85        , 3           , 255         , 0           , 0
-0.123147026, 0.1308804   , -9.792685   , 0.000262833433, -0.000104275627, 0.000387672335, -0.0136139588, -0.012206695, 7.632308E-05, 923.024963  , 31.3332787  , 779.830261  , 0.86        , 3           , 255         , 0           , 0
-0.115305781, 0.1332152   , -9.785898   , 0.00023313587, 5.909798E-05, 0.000521348731, -0.0136116911, -0.0122060357, 8.15283E-05 , 923.024963  , 31.3332787  , 779.830444  , 0.87        , 3           , 255         , 0           , 0
-0.126487091, 0.1342726   , -9.78977    , 0.000487289566, 6.09985036E-05, 1.33624817E-05, -0.01360682 , -0.0122054219, 8.165362E-05, 923.024963  , 31.3332787  , 779.8306    , 0.88        , 3           , 255         , 0           , 0
-0.133238152, 0.130030632 , -9.799517   , 0.0004585127, 0.000148164821, 2.98594059E-05, -0.0136022391, -0.0122039365, 8.193205E-05, 923.024963  , 31.3332787  , 779.8308    , 0.89        , 3           , 255         , 0           , 0
-0.12196479 , 0.125480935 , -9.796619   , 0.000363286468, -9.112059E-06, -0.000277595158, -0.0135985743, -0.012204065, 7.915746E-05, 923.024963  , 31.3332787  , 779.831     , 0.9         , 3           , 255         , 0           , 0
-0.11097838 , 0.137827665 , -9.794077   , -6.431356E-05, 6.50594739E-05, -7.679346E-05, -0.0136007015, -0.0122143487, 7.839897E-05, 923.024963  , 31.3332787  , 779.83136   , 0.91        , 3           , 255         , 0           , 0
-0.108354464, 0.144959792 , -9.79914    , 5.382049E-05, -0.00030400898, 0.000357294281, -0.0136002079, -0.01221734 , 8.20131E-05 , 923.024963  , 31.3332787  , 779.8316    , 0.92        , 3           , 255         , 0           , 0
-0.1262929  , 0.1355823   , -9.793708   , 0.000164279161, -1.42042818E-05, 0.000444654172, -0.013598619, -0.0122174211, 8.64613758E-05, 923.021057  , 31.3368073  , 779.831848  , 0.93        , 3           , 255         , 0           , 0
-0.117020823, 0.13986972  , -9.786754   , 0.00044852955, 0.0002613664, -0.000180267758, -0.0135941105, -0.012214832, 8.462325E-05, 923.021057  , 31.3368073  , 779.8321    , 0.94        , 3           , 255         , 0           , 0
-0.114647284, 0.13313207  , -9.79023    , -0.000230524776, 0.00028581862, 0.000189422164, -0.0135964379, -0.0122119486, 8.647853E-05, 923.021057  , 31.3368073  , 779.832336  , 0.95        , 3           , 255         , 0           , 0
-0.128607422, 0.134624839 , -9.790247   , -0.000301868684, 6.498295E-05, 2.59466869E-05, -0.01359946 , -0.0122112948, 8.67291456E-05, 923.021057  , 31.3368073  , 779.8326    , 0.96        , 3           , 255         , 0           , 0
-0.1256021  , 0.1379003   , -9.799594   , -0.0005566594, -0.000142376462, 2.640234E-06, -0.0136050275, -0.0122127179, 8.677491E-05, 923.021057  , 31.3368073  , 779.8328    , 0.97        , 3           , 255         , 0           , 0
-0.114605986, 0.13232705  , -9.796233   , -2.2074033E-05, 1.01229944E-06, 0.000128652086, -0.013605264, -0.0122126909, 8.80612351E-05, 923.021057  , 31.3368073  , 779.833069  , 0.98        , 3           , 255         , 0           , 0
-0.126316279, 0.1368313   , -9.795434   , -0.000163701654, -0.000129950218, 0.0002897425, -0.0136069357, -0.01221395 , 9.09762239E-05, 923.021057  , 31.3368073  , 779.8333    , 0.99        , 3           , 255         , 0           , 0
-0.124979451, 0.128828168 , -9.789897   , -0.0003627405, -5.60756926E-05, 0.0005470947, -0.01361063 , -0.0122144371, 9.64545543E-05, 923.021057  , 31.3368073  , 779.833557  , 1           , 3           , 0           , 6.01423645  , 100
-0.114768133, 0.131560653 , -9.794283   , 0.000294205849, -0.0001187803, 2.10461076E-05, -0.0136163207, -0.0122159449, 9.67866144E-05, 923.021057  , 31.3368073  , 779.8378    , 1.01        , 3           , 1           , 0           , 0
-0.119468555, 0.133338079 , -9.793042   , 0.000231732192, -0.000260295579, -0.000335036224, -0.0136139635, -0.0122185936, 9.34718337E-05, 923.021057  , 31.3368073  , 779.8381    , 1.02        , 3           , 2           , 0           , 0
-0.132224157, 0.1369347   , -9.794172   , 0.000479929615, 0.0001901796, 0.0003882508, -0.0136092119, -0.0122166388, 9.73282949E-05, 922.9816    , 31.3368073  , 779.8383    , 1.03        , 3           , 3           , 0           , 0
-0.119142927, 0.136040255 , -9.796195   , 2.37040658E-05, -0.000113317205, 0.000801941729, -0.0136090731, -0.0122176632, 0.000105362786, 922.9816    , 31.3368073  , 779.838562  , 1.04        , 3           , 4           , 0           , 0
-0.11916399 , 0.12779519  , -9.791103   , -0.000206834535, -0.000159412273, -0.00028762623, -0.0136111053, -0.0122192977, 0.00010250834, 922.9816    , 31.3368073  , 779.8388    , 1.05        , 3           , 5           , 0           , 0
-0.126618147, 0.13183926  , -9.790574   , -0.0009859988, 0.0006024832, 0.0008246997, -0.0136210648, -0.0122131612, 0.000110672954, 922.9816    , 31.3368073  , 779.83905   , 1.06        , 3           , 6           , 0           , 0
-0.126018316, 0.138171449 , -9.787441   , 4.39742143E-05, -0.000230542457, -0.00027156205, -0.0136205936, -0.0122155035, 0.000107988861, 922.9816    , 31.3368073  , 779.8393    , 1.07        , 3           , 7           , 0           , 0
-0.126227036, 0.136837125 , -9.789395   , 1.07212254E-05, -7.719416E-05, -0.00108947582, -0.0136203533, -0.0122164246, 9.710508E-05, 922.9816    , 31.3368073  , 779.839539  , 1.08        , 3           , 8           , 5           , 5
-0.1236534  , 0.13069801  , -9.794542   , 0.000521801237, -7.511789E-05, -0.0002977319, -0.0136150988, -0.0122172143, 9.41381149E-05, 922.9816    , 31.3368073  , 779.8398    , 1.09        , 3           , 9           , 5           , 0.1
-0.117087722, 0.140845448 , -9.7911     , 0.00048342027, 1.40214506E-05, 0.0003383329, -0.0136103071, -0.0122170281, 9.75194052E-05, 922.9816    , 31.3368073  , 779.84      , 1.1         , 3           , 10          , 0.1         , 0.1
-0.111610666, 0.13431561  , -9.794806   , 0.000255788967, 0.000227761338, -0.000238055465, -0.0136111286, -0.0122232018, 9.51496258E-05, 922.9816    , 31.3368073  , 779.8849    , 1.11        , 3           , 11          , 0.009210348 , 0.009210348
-0.1130141  , 0.133841842 , -9.791143   , 0.000329095463, 9.783631E-05, -0.0007705412, -0.0136077451, -0.0122223282, 8.743124E-05, 922.9816    , 31.3368073  , 779.885254  , 1.12        , 3           , 12          , 0.174642846 , 0
-0.11197637 , 0.136837021 , -9.791921   , -0.000161690943, 0.0001010235, 0.00020911076, -0.013609387, -0.01222129 , 8.950851E-05, 923.0623    , 31.3377571  , 779.8856    , 1.13        , 3           , 13          , 0           , 0
-0.106843367, 0.13326931  , -9.798944   , 4.98454465E-05, 0.000172404238, 0.0005169551, -0.0136089511, -0.0122194951, 9.465437E-05, 923.0623    , 31.3377571  , 779.886     , 1.14        , 3           , 14          , -0.000237261629, -1.45484637E-05
-0.11692296 , 0.1319477   , -9.793665   , 8.487773E-05, 0.000252195925, 0.0002200845, -0.01360813 , -0.0122169424, 9.68208042E-05, 923.0623    , 31.3377571  , 779.886353  , 1.15        , 3           , 15          , 0           , 5.04167365E-05
-0.119692184, 0.13275978  , -9.800901   , 2.89898016E-05, 0.000264073664, -5.33157327E-05, -0.0136078335, -0.01221431 , 9.625174E-05, 923.0623    , 31.3377571  , 779.8867    , 1.16        , 3           , 16          , 0           , 1.401298E-45
-0.116204359, 0.133424222 , -9.788442   , 1.00120815E-05, 0.000216586443, 0.000330230076, -0.0136077749, -0.0122120986, 9.952443E-05, 923.0623    , 31.3377571  , 779.8871    , 1.17        , 3           , 20          , 0           , 0
-0.117205337, 0.132733449 , -9.787437   , -0.000159499716, 2.86569557E-05, -0.000103068887, -0.0136093572, -0.0122118266, 9.848989E-05, 923.0623    , 31.3377571  , 779.887451  , 1.18        , 3           , 21          , 0           , 0
-0.122181155, 0.136548966 , -9.791987   , 0.000350790768, 0.00026609734, -0.000513357867, -0.0136057846, -0.0122092385, 9.332032E-05, 923.0623    , 31.3377571  , 779.8878    , 1.19        , 3           , 22          , 0           , 0
-0.1245309  , 0.142239034 , -9.794107   , 6.671948E-05, 0.000101779086, -0.00026195572, -0.0136050871, -0.0122082541, 9.068703E-05, 923.0623    , 31.3377571  , 779.8882    , 1.2         , 3           , 40          , 0           , 0
-0.126245126, 0.139732674 , -9.7962265  , 0.000129948647, -0.000106267849, -0.00014389967, -0.0136079071, -0.0121993367, 8.931302E-05, 923.0623    , 31.3377571  , 779.8438    , 1.21        , 3           , 41          , 0           , 0
-0.115606643, 0.12913017  , -9.788007   , 4.13156231E-05, -0.000277484971, 6.746148E-05, -0.0136075029, -0.0122021018, 9.00253654E-05, 923.0623    , 31.3377571  , 779.844055  , 1.22        , 3           , 42          , 0           , 0
-0.111821249, 0.1443356   , -9.795547   , 0.000355750963, -0.000265380047, -0.0002836446, -0.0136039108, -0.0122047924, 8.72251549E-05, 923.0268    , 31.3397923  , 779.8443    , 1.23        , 3           , 255         , 0           , 0
-0.122083187, 0.137362272 , -9.789812   , 0.000204573356, 0.000376861746, -0.0007245076, -0.0136017753, -0.0122011239, 7.992912E-05, 923.0268    , 31.3397923  , 779.844543  , 1.24        , 3           , 255         , 0           , 0
-0.121323965, 0.139167756 , -9.790667   , 0.000140077856, 0.0003268342, -0.000462716765, -0.0136003206, -0.012197922, 7.525772E-05, 923.0268    , 31.3397923  , 779.8448    , 1.25        , 3           , 255         , 0           , 0
-0.123463392, 0.128948063 , -9.793171   , 0.0004300505, 2.15958444E-05, -9.845338E-05, -0.0135960067, -0.012197718, 7.42703E-05 , 923.0268    , 31.3397923  , 779.845032  , 1.26        , 3           , 255         , 0           , 0
-0.122413419, 0.14356412  , -9.786975   , 0.000404374063, -0.000389735884, -0.0001210018, -0.0135919489, -0.0122016305, 7.31133E-05 , 923.0268    , 31.3397923  , 779.8453    , 1.27        , 3           , 255         , 0           , 0
-0.123549938, 0.137765676 , -9.79659    , -6.562655E-05, -0.000186077916, -0.000645013351, -0.0135925282, -0.0122035788, 6.668874E-05, 923.0268    , 31.3397923  , 779.8455    , 1.28        , 3           , 255         , 0           , 0
-0.112220764, 0.136170253 , -9.793147   , 0.000355556374, -0.000344761444, -0.0001437506, -0.0135889538, -0.0122070462, 6.52981544E-05, 923.0268    , 31.3397923  , 779.845764  , 1.29        , 3           , 255         , 0           , 0
-0.124778248, 0.1350928   , -9.790127   , 0.000389555877, 5.902379E-05, -8.198271E-05, -0.01358505 , -0.0122064659, 6.447035E-05, 923.0268    , 31.3397923  , 779.846     , 1.3         , 3           , 255         , 0           , 0
-0.123439491, 0.1342947   , -9.790094   , 5.695758E-05, -1.92100833E-06, 0.000516224653, -0.0135959787, -0.0122089665, 6.977227E-05, 923.0268    , 31.3397923  , 779.842957  , 1.31        , 3           , 255         , 0           , 0
-0.115298674, 0.140527233 , -9.789284   , 0.000108379871, 0.00023530508, 0.000700230652, -0.0135949813, -0.0122065162, 7.674228E-05, 923.0268    , 31.3397923  , 779.8432    , 1.32        , 3           , 255         , 0           , 0
-0.12993376 , 0.136973023 , -9.784982   , 0.00018065708, 2.146489E-05, -2.61508412E-05, -0.0135931708, -0.0122063085, 7.647787E-05, 923.0503    , 31.34047    , 779.843445  , 1.33        , 3           , 255         , 0           , 0
-0.120033383, 0.1387161   , -9.787493   , 4.21368168E-06, 0.000206081 , -0.000101352241, -0.0135931168, -0.0122042606, 7.54363646E-05, 923.0503    , 31.34047    , 779.8437    , 1.34        , 3           , 255         , 0           , 0
-0.113132335, 0.129313856 , -9.794645   , -5.674157E-05, 0.000443924946, -0.0007089414, -0.0135935964, -0.0121999178, 6.8286914E-05, 923.0503    , 31.34047    , 779.843933  , 1.35        , 3           , 255         , 0           , 0
-0.117839515, 0.136259913 , -9.802776   , 0.00014437316, 0.0004463203, -0.0003566351, -0.01359211 , -0.0121955043, 6.466005E-05, 923.0503    , 31.34047    , 779.8442    , 1.36        , 3           , 255         , 0           , 0
-0.128977284, 0.1338239   , -9.789618   , 0.000255467981, 0.000224661781, -0.0008254053, -0.0135894548, -0.0121933687, 5.63758258E-05, 923.0503    , 31.34047    , 779.8444    , 1.37        , 3           , 255         , 0           , 0
-0.118706405, 0.139414579 , -9.791972   , -0.000216276836, -0.000383839273, -0.0001080159, -0.0135916043, -0.0121972226, 5.534787E-05, 923.0503    , 31.34047    , 779.844666  , 1.38        , 3           , 255         , 0           , 0
-0.1262761  , 0.136775583 , -9.7867     , 0.0003748765, 0.0001467957, -5.61311681E-05, -0.0135878474, -0.0121957622, 5.4766635E-05, 923.0503    , 31.34047    , 779.8449    , 1.39        , 3           , 255         , 0           , 0
-0.129815057, 0.13324827  , -9.790247   , -0.000116533, -0.000169609979, -9.4488234E-05, -0.0135890022, -0.0121974712, 5.384484E-05, 923.0503    , 31.34047    , 779.845154  , 1.4         , 3           , 255         , 0           , 0
-0.126344323, 0.142137438 , -9.790814   , -0.000382782251, -1.25677861E-05, -0.000155558271, -0.0136016151, -0.0122065078, 5.23985E-05 , 923.0503    , 31.34047    , 779.8179    , 1.41        , 3           , 255         , 0           , 0
-0.113589488, 0.139505073 , -9.797354   , -0.000241034591, 0.0001143898, 0.0001986685, -0.0136040505, -0.0122053362, 5.43695351E-05, 923.0503    , 31.34047    , 779.818     , 1.42        , 3           , 255         , 0           , 0
-0.11525102 , 0.13919647  , -9.792799   , 0.000481554132, 8.416748E-05, -0.000139452051, -0.0135992188, -0.0122045139, 5.296363E-05, 923.042358  , 31.3431835  , 779.8181    , 1.43        , 3           , 255         , 0           , 0
-0.123698935, 0.131692514 , -9.790229   , 0.000234978113, -0.000163009681, -0.0006418127, -0.013596789, -0.0122062312, 4.65679441E-05, 923.042358  , 31.3431835  , 779.818237  , 1.44        , 3           , 255         , 0           , 0
-0.121703267, 0.133339614 , -9.794727   , -0.000194764332, 0.000371827075, -0.000262625632, -0.0135987066, -0.01220255 , 4.38912466E-05, 923.042358  , 31.3431835  , 779.8184    , 1.45        , 3           , 255         , 0           , 0
-0.12383841 , 0.133874372 , -9.793643   , -0.0001372189, 0.000315143232, 0.0001940276, -0.0136001026, -0.0121993748, 4.578858E-05, 923.042358  , 31.3431835  , 779.8186    , 1.46        , 3           , 255         , 0           , 0
-0.120970272, 0.132797092 , -9.784027   , 0.0006417119, 0.0002952393, 0.0005491933, -0.0135937519, -0.012196348, 5.124014E-05, 923.042358  , 31.3431835  , 779.8188    , 1.47        , 3           , 255         , 0           , 0
-0.109321751, 0.132011488 , -9.79414749 , 0.0006662727, 8.715675E-05, 0.000231026163, -0.0135871153, -0.0121954447, 5.353845E-05, 923.042358  , 31.3431835  , 779.819     , 1.48        , 3           , 255         , 0           , 0
-0.122448966, 0.1317243   , -9.7959     , 4.01754369E-05, 0.000352200732, 0.000226654534, -0.0135867419, -0.0121918917, 5.575705E-05, 923.042358  , 31.3431835  , 779.819153  , 1.49        , 3           , 255         , 0           , 0
-0.1276257  , 0.13459155  , -9.791644   , -0.000440729782, 0.00022974817, -3.115803E-05, -0.0135911452, -0.0121896  , 5.541427E-05, 923.042358  , 31.3431835  , 779.819336  , 1.5         , 3           , 255         , 0           , 0
-0.124459982, 0.135481328 , -9.789142   , -0.000622025749, 0.0003358625, -0.000180785981, -0.0136024319, -0.0121887932, 5.36228545E-05, 923.042358  , 31.3431835  , 779.802734  , 1.51        , 3           , 255         , 0           , 0
-0.115190148, 0.14589712  , -9.797096   , 2.02843366E-05, 0.000332267984, -0.000681005942, -0.0136021459, -0.0121855633, 4.67678947E-05, 923.042358  , 31.3431835  , 779.8028    , 1.52        , 3           , 255         , 0           , 0
-0.123602346, 0.138545662 , -9.787558   , -0.0002347465, 0.000462747848, -0.0004949896, -0.0136044314, -0.0121810026, 4.175526E-05, 923.018738  , 31.3437271  , 779.802856  , 1.53        , 3           , 255         , 0           , 0
-0.124664664, 0.122087337 , -9.784022   , -6.842856E-05, 0.000233630213, 0.000450376654, -0.0136051709, -0.0121786054, 4.62270473E-05, 923.018738  , 31.3437271  , 779.8029    , 1.54        , 3           , 255         , 0           , 0
-0.125150457, 0.120990232 , -9.792756   , -0.000431248627, 0.000297127641, 0.0004894754, -0.0136095416, -0.0121755693, 5.10811551E-05, 923.018738  , 31.3437271  , 779.803     , 1.55        , 3           , 255         , 0           , 0
-0.117362022, 0.124320626 , -9.799662   , -0.000167158883, 0.000485105556, 2.12062878E-06, -0.0136112124, -0.0121707181, 5.10363352E-05, 923.018738  , 31.3437271  , 779.8031    , 1.56        , 3           , 255         , 0           , 0
-0.123034492, 0.135784909 , -9.79143    , 0.000212313767, 0.000384530285, -0.0006630229, -0.01360901 , -0.0121669658, 4.43540666E-05, 923.018738  , 31.3437271  , 779.8032    , 1.57        , 3           , 255         , 0           , 0
-0.124940634, 0.130143434 , -9.796528   , 0.000304131827, 0.000436807459, -0.0005658747, -0.0136058973, -0.0121626751, 3.8636128E-05, 923.018738  , 31.3437271  , 779.803345  , 1.58        , 3           , 255         , 0           , 0
-0.1167801  , 0.1431915   , -9.801613   , 0.0001814827, -1.737518E-05, -0.0006316839, -0.0136040067, -0.012162935, 3.23219319E-05, 923.018738  , 31.3437271  , 779.803467  , 1.59        , 3           , 255         , 0           , 0
-0.123066738, 0.129221708 , -9.790571   , 9.2948816E-05, -0.000127344669, 0.00033455278, -0.0136031192, -0.0121641634, 3.568464E-05, 923.018738  , 31.3437271  , 779.8036    , 1.6         , 3           , 255         , 0           , 0
-0.120180771, 0.142449528 , -9.786313   , -1.23646605E-05, 0.000227624449, -0.000142894132, -0.0136014661, -0.0121683022, 3.420339E-05, 923.018738  , 31.3437271  , 779.8136    , 1.61        , 3           , 255         , 0           , 0
-0.125493273, 0.127131179 , -9.787503   , -0.000300966145, 0.00065474445, 0.000533533 , -0.0136045385, -0.0121616824, 3.944942E-05, 923.018738  , 31.3437271  , 779.8138    , 1.62        , 3           , 255         , 0           , 0
-0.118389025, 0.139023468 , -9.79147148 , 0.0003787034, 0.000100398371, -0.0001703625, -0.0136007313, -0.0121607007, 3.77322E-05 , 923.0197    , 31.3433876  , 779.813965  , 1.63        , 3           , 255         , 0           , 0
-0.120882235, 0.146697044 , -9.791133   , 0.000141098368, -0.000169814957, -0.0008466718, -0.0135992188, -0.012162514, 2.9288949E-05, 923.0197    , 31.3433876  , 779.814148  , 1.64        , 3           , 255         , 0           , 0
-0.119859174, 0.14613995  , -9.790934   , 0.00014313274, 5.56582345E-05, -0.000222255811, -0.0135977585, -0.0121619906, 2.70589244E-05, 923.0197    , 31.3433876  , 779.814331  , 1.65        , 3           , 255         , 0           , 0
-0.119530126, 0.134906381 , -9.787595   , -0.000137008508, 0.000460088544, 0.0005449108, -0.0135991964, -0.0121573154, 3.24452267E-05, 923.0197    , 31.3433876  , 779.8145    , 1.66        , 3           , 255         , 0           , 0
-0.124559954, 0.130194411 , -9.78538    , -0.000364911743, 5.04891141E-05, 0.000195826389, -0.0136028687, -0.0121567845, 3.439654E-05, 923.0197    , 31.3433876  , 779.8147    , 1.67        , 3           , 255         , 0           , 0
-0.115467109, 0.1340063   , -9.790876   , -0.0001756747, -0.000292211655, -0.000280152424, -0.0136045916, -0.0121597443, 3.16348924E-05, 923.0197    , 31.3433876  , 779.8149    , 1.68        , 3           , 255         , 0           , 0
-0.129090473, 0.127115056 , -9.798976   , -0.000412962923, -5.600786E-05, 0.000212777537, -0.0136087472, -0.0121602761, 3.37701931E-05, 923.0197    , 31.3433876  , 779.815063  , 1.69        , 3           , 255         , 0           , 0
-0.118883505, 0.1282771   , -9.790341   , 0.000176209724, 0.0003420068, 0.000851908058, -0.0136070885, -0.0121567408, 4.22423764E-05, 923.0197    , 31.3433876  , 779.815247  , 1.7         , 3           , 255         , 0           , 0
-0.114092015, 0.132654116 , -9.783748   , -0.0001388814, 0.000223018345, 0.000457472721, -0.0136160348, -0.0121610025, 4.68777725E-05, 923.0197    , 31.3433876  , 779.8233    , 1.71        , 3           , 255         , 0           , 0
-0.129512653, 0.132185176 , -9.788412   , -0.000351733062, 0.000129939333, 0.000557184336, -0.0136196185, -0.0121596269, 5.243167E-05, 923.0197    , 31.3433876  , 779.8235    , 1.72        , 3           , 255         , 0           , 0
-0.130137131, 0.132008314 , -9.792925   , 0.000364337116, -3.90116766E-05, 0.000166258542, -0.0136159956, -0.0121599948, 5.40994952E-05, 923.002869  , 31.3431835  , 779.823669  , 1.73        , 3           , 255         , 0           , 0
-0.119395569, 0.135107055 , -9.785755   , 4.396272E-05, -3.62772553E-05, -0.000208750513, -0.01361553 , -0.012160386, 5.20170179E-05, 923.002869  , 31.3431835  , 779.823853  , 1.74        , 3           , 255         , 0           , 0
-0.116123796, 0.127637833 , -9.794456   , -0.000174735687, 1.25473625E-05, -0.000303336827, -0.01361724 , -0.0121603012, 4.89820668E-05, 923.002869  , 31.3431835  , 779.8241    , 1.75        , 3           , 255         , 0           , 0
-0.113975309, 0.139668062 , -9.795496   , 7.06797E-05 , 0.000132742774, 0.000177843642, -0.0136165554, -0.01215895 , 5.07423574E-05, 923.002869  , 31.3431835  , 779.824341  , 1.76        , 3           , 255         , 0           , 0
-0.115376092, 0.13237296  , -9.791939   , 0.000183684257, 1.30160388E-05, 0.000257850741, -0.0136147505, -0.0121587841, 5.331898E-05, 923.002869  , 31.3431835  , 779.8246    , 1.77        , 3           , 255         , 0           , 0
-0.113951877, 0.138400435 , -9.793752   , 0.000141997414, -1.16258143E-05, -0.000214109372, -0.0136133032, -0.0121589294, 5.117956E-05, 923.002869  , 31.3431835  , 779.8248    , 1.78        , 3           , 255         , 0           , 0
-0.125208214, 0.129517764 , -9.799612   , -0.000150184074, 0.000326761656, -0.00028144932, -0.013614771, -0.0121557  , 4.83207041E-05, 923.002869  , 31.3431835  , 779.8251    , 1.79        , 3           , 255         , 0           , 0
-0.130166233, 0.121612236 , -9.79898548 , -2.064406E-05, -0.000201339761, 0.000218672285, -0.0136150047, -0.0121576842, 5.053474E-05, 923.002869  , 31.3431835  , 779.8253    , 1.8         , 3           , 255         , 0           , 0
-0.118071236, 0.136771411 , -9.79867    , 0.000269808515, 0.000234460211, -9.684987E-06, -0.0136092724, -0.012159518, 5.03691E-05 , 923.002869  , 31.3431835  , 779.85144   , 1.81        , 3           , 255         , 0           , 0
-0.120327696, 0.141869277 , -9.793226   , 0.000106752588, 0.00023588835, 0.000297931285, -0.01360824 , -0.0121571189, 5.331618E-05, 923.002869  , 31.3431835  , 779.8518    , 1.82        , 3           , 255         , 0           , 0
-0.1202722  , 0.135278612 , -9.779416   , -0.00019542934, 0.000351297844, 0.000176552145, -0.0136102159, -0.0121535808, 5.503382E-05, 923.0092    , 31.3469143  , 779.8522    , 1.83        , 3           , 255         , 0           , 0
-0.119289495, 0.136635453 , -9.787703   , -0.0005988821, 0.000249337871, -0.000567956, -0.0136161344, -0.0121511649, 4.93205625E-05, 923.0092    , 31.3469143  , 779.852539  , 1.84        , 3           , 255         , 0           , 0
-0.116499819, 0.133069262 , -9.787717   , -0.000477561523, 0.000185540237, -0.0006723752, -0.0136208273, -0.0121494019, 4.257183E-05, 923.0092    , 31.3469143  , 779.8529    , 1.85        , 3           , 255         , 0           , 0
-0.113060251, 0.139535159 , -9.793788   , -3.76733078E-06, 0.0002857148, -0.00044502315, -0.0136208106, -0.0121466061, 3.808288E-05, 923.0092    , 31.3469143  , 779.8533    , 1.86        , 3           , 255         , 0           , 0
-0.122157857, 0.126399964 , -9.79184151 , 0.000287344825, 0.000354677963, -0.0002502876, -0.0136179067, -0.0121430932, 3.553181E-05, 923.0092    , 31.3469143  , 779.853638  , 1.87        , 3           , 255         , 0           , 0
-0.116076529, 0.126440018 , -9.790575   , 0.000213908817, -0.000164447018, 9.42973857E-05, -0.01361578 , -0.0121447258, 3.64971347E-05, 923.0092    , 31.3469143  , 779.854     , 1.88        , 3           , 255         , 0           , 0
-0.118404247, 0.127389163 , -9.792128   , 0.000180488452, -0.000132850313, 0.000120710742, -0.01361399 , -0.012146038, 3.772228E-05, 923.0092    , 31.3469143  , 779.8544    , 1.89        , 3           , 255         , 0           , 0
-0.1256017  , 0.133684725 , -9.792635   , -1.58601324E-05, 8.193047E-05, 0.000309656753, -0.0136141852, -0.0121451765, 4.08075575E-05, 923.0092    , 31.3469143  , 779.854736  , 1.9         , 3           , 255         , 0           , 0
-0.119339444, 0.128956616 , -9.786678   , -0.0001119838, 0.0002182891, 0.000409420725, -0.0136163384, -0.0121429386, 4.48838218E-05, 923.0092    , 31.3469143  , 779.871     , 1.91        , 3           , 255         , 0           , 0
-0.112530492, 0.132857248 , -9.791183   , -0.000133652968, 0.000400267018, 2.01641888E-06, -0.0136176758, -0.0121389395, 4.484949E-05, 923.0092    , 31.3469143  , 779.87146   , 1.92        , 3           , 255         , 0           , 0
-0.116375074, 0.132293612 , -9.790024   , 0.000629597867, 0.0001981095, -0.0003140319, -0.0136113409, -0.0121370014, 4.168234E-05, 923.032166  , 31.3434544  , 779.871948  , 1.93        , 3           , 255         , 0           , 0
-0.118076488, 0.128008485 , -9.7947855  , -0.000195181376, -0.000220057729, -0.000545932737, -0.0136132268, -0.0121392747, 3.625321E-05, 923.032166  , 31.3434544  , 779.872437  , 1.94        , 3           , 255         , 0           , 0
-0.122830868, 0.131793588 , -9.784935   , 3.33430362E-05, -0.000107412634, -1.14506984E-05, -0.0136128915, -0.01214035 , 3.61533275E-05, 923.032166  , 31.3434544  , 779.8729    , 1.95        , 3           , 255         , 0           , 0
-0.120426632, 0.129000634 , -9.790354   , 0.000453658926, -0.0003036958, 0.000370322668, -0.0136084  , -0.0121433362, 3.98977281E-05, 923.032166  , 31.3434544  , 779.8734    , 1.96        , 3           , 255         , 0           , 0
-0.122457884, 0.126717791 , -9.792844   , -1.44225487E-05, -0.000123668331, -0.000329972652, -0.013608505, -0.0121446177, 3.66149652E-05, 923.032166  , 31.3434544  , 779.8739    , 1.97        , 3           , 255         , 0           , 0
-0.124515437, 0.13172774  , -9.789669   , 0.000235383544, 0.000399877928, 0.0003476941, -0.0136061925, -0.0121405721, 4.00373465E-05, 923.032166  , 31.3434544  , 779.8744    , 1.98        , 3           , 255         , 0           , 0
-0.117733762, 0.126979873 , -9.791666   , -0.0005743756, -0.000124018334, 0.0002292982, -0.013611964, -0.0121417809, 4.23471E-05 , 923.032166  , 31.3434544  , 779.8749    , 1.99        , 3           , 255         , 0           , 0
-0.12131612 , 0.135909408 , -9.788053   , -0.000107912434, 5.734337E-05, 0.0003600997, -0.0136130871, -0.0121411588, 4.59401381E-05, 923.032166  , 31.3434544  , 779.875366  , 2           , 3           , 0           , 7.01423645  , 200
-0.120699309, 0.135678917 , -9.801766   , 0.000402721926, 0.000167402352, 0.000519490044, -0.0136009734, -0.0121413935, 5.10130849E-05, 923.032166  , 31.3434544  , 779.862     , 2.01        , 3           , 1           , 0           , 0
-0.116543651, 0.136865377 , -9.789752   , -4.237678E-06, 1.31150819E-05, 0.000472969434, -0.013601074, -0.0121411989, 5.57408E-05 , 923.032166  , 31.3434544  , 779.8624    , 2.02        , 3           , 2           , 0           , 0
-0.120764948, 0.13392736  , -9.791013   , -0.0005132446, 0.000227169265, 0.000319102837, -0.0136062456, -0.0121388845, 5.890079E-05, 923.0637    , 31.3457623  , 779.862854  , 2.03        , 3           , 3           , 0           , 0
-0.126692951, 0.1271573   , -9.791569   , -0.000212061379, 0.000346764078, -0.000142580742, -0.0136083495, -0.0121354368, 5.74278529E-05, 923.0637    , 31.3457623  , 779.8633    , 2.04        , 3           , 4           , 0           , 0
-0.118663095, 0.1331637   , -9.798099   , 5.17249136E-05, 0.000163653982, 0.0005760906, -0.0136079034, -0.0121337222, 6.316624E-05, 923.0637    , 31.3457623  , 779.8637    , 2.05        , 3           , 5           , 0           , 0
-0.118283167, 0.131630823 , -9.802581   , 0.000185409677, -7.598104E-05, 0.000213858933, -0.0136060743, -0.0121344551, 6.531508E-05, 923.0637    , 31.3457623  , 779.864136  , 2.06        , 3           , 6           , 0           , 0
-0.121245228, 0.134237632 , -9.797272   , -0.000363284023, 0.000219199515, -6.05319146E-05, -0.0136097  , -0.0121322712, 6.46799454E-05, 923.0637    , 31.3457623  , 779.864563  , 2.07        , 3           , 7           , 0           , 0
-0.122238383, 0.146769464 , -9.790814   , 4.58831928E-05, 0.000146943887, -0.000117842006, -0.0136092249, -0.0121308165, 6.348158E-05, 923.0637    , 31.3457623  , 779.865     , 2.08        , 3           , 8           , 5           , 5
-0.117714621, 0.131958991 , -9.790578   , 3.34555662E-05, 0.000130832137, 0.000542706053, -0.0136089558, -0.0121294353, 6.889059E-05, 923.0637    , 31.3457623  , 779.8654    , 2.09        , 3           , 9           , 5           , 0.1
-0.128181   , 0.13947311  , -9.797374   , 0.0001773321, -2.67570358E-05, 0.0002812496, -0.013607217, -0.0121296644, 7.170661E-05, 923.0637    , 31.3457623  , 779.865845  , 2.1         , 3           , 10          , 0.1         , 0.1
-0.120059684, 0.135102063 , -9.783709   , 0.000106460458, -0.000272851641, -0.0003975668, -0.0136095406, -0.0121367341, 6.780994E-05, 923.0637    , 31.3457623  , 779.814453  , 2.11        , 3           , 11          , 0.008031079 , 0.008031077
-0.1207155  , 0.134084076 , -9.786013   , -3.27692251E-05, 0.000473087071, -0.0007352973, -0.0136097791, -0.0121321036, 6.03928929E-05, 923.0637    , 31.3457623  , 779.8146    , 2.12        , 3           , 12          , 0.174643889 , 0
-0.122794986, 0.131717831 , -9.792999   , 0.000425511156, -4.71601852E-05, -0.000268324657, -0.01360549 , -0.0121326111, 5.77162E-05 , 923.0164    , 31.3463726  , 779.8147    , 2.13        , 3           , 13          , 0           , 0
-0.123930216, 0.135081038 , -9.792972   , 5.000751E-05, 0.000310495641, -0.000308034883, -0.013604953, -0.012129548, 5.459374E-05, 923.0164    , 31.3463726  , 779.8148    , 2.14        , 3           , 14          , -0.000237216474, -1.44822743E-05
-0.116264321, 0.1339109   , -9.790057   , 0.000167562146, -0.000421419361, -0.000415318966, -0.0136032272, -0.0121338191, 5.049807E-05, 923.0164    , 31.3463726  , 779.814941  , 2.15        , 3           , 15          , 0           , 5.041708E-05
-0.123146161, 0.132201463 , -9.784582   , 0.0004230706, 6.308502E-05, -0.0005159402, -0.0135989347, -0.0121332575, 4.533031E-05, 923.0164    , 31.3463726  , 779.815063  , 2.16        , 3           , 16          , 0           , 1.401298E-45
-0.117492542, 0.134691358 , -9.790499   , 0.0003234091, 1.74635261E-05, 7.066701E-06, -0.0135957  , -0.0121330824, 4.53986E-05 , 923.0164    , 31.3463726  , 779.8152    , 2.17        , 3           , 20          , 0           , 0
-0.1193431  , 0.132397175 , -9.787562   , -0.000173225941, 0.000393927621, -0.000330561219, -0.0135973925, -0.0121291876, 4.20395736E-05, 923.0164    , 31.3463726  , 779.8153    , 2.18        , 3           , 21          , 0           , 0
-0.125574872, 0.13090916  , -9.78978    , -0.000310649921, 0.0004596146, -0.0005593243, -0.0136004314, -0.0121246679, 3.63840736E-05, 923.0164    , 31.3463726  , 779.8154    , 2.19        , 3           , 22          , 0           , 0
-0.1238083  , 0.132338285 , -9.796766   , -0.000565335969, 0.000246486685, -7.375646E-05, -0.0136060733, -0.0121222138, 3.561302E-05, 923.0164    , 31.3463726  , 779.815552  , 2.2         , 3           , 40          , 0           , 0
-0.11851424 , 0.131398574 , -9.798345   , -0.000246273354, -0.0002891212, 0.000837235362, -0.0136088077, -0.01213218 , 4.40263939E-05, 923.0164    , 31.3463726  , 779.8287    , 2.21        , 3           , 41          , 0           , 0
-0.107881367, 0.1290718   , -9.783436   , 0.0007426645, -0.0004506209, 0.000143263955, -0.013601399, -0.0121366661, 4.55202826E-05, 923.0164    , 31.3463726  , 779.828857  , 2.22        , 3           , 42          , 0           , 0
-0.109933734, 0.133628771 , -9.785763   , -5.21284674E-05, -0.000131672, 0.000315969257, -0.0136019588, -0.01213794 , 4.869775E-05, 923.0426    , 31.3433189  , 779.829041  , 2.23        , 3           , 255         , 0           , 0
-0.118642092, 0.125899225 , -9.79085    , -5.148178E-05, -0.000248401338, 8.105436E-05, -0.013602484, -0.0121404119, 4.95420427E-05, 923.0426    , 31.3433189  , 779.8292    , 2.24        , 3           , 255         , 0           , 0
-0.123545483, 0.128081366 , -9.796461   , 0.000108582273, 0.000171815132, 0.000542069669, -0.0136014633, -0.0121386219, 5.4939137E-05, 923.0426    , 31.3433189  , 779.8294    , 2.25        , 3           , 255         , 0           , 0
-0.109402575, 0.135396048 , -9.80371    , 0.000180433766, -0.000137634517, -0.000374118274, -0.0135996155, -0.0121400477, 5.12168335E-05, 923.0426    , 31.3433189  , 779.8296    , 2.26        , 3           , 255         , 0           , 0
-0.119035386, 0.140821576 , -9.78946    , -0.0001707982, -1.77223446E-05, -0.000151112137, -0.013601304, -0.0121402452, 4.97081855E-05, 923.0426    , 31.3433189  , 779.8298    , 2.27        , 3           , 255         , 0           , 0
-0.120129108, 0.133847743 , -9.796997   , -0.000351449184, -8.621585E-05, 0.000384263461, -0.0136048654, -0.0121410554, 5.356238E-05, 923.0426    , 31.3433189  , 779.83      , 2.28        , 3           , 255         , 0           , 0
-0.123446   , 0.130698264 , -9.785828   , -0.000205164091, -0.000120016623, -6.155941E-05, -0.0136069087, -0.0121422643, 5.2963147E-05, 923.0426    , 31.3433189  , 779.830261  , 2.29        , 3           , 255         , 0           , 0
-0.126510754, 0.139407769 , -9.783406   , 0.0004028248, -0.000218553309, -0.000218659785, -0.0136028556, -0.01214448 , 5.08063822E-05, 923.0426    , 31.3433189  , 779.8305    , 2.3         , 3           , 255         , 0           , 0
-0.132097945, 0.133705169 , -9.796317   , 0.000238384091, -6.83103863E-05, -0.000199035581, -0.0135995848, -0.01214241 , 4.881492E-05, 923.0426    , 31.3433189  , 779.808167  , 2.31        , 3           , 255         , 0           , 0
-0.124864243, 0.129249886 , -9.795861   , -0.000186762336, 0.000536394131, -7.980109E-05, -0.0136014419, -0.0121370591, 4.79440023E-05, 923.0426    , 31.3433189  , 779.8082    , 2.32        , 3           , 255         , 0           , 0
-0.115480378, 0.135782868 , -9.795946   , 0.000407910382, 3.240395E-05, -0.000246575859, -0.0135973319, -0.0121367676, 4.5473942E-05, 923.006531  , 31.3450832  , 779.8083    , 2.33        , 3           , 255         , 0           , 0
-0.118855439, 0.130533233 , -9.793645   , 0.000131892244, -0.00014403362, -0.000767001649, -0.013595921, -0.0121383118, 3.782384E-05, 923.006531  , 31.3450832  , 779.80835   , 2.34        , 3           , 255         , 0           , 0
-0.114519134, 0.132356092 , -9.783636   , 1.4852907E-05, 0.0003312786, -3.97791155E-05, -0.0135957673, -0.0121350046, 3.73810326E-05, 923.006531  , 31.3450832  , 779.8084    , 2.35        , 3           , 255         , 0           , 0
-0.111385092, 0.131473392 , -9.786748   , -0.0004732718, 0.0004651021, 0.000623753644, -0.0136005748, -0.0121302688, 4.35550464E-05, 923.006531  , 31.3450832  , 779.8085    , 2.36        , 3           , 255         , 0           , 0
-0.114669025, 0.126759082 , -9.800146   , -0.000244103168, 0.000419410382, -2.30277874E-05, -0.013603013, -0.0121260788, 4.326773E-05, 923.006531  , 31.3450832  , 779.808533  , 2.37        , 3           , 255         , 0           , 0
-0.125308737, 0.131161883 , -9.794871   , 0.000134822476, 0.0004561271, 5.915209E-05, -0.013601671, -0.01212151 , 4.379718E-05, 923.006531  , 31.3450832  , 779.8086    , 2.38        , 3           , 255         , 0           , 0
-0.1231156  , 0.135604843 , -9.794199   , -0.0002248245, 0.0002561637, 0.000839984044, -0.0136040216, -0.0121188341, 5.21618058E-05, 923.006531  , 31.3450832  , 779.808655  , 2.39        , 3           , 255         , 0           , 0
-0.112863407, 0.127838746 , -9.79138    , -9.63363E-06, 0.0002886576, 0.000489588943, -0.0136041772, -0.0121158836, 5.70182128E-05, 923.006531  , 31.3450832  , 779.8087    , 2.4         , 3           , 255         , 0           , 0
-0.118464425, 0.131759316 , -9.79315948 , 0.0003942161, 0.00033079047, 0.0006724671, -0.01359685 , -0.012113384, 6.365563E-05, 923.006531  , 31.3450832  , 779.8365    , 2.41        , 3           , 255         , 0           , 0
-0.124225244, 0.134595633 , -9.792098   , 0.00058665243, 0.000353977637, 0.000378306577, -0.0135910315, -0.0121097974, 6.73904142E-05, 923.006531  , 31.3450832  , 779.836731  , 2.42        , 3           , 255         , 0           , 0
-0.123611525, 0.141616777 , -9.798273   , 0.00061808707, -0.000125163177, -0.0005338716, -0.013584787, -0.012111119, 6.206894E-05, 923.0543    , 31.3468475  , 779.837     , 2.43        , 3           , 255         , 0           , 0
-0.11747092 , 0.136732638 , -9.788915   , 0.000191616477, 0.000225208467, -0.0002936187, -0.0135828359, -0.0121089071, 5.910229E-05, 923.0543    , 31.3468475  , 779.8372    , 2.44        , 3           , 255         , 0           , 0
-0.1224276  , 0.130883232 , -9.802442   , -0.000225671611, -0.000348211615, 0.0003704497, -0.0135851372, -0.012112339, 6.285393E-05, 923.0543    , 31.3468475  , 779.8375    , 2.45        , 3           , 255         , 0           , 0
-0.115033768, 0.133608937 , -9.796118   , 0.000447091064, 0.0003913772, -6.2437357E-06, -0.013580665, -0.0121084256, 6.27383342E-05, 923.0543    , 31.3468475  , 779.8378    , 2.46        , 3           , 255         , 0           , 0
-0.115056254, 0.137814015 , -9.789439   , 0.000448794744, 0.000345424458, 0.00019516157, -0.0135762012, -0.0121049481, 6.464297E-05, 923.0543    , 31.3468475  , 779.838135  , 2.47        , 3           , 255         , 0           , 0
-0.1258451  , 0.138981491 , -9.792438   , 0.000291991048, 4.59309522E-05, -0.000111166068, -0.0135732694, -0.0121045019, 6.352512E-05, 923.0543    , 31.3468475  , 779.83844   , 2.48        , 3           , 255         , 0           , 0
-0.121240936, 0.1287181   , -9.7889595  , 0.000196162146, -0.0003837491, -0.000247842, -0.0135712763, -0.0121083725, 6.10988936E-05, 923.0543    , 31.3468475  , 779.838745  , 2.49        , 3           , 255         , 0           , 0
-0.111690685, 0.1228428   , -9.784034   , 0.000476349145, -0.000501352246, 4.73883119E-08, -0.0135665145, -0.0121133858, 6.11674041E-05, 923.0543    , 31.3468475  , 779.83905   , 2.5         , 3           , 255         , 0           , 0
-0.1226791  , 0.123164557 , -9.800245   , 1.22139463E-05, 3.23827335E-05, 1.32768218E-05, -0.0135678984, -0.0121149151, 6.13139855E-05, 923.0543    , 31.3468475  , 779.799     , 2.51        , 3           , 255         , 0           , 0
-0.119103253, 0.125816256 , -9.804486   , -0.000188905542, -9.817304E-05, -0.0003678245, -0.0135697424, -0.012115947, 5.76492166E-05, 923.0543    , 31.3468475  , 779.799     , 2.52        , 3           , 255         , 0           , 0
-0.115989588, 0.132821    , -9.784375   , -0.000191914558, -7.040277E-05, -0.000156986425, -0.0135716423, -0.0121166715, 5.60889748E-05, 923.04895   , 31.3440647  , 779.799     , 2.53        , 3           , 255         , 0           , 0
-0.1206062  , 0.133061573 , -9.794619   , -0.0006215486, 8.876648E-05, -0.0002817042, -0.0135778235, -0.0121158222, 5.32600025E-05, 923.04895   , 31.3440647  , 779.7991    , 2.54        , 3           , 255         , 0           , 0
-0.119723812, 0.147322133 , -9.796133   , -0.0002201063, -2.03544714E-05, 0.000553406542, -0.0135800913, -0.0121159488, 5.87965842E-05, 923.04895   , 31.3440647  , 779.799133  , 2.55        , 3           , 255         , 0           , 0
-0.118600711, 0.140592843 , -9.7866     , 0.000140383549, -8.94465848E-05, -0.000181962314, -0.0135786664, -0.012116868, 5.69891927E-05, 923.04895   , 31.3440647  , 779.7992    , 2.56        , 3           , 255         , 0           , 0
-0.1209596  , 0.143410817 , -9.792925   , -5.9652637E-05, 0.000231750935, -3.62620958E-05, -0.0135792578, -0.0121145556, 5.65951159E-05, 923.04895   , 31.3440647  , 779.799255  , 2.57        , 3           , 255         , 0           , 0
-0.1296607  , 0.130974144 , -9.795883   , -0.0004670498, -0.000297568738, -0.000101816811, -0.0135839162, -0.0121175451, 5.56174E-05 , 923.04895   , 31.3440647  , 779.7993    , 2.58        , 3           , 255         , 0           , 0
-0.122395113, 0.1345528   , -9.788648   , -0.0004907793, -3.49632319E-05, -0.000143160636, -0.0135888066, -0.0121179139, 5.41906047E-05, 923.04895   , 31.3440647  , 779.7994    , 2.59        , 3           , 255         , 0           , 0
-0.114321493, 0.144288272 , -9.791861   , 0.000159268762, -9.96066738E-05, 8.796647E-05, -0.0135872252, -0.0121188993, 5.508377E-05, 923.04895   , 31.3440647  , 779.799438  , 2.6         , 3           , 255         , 0           , 0
-0.120322369, 0.129805952 , -9.793159   , 0.000148708132, -0.000440226548, -0.000440493779, -0.0135906376, -0.0121266479, 5.07988843E-05, 923.04895   , 31.3440647  , 779.7719    , 2.61        , 3           , 255         , 0           , 0
-0.127503514, 0.1300674   , -9.788104   , 9.152459E-05, -0.000479603856, -0.000538841239, -0.0135896569, -0.0121315178, 4.54758847E-05, 923.04895   , 31.3440647  , 779.7718    , 2.62        , 3           , 255         , 0           , 0
-0.117726706, 0.133734539 , -9.795164   , -4.82660835E-05, -0.000210529863, -2.95961436E-05, -0.0135901365, -0.0121336272, 4.52085551E-05, 923.0277    , 31.3454227  , 779.771667  , 2.63        , 3           , 255         , 0           , 0
-0.125864714, 0.13910982  , -9.800354   , 0.000155784946, 0.0003521222, -0.0007303303, -0.0135884881, -0.0121302046, 3.785772E-05, 923.0277    , 31.3454227  , 779.771545  , 2.64        , 3           , 255         , 0           , 0
-0.130549282, 0.129558071 , -9.794657   , -2.589851E-05, -4.25302569E-05, 2.73139849E-05, -0.0135887507, -0.0121306265, 3.81366335E-05, 923.0277    , 31.3454227  , 779.7714    , 2.65        , 3           , 255         , 0           , 0
-0.124310449, 0.131132916 , -9.78956    , -0.000225240481, -0.000300313724, 0.0003283244, -0.0135910427, -0.0121335853, 4.146053E-05, 923.0277    , 31.3454227  , 779.7713    , 2.66        , 3           , 255         , 0           , 0
-0.116539977, 0.138478726 , -9.787985   , -0.000178033748, -0.0003396944, -0.000290143158, -0.013592788, -0.01213702 , 3.860539E-05, 923.0277    , 31.3454227  , 779.7712    , 2.67        , 3           , 255         , 0           , 0
-0.121051513, 0.132633135 , -9.794377   , 0.000156744281, 0.0003625727, -0.000345589564, -0.0135911778, -0.0121334428, 3.51003655E-05, 923.0277    , 31.3454227  , 779.771057  , 2.68        , 3           , 255         , 0           , 0
-0.111755826, 0.138084263 , -9.792717   , 0.000165033009, 0.000345673354, 0.000146284714, -0.0135895452, -0.0121299652, 3.65161723E-05, 923.0277    , 31.3454227  , 779.770935  , 2.69        , 3           , 255         , 0           , 0
-0.11230991 , 0.1391398   , -9.791097   , 0.0003832792, 4.73185864E-05, 8.195126E-06, -0.0135857137, -0.01212949 , 3.65916858E-05, 923.0277    , 31.3454227  , 779.7708    , 2.7         , 3           , 255         , 0           , 0
-0.123154342, 0.136574924 , -9.787135   , 0.000260256464, -4.098832E-05, 0.0005762846, -0.0135853579, -0.0121337622, 4.23862475E-05, 923.0277    , 31.3454227  , 779.776     , 2.71        , 3           , 255         , 0           , 0
-0.120214716, 0.132208839 , -9.78678    , 0.000323616929, -6.553972E-05, 0.00054867263, -0.0135821877, -0.0121343425, 4.78816437E-05, 923.0277    , 31.3454227  , 779.77594   , 2.72        , 3           , 255         , 0           , 0
-0.115412056, 0.126147419 , -9.792528   , 0.000338791928, -0.000117378178, 0.0002669456, -0.0135788321, -0.01213548 , 5.056692E-05, 923.0395    , 31.3468475  , 779.7759    , 2.73        , 3           , 255         , 0           , 0
-0.120658994, 0.126088709 , -9.802158   , -6.612245E-05, 0.000181426847, 0.0004286648, -0.0135795446, -0.0121336086, 5.482875E-05, 923.0395    , 31.3468475  , 779.7758    , 2.74        , 3           , 255         , 0           , 0
-0.11954812 , 0.1312403   , -9.803042   , -0.000123310921, -0.000298577273, 0.0007041629, -0.0135808634, -0.0121364966, 6.1910614E-05, 923.0395    , 31.3468475  , 779.775757  , 2.75        , 3           , 255         , 0           , 0
-0.116074443, 0.14053829  , -9.79482    , 0.000112323978, -0.000181881012, -0.00013984181, -0.0135797234, -0.012138335, 6.053696E-05, 923.0395    , 31.3468475  , 779.7757    , 2.76        , 3           , 255         , 0           , 0
-0.106871806, 0.1362904   , -9.794889   , 0.000417620846, 8.700118E-05, 0.000367741566, -0.0135755911, -0.0121374149, 6.42024E-05 , 923.0395    , 31.3468475  , 779.775635  , 2.77        , 3           , 255         , 0           , 0
-0.11720296 , 0.142353565 , -9.792341   , 0.000309195835, 0.0004437035, 0.0007587317, -0.0135725914, -0.0121328756, 7.172916E-05, 923.0395    , 31.3468475  , 779.7756    , 2.78        , 3           , 255         , 0           , 0
-0.127442449, 0.136786476 , -9.792327   , 0.0005982326, -7.489093E-06, 1.66988757E-05, -0.01356661 , -0.0121329511, 7.18971642E-05, 923.0395    , 31.3468475  , 779.7755    , 2.79        , 3           , 255         , 0           , 0
-0.118000962, 0.137074858 , -9.792741   , 0.0005749216, -0.00017099375, -0.000181334239, -0.0135608409, -0.0121346852, 7.01071E-05 , 923.0395    , 31.3468475  , 779.775452  , 2.8         , 3           , 255         , 0           , 0
-0.118852615, 0.133169219 , -9.79204    , 5.06844372E-05, -2.592091E-05, 0.0006063926, -0.0135631459, -0.0121341171, 7.62075E-05 , 923.0395    , 31.3468475  , 779.7638    , 2.81        , 3           , 255         , 0           , 0
-0.120242953, 0.138996452 , -9.797041   , -4.05115134E-05, 0.000450195977, -0.000302554981, -0.0135635147, -0.012129656, 7.312101E-05, 923.0395    , 31.3468475  , 779.7637    , 2.82        , 3           , 255         , 0           , 0
-0.1181345  , 0.136276126 , -9.80179    , -8.013836E-05, 0.000325700239, 0.000260143861, -0.0135643473, -0.0121263647, 7.567817E-05, 923.064331  , 31.34393    , 779.76355   , 2.83        , 3           , 255         , 0           , 0
-0.112504318, 0.136081159 , -9.795079   , 9.88559041E-05, 0.000360641134, 0.000462003285, -0.0135634132, -0.0121226981, 8.024908E-05, 923.064331  , 31.34393    , 779.7634    , 2.84        , 3           , 255         , 0           , 0
-0.122860327, 0.129291952 , -9.797297   , -0.000287996285, 0.000451337051, 0.000289751479, -0.0135663273, -0.0121181449, 8.308525E-05, 923.064331  , 31.34393    , 779.7633    , 2.85        , 3           , 255         , 0           , 0
-0.122600392, 0.139456    , -9.79566    , -0.000203473, -0.000242618917, 0.000599474763, -0.0135684358, -0.01212049 , 8.911265E-05, 923.064331  , 31.34393    , 779.7632    , 2.86        , 3           , 255         , 0           , 0
-0.116486832, 0.141974181 , -9.788443   , 0.000280226872, 0.000136913077, 0.000152434775, -0.0135656521, -0.0121191  , 9.06183559E-05, 923.064331  , 31.34393    , 779.763062  , 2.87        , 3           , 255         , 0           , 0
-0.121093929, 0.130354792 , -9.789365   , 2.05796678E-05, 0.000242796319, -0.0005709866, -0.0135653764, -0.0121167488, 8.48758064E-05, 923.064331  , 31.34393    , 779.762939  , 2.88        , 3           , 255         , 0           , 0
-0.121048823, 0.126777947 , -9.794296   , 0.000181756419, -0.000295291422, -0.0005698316, -0.0135634923, -0.01211978 , 7.92178E-05 , 923.064331  , 31.34393    , 779.7628    , 2.89        , 3           , 255         , 0           , 0
-0.121914588, 0.132084414 , -9.790196   , -0.000329673145, 3.813022E-05, -0.0002598131, -0.0135667557, -0.0121194348, 7.661461E-05, 923.064331  , 31.34393    , 779.7627    , 2.9         , 3           , 255         , 0           , 0
-0.127646253, 0.129616186 , -9.785764   , 0.000384512241, -0.0001533456, 0.000471238454, -0.0135657247, -0.0121223927, 8.13810038E-05, 923.064331  , 31.34393    , 779.718262  , 2.91        , 3           , 255         , 0           , 0
-0.121017314, 0.127807364 , -9.788887   , -0.0006143843, -0.000204047217, -4.067909E-05, -0.0135718631, -0.0121244369, 8.100193E-05, 923.064331  , 31.34393    , 779.717834  , 2.92        , 3           , 255         , 0           , 0
-0.120859161, 0.122466758 , -9.785982   , -0.000253778941, -7.649607E-06, 2.81783E-05 , -0.0135744046, -0.01212451 , 8.128472E-05, 923.0169    , 31.34705    , 779.7174    , 2.93        , 3           , 255         , 0           , 0
-0.130488276, 0.128773242 , -9.79267    , -0.00017185758, 0.000248004828, -3.20263825E-05, -0.0135761183, -0.012122035, 8.09308E-05 , 923.0169    , 31.34705    , 779.717     , 2.94        , 3           , 255         , 0           , 0
-0.125256211, 0.1371688   , -9.787613   , -0.0004762371, -1.8584773E-05, 0.000763331831, -0.0135809733, -0.012122117, 8.856631E-05, 923.0169    , 31.34705    , 779.716553  , 2.95        , 3           , 255         , 0           , 0
-0.111333765, 0.138869748 , -9.794798   , 0.0003282742, 0.000296967453, 0.0003844023, -0.0135777369, -0.0121190958, 9.23698462E-05, 923.0169    , 31.34705    , 779.7161    , 2.96        , 3           , 255         , 0           , 0
-0.1201231  , 0.132876381 , -9.794732   , -0.000227791621, 0.000250216719, -9.169335E-05, -0.0135800028, -0.0121166054, 9.141898E-05, 923.0169    , 31.34705    , 779.7157    , 2.97        , 3           , 255         , 0           , 0
-0.117704011, 0.1333594   , -9.793566   , 0.000302237982, 0.000123622187, 0.0002683472, -0.0135770133, -0.0121153332, 9.40855462E-05, 923.0169    , 31.34705    , 779.7153    , 2.98        , 3           , 255         , 0           , 0
-0.1165181  , 0.142988414 , -9.793401   , 0.000604243251, -1.35320843E-05, 0.0003147538, -0.0135710081, -0.0121154254, 9.723479E-05, 923.0169    , 31.34705    , 779.7149    , 2.99        , 3           , 255         , 0           , 0
-0.114474192, 0.141371846 , -9.80151    , 0.000569121854, 0.000227288037, 0.000175025925, -0.0135653382, -0.0121131325, 9.895413E-05, 923.0169    , 31.34705    , 779.714539  , 3           , 3           , 0           , 8.014236    , 300
-0.116676174, 0.131720513 , -9.791621   , 0.000114968381, 8.715333E-05, -0.000187651036, -0.0135652833, -0.0121159432, 9.70794063E-05, 923.0169    , 31.34705    , 779.7432    , 3.01        , 3           , 1           , 0           , 0
-0.126137227, 0.136969969 , -9.790639   , 7.603614E-05, 0.000425548 , -0.000421577948, -0.0135644721, -0.0121117448, 9.280609E-05, 923.0169    , 31.34705    , 779.743042  , 3.02        , 3           , 2           , 0           , 0
-0.1249903  , 0.136213958 , -9.793003   , 3.06034053E-05, 0.0007349901, 2.43510731E-05, -0.0135641694, -0.0121043921, 9.29499E-05 , 922.993     , 31.343998   , 779.742859  , 3.03        , 3           , 3           , 0           , 0
-0.122937992, 0.132586077 , -9.79054451 , 0.00025550148, 0.000598255836, -2.9416733E-06, -0.0135616111, -0.0120984139, 9.283936E-05, 922.993     , 31.343998   , 779.7427    , 3.04        , 3           , 4           , 0           , 0
-0.120344661, 0.130533755 , -9.794532   , -0.000217394059, 0.000696626 , -6.441587E-05, -0.0135637783, -0.012091456, 9.2100745E-05, 922.993     , 31.343998   , 779.7425    , 3.05        , 3           , 5           , 0           , 0
-0.117594436, 0.136410952 , -9.786296   , 0.000142118923, 0.0007607828, -0.000458864379, -0.0135622984, -0.0120839123, 8.740913E-05, 922.993     , 31.343998   , 779.7423    , 3.06        , 3           , 6           , 0           , 0
-0.112148121, 0.13999939  , -9.793177   , -7.022009E-05, 0.00042890507, -0.000438981981, -0.0135629484, -0.0120796822, 8.29613346E-05, 922.993     , 31.343998   , 779.7421    , 3.07        , 3           , 7           , 0           , 0
-0.123874679, 0.135954574 , -9.792913   , 0.0003676206, 0.000215926237, 0.000137175375, -0.01355929 , -0.0120775048, 8.430374E-05, 922.993     , 31.343998   , 779.741943  , 3.08        , 3           , 8           , 5           , 5
-0.131722346, 0.133237675 , -9.794832   , -0.000230350008, 0.0005804191, -0.0003379644, -0.01356155 , -0.0120717473, 8.084556E-05, 922.993     , 31.343998   , 779.74176   , 3.09        , 3           , 9           , 5           , 0.1
-0.1233966  , 0.127431035 , -9.796499   , -0.0006250285, 0.000329002942, 4.349224E-05, -0.0135678062, -0.0120684532, 8.123583E-05, 922.993     , 31.343998   , 779.7416    , 3.1         , 3           , 10          , 0.1         , 0.1
-0.1105939  , 0.124234691 , -9.791281   , 1.59669289E-05, 0.000351362047, -0.000268145639, -0.0135700395, -0.0120716551, 7.85361044E-05, 922.993     , 31.343998   , 779.800232  , 3.11        , 3           , 11          , 0.007279498 , 0.00727949524
-0.114971057, 0.1331968   , -9.785845   , -0.000321025844, -0.000114139104, -0.0003436826, -0.01357321 , -0.0120728435, 7.511493E-05, 922.993     , 31.343998   , 779.8004    , 3.12        , 3           , 12          , 0.174645633 , 0
-0.115781046, 0.132833675 , -9.790247   , -0.0001687093, -0.000495400862, 0.00013779079, -0.0135749141, -0.0120777776, 7.656002E-05, 923.0129    , 31.345829   , 779.8006    , 3.13        , 3           , 13          , 0           , 0
-0.108501747, 0.135596424 , -9.792656   , -1.91288273E-05, 9.30522147E-05, -3.40740226E-05, -0.0135751013, -0.0120768519, 7.62066556E-05, 923.0129    , 31.345829   , 779.8008    , 3.14        , 3           , 14          , -0.000237154556, -1.43744473E-05
-0.122955419, 0.1295007   , -9.7906065  , 0.000721209566, 6.617659E-05, 0.000384372659, -0.0135679357, -0.0120761376, 8.004124E-05, 923.0129    , 31.345829   , 779.800964  , 3.15        , 3           , 15          , 0           , 5.041779E-05
-0.126929432, 0.136644691 , -9.795358   , 0.000400911726, -0.000182655087, 0.000455385947, -0.0135639831, -0.0120779015, 8.461967E-05, 923.0129    , 31.345829   , 779.801147  , 3.16        , 3           , 16          , 0           , 1.401298E-45
-0.119284809, 0.1368518   , -9.793295   , -0.0003166109, -4.48060746E-07, -0.000198371141, -0.0135671245, -0.0120779332, 8.263611E-05, 923.0129    , 31.345829   , 779.801331  , 3.17        , 3           , 20          , 0           , 0
-0.118974686, 0.130576938 , -9.796765   , -0.0004543221, 0.000156379625, -0.000522513466, -0.0135716023, -0.01207644 , 7.738998E-05, 923.0129    , 31.345829   , 779.8015    , 3.18        , 3           , 21          , 0           , 0
-0.115381286, 0.128844529 , -9.802184   , -0.00030562398, -0.000293431862, -0.000561680936, -0.0135745928, -0.01207945 , 7.181324E-05, 923.0129    , 31.345829   , 779.8017    , 3.19        , 3           , 22          , 0           , 0
-0.107346036, 0.138084471 , -9.790907   , 0.000477368769, -1.74692941E-05, 0.001007059 , -0.0135699408, -0.0120794866, 8.188576E-05, 923.0129    , 31.345829   , 779.8019    , 3.2         , 3           , 40          , 0           , 0
-0.111187041, 0.136251733 , -9.796049   , 0.000922142353, 9.113446E-06, 0.0008847871, -0.0135603389, -0.0120752938, 9.072614E-05, 923.0129    , 31.345829   , 779.824     , 3.21        , 3           , 41          , 0           , 0
-0.115228832, 0.134081155 , -9.799759   , 0.000394838862, -0.000351867377, 0.000338726735, -0.0135564338, -0.0120787658, 9.416097E-05, 923.0129    , 31.345829   , 779.824341  , 3.22        , 3           , 42          , 0           , 0
-0.124807522, 0.136312291 , -9.786723   , 0.000208839556, -0.000128999513, 0.000441585871, -0.0135543989, -0.0120799951, 9.85941151E-05, 923.076965  , 31.3462372  , 779.8247    , 3.23        , 3           , 255         , 0           , 0
-0.1283564  , 0.136475042 , -9.786119   , -0.000363909639, 0.0001652778, -5.9403028E-05, -0.01355803 , -0.0120783513, 9.79777E-05 , 923.076965  , 31.3462372  , 779.8251    , 3.24        , 3           , 255         , 0           , 0
-0.115400657, 0.13479355  , -9.7939415  , 0.0003169551, -4.08080268E-05, 0.0002547326, -0.0135548934, -0.0120787248, 0.000100530458, 923.076965  , 31.3462372  , 779.825439  , 3.25        , 3           , 255         , 0           , 0
-0.116425619, 0.1366555   , -9.787153   , 0.0005211272, -1.705797E-05, -0.00051084155, -0.01354962 , -0.0120789679, 9.542459E-05, 923.076965  , 31.3462372  , 779.8258    , 3.26        , 3           , 255         , 0           , 0
-0.115858629, 0.136143729 , -9.790982   , -0.000209949911, 0.0001824457, -9.783853E-06, -0.0135517167, -0.0120771434, 9.53020353E-05, 923.076965  , 31.3462372  , 779.8262    , 3.27        , 3           , 255         , 0           , 0
-0.114951596, 0.137244061 , -9.792321   , 0.000370744325, 0.00032631465, 4.91520041E-06, -0.01354801 , -0.01207388 , 9.530696E-05, 923.076965  , 31.3462372  , 779.826538  , 3.28        , 3           , 255         , 0           , 0
-0.118231475, 0.134389445 , -9.788695   , 8.847818E-05, 0.000114898496, 2.96543622E-05, -0.013547129, -0.0120727271, 9.558793E-05, 923.076965  , 31.3462372  , 779.8269    , 3.29        , 3           , 255         , 0           , 0
-0.117583372, 0.1312149   , -9.790245   , 0.00026417675, -0.000117229545, -0.00043626735, -0.0135444338, -0.0120739574, 9.124133E-05, 923.076965  , 31.3462372  , 779.8273    , 3.3         , 3           , 255         , 0           , 0
-0.115297571, 0.14388679  , -9.795781   , 0.000455994537, 0.000141238372, -0.00021374978, -0.0135450969, -0.012071616, 8.914817E-05, 923.076965  , 31.3462372  , 779.7549    , 3.31        , 3           , 255         , 0           , 0
-0.117273688, 0.1430167   , -9.79828548 , 0.000148511535, 0.000116158917, -0.000839428, -0.0135435117, -0.0120705683, 8.073853E-05, 923.076965  , 31.3462372  , 779.754761  , 3.32        , 3           , 255         , 0           , 0
-0.121798478, 0.132784083 , -9.795751   , -0.000134520771, -0.000194778069, 2.96563048E-05, -0.0135448594, -0.0120725119, 8.106146E-05, 923.009338  , 31.3461     , 779.754639  , 3.33        , 3           , 255         , 0           , 0
-0.11289756 , 0.132091075 , -9.789419   , -0.000114416078, 0.000150050648, 0.001094511 , -0.0135461362, -0.0120708654, 9.19857557E-05, 923.009338  , 31.3461     , 779.7545    , 3.34        , 3           , 255         , 0           , 0
-0.118739918, 0.136698633 , -9.790956   , -0.000623120635, -0.000141403318, 1.85248246E-05, -0.0135523686, -0.0120722745, 9.219016E-05, 923.009338  , 31.3461     , 779.7544    , 3.35        , 3           , 255         , 0           , 0
-0.119550683, 0.1339047   , -9.788563   , -8.365839E-05, -0.0001667599, -5.353164E-05, -0.0135531994, -0.012073949, 9.167745E-05, 923.009338  , 31.3461     , 779.7543    , 3.36        , 3           , 255         , 0           , 0
-0.122585259, 0.123612382 , -9.792274   , -0.000101621306, 0.000421414559, -0.0007709832, -0.0135541223, -0.01206984 , 8.391085E-05, 923.009338  , 31.3461     , 779.75415   , 3.37        , 3           , 255         , 0           , 0
-0.118444167, 0.134338021 , -9.799565   , -0.000179397364, 0.00024074431, 0.000255501771, -0.0135559468, -0.0120673971, 8.64331159E-05, 923.009338  , 31.3461     , 779.754     , 3.38        , 3           , 255         , 0           , 0
-0.123358727, 0.137036592 , -9.794548   , 0.0005770648, -0.000132719026, 0.000474556262, -0.0135502331, -0.01206866 , 9.119647E-05, 923.009338  , 31.3461     , 779.753967  , 3.39        , 3           , 255         , 0           , 0
-0.126542717, 0.137078092 , -9.789226   , 0.000302758883, -0.000178682327, -3.815574E-05, -0.0135472026, -0.0120704519, 9.083914E-05, 923.009338  , 31.3461     , 779.7539    , 3.4         , 3           , 255         , 0           , 0
-0.11528828 , 0.137747213 , -9.793081   , 0.00012684385, 0.0001241131, -0.000101552621, -0.0135504957, -0.01207158 , 8.986207E-05, 923.009338  , 31.3461     , 779.787842  , 3.41        , 3           , 255         , 0           , 0
-0.115196742, 0.1412974   , -9.79303551 , -0.000520293543, 4.74638327E-05, 0.000330095063, -0.0135557381, -0.01207106 , 9.315644E-05, 923.009338  , 31.3461     , 779.787964  , 3.42        , 3           , 255         , 0           , 0
-0.119648978, 0.1364176   , -9.790304   , -0.000119012329, 0.00039816575, 0.000260829751, -0.0135569591, -0.0120670432, 9.57106458E-05, 923.0304    , 31.3459644  , 779.7881    , 3.43        , 3           , 255         , 0           , 0
-0.113060854, 0.14196974  , -9.793615   , -0.000167693492, 0.000333166478, -0.000198857073, -0.0135586113, -0.012063738, 9.367699E-05, 923.0304    , 31.3459644  , 779.7882    , 3.44        , 3           , 255         , 0           , 0
-0.117821909, 0.136932239 , -9.795528   , -5.17958979E-05, 0.000516857835, 0.000161884323, -0.0135591477, -0.01205855 , 9.52256742E-05, 923.0304    , 31.3459644  , 779.7883    , 3.45        , 3           , 255         , 0           , 0
-0.12681514 , 0.132440656 , -9.802503   , -0.000620797568, 6.36144068E-06, 0.0002839117, -0.0135653885, -0.012058448, 9.80638E-05 , 923.0304    , 31.3459644  , 779.788452  , 3.46        , 3           , 255         , 0           , 0
-0.118987858, 0.133170933 , -9.801646   , -0.000419609365, 0.000162395387, 0.000463589618, -0.0135696409, -0.0120567614, 0.000102677455, 923.0304    , 31.3459644  , 779.7886    , 3.47        , 3           , 255         , 0           , 0
-0.11707747 , 0.137210816 , -9.795102   , -1.32741261E-05, 4.510251E-05, -3.00183783E-05, -0.01356977 , -0.0120563144, 0.000102371167, 923.0304    , 31.3459644  , 779.7887    , 3.48        , 3           , 255         , 0           , 0
-0.116269886, 0.131651431 , -9.785176   , -0.000689347333, 0.000172825385, -0.0003231398, -0.013576624, -0.01205463 , 9.911645E-05, 923.0304    , 31.3459644  , 779.7888    , 3.49        , 3           , 255         , 0           , 0
-0.126153886, 0.130242139 , -9.791025   , -0.0003390952, 1.38629284E-05, 0.000459870382, -0.0135800689, -0.0120544294, 0.000103713071, 923.0304    , 31.3459644  , 779.78894   , 3.5         , 3           , 255         , 0           , 0
-0.114520743, 0.134043142 , -9.799054   , 7.3856485E-05, 0.000339690916, 0.0006019712, -0.013584299, -0.0120517276, 0.000109745379, 923.0304    , 31.3459644  , 779.7883    , 3.51        , 3           , 255         , 0           , 0
-0.119952656, 0.133800283 , -9.800825   , 0.000229808516, -1.1135865E-05, 0.0001980504, -0.0135820257, -0.0120518114, 0.000111727306, 923.0304    , 31.3459644  , 779.788452  , 3.52        , 3           , 255         , 0           , 0
-0.113867164, 0.130269319 , -9.798487   , 7.867139E-05, 0.000104200662, 0.000365201442, -0.0135812834, -0.0120507209, 0.000115365008, 923.027954  , 31.3459644  , 779.7886    , 3.53        , 3           , 255         , 0           , 0
-0.122426927, 0.127540737 , -9.795219   , 0.000631799863, 0.000208240264, -8.388899E-05, -0.0135749578, -0.0120486533, 0.000114497896, 923.027954  , 31.3459644  , 779.7887    , 3.54        , 3           , 255         , 0           , 0
-0.113885857, 0.1273734   , -9.791507   , 0.000291027041, -0.000204145545, -0.0002507322, -0.0135720158, -0.0120507265, 0.000112018395, 923.027954  , 31.3459644  , 779.7888    , 3.55        , 3           , 255         , 0           , 0
-0.120273724, 0.1282539   , -9.788777   , -1.97027548E-05, 0.000143714758, -0.000219664958, -0.0135721862, -0.0120493192, 0.000109802335, 923.027954  , 31.3459644  , 779.78894   , 3.56        , 3           , 255         , 0           , 0
-0.122075692, 0.133748621 , -9.79493    , 7.43091659E-05, 0.000419792777, 0.0005651416, -0.013571512, -0.0120450454, 0.000115396535, 923.027954  , 31.3459644  , 779.789063  , 3.57        , 3           , 255         , 0           , 0
-0.120294832, 0.137044653 , -9.788275   , -0.000320543, -0.000190774517, 9.955016E-05, -0.01357473 , -0.01204694 , 0.000116417883, 923.027954  , 31.3459644  , 779.7892    , 3.58        , 3           , 255         , 0           , 0
-0.126984447, 0.135529175 , -9.795248   , -0.00027087 , 0.000275881437, 0.0008049152, -0.0135775339, -0.0120440712, 0.0001244292, 923.027954  , 31.3459644  , 779.789368  , 3.59        , 3           , 255         , 0           , 0
-0.11453028 , 0.139758155 , -9.794397   , -0.000666506065, -1.75844543E-05, 0.0007957504, -0.0135842934, -0.0120441383, 0.000132388726, 923.027954  , 31.3459644  , 779.789551  , 3.6         , 3           , 255         , 0           , 0
-0.115170978, 0.134639412 , -9.791285   , -0.0005265482, -0.000108680179, 0.0003897094, -0.0135892788, -0.012046434, 0.0001362965, 923.027954  , 31.3459644  , 779.792236  , 3.61        , 3           , 255         , 0           , 0
-0.121897   , 0.1314324   , -9.798243   , -0.000106259424, -0.0003220056, -0.000179531009, -0.0135903209, -0.0120496778, 0.000134545 , 923.027954  , 31.3459644  , 779.7924    , 3.62        , 3           , 255         , 0           , 0
-0.120176   , 0.12739262  , -9.79452    , -3.81956925E-05, -0.000172746455, -0.000168362109, -0.0135906814, -0.0120514277, 0.000132884932, 923.007935  , 31.3462372  , 779.7926    , 3.63        , 3           , 255         , 0           , 0
-0.118507124, 0.126787037 , -9.788729   , -0.0002101486, 0.0002434743, -0.000745823258, -0.0135926921, -0.0120490948, 0.000125393941, 923.007935  , 31.3462372  , 779.7928    , 3.64        , 3           , 255         , 0           , 0
-0.11752627 , 0.131864145 , -9.789594   , 0.000334105076, -3.577572E-05, -0.00036542298, -0.0135893077, -0.0120495018, 0.000121744743, 923.007935  , 31.3462372  , 779.792969  , 3.65        , 3           , 255         , 0           , 0
-0.118374251, 0.132080227 , -9.786693   , 0.0008110088, 8.411118E-05, 0.000169376712, -0.0135812182, -0.0120486384, 0.000123427 , 923.007935  , 31.3462372  , 779.793152  , 3.66        , 3           , 255         , 0           , 0
-0.1263186  , 0.137820631 , -9.788668   , -0.000170586252, 6.519692E-05, 0.000241299727, -0.0135829542, -0.012047953, 0.000125831051, 923.007935  , 31.3462372  , 779.793335  , 3.67        , 3           , 255         , 0           , 0
-0.125176042, 0.1445006   , -9.791517   , 0.000365394342, -0.0002100196, 0.000133329086, -0.0135793174, -0.0120500345, 0.000127192819, 923.007935  , 31.3462372  , 779.7935    , 3.68        , 3           , 255         , 0           , 0
-0.118604757, 0.1391073   , -9.796024   , 0.000397071883, 0.000147825485, -3.8002E-05 , -0.0135753434, -0.0120485658, 0.000126792758, 923.007935  , 31.3462372  , 779.7937    , 3.69        , 3           , 255         , 0           , 0
-0.128586188, 0.1320373   , -9.797147   , 0.0002484362, 0.000245659641, -0.000281952845, -0.0135728251, -0.0120461462, 0.00012394  , 923.007935  , 31.3462372  , 779.7939    , 3.7         , 3           , 255         , 0           , 0
-0.120976582, 0.136476308 , -9.8010025  , -2.16305052E-05, 0.000137485331, 0.000417455216, -0.0135742668, -0.012049987, 0.000128109867, 923.007935  , 31.3462372  , 779.824341  , 3.71        , 3           , 255         , 0           , 0
-0.118290827, 0.131477922 , -9.783128   , -0.0004942943, 0.000345408334, 0.000471428648, -0.0135792652, -0.0120464694, 0.00013277703, 923.007935  , 31.3462372  , 779.8247    , 3.72        , 3           , 255         , 0           , 0
-0.118475243, 0.135874927 , -9.796829   , -0.000362716557, 0.0003221137, 1.68464685E-05, -0.0135828918, -0.0120432461, 0.00013290174, 923.0056    , 31.3463039  , 779.8251    , 3.73        , 3           , 255         , 0           , 0
-0.125138834, 0.132147133 , -9.78611851 , 0.000146922452, 8.409057E-05, 0.000183576485, -0.0135814454, -0.0120423809, 0.000134726011, 923.0056    , 31.3463039  , 779.825439  , 3.74        , 3           , 255         , 0           , 0
-0.1191151  , 0.125258192 , -9.78679848 , 0.000273731246, 0.000261783076, -2.3136854E-05, -0.0135787064, -0.0120397666, 0.0001344591, 923.0056    , 31.3463039  , 779.8258    , 3.75        , 3           , 255         , 0           , 0
-0.11257378 , 0.139625773 , -9.79249    , 4.86250647E-05, 0.000159955031, 0.000105275372, -0.0135782324, -0.0120381527, 0.000135490089, 923.0056    , 31.3463039  , 779.8262    , 3.76        , 3           , 255         , 0           , 0
-0.116531111, 0.13694492  , -9.792187   , 0.000394964882, -0.000160506868, -0.000471580715, -0.0135742277, -0.0120398216, 0.0001307963, 923.0056    , 31.3463039  , 779.826538  , 3.77        , 3           , 255         , 0           , 0
-0.11038436 , 0.148066759 , -9.792625   , 0.0008876393, 0.0003616581, -0.000119771423, -0.0135653364, -0.0120362239, 0.00012954956, 923.0056    , 31.3463039  , 779.8269    , 3.78        , 3           , 255         , 0           , 0
-0.115746118, 0.1385187   , -9.797705   , 0.000438626274, 1.49216121E-05, -0.000117207739, -0.0135609349, -0.0120360907, 0.000128375526, 923.0056    , 31.3463039  , 779.8273    , 3.79        , 3           , 255         , 0           , 0
-0.117443159, 0.127766371 , -9.794286   , -0.000134086367, -0.00040502788, -0.0009876823, -0.0135621578, -0.0120402724, 0.00011855406, 923.0056    , 31.3463039  , 779.827637  , 3.8         , 3           , 255         , 0           , 0
-0.126187891, 0.131258741 , -9.797098   , -0.0001751438, -0.000310162926, -2.59720764E-06, -0.0135677205, -0.0120425941, 0.000118616037, 923.0056    , 31.3463039  , 779.8566    , 3.81        , 3           , 255         , 0           , 0
-0.118737236, 0.129784346 , -9.791063   , -0.000305741472, 0.000192585183, 0.000240963447, -0.013570806, -0.0120406356, 0.00012099943, 923.0056    , 31.3463039  , 779.8572    , 3.82        , 3           , 255         , 0           , 0
-0.117079578, 0.1328834   , -9.796709   , 0.0005715929, 0.000173811422, 0.0004988135, -0.013565151, -0.0120388288, 0.00012596375, 923.0125    , 31.3469143  , 779.8577    , 3.83        , 3           , 255         , 0           , 0
-0.120481491, 0.126879022 , -9.797884   , 0.00051013683, 0.000120550882, -0.000369592773, -0.0135600064, -0.012037674, 0.000122251644, 923.0125    , 31.3469143  , 779.8583    , 3.84        , 3           , 255         , 0           , 0
-0.1237879  , 0.1345664   , -9.795649   , 5.21221082E-05, 0.000247742573, 0.000123494377, -0.0135594979, -0.0120351808, 0.000123452948, 923.0125    , 31.3469143  , 779.8589    , 3.85        , 3           , 255         , 0           , 0
-0.112943769, 0.125574455 , -9.801733   , -0.000102593563, 0.000484432385, -0.000408451131, -0.0135604749, -0.0120303929, 0.000119302931, 923.0125    , 31.3469143  , 779.8595    , 3.86        , 3           , 255         , 0           , 0
-0.117248677, 0.12801668  , -9.798279   , 0.000168956351, 4.38825227E-05, -0.000160221258, -0.0135587659, -0.0120299766, 0.000117694843, 923.0125    , 31.3469143  , 779.8601    , 3.87        , 3           , 255         , 0           , 0
-0.1231887  , 0.141026646 , -9.80028248 , -3.546456E-05, -0.0003794082, 0.000188097125, -0.013559144, -0.0120337447, 0.000119627177, 923.0125    , 31.3469143  , 779.8607    , 3.88        , 3           , 255         , 0           , 0
-0.120571673, 0.139585659 , -9.794568   , -0.000375826581, -0.0003093779, 0.0002863211, -0.0135629363, -0.0120367985, 0.000122532219, 923.0125    , 31.3469143  , 779.8613    , 3.89        , 3           , 255         , 0           , 0
-0.118444942, 0.145171136 , -9.797999   , -5.53781865E-06, -0.000109338442, 2.6445814E-06, -0.0135629922, -0.0120378919, 0.000122573474, 923.0125    , 31.3469143  , 779.861938  , 3.9         , 3           , 255         , 0           , 0
-0.11762625 , 0.1339697   , -9.792078   , 0.0001822886, 0.0002922483, 0.000527444 , -0.0135620069, -0.0120373089, 0.000127817373, 923.0125    , 31.3469143  , 779.8764    , 3.91        , 3           , 255         , 0           , 0
-0.114005864, 0.13524273  , -9.786047   , 0.0006174127, -5.376465E-05, 0.000928993162, -0.0135559449, -0.0120377224, 0.000137114184, 923.0125    , 31.3469143  , 779.8771    , 3.92        , 3           , 255         , 0           , 0
-0.11771448 , 0.140282944 , -9.789073   , 0.000261641369, -0.000203912845, -1.23641912E-05, -0.0135533269, -0.0120397629, 0.000137018185, 923.0547    , 31.3444729  , 779.877747  , 3.93        , 3           , 255         , 0           , 0
-0.116066173, 0.135384381 , -9.792358   , 5.71633864E-05, -0.000272019475, 0.000387766253, -0.0135528026, -0.01204243 , 0.000140932549, 923.0547    , 31.3444729  , 779.8784    , 3.94        , 3           , 255         , 0           , 0
-0.116712607, 0.1348228   , -9.790778   , 0.000441606942, -0.000308660878, -0.000154943758, -0.01354837 , -0.0120455371, 0.000139425014, 923.0547    , 31.3444729  , 779.8791    , 3.95        , 3           , 255         , 0           , 0
-0.11751692 , 0.139840558 , -9.799481   , 0.000186906051, -0.0002388689, 0.0001498994, -0.013546519, -0.0120479055, 0.0001409563, 923.0547    , 31.3444729  , 779.879761  , 3.96        , 3           , 255         , 0           , 0
-0.114201881, 0.136047676 , -9.797546   , -0.000152028166, 3.577848E-05, -0.000310371164, -0.0135480026, -0.01204759 , 0.000137847863, 923.0547    , 31.3444729  , 779.880432  , 3.97        , 3           , 255         , 0           , 0
-0.111547366, 0.135888517 , -9.791477   , -4.19543649E-05, 0.0001448917, 0.000288068026, -0.0135484561, -0.0120461015, 0.000140708784, 923.0547    , 31.3444729  , 779.8811    , 3.98        , 3           , 255         , 0           , 0
-0.118476883, 0.131047979 , -9.7908     , -0.000512861065, 0.000109679633, 0.000523381168, -0.0135536464, -0.0120449336, 0.0001459275, 923.0547    , 31.3444729  , 779.8818    , 3.99        , 3           , 255         , 0           , 0
-0.125087813, 0.135121554 , -9.79505    , -8.40342254E-05, -0.000307677081, 0.0005061832, -0.0135545479, -0.01204794 , 0.0001510308, 923.0547    , 31.3444729  , 779.882446  , 4           , 3           , 0           , 9.014236    , 400
-0.123075783, 0.139260381 , -9.800027   , -0.0002196533, -0.000175806781, 0.000323147 , -0.0135618355, -0.0120479  , 0.000154346824, 923.0547    , 31.3444729  , 779.833862  , 4.01        , 3           , 1           , 0           , 0
-0.113875426, 0.138733134 , -9.792841   , -0.0005714374, 0.00032739804, 0.000172263026, -0.0135675706, -0.012044603, 0.000156024966, 923.0547    , 31.3444729  , 779.8342    , 4.02        , 3           , 2           , 0           , 0
-0.1124766  , 0.133137614 , -9.791889   , -0.000145331549, 2.6605574E-05, 0.000265251118, -0.0135690542, -0.0120443  , 0.000158673749, 923.036255  , 31.34644    , 779.8346    , 4.03        , 3           , 3           , 0           , 0
-0.122717723, 0.13201268  , -9.791773   , -0.000430800021, -0.0001305294, 0.000195170767, -0.0135733858, -0.0120455772, 0.00016064306, 923.036255  , 31.34644    , 779.834961  , 4.04        , 3           , 4           , 0           , 0
-0.11932423 , 0.1360919   , -9.794336   , -6.319169E-06, 0.000299657637, 0.000496036257, -0.0135735078, -0.012042514, 0.000165562509, 923.036255  , 31.34644    , 779.8354    , 4.05        , 3           , 5           , 0           , 0
-0.120295979, 0.129241824 , -9.790094   , 0.000262644171, -4.74444823E-05, -0.000267559255, -0.0135708489, -0.0120430253, 0.000162893513, 923.036255  , 31.34644    , 779.8358    , 4.06        , 3           , 6           , 0           , 0
-0.119809352, 0.1313204   , -9.788382   , -0.000118039985, -0.000179240946, -0.000134314527, -0.013572013, -0.0120448349, 0.000161574761, 923.036255  , 31.34644    , 779.836243  , 4.07        , 3           , 7           , 0           , 0
-0.123336926, 0.132388711 , -9.794056   , -0.000124781451, -5.56399755E-05, -0.000455113739, -0.0135732079, -0.0120454533, 0.000157031362, 923.036255  , 31.34644    , 779.8367    , 4.08        , 3           , 8           , 5           , 5
-0.119305253, 0.13677904  , -9.794057   , 0.0004769418, -0.000315288169, -0.000334763958, -0.0135683976, -0.0120486524, 0.000153726665, 923.036255  , 31.34644    , 779.8371    , 4.09        , 3           , 9           , 5           , 0.1
-0.115890741, 0.136325151 , -9.788901   , -0.000163086457, -0.000195272092, 0.000163202887, -0.0135700488, -0.012050583, 0.000155385118, 923.036255  , 31.34644    , 779.8375    , 4.1         , 3           , 10          , 0.1         , 0.1
-0.112017892, 0.131266549 , -9.794644   , -0.000321352738, -0.0003816705, 7.46304431E-06, -0.0135758305, -0.012056089, 0.000155542482, 923.036255  , 31.34644    , 779.8216    , 4.11        , 3           , 11          , 0.00674221525, 0.00674221152
-0.116819724, 0.136077225 , -9.803838   , -0.000158174618, -5.883648E-05, -0.000183365031, -0.0135773895, -0.0120567018, 0.0001537169, 923.036255  , 31.34644    , 779.8219    , 4.12        , 3           , 12          , 0.174648076 , 0
-0.119952694, 0.13231644  , -9.793562   , -0.0001084087, 0.0003054306, 6.925719E-05, -0.01357848 , -0.0120536378, 0.000154367939, 923.0546    , 31.3491535  , 779.8222    , 4.13        , 3           , 13          , 0           , 0
-0.118388757, 0.1383172   , -9.791492   , -0.000250336772, 0.0002685271, 0.000130285975, -0.0135809975, -0.0120509351, 0.000155634276, 923.0546    , 31.3491535  , 779.8225    , 4.14        , 3           , 14          , -0.0002369806, -1.43290745E-05
-0.121946774, 0.129831865 , -9.788565   , -1.18430617E-05, 9.147374E-05, 0.000130469227, -0.0135811316, -0.0120500028, 0.0001569265, 923.0546    , 31.3491535  , 779.8228    , 4.15        , 3           , 15          , 0           , 5.041629E-05
-0.11222671 , 0.1345986   , -9.788301   , -0.0002384757, 0.0003241642, -0.00027959724, -0.0135834822, -0.0120467991, 0.000154086621, 923.0546    , 31.3491535  , 779.8231    , 4.16        , 3           , 16          , 0           , 1.401298E-45
-0.120514371, 0.131573588 , -9.802854   , -0.0004383825, -0.000219768815, -2.97582483E-05, -0.0135878613, -0.0120489988, 0.0001538189, 923.0546    , 31.3491535  , 779.8234    , 4.17        , 3           , 20          , 0           , 0
-0.124895141, 0.1295789   , -9.793259   , 0.000366261171, -5.83320434E-05, -0.000154077221, -0.0135841826, -0.0120496033, 0.000152286113, 923.0546    , 31.3491535  , 779.8237    , 4.18        , 3           , 21          , 0           , 0
-0.123701692, 0.143289119 , -9.789332   , 0.0001761952, -3.11758049E-06, -0.0003031501, -0.0135823833, -0.0120496759, 0.000149255167, 923.0546    , 31.3491535  , 779.824036  , 4.19        , 3           , 22          , 0           , 0
-0.126097634, 0.136577725 , -9.789729   , 0.000256293861, -9.538173E-05, -0.000226598611, -0.0135797933, -0.0120506613, 0.000147002254, 923.0546    , 31.3491535  , 779.824341  , 4.2         , 3           , 40          , 0           , 0
-0.12556015 , 0.1352975   , -9.790588   , 0.000405599771, -0.000479064882, -0.000237606291, -0.01357768 , -0.012057893, 0.000144715086, 923.0546    , 31.3491535  , 779.784058  , 4.21        , 3           , 41          , 0           , 0
-0.117861971, 0.132809833 , -9.797414   , -0.000109003609, -0.000138191783, -0.000489160535, -0.01357871 , -0.01205934 , 0.000139842436, 923.0546    , 31.3491535  , 779.7841    , 4.22        , 3           , 42          , 0           , 0
-0.114452444, 0.125097781 , -9.787999   , 0.0003953646, 0.000165372621, -0.000437359238, -0.0135747045, -0.0120577458, 0.0001354466, 922.9988    , 31.3461685  , 779.7842    , 4.23        , 3           , 255         , 0           , 0
-0.11942488 , 0.1253589   , -9.799321   , 0.000249283243, -0.000178477654, -0.0002237285, -0.0135721853, -0.0120595619, 0.000133233654, 922.9988    , 31.3461685  , 779.784241  , 4.24        , 3           , 255         , 0           , 0
-0.122455791, 0.124056414 , -9.799984   , -0.000147077444, 0.000399896875, -0.0005730195, -0.0135735869, -0.012055641, 0.000127449413, 922.9988    , 31.3461685  , 779.7843    , 4.25        , 3           , 255         , 0           , 0
-0.118911073, 0.129455388 , -9.79377651 , -0.000148434236, -0.000117512755, -0.0007543736, -0.0135749811, -0.0120569179, 0.000119921984, 922.9988    , 31.3461685  , 779.784363  , 4.26        , 3           , 255         , 0           , 0
-0.117960826, 0.126369953 , -9.793394   , 0.000506737269, -0.000438494841, 0.000295202481, -0.0135699483, -0.0120612625, 0.000122933387, 922.9988    , 31.3461685  , 779.7844    , 4.27        , 3           , 255         , 0           , 0
-0.1225127  , 0.13555868  , -9.798456   , -0.000182989621, -5.41819E-05, 0.00116762531, -0.01357192 , -0.0120616481, 0.0001346165, 922.9988    , 31.3461685  , 779.7845    , 4.28        , 3           , 255         , 0           , 0
-0.114134274, 0.145011932 , -9.791193   , -0.0002877349, -0.0002139011, 0.000341930834, -0.0135748386, -0.0120637389, 0.000138064657, 922.9988    , 31.3461685  , 779.784546  , 4.29        , 3           , 255         , 0           , 0
-0.116486296, 0.137456059 , -9.796535   , 0.0003986401, 1.66349764E-05, -9.900825E-05, -0.0135708405, -0.0120635862, 0.000137072377, 922.9988    , 31.3461685  , 779.7846    , 4.3         , 3           , 255         , 0           , 0
-0.123369   , 0.13227281  , -9.792013   , 0.0002658066, 0.00024287554, -0.0005765265, -0.0135663468, -0.0120623987, 0.000131253109, 922.9988    , 31.3461685  , 779.8291    , 4.31        , 3           , 255         , 0           , 0
-0.120392382, 0.1360266   , -9.790321   , 0.000277109124, 0.000133865731, 0.000161220349, -0.0135635957, -0.0120610408, 0.0001328471, 922.9988    , 31.3461685  , 779.829468  , 4.32        , 3           , 255         , 0           , 0
-0.114582814, 0.126342759 , -9.787885   , -0.000313764118, -6.80211742E-05, 0.000524193165, -0.0135667957, -0.012061649, 0.000138098025, 923.0392    , 31.3462372  , 779.829834  , 4.33        , 3           , 255         , 0           , 0
-0.1196997  , 0.133700445 , -9.78873    , 0.000114633207, -7.306781E-05, -4.60631672E-05, -0.0135656446, -0.0120623857, 0.000137647323, 923.0392    , 31.3462372  , 779.8302    , 4.34        , 3           , 255         , 0           , 0
-0.124418035, 0.139302284 , -9.794077   , -6.891225E-05, -0.000106151834, 0.000279116153, -0.0135663673, -0.0120634083, 0.000140452757, 923.0392    , 31.3462372  , 779.830566  , 4.35        , 3           , 255         , 0           , 0
-0.118240759, 0.14281185  , -9.798526   , 0.000571987941, 0.000152018591, -2.589389E-05, -0.0135606434, -0.012061893, 0.00014017323, 923.0392    , 31.3462372  , 779.830933  , 4.36        , 3           , 255         , 0           , 0
-0.117282413, 0.14800635  , -9.793426   , 0.0005445037, -0.0007008838, -0.000393701746, -0.0135551533, -0.0120689562, 0.000136331408, 923.0392    , 31.3462372  , 779.8313    , 4.37        , 3           , 255         , 0           , 0
-0.126107484, 0.142901018 , -9.8001585  , -3.18077218E-05, -0.000262893183, 0.0002906636, -0.0135555081, -0.0120715434, 0.000139273543, 923.0392    , 31.3462372  , 779.831665  , 4.38        , 3           , 255         , 0           , 0
-0.115736321, 0.128346726 , -9.795496   , -0.0005497914, 0.0004680425, -0.000524504, -0.0135609414, -0.0120669333, 0.0001339653, 923.0392    , 31.3462372  , 779.832031  , 4.39        , 3           , 255         , 0           , 0
-0.121527   , 0.1285197   , -9.791932   , -0.0002859269, 0.000121089884, -0.000277363026, -0.013563768, -0.0120657608, 0.000131175344, 923.0392    , 31.3462372  , 779.8324    , 4.4         , 3           , 255         , 0           , 0
-0.124587439, 0.137352973 , -9.79527    , -8.11751961E-05, 0.0002098447, -8.134544E-05, -0.0135689331, -0.0120665971, 0.000130386121, 923.0392    , 31.3462372  , 779.813049  , 4.41        , 3           , 255         , 0           , 0
-0.116008557, 0.138615847 , -9.791052   , 0.000340396 , 1.28732336E-06, -0.000138191041, -0.0135655114, -0.0120666027, 0.0001290041, 923.0392    , 31.3462372  , 779.8133    , 4.42        , 3           , 255         , 0           , 0
-0.109695457, 0.126738518 , -9.788324   , 0.0006148645, -0.000233308514, -0.000321968371, -0.0135593256, -0.0120689785, 0.0001258162, 923.049866  , 31.3475246  , 779.813538  , 4.43        , 3           , 255         , 0           , 0
-0.118631341, 0.135326311 , -9.79239    , 0.000487666053, -0.000196409339, 0.000242710856, -0.0135544781, -0.0120709129, 0.00012826985, 923.049866  , 31.3475246  , 779.8138    , 4.44        , 3           , 255         , 0           , 0
-0.12024007 , 0.13381     , -9.796774   , 0.000784228963, 7.626471E-05, 7.804796E-05, -0.0135466466, -0.0120701389, 0.000129039938, 923.049866  , 31.3475246  , 779.814     , 4.45        , 3           , 255         , 0           , 0
-0.116949879, 0.13654682  , -9.788713   , -0.000323939661, 0.000118791031, -0.000201781528, -0.0135498615, -0.0120689785, 0.000127006133, 923.049866  , 31.3475246  , 779.8143    , 4.46        , 3           , 255         , 0           , 0
-0.112237833, 0.136835247 , -9.799947   , -0.000360159436, -0.000145931059, 5.10251E-05 , -0.0135534685, -0.0120704286, 0.000127536128, 923.049866  , 31.3475246  , 779.8145    , 4.47        , 3           , 255         , 0           , 0
-0.123957559, 0.132784575 , -9.796915   , -0.0006721323, 0.000333283184, 0.000316433929, -0.0135602262, -0.0120670535, 0.000130655128, 923.049866  , 31.3475246  , 779.814758  , 4.48        , 3           , 255         , 0           , 0
-0.119251907, 0.129574507 , -9.788757   , 5.31807455E-05, 0.000350938557, -9.60220059E-05, -0.0135596832, -0.0120635573, 0.000129647364, 923.049866  , 31.3475246  , 779.815     , 4.49        , 3           , 255         , 0           , 0
-0.108145073, 0.1313388   , -9.791979   , 0.000223963987, -0.000122658457, 2.96708458E-06, -0.0135574434, -0.0120647829, 0.000129693668, 923.049866  , 31.3475246  , 779.815247  , 4.5         , 3           , 255         , 0           , 0
-0.118666217, 0.135101348 , -9.791498   , 0.00064665766, 0.000241438785, 0.000754102541, -0.0135528408, -0.0120604057, 0.000137223033, 923.049866  , 31.3475246  , 779.7834    , 4.51        , 3           , 255         , 0           , 0
-0.123965241, 0.1408737   , -9.798627   , 0.0006425977, 0.000356381235, -0.000372480252, -0.0135463709, -0.0120568937, 0.0001334501, 923.049866  , 31.3475246  , 779.783447  , 4.52        , 3           , 255         , 0           , 0
-0.11576055 , 0.1437734   , -9.795111   , 7.78712E-05 , -9.255114E-05, 0.000296533457, -0.0135456268, -0.0120577794, 0.000136427843, 923.0484    , 31.34549    , 779.7835    , 4.53        , 3           , 255         , 0           , 0
-0.1192057  , 0.132460192 , -9.79966    , -0.000305151072, 6.85319756E-05, 0.000261361245, -0.01354871 , -0.0120570585, 0.000139032054, 923.0484    , 31.34549    , 779.783569  , 4.54        , 3           , 255         , 0           , 0
-0.1335914  , 0.135121435 , -9.79867    , -0.000161799515, 1.954324E-05, 0.000281660381, -0.0135503616, -0.0120568248, 0.000141845885, 923.0484    , 31.34549    , 779.7836    , 4.55        , 3           , 255         , 0           , 0
-0.125754252, 0.11991974  , -9.796585   , 9.925375E-05, -2.83401168E-05, 0.000173000735, -0.0135493912, -0.0120570855, 0.000143579644, 923.0484    , 31.34549    , 779.7837    , 4.56        , 3           , 255         , 0           , 0
-0.124885835, 0.128100455 , -9.797276   , 9.668543E-05, 6.65456446E-06, 9.280509E-05, -0.0135484347, -0.0120570064, 0.000144506761, 923.0484    , 31.34549    , 779.783752  , 4.57        , 3           , 255         , 0           , 0
-0.121799313, 0.127024814 , -9.797081   , 0.0007285022, -0.0002774398, 0.000734864443, -0.0135412384, -0.0120596811, 0.000151892658, 923.0484    , 31.34549    , 779.7838    , 4.58        , 3           , 255         , 0           , 0
-0.126127318, 0.137110084 , -9.786608   , 0.0003511336, 0.000369525573, 0.000480472285, -0.013537786, -0.0120559223, 0.000156647147, 923.0484    , 31.34549    , 779.783936  , 4.59        , 3           , 255         , 0           , 0
-0.119926237, 0.129687265 , -9.798363   , 6.112782E-05, -0.000160299533, 0.000396049 , -0.0135372216, -0.0120574711, 0.000160629177, 923.0484    , 31.34549    , 779.784058  , 4.6         , 3           , 255         , 0           , 0
-0.117933072, 0.126842588 , -9.797129   , -0.000610037532, -0.000238195193, 0.000378573022, -0.0135435835, -0.0120656928, 0.000164449579, 923.0484    , 31.34549    , 779.7587    , 4.61        , 3           , 255         , 0           , 0
-0.120011076, 0.1341927   , -9.80182648 , -0.000223281153, 0.0002346023, 0.0006309094, -0.0135458913, -0.0120632621, 0.00017072662, 923.0484    , 31.34549    , 779.758667  , 4.62        , 3           , 255         , 0           , 0
-0.124119282, 0.135139346 , -9.794252   , 0.000289103744, 0.0007423005, 0.0006442138, -0.0135430787, -0.0120557537, 0.000177067937, 923.0592    , 31.3472538  , 779.7586    , 4.63        , 3           , 255         , 0           , 0
-0.123159565, 0.137099668 , -9.78916    , -0.000248519675, 0.00040629768, -3.123121E-05, -0.0135455569, -0.012051696, 0.000176700618, 923.0592    , 31.3472538  , 779.758545  , 4.64        , 3           , 255         , 0           , 0
-0.126430154, 0.145101547 , -9.79495049 , -0.000239388843, -0.000156483875, -2.0558673E-05, -0.0135479495, -0.0120532615, 0.000176516231, 923.0592    , 31.3472538  , 779.7585    , 4.65        , 3           , 255         , 0           , 0
-0.12018007 , 0.128343716 , -9.796004   , 0.0003533137, -2.093718E-05, 0.000332006864, -0.013544457, -0.0120534264, 0.000179839 , 923.0592    , 31.3472538  , 779.7584    , 4.66        , 3           , 255         , 0           , 0
-0.1109874  , 0.133230031 , -9.791      , -2.18217319E-05, 0.0005270714, 1.07768174E-05, -0.0135446759, -0.0120481541, 0.0001798754, 923.0592    , 31.3472538  , 779.758362  , 4.67        , 3           , 255         , 0           , 0
-0.125260785, 0.138712361 , -9.796733   , -0.0003169661, 0.00057841785, 0.000106593885, -0.0135478573, -0.0120423567, 0.0001808629, 923.0592    , 31.3472538  , 779.7583    , 4.68        , 3           , 255         , 0           , 0
-0.124295458, 0.132696792 , -9.790746   , 0.000229821017, 0.000453758432, 0.0005931053, -0.0135456286, -0.012037742, 0.000186732228, 923.0592    , 31.3472538  , 779.75824   , 4.69        , 3           , 255         , 0           , 0
-0.111232243, 0.136523873 , -9.784193   , -2.94239435E-05, 0.000288627751, 0.000207356032, -0.0135459471, -0.012034826, 0.000188766615, 923.0592    , 31.3472538  , 779.7582    , 4.7         , 3           , 255         , 0           , 0
-0.117259756, 0.138250664 , -9.785939   , -1.61909556E-05, 0.000264489063, 0.0001042582, -0.0135490568, -0.0120353783, 0.0001898086, 923.0592    , 31.3472538  , 779.721252  , 4.71        , 3           , 255         , 0           , 0
-0.129242212, 0.146852642 , -9.789254   , 0.000336264377, -0.000206514087, -0.000172900531, -0.0135456733, -0.0120374663, 0.000188107661, 923.0592    , 31.3472538  , 779.721     , 4.72        , 3           , 255         , 0           , 0
-0.114213385, 0.13816233  , -9.786783   , -8.31543E-05, 5.58375759E-05, 0.0007535884, -0.0135465963, -0.012036806, 0.000195635643, 923.0709    , 31.3452187  , 779.720764  , 4.73        , 3           , 255         , 0           , 0
-0.119523719, 0.141680166 , -9.791352   , -0.000380715326, 0.0005822686, -1.45503982E-05, -0.0135504  , -0.0120309861, 0.000195411252, 923.0709    , 31.3452187  , 779.7205    , 4.74        , 3           , 255         , 0           , 0
-0.1255779  , 0.124708451 , -9.784552   , 0.0006468756, -0.000178405433, 0.0005300747, -0.0135439951, -0.0120326979, 0.000200735958, 923.0709    , 31.3452187  , 779.7203    , 4.75        , 3           , 255         , 0           , 0
-0.1195363  , 0.134317085 , -9.790196   , -4.30837681E-05, -9.01304957E-05, -0.000391402078, -0.01354438 , -0.0120336516, 0.000196834313, 923.0709    , 31.3452187  , 779.720032  , 4.76        , 3           , 255         , 0           , 0
-0.112694241, 0.129284    , -9.797898   , 0.000494622742, 1.94165132E-05, -0.000198662878, -0.0135394111, -0.0120334849, 0.000194845154, 923.0709    , 31.3452187  , 779.7198    , 4.77        , 3           , 255         , 0           , 0
-0.112572752, 0.132413059 , -9.800846   , 0.000317638 , -0.000252368831, 0.000116951589, -0.0135362484, -0.012035992, 0.000196048786, 923.0709    , 31.3452187  , 779.719543  , 4.78        , 3           , 255         , 0           , 0
-0.123652458, 0.133909047 , -9.801131   , -6.102433E-05, -0.0007936646, 0.0002680246, -0.0135368919, -0.0120438933, 0.000198836366, 923.0709    , 31.3452187  , 779.7193    , 4.79        , 3           , 255         , 0           , 0
-0.122491464, 0.133456841 , -9.797754   , -0.0005191385, 0.000103814171, -0.00028766063, -0.0135420486, -0.0120428931, 0.000195945788, 923.0709    , 31.3452187  , 779.719055  , 4.8         , 3           , 255         , 0           , 0
-0.123449489, 0.140174761 , -9.793129   , 0.000356529519, -0.000191130152, -3.52966636E-05, -0.0135423783, -0.0120475208, 0.000195665692, 923.0709    , 31.3452187  , 779.671143  , 4.81        , 3           , 255         , 0           , 0
-0.119432427, 0.129622892 , -9.794108   , 0.000339300081, -0.0004961092, 0.000288899551, -0.0135390209, -0.012052441, 0.000198621725, 923.0709    , 31.3452187  , 779.6706    , 4.82        , 3           , 255         , 0           , 0
-0.108403265, 0.138933688 , -9.797369   , 0.000167675738, -8.640347E-05, 0.0005435583, -0.01353741 , -0.0120532317, 0.0002040688, 922.997253  , 31.3449478  , 779.670044  , 4.83        , 3           , 255         , 0           , 0
-0.113099076, 0.135987684 , -9.795077   , 0.000344703934, 3.76283642E-05, -1.987796E-05, -0.01353396 , -0.0120528582, 0.000203864911, 922.997253  , 31.3449478  , 779.6695    , 4.84        , 3           , 255         , 0           , 0
-0.11869248 , 0.1319864   , -9.795146   , 0.000279617845, -0.0001947327, -0.000500174356, -0.0135311056, -0.0120548727, 0.000198889757, 922.997253  , 31.3449478  , 779.668945  , 4.85        , 3           , 255         , 0           , 0
-0.132491082, 0.1360695   , -9.789511   , 5.60749322E-05, -5.2022413E-05, 6.879361E-05, -0.0135305533, -0.0120553849, 0.0001995847, 922.997253  , 31.3449478  , 779.6684    , 4.86        , 3           , 255         , 0           , 0
-0.123250529, 0.130406335 , -9.797051   , 0.0006056462, -0.0001791278, 2.59254666E-05, -0.0135245016, -0.0120571721, 0.000199868184, 922.997253  , 31.3449478  , 779.667847  , 4.87        , 3           , 255         , 0           , 0
-0.125788972, 0.129616618 , -9.793907   , 5.350454E-05, 9.822624E-05, -0.000456360518, -0.0135239111, -0.012056252, 0.00019529149, 922.997253  , 31.3449478  , 779.6673    , 4.88        , 3           , 255         , 0           , 0
-0.131263465, 0.1309603   , -9.790064   , 0.0006685192, 0.0006831944, -0.000478243863, -0.0135171665, -0.0120494859, 0.0001904169, 922.997253  , 31.3449478  , 779.666748  , 4.89        , 3           , 255         , 0           , 0
-0.1176303  , 0.124348462 , -9.795388   , 0.0001640201, -2.2132881E-05, 3.59052137E-05, -0.01351553 , -0.0120497029, 0.000190778926, 922.997253  , 31.3449478  , 779.6662    , 4.9         , 3           , 255         , 0           , 0
-0.114832856, 0.134506628 , -9.789874   , 0.000149694373, 0.000116691168, 0.000207608187, -0.0135144107, -0.0120528275, 0.000192843363, 922.997253  , 31.3449478  , 779.7297    , 4.91        , 3           , 255         , 0           , 0
-0.124303438, 0.138445035 , -9.792982   , 9.00620653E-05, -0.00026360288, 0.000231968937, -0.0135135381, -0.0120554324, 0.000195198576, 922.997253  , 31.3449478  , 779.729553  , 4.92        , 3           , 255         , 0           , 0
-0.121147588, 0.1345258   , -9.81037    , 0.000251714548, 0.000233742176, 0.000171867025, -0.0135110393, -0.0120530715, 0.000196885609, 923.036865  , 31.3446083  , 779.729431  , 4.93        , 3           , 255         , 0           , 0
-0.114325866, 0.129371881 , -9.796222   , 0.0003814458, 0.000380079378, -0.000749295868, -0.0135071352, -0.0120493723, 0.000189341634, 923.036865  , 31.3446083  , 779.7293    , 4.94        , 3           , 255         , 0           , 0
-0.1276513  , 0.131813049 , -9.787432   , -1.90184655E-05, 1.45900931E-05, -0.000357382145, -0.0135072824, -0.0120492745, 0.000185766 , 923.036865  , 31.3446083  , 779.7292    , 4.95        , 3           , 255         , 0           , 0
-0.123386443, 0.137601852 , -9.798151   , 0.000291704375, -0.0002091556, 0.000571432756, -0.0135044353, -0.012051289, 0.000191508312, 923.036865  , 31.3446083  , 779.729065  , 4.96        , 3           , 255         , 0           , 0
-0.118938923, 0.1496418   , -9.794031   , 0.0005769944, 0.000393470167, -3.85927269E-05, -0.013498662, -0.0120473634, 0.0001910693, 923.036865  , 31.3446083  , 779.728943  , 4.97        , 3           , 255         , 0           , 0
-0.119233631, 0.143061712 , -9.794081   , 0.000368838257, 0.000206791214, 0.0005090173, -0.0134950355, -0.012045227, 0.000196131368, 923.036865  , 31.3446083  , 779.7288    , 4.98        , 3           , 255         , 0           , 0
-0.122144721, 0.139169484 , -9.791834   , 3.82789731E-05, -0.000383364619, 0.000397068361, -0.0134947011, -0.0120490063, 0.00020015359, 923.036865  , 31.3446083  , 779.7287    , 4.99        , 3           , 255         , 0           , 0
-0.12443348 , 0.131140143 , -9.801748   , 0.0003000431, -0.000177820955, -7.738702E-05, -0.013491692, -0.0120507954, 0.000199403774, 923.036865  , 31.3446083  , 779.7286    , 5           , 3           , 0           , -1          , 500
-0.122137047, 0.135369882 , -9.796915   , 0.000461789663, -0.00014914757, 0.000291380158, -0.0134925442, -0.0120557742, 0.000202403069, 923.036865  , 31.3446083  , 779.727661  , 5.01        , 3           , 1           , 0           , 0
-0.124402367, 0.135923162 , -9.795848   , 0.000270254415, -6.71982561E-05, -0.00043799117, -0.0134897884, -0.0120565053, 0.0001980324, 923.036865  , 31.3446083  , 779.727539  , 5.02        , 3           , 2           , 0           , 0
-0.115655527, 0.1267965   , -9.800684   , 0.000222799092, -0.000235942163, 0.000740138 , -0.013487651, -0.0120587647, 0.0002054653, 923.0188    , 31.347187   , 779.7274    , 5.03        , 3           , 3           , 0           , 0
-0.113142632, 0.127692789 , -9.7840395  , 0.000124920582, -2.70472538E-05, 0.00038847  , -0.0134864487, -0.0120589826, 0.000209353471, 923.0188    , 31.347187   , 779.7273    , 5.04        , 3           , 4           , 0           , 0
-0.128922731, 0.1322085   , -9.790381   , -0.000130345041, -0.000348490285, -8.23175942E-05, -0.0134877423, -0.0120624788, 0.00020857733, 923.0188    , 31.347187   , 779.7272    , 5.05        , 3           , 5           , 0           , 0
-0.121994719, 0.1275185   , -9.793326   , -0.000338143378, -0.000445782061, -7.57238959E-05, -0.0134911155, -0.0120669454, 0.000207880264, 923.0188    , 31.347187   , 779.727051  , 5.06        , 3           , 6           , 0           , 0
-0.127131984, 0.133930132 , -9.795065   , 6.567169E-05, -0.00014762058, 0.000386097876, -0.0134905064, -0.01206837 , 0.000211760984, 923.0188    , 31.347187   , 779.7269    , 5.07        , 3           , 7           , 0           , 0
-0.127356023, 0.140136659 , -9.794382   , -0.0003631378, -8.60825239E-05, -0.000132800749, -0.0134941209, -0.0120692495, 0.000210444618, 923.0188    , 31.347187   , 779.7268    , 5.08        , 3           , 8           , 5           , 5
-0.120687626, 0.12809059  , -9.79082    , 8.740426E-05, 0.000219263165, -0.000470942643, -0.01349319 , -0.01206712 , 0.00020570583, 923.0188    , 31.347187   , 779.7267    , 5.09        , 3           , 9           , 5           , 0.1
