Acc X       , Acc Y       , Acc Z       , Gyro X      , Gyro Y      , Gyro Z      , Euler X     , Euler Y     , Euler Z     , Pres X      , Pres Y      , Pres Z      , Time        , Status      , LowRate X   , LowRate Y   , LowRate Z    
-0.123018794, 0.129526988 , -9.784067   , 0           , 0           , 0           , -0.01323779 , -0.0125716161, 0           , 922.6969    , 33.68068    , 782.7766    , 0           , 2           , 0           , 5.83423138  , 0
-0.118495166, 0.132478386 , -9.790426   , 0.000159273914, -3.15833022E-05, 3.98240445E-06, -0.0132364975, -0.0125717735, 4.400847E-08, 922.6969    , 33.68068    , 782.7766    , 0.01        , 3           , 1           , 0           , 0
-0.117533758, 0.130681425 , -9.79282951 , 0.00022472546, 0.0003823511, 0.00019982415, -0.0132342726, -0.0125679234, 1.99157967E-06, 922.6969    , 33.68068    , 782.7766    , 0.02        , 3           , 2           , 0           , 0
-0.118926644, 0.126238346 , -9.793114   , -0.000153710193, -0.000109976565, 0.000217420718, -0.0132358391, -0.0125689935, 4.18026639E-06, 922.641663  , 33.2435722  , 782.7766    , 0.03        , 3           , 3           , 0           , 0
-0.116667904, 0.127774343 , -9.788954   , -0.000356077915, -0.000366110879, -0.000453646062, -0.0132393409, -0.012572716, -3.07579029E-07, 922.641663  , 33.2435722  , 782.7766    , 0.04        , 3           , 4           , 0           , 0
-0.119233392, 0.128475785 , -9.796508   , -0.000173786539, -0.000127052073, -0.000299062231, -0.0132410424, -0.0125740254, -3.28127976E-06, 922.641663  , 33.2435722  , 782.7766    , 0.05        , 3           , 5           , 0           , 0
-0.1214176  , 0.1374057   , -9.78372    , 0.0001361057, 7.94720545E-05, 0.000388829038, -0.0132397292, -0.0125731789, 5.963628E-07, 922.641663  , 33.2435722  , 782.7766    , 0.06        , 3           , 6           , 0           , 0
-0.122648165, 0.122694612 , -9.780272   , -0.000396411051, 4.68496E-06 , -6.857576E-05, -0.0132436855, -0.0125731425, -9.00034252E-08, 922.641663  , 33.2435722  , 782.7766    , 0.07        , 3           , 7           , 0           , 0
-0.119259857, 0.134728163 , -9.791088   , -0.0005890969, 0.000323121843, 0.000197746034, -0.0132495994, -0.0125698848, 1.84459361E-06, 922.641663  , 33.2435722  , 782.7766    , 0.08        , 3           , 8           , 5           , 5
-0.119542919, 0.133741647 , -9.808035   , -5.897018E-05, -0.000125865568, 0.0005288384, -0.013250255, -0.0125710731, 7.149485E-06, 922.641663  , 33.2435722  , 782.7766    , 0.09        , 3           , 9           , 5           , 0.1
-0.125424176, 0.125184774 , -9.78996    , 8.168747E-06, 0.000159538467, -3.43495049E-05, -0.0132501693, -0.0125694815, 6.784865E-06, 922.641663  , 33.2435722  , 782.7766    , 0.1         , 3           , 10          , 0.1         , 0.1
-0.124712065, 0.126884729 , -9.802389   , -5.11333346E-05, -0.000238165783, -0.000350231479, -0.0132519389, -0.0125574665, 3.33056278E-06, 922.641663  , 33.2435722  , 783.2735    , 0.11        , 3           , 11          , 0.0109544508, 0.0109544508
-0.128161758, 0.119429328 , -9.785524   , -0.0008130805, 0.000157175033, 5.79056141E-05, -0.0132600758, -0.0125558879, 3.88876E-06 , 922.641663  , 33.2435722  , 783.2735    , 0.12        , 3           , 12          , 0.174642488 , 0
-0.131959856, 0.120750368 , -9.787797   , -0.000323141983, 0.000202200725, 0.000155195143, -0.0132633261, -0.0125538455, 5.4138477E-06, 922.6047    , 33.28292    , 783.2735    , 0.13        , 3           , 13          , 0           , 0
-0.134667188, 0.1285275   , -9.783816   , -4.010601E-05, 0.000166788668, 0.000619814964, -0.0132638058, -0.0125520956, 1.15896573E-05, 922.6047    , 33.28292    , 783.2735    , 0.14        , 3           , 14          , -0.000794094231, -0.00053895294
-0.118535258, 0.133632869 , -9.791409   , -0.000489199359, 0.000101461075, 0.000181064708, -0.0132687194, -0.0125510572, 1.33867879E-05, 922.6047    , 33.28292    , 783.2735    , 0.15        , 3           , 15          , 0           , -4.33645837E-05
-0.129135251, 0.1334018   , -9.80097    , -0.000474255125, 7.586388E-05, 0.0002811642, -0.0132734971, -0.0125502609, 1.61882654E-05, 922.6047    , 33.28292    , 783.2735    , 0.16        , 3           , 16          , 0           , 1.401298E-45
-0.128290564, 0.135179237 , -9.797327   , 0.000112133624, 0.000255035266, -1.595643E-06, -0.0132723749, -0.0125477109, 1.61384578E-05, 922.6047    , 33.28292    , 783.2735    , 0.17        , 3           , 20          , 0           , 0
-0.128097534, 0.129840612 , -9.79535    , 0.0008103204, -9.459001E-05, -0.000303048757, -0.0132642351, -0.0125486962, 1.31206261E-05, 922.6047    , 33.28292    , 783.2735    , 0.18        , 3           , 21          , 0           , 0
-0.117565013, 0.129898489 , -9.783039   , 0.000925418455, -9.528996E-05, 0.0008709347, -0.01325509 , -0.0125495344, 2.18423174E-05, 922.6047    , 33.28292    , 783.2735    , 0.19        , 3           , 22          , 0           , 0
-0.108301952, 0.124178767 , -9.781475   , 0.0005390649, 0.000329200062, 0.0004992587, -0.0132497624, -0.012546177, 2.67911109E-05, 922.6047    , 33.28292    , 783.2735    , 0.2         , 3           , 40          , 0           , 0
-0.12746346 , 0.1303251   , -9.786897   , -0.000205060293, 0.000291225937, -0.0007408196, -0.0132439649, -0.0125524933, 1.92472253E-05, 922.6047    , 33.28292    , 783.440369  , 0.21        , 3           , 41          , 0           , 0
-0.127182424, 0.12963596  , -9.78611851 , -0.000257951033, -0.000192744017, 7.69282851E-05, -0.013246554, -0.0125544108, 2.00420127E-05, 922.6047    , 33.28292    , 783.4404    , 0.22        , 3           , 42          , 0           , 0
-0.127660483, 0.1218432   , -9.792878   , -0.0004634207, -0.0006183391, 6.548209E-06, -0.0132511882, -0.012560593, 2.01894145E-05, 922.644348  , 33.30972    , 783.4405    , 0.23        , 3           , 255         , 0           , 0
-0.118124865, 0.1270173   , -9.791962   , 2.27520359E-05, 0.00036610238, 0.000438369461, -0.013251015, -0.0125568733, 2.4524461E-05, 922.644348  , 33.30972    , 783.440552  , 0.24        , 3           , 255         , 0           , 0
-0.124552034, 0.131859869 , -9.781883   , 0.000116552692, 9.165058E-05, 0.0003209315, -0.0132498909, -0.0125559149, 2.77215222E-05, 922.644348  , 33.30972    , 783.4406    , 0.25        , 3           , 255         , 0           , 0
-0.1270709  , 0.132367417 , -9.785647   , 0.0004590687, -6.656599E-05, -0.000107637839, -0.0132452874, -0.0125565939, 2.6654001E-05, 922.644348  , 33.30972    , 783.4407    , 0.26        , 3           , 255         , 0           , 0
-0.123325631, 0.13152431  , -9.789637   , 0.000466383935, 0.00024989387, 0.000300175161, -0.0132406624, -0.0125540551, 2.962256E-05, 922.644348  , 33.30972    , 783.440735  , 0.27        , 3           , 255         , 0           , 0
-0.1255281  , 0.132347658 , -9.793177   , 0.0003025898, 0.0001895182, 0.0007687812, -0.0132377343, -0.012552062, 3.72850263E-05, 922.644348  , 33.30972    , 783.4408    , 0.28        , 3           , 255         , 0           , 0
-0.123327181, 0.134756058 , -9.797228   , 3.755692E-05, 8.851965E-05, 0.000664172636, -0.0132374428, -0.012551087, 4.391481E-05, 922.644348  , 33.30972    , 783.440857  , 0.29        , 3           , 255         , 0           , 0
-0.1197752  , 0.134221613 , -9.789101   , -0.000219194975, -0.000208480575, 0.000542418449, -0.0132397022, -0.0125531005, 4.936641E-05, 922.644348  , 33.30972    , 783.4409    , 0.3         , 3           , 255         , 0           , 0
-0.118038252, 0.137112066 , -9.792778   , -0.0005385885, 0.000231293292, 0.000182392585, -0.0132493135, -0.0125578512, 5.12124461E-05, 922.644348  , 33.30972    , 783.3769    , 0.31        , 3           , 255         , 0           , 0
-0.115939751, 0.143026859 , -9.785004   , -0.000254306942, 0.000190010789, -0.000262417045, -0.0132518243, -0.0125559866, 4.85631936E-05, 922.644348  , 33.30972    , 783.376953  , 0.32        , 3           , 255         , 0           , 0
-0.12327262 , 0.135547847 , -9.76746    , -0.000380425015, -0.000180184783, -0.0005231581, -0.0132555626, -0.0125578586, 4.33556634E-05, 922.662354  , 33.3230171  , 783.377     , 0.33        , 3           , 255         , 0           , 0
-0.1279495  , 0.133236438 , -9.810097   , -0.0008062681, 0.000228171237, 0.000213721331, -0.0132636521, -0.012555548, 4.546255E-05, 922.662354  , 33.3230171  , 783.3771    , 0.34        , 3           , 255         , 0           , 0
-0.127843082, 0.130681947 , -9.797542   , 0.000229767873, -0.000284925569, -0.00050517387, -0.0132612912, -0.012558463, 4.04487728E-05, 922.662354  , 33.3230171  , 783.377136  , 0.35        , 3           , 255         , 0           , 0
-0.125295252, 0.122099    , -9.798513   , -6.24355162E-05, -0.000138743664, 8.085462E-05, -0.0132619264, -0.01255984 , 4.127569E-05, 922.662354  , 33.3230171  , 783.3772    , 0.36        , 3           , 255         , 0           , 0
-0.12916021 , 0.125664338 , -9.789838   , 0.000159072864, -0.000137889874, 0.000135656868, -0.0132603515, -0.0125612011, 4.2650503E-05, 922.662354  , 33.3230171  , 783.377258  , 0.37        , 3           , 255         , 0           , 0
-0.11315833 , 0.118920282 , -9.784391   , -0.0003048319, 0.000295037637, 0.000451557338, -0.0132634556, -0.01255819 , 4.71267922E-05, 922.662354  , 33.3230171  , 783.3773    , 0.38        , 3           , 255         , 0           , 0
-0.118389979, 0.115302108 , -9.780912   , 2.99506937E-05, 0.000174242654, 0.0004592915, -0.0132632134, -0.012556388, 5.169644E-05, 922.662354  , 33.3230171  , 783.3774    , 0.39        , 3           , 255         , 0           , 0
-0.1306996  , 0.129469    , -9.787801   , 0.0001248063, 6.592536E-05, 0.0003291004, -0.0132620065, -0.0125556858, 5.49785836E-05, 922.662354  , 33.3230171  , 783.377441  , 0.4         , 3           , 255         , 0           , 0
-0.124544337, 0.129544109 , -9.794226   , -0.0001264172, 0.000451979926, 0.000447385362, -0.0132599268, -0.0125512388, 5.93496843E-05, 922.662354  , 33.3230171  , 783.30426   , 0.41        , 3           , 255         , 0           , 0
-0.123278081, 0.130528077 , -9.793131   , 7.336738E-05, -0.000277230574, 0.000115731287, -0.0132592078, -0.0125539945, 6.05437126E-05, 922.662354  , 33.3230171  , 783.3043    , 0.42        , 3           , 255         , 0           , 0
-0.121469185, 0.128536567 , -9.791096   , 0.000325333531, 0.00018825577, 0.0002376237, -0.0132559855, -0.0125520835, 6.289491E-05, 922.6537    , 33.3336     , 783.3044    , 0.43        , 3           , 255         , 0           , 0
-0.120384477, 0.1305943   , -9.788065   , 0.000207008212, -1.33418944E-05, -0.000392501184, -0.0132538667, -0.0125522669, 5.89718038E-05, 922.6537    , 33.3336     , 783.304443  , 0.44        , 3           , 255         , 0           , 0
-0.121661469, 0.134933621 , -9.792587   , 0.0003262431, -0.000172976055, -0.000412082882, -0.01325055 , -0.0125540514, 5.48740427E-05, 922.6537    , 33.3336     , 783.3045    , 0.45        , 3           , 255         , 0           , 0
-0.1284804  , 0.14081493  , -9.79042149 , -6.375904E-05, -0.000347431633, 0.000211278428, -0.0132512162, -0.0125574972, 5.70327866E-05, 922.6537    , 33.3336     , 783.304565  , 0.46        , 3           , 255         , 0           , 0
-0.123142123, 0.13431102  , -9.797638   , -0.0002697531, 1.44127989E-06, -0.0008422841, -0.013253808, -0.0125575941, 4.86100325E-05, 922.6537    , 33.3336     , 783.3046    , 0.47        , 3           , 255         , 0           , 0
-0.119115017, 0.141919717 , -9.798933   , -0.000507959, 0.0001845257, -0.000258042826, -0.0132588549, -0.0125557836, 4.60052324E-05, 922.6537    , 33.3336     , 783.3047    , 0.48        , 3           , 255         , 0           , 0
-0.119986437, 0.12919192  , -9.792715   , -7.819064E-05, -0.000289408723, -0.000145870683, -0.0132596195, -0.0125586968, 4.458495E-05, 922.6537    , 33.3336     , 783.304749  , 0.49        , 3           , 255         , 0           , 0
-0.122287191, 0.129839137 , -9.783399   , 0.000108261942, 0.00028321374, -0.000369320624, -0.01325849 , -0.0125559149, 4.08543274E-05, 922.6537    , 33.3336     , 783.3048    , 0.5         , 3           , 255         , 0           , 0
-0.1258929  , 0.1354257   , -9.789825   , -0.0006055752, -0.0001275125, 9.024574E-05, -0.01327608 , -0.0125553757, 4.191835E-05, 922.6537    , 33.3336     , 783.276245  , 0.51        , 3           , 255         , 0           , 0
-0.120863155, 0.125833258 , -9.787015   , 1.27090025E-05, -0.000343472, 0.0005016507, -0.0132760173, -0.0125587424, 4.69802872E-05, 922.6537    , 33.3336     , 783.2763    , 0.52        , 3           , 255         , 0           , 0
-0.13500008 , 0.12729688  , -9.790878   , -0.00019154005, -0.000423498219, 0.000288071751, -0.0132779684, -0.012562938, 4.99171365E-05, 922.671631  , 33.3390961  , 783.276367  , 0.53        , 3           , 255         , 0           , 0
-0.12959215 , 0.128510565 , -9.791131   , -3.3072487E-05, 6.142451E-05, 0.000126070634, -0.0132783158, -0.0125623075, 5.11696453E-05, 922.671631  , 33.3390961  , 783.2764    , 0.54        , 3           , 255         , 0           , 0
-0.12522772 , 0.115291022 , -9.787397   , 0.000298832427, 8.079814E-05, -4.761477E-05, -0.0132753225, -0.0125615057, 5.06827964E-05, 922.671631  , 33.3390961  , 783.2765    , 0.55        , 3           , 255         , 0           , 0
-0.123406246, 0.121997811 , -9.79381752 , 0.000480279763, -0.000161894364, -9.66100342E-05, -0.0132705076, -0.0125631373, 4.97382061E-05, 922.671631  , 33.3390961  , 783.27655   , 0.56        , 3           , 255         , 0           , 0
-0.120599605, 0.119027629 , -9.794388   , -0.000109256769, -6.321102E-05, 0.000160020631, -0.0132716205, -0.0125637474, 5.13467457E-05, 922.671631  , 33.3390961  , 783.2766    , 0.57        , 3           , 255         , 0           , 0
-0.11765983 , 0.123282768 , -9.792473   , 0.0004011148, 6.041897E-06, -1.90923747E-05, -0.0132676065, -0.0125636887, 5.11550279E-05, 922.671631  , 33.3390961  , 783.2767    , 0.58        , 3           , 255         , 0           , 0
-0.119842708, 0.117493175 , -9.78922749 , -4.31792E-05, 0.000588055351, 0.000655285956, -0.01326812 , -0.0125577254, 5.76296552E-05, 922.671631  , 33.3390961  , 783.276733  , 0.59        , 3           , 255         , 0           , 0
-0.129231423, 0.126330465 , -9.788443   , -0.0002307258, -8.604431E-06, -0.0004991784, -0.0132703651, -0.0125578763, 5.26391777E-05, 922.671631  , 33.3390961  , 783.2768    , 0.6         , 3           , 255         , 0           , 0
-0.132048085, 0.133731455 , -9.79117    , 0.000507855439, -0.000218407658, -0.000825746451, -0.0132417073, -0.0125670023, 4.41159827E-05, 922.671631  , 33.3390961  , 783.2294    , 0.61        , 3           , 255         , 0           , 0
-0.123956159, 0.135236    , -9.795926   , 0.000330304349, 0.00035342027, 0.000377704564, -0.0132384533, -0.0125634167, 4.784611E-05, 922.671631  , 33.3390961  , 783.229431  , 0.62        , 3           , 255         , 0           , 0
-0.1236256  , 0.134422213 , -9.797693   , -0.000164629426, 0.0003141152, 0.0006311943, -0.013240179, -0.0125601925, 5.411627E-05, 922.6357    , 33.3500862  , 783.2295    , 0.63        , 3           , 255         , 0           , 0
-0.1296837  , 0.1317769   , -9.797535   , 1.87568949E-05, 0.000387494743, 0.0002510014, -0.0132400226, -0.0125562847, 5.6574896E-05, 922.6357    , 33.3500862  , 783.229553  , 0.64        , 3           , 255         , 0           , 0
-0.127331585, 0.138053179 , -9.784837   , -0.0002868941, -0.000208084122, 1.99222632E-06, -0.0132428911, -0.0125583652, 5.66223644E-05, 922.6357    , 33.3500862  , 783.2296    , 0.65        , 3           , 255         , 0           , 0
-0.119387269, 0.131362647 , -9.790575   , 0.000486791367, 0.000104976178, -2.55505329E-05, -0.01323802 , -0.0125573184, 5.635296E-05, 922.6357    , 33.3500862  , 783.2297    , 0.66        , 3           , 255         , 0           , 0
-0.125633284, 0.131338745 , -9.790783   , 2.63206312E-05, -3.24560679E-05, -0.0005674092, -0.013237685, -0.0125577189, 5.068336E-05, 922.6357    , 33.3500862  , 783.229736  , 0.67        , 3           , 255         , 0           , 0
-0.117770471, 0.137477428 , -9.789656   , -0.000358113728, 0.0002513929, -0.0006715828, -0.0132411821, -0.0125552947, 4.3934484E-05, 922.6357    , 33.3500862  , 783.2298    , 0.68        , 3           , 255         , 0           , 0
-0.12366692 , 0.135431677 , -9.791672   , 8.301978E-05, 0.000734957866, -0.0002752422, -0.013240315, -0.0125479857, 4.108484E-05, 922.6357    , 33.3500862  , 783.229858  , 0.69        , 3           , 255         , 0           , 0
-0.121896505, 0.137730777 , -9.796948   , 0.000168708328, 0.000217113877, -0.0004004758, -0.01323858 , -0.012545866, 3.705147E-05, 922.6357    , 33.3500862  , 783.2299    , 0.7         , 3           , 255         , 0           , 0
-0.119491495, 0.13073796  , -9.802783   , -4.68058861E-05, 0.000252057624, 7.411829E-05, -0.0132549088, -0.0125481458, 3.79582E-05 , 922.6357    , 33.3500862  , 783.2448    , 0.71        , 3           , 255         , 0           , 0
-0.121962391, 0.126184911 , -9.795523   , -0.000174017041, 0.000564855465, 0.0004574818, -0.0132567063, -0.0125424359, 4.24579848E-05, 922.6357    , 33.3500862  , 783.2449    , 0.72        , 3           , 255         , 0           , 0
-0.12503612 , 0.122174479 , -9.798941   , -0.000122525613, -0.000105521234, 0.0004785635, -0.0132579925, -0.0125434278, 4.72574538E-05, 922.664063  , 33.3511047  , 783.244934  , 0.73        , 3           , 255         , 0           , 0
-0.129975274, 0.129804641 , -9.787987   , 0.000180504343, -0.000271455734, -9.113213E-06, -0.0132561857, -0.0125461435, 4.72023057E-05, 922.664063  , 33.3511047  , 783.245056  , 0.74        , 3           , 255         , 0           , 0
-0.117568038, 0.12001624  , -9.785976   , 0.0003717977, -0.0005282267, 0.000352954754, -0.0132525144, -0.0125513785, 5.08017474E-05, 922.664063  , 33.3511047  , 783.2452    , 0.75        , 3           , 255         , 0           , 0
-0.121942952, 0.118921779 , -9.788904   , -0.000124371261, 6.52816962E-05, 1.256945E-05, -0.01325376 , -0.0125507237, 5.09187776E-05, 922.664063  , 33.3511047  , 783.2453    , 0.76        , 3           , 255         , 0           , 0
-0.12958841 , 0.118771151 , -9.7913     , -0.000201011891, -0.000157598639, 7.8064375E-05, -0.0132557778, -0.0125522893, 5.17202861E-05, 922.664063  , 33.3511047  , 783.2454    , 0.77        , 3           , 255         , 0           , 0
-0.124259606, 0.126622126 , -9.792337   , -0.00010379398, 0.000293540274, 7.070023E-05, -0.0132568246, -0.0125493454, 5.23883537E-05, 922.664063  , 33.3511047  , 783.245544  , 0.78        , 3           , 255         , 0           , 0
-0.124255672, 0.123590112 , -9.791266   , -0.000259404071, 0.000485065422, 0.000343322637, -0.01325946 , -0.0125444494, 5.575715E-05, 922.664063  , 33.3511047  , 783.245667  , 0.79        , 3           , 255         , 0           , 0
-0.129608154, 0.121617533 , -9.783751   , 0.000126335653, 0.000173725013, -0.00044262578, -0.0132581424, -0.0125427712, 5.130801E-05, 922.664063  , 33.3511047  , 783.2458    , 0.8         , 3           , 255         , 0           , 0
-0.126915619, 0.118110619 , -9.785456   , 0.00030931033, -3.01437685E-05, 0.000118593773, -0.01323541 , -0.0125479195, 5.225127E-05, 922.664063  , 33.3511047  , 783.222     , 0.81        , 3           , 255         , 0           , 0
-0.123772636, 0.124628708 , -9.798717   , 0.000144587131, -2.49067671E-05, -0.000237845787, -0.0132339345, -0.0125482  , 4.98761947E-05, 922.664063  , 33.3511047  , 783.222046  , 0.82        , 3           , 255         , 0           , 0
-0.131096989, 0.124548294 , -9.799032   , 0.0006976925, -0.000102233258, 0.000202434239, -0.013226985, -0.0125491945, 5.19139976E-05, 922.6389    , 33.3569374  , 783.2221    , 0.83        , 3           , 255         , 0           , 0
-0.121862151, 0.141913846 , -9.797366   , 0.0002464286, 2.4474808E-05, -0.000124899874, -0.013224503, -0.0125489691, 5.066182E-05, 922.6389    , 33.3569374  , 783.222168  , 0.84        , 3           , 255         , 0           , 0
-0.121026017, 0.138201386 , -9.790612   , -0.0002290188, 5.13712876E-05, 0.000186008474, -0.0132268183, -0.012548429, 5.251504E-05, 922.6389    , 33.3569374  , 783.2222    , 0.85        , 3           , 255         , 0           , 0
-0.121970996, 0.123614788 , -9.784397   , -1.28503889E-05, -0.0002784162, 0.000617676938, -0.013227025, -0.0125511307, 5.87284339E-05, 922.6389    , 33.3569374  , 783.2223    , 0.86        , 3           , 255         , 0           , 0
-0.1348312  , 0.122037388 , -9.79115    , 0.0002960211, -0.000604091445, 0.0005526648, -0.0132241342, -0.0125570986, 6.433479E-05, 922.6389    , 33.3569374  , 783.222351  , 0.87        , 3           , 255         , 0           , 0
-0.126440883, 0.13282904  , -9.801424   , -0.000106963329, 0.00051287876, 0.0004848895, -0.0132252648, -0.0125519065, 6.911569E-05, 922.6389    , 33.3569374  , 783.2224    , 0.88        , 3           , 255         , 0           , 0
-0.124301866, 0.137217373 , -9.792558   , -0.000197678513, 0.000290522963, -0.000378933153, -0.0132271936, -0.012549052, 6.52880553E-05, 922.6389    , 33.3569374  , 783.2225    , 0.89        , 3           , 255         , 0           , 0
-0.123585425, 0.129386932 , -9.789827   , -0.000108957, 0.000326913316, -0.000349137059, -0.0132282367, -0.0125458287, 6.17535552E-05, 922.6389    , 33.3569374  , 783.2226    , 0.9         , 3           , 255         , 0           , 0
-0.12347053 , 0.133376375 , -9.795299   , 0.000260440167, 0.00029214914, -0.000335517339, -0.0132247675, -0.0125507852, 5.83495275E-05, 922.6389    , 33.3569374  , 783.232361  , 0.91        , 3           , 255         , 0           , 0
-0.124809027, 0.130423576 , -9.788352   , -0.0003528418, -9.595684E-05, -0.0009863252, -0.0132281715, -0.012551873, 4.84992925E-05, 922.6389    , 33.3569374  , 783.2325    , 0.92        , 3           , 255         , 0           , 0
-0.12768364 , 0.122218706 , -9.794661   , -0.00016589748, 0.000140213873, 8.645834E-05, -0.0132298414, -0.0125504592, 4.93452935E-05, 922.6531    , 33.3557167  , 783.2326    , 0.93        , 3           , 255         , 0           , 0
-0.126868218, 0.132679835 , -9.801367   , 6.543705E-05, 0.0001761351, 0.0005547049, -0.0132292546, -0.0125486245, 5.486884E-05, 922.6531    , 33.3557167  , 783.2327    , 0.94        , 3           , 255         , 0           , 0
-0.1270606  , 0.125146717 , -9.790253   , 1.00040925E-05, -0.000540346431, -0.000158463474, -0.0132291364, -0.0125540486, 5.33557541E-05, 922.6531    , 33.3557167  , 783.232849  , 0.95        , 3           , 255         , 0           , 0
-0.121916555, 0.121550955 , -9.792819   , 4.29624342E-05, -7.276295E-05, -0.0009668329, -0.0132285859, -0.0125549054, 4.36973751E-05, 922.6531    , 33.3557167  , 783.233     , 0.96        , 3           , 255         , 0           , 0
-0.125301242, 0.131357223 , -9.79933    , 0.000239033427, 0.00017704186, 0.000235952713, -0.0132262269, -0.0125531042, 4.603341E-05, 922.6531    , 33.3557167  , 783.2331    , 0.97        , 3           , 255         , 0           , 0
-0.11788334 , 0.129409373 , -9.806655   , 0.000165764883, -4.67250356E-06, 1.5707792E-05, -0.01322457 , -0.012553148, 4.61910968E-05, 922.6531    , 33.3557167  , 783.2332    , 0.98        , 3           , 255         , 0           , 0
-0.122228608, 0.127230331 , -9.797767   , 0.0003113554, -0.000422333658, 0.0008514427, -0.0132215638, -0.012557257, 5.47610834E-05, 922.6531    , 33.3557167  , 783.233337  , 0.99        , 3           , 255         , 0           , 0
-0.12249504 , 0.127049625 , -9.800312   , -0.0001478559, -0.000229391153, 0.0001786706, -0.0132230641, -0.0125595275, 5.657806E-05, 922.6531    , 33.3557167  , 783.233459  , 1           , 3           , 0           , 6.834236    , 100
-0.120156288, 0.133634716 , -9.792984   , 0.000739494048, 1.10411784E-05, -0.000434060523, -0.01321203 , -0.0125617385, 5.219109E-05, 922.6531    , 33.3557167  , 783.2261    , 1.01        , 3           , 1           , 0           , 0
-0.121986762, 0.1323426   , -9.789266   , 0.000110366323, 0.000110172434, 0.000191536732, -0.01321095 , -0.0125606116, 5.40918445E-05, 922.6531    , 33.3557167  , 783.2262    , 1.02        , 3           , 2           , 0           , 0
-0.128277659, 0.131544918 , -9.79272652 , -0.000193751068, 0.0004589826, 4.984795E-05, -0.0132128922, -0.0125560155, 5.452967E-05, 922.743469  , 33.3576851  , 783.2263    , 1.03        , 3           , 3           , 0           , 0
-0.12724331 , 0.125459686 , -9.788914   , -0.000169654551, -2.23227544E-05, -0.000276732317, -0.0132145546, -0.0125562744, 5.17653862E-05, 922.743469  , 33.3576851  , 783.22644   , 1.04        , 3           , 4           , 0           , 0
-0.120288566, 0.126037031 , -9.795174   , -0.0002613999, 0.000215110485, -0.000284056849, -0.0132171325, -0.0125541622, 4.889649E-05, 922.743469  , 33.3576851  , 783.226563  , 1.05        , 3           , 5           , 0           , 0
-0.122947708, 0.1380757   , -9.793525   , 0.000218085945, -0.000363659638, -0.0007394602, -0.0132148592, -0.0125578959, 4.15502036E-05, 922.743469  , 33.3576851  , 783.2267    , 1.06        , 3           , 6           , 0           , 0
-0.125305042, 0.143010512 , -9.798861   , 0.000486721925, 2.24027317E-05, -7.480556E-05, -0.0132099828, -0.0125576816, 4.0799212E-05, 922.743469  , 33.3576851  , 783.2268    , 1.07        , 3           , 7           , 0           , 0
-0.1258115  , 0.125848159 , -9.796163   , -0.000202663592, 0.000189172832, 0.000419738935, -0.0132120615, -0.0125557343, 4.49714644E-05, 922.743469  , 33.3576851  , 783.2269    , 1.08        , 3           , 8           , 5           , 5
-0.130168721, 0.12384405  , -9.799612   , 0.0003179815, -0.00012061937, 0.000277208 , -0.0132089173, -0.0125569031, 4.77593858E-05, 922.743469  , 33.3576851  , 783.227051  , 1.09        , 3           , 9           , 5           , 0.1
-0.125955969, 0.117743269 , -9.795844   , 1.42892823E-05, -3.11356853E-05, 1.643932E-05, -0.0132087767, -0.0125572123, 4.7927886E-05, 922.743469  , 33.3576851  , 783.2272    , 1.1         , 3           , 10          , 0.1         , 0.1
-0.129182056, 0.125088543 , -9.798777   , 0.000531545 , -0.000167370657, -0.000270006538, -0.0132042095, -0.0125636226, 4.525983E-05, 922.743469  , 33.3576851  , 783.1258    , 1.11        , 3           , 11          , 0.009083524 , 0.009083523
-0.126875013, 0.118588209 , -9.79151249 , 0.000413735659, -3.83124E-05, 7.74806758E-05, -0.0132000828, -0.0125639951, 4.603967E-05, 922.743469  , 33.3576851  , 783.1257    , 1.12        , 3           , 12          , 0.174642846 , 0
-0.129644677, 0.129941016 , -9.782042   , 0.000447792554, -0.0006208592, -0.000279055617, -0.0131955706, -0.01257024 , 4.333114E-05, 922.5949    , 33.361145   , 783.125549  , 1.13        , 3           , 13          , 0           , 0
-0.124381959, 0.131910786 , -9.788275   , 4.88758669E-05, 6.864942E-05, 0.0002489596, -0.0131951133, -0.01256952 , 4.58115974E-05, 922.5949    , 33.361145   , 783.1254    , 1.14        , 3           , 14          , -0.000794114, -0.0005389212
-0.123876527, 0.133689329 , -9.794051   , 0.000125260616, 1.13889109E-06, 2.04416137E-05, -0.0131938616, -0.0125695048, 4.60158481E-05, 922.5949    , 33.361145   , 783.1253    , 1.15        , 3           , 15          , 0           , -4.336391E-05
-0.12434113 , 0.1304584   , -9.787053   , -0.000268257048, 3.82188E-05 , 0.00045717  , -0.0131966015, -0.0125690624, 5.058236E-05, 922.5949    , 33.361145   , 783.1252    , 1.16        , 3           , 16          , 0           , 1.401298E-45
-0.119121052, 0.129000574 , -9.781031   , 5.31153637E-05, -8.81119049E-05, 0.0002675703, -0.0131961042, -0.0125699081, 5.32696031E-05, 922.5949    , 33.361145   , 783.125061  , 1.17        , 3           , 20          , 0           , 0
-0.11817883 , 0.119509183 , -9.792535   , 7.221458E-05, 0.000261763955, 0.00116670784, -0.0131955286, -0.0125671392, 6.490175E-05, 922.5949    , 33.361145   , 783.124939  , 1.18        , 3           , 21          , 0           , 0
-0.115695395, 0.1338062   , -9.793032   , 2.25902186E-05, 7.252558E-06, 0.00029110277, -0.01319534 , -0.0125670284, 6.78117358E-05, 922.5949    , 33.361145   , 783.1248    , 1.19        , 3           , 22          , 0           , 0
-0.117455065, 0.126924485 , -9.791723   , 0.000123801758, -0.0004791784, -0.000427912833, -0.0131940488, -0.0125718769, 6.359597E-05, 922.5949    , 33.361145   , 783.1247    , 1.2         , 3           , 40          , 0           , 0
-0.109940551, 0.131253764 , -9.796471   , -0.000305973226, 0.000271826284, -0.000721399847, -0.0131925773, -0.0125685744, 5.62905443E-05, 922.5949    , 33.361145   , 783.1898    , 1.21        , 3           , 41          , 0           , 0
-0.114908852, 0.128413543 , -9.791596   , -7.989461E-05, 0.0002507151, -1.9541556E-05, -0.0131933736, -0.01256607 , 5.606206E-05, 922.5949    , 33.361145   , 783.189941  , 1.22        , 3           , 42          , 0           , 0
-0.122520387, 0.124087691 , -9.788502   , 0.000171338092, 6.569346E-05, 0.000141659082, -0.0131916786, -0.0125653949, 5.74699443E-05, 922.6963    , 33.3627739  , 783.190063  , 1.23        , 3           , 255         , 0           , 0
-0.1299828  , 0.115875706 , -9.793442   , -0.000279909582, 1.63604273E-06, -0.000219204143, -0.0131944492, -0.0125654079, 5.527775E-05, 922.6963    , 33.3627739  , 783.1902    , 1.24        , 3           , 255         , 0           , 0
-0.1265504  , 0.127831623 , -9.793947   , -7.867237E-05, 0.0001313613, -2.54928673E-05, -0.0131952325, -0.0125640975, 5.50055E-05 , 922.6963    , 33.3627739  , 783.1903    , 1.25        , 3           , 255         , 0           , 0
-0.127938509, 0.12977615  , -9.791189   , 0.000105350162, 7.80861E-05 , -0.000178576942, -0.0131941568, -0.0125633394, 5.32094855E-05, 922.6963    , 33.3627739  , 783.1904    , 1.26        , 3           , 255         , 0           , 0
-0.130313873, 0.127368569 , -9.805086   , 9.203289E-05, 9.859755E-05, -0.00103585178, -0.0131931063, -0.0125624929, 4.28383028E-05, 922.6963    , 33.3627739  , 783.190552  , 1.27        , 3           , 255         , 0           , 0
-0.124067046, 0.119593121 , -9.790848   , -2.8220762E-05, 1.2558361E-05, -0.00053744897, -0.0131933214, -0.0125624361, 3.74623341E-05, 922.6963    , 33.3627739  , 783.1907    , 1.28        , 3           , 255         , 0           , 0
-0.124653578, 0.118582107 , -9.787672   , 0.00044012157, -0.000389985449, 0.000454295165, -0.01318898 , -0.012566275, 4.20565848E-05, 922.6963    , 33.3627739  , 783.1908    , 1.29        , 3           , 255         , 0           , 0
-0.127683908, 0.128799036 , -9.7861     , 0.0006928396, -0.000195108063, -0.000117366792, -0.0131820366, -0.012568241, 4.09086751E-05, 922.6963    , 33.3627739  , 783.1909    , 1.3         , 3           , 255         , 0           , 0
-0.129561543, 0.131229013 , -9.793318   , 0.000121416291, -0.0003717892, 0.000272541482, -0.01316968 , -0.0125741279, 4.35424954E-05, 922.6963    , 33.3627739  , 783.1444    , 1.31        , 3           , 255         , 0           , 0
-0.126486957, 0.138431981 , -9.796526   , -0.000287414237, -0.0003263047, -9.81293852E-06, -0.0131725529, -0.0125773894, 4.348734E-05, 922.6963    , 33.3627739  , 783.144348  , 1.32        , 3           , 255         , 0           , 0
-0.127306864, 0.1354601   , -9.797868   , -0.000251106161, -0.000269280863, -0.00027098172, -0.0131750312, -0.0125801172, 4.08130873E-05, 922.670654  , 33.36189    , 783.1443    , 1.33        , 3           , 255         , 0           , 0
-0.132807255, 0.123673573 , -9.799253   , 0.000192932959, -9.82524944E-05, -0.000420661934, -0.01317305 , -0.0125811556, 3.66195563E-05, 922.670654  , 33.36189    , 783.1442    , 1.34        , 3           , 255         , 0           , 0
-0.119705059, 0.1233717   , -9.800216   , 0.000295969483, 0.0002654198, 0.000234787964, -0.0131701194, -0.0125784706, 3.89324E-05 , 922.670654  , 33.36189    , 783.144165  , 1.35        , 3           , 255         , 0           , 0
-0.119717084, 0.133789718 , -9.79575348 , 0.00022933603, -0.000121850695, 0.000744020566, -0.0131679205, -0.0125795919, 4.638841E-05, 922.670654  , 33.36189    , 783.1441    , 1.36        , 3           , 255         , 0           , 0
-0.1276407  , 0.125630021 , -9.799261   , -0.000393453229, 0.000143947022, 0.000419913064, -0.0131719066, -0.0125780972, 5.05684366E-05, 922.670654  , 33.36189    , 783.144043  , 1.37        , 3           , 255         , 0           , 0
-0.124147967, 0.136337161 , -9.798134   , 0.000425262027, -7.360015E-05, -0.0009631561, -0.0131675331, -0.0125789605, 4.09468921E-05, 922.670654  , 33.36189    , 783.144     , 1.38        , 3           , 255         , 0           , 0
-0.117804348, 0.140556365 , -9.795317   , 8.940068E-05, -1.94402528E-05, -0.00047845926, -0.0131665794, -0.0125792185, 3.61650164E-05, 922.670654  , 33.36189    , 783.1439    , 1.39        , 3           , 255         , 0           , 0
-0.12234398 , 0.130246177 , -9.791276   , -0.0004952511, -1.98312919E-05, 6.61989E-05 , -0.0131715387, -0.0125794066, 3.682959E-05, 922.670654  , 33.36189    , 783.14386   , 1.4         , 3           , 255         , 0           , 0
-0.123888277, 0.1290197   , -9.792093   , -0.000417113246, 0.000392794231, -0.000294871774, -0.0131814815, -0.0125785917, 3.39022954E-05, 922.670654  , 33.36189    , 783.1286    , 1.41        , 3           , 255         , 0           , 0
-0.112981394, 0.13372907  , -9.808034   , 0.000111680827, -0.000161362172, -0.0007514813, -0.0131802689, -0.0125803044, 2.64090013E-05, 922.670654  , 33.36189    , 783.1285    , 1.42        , 3           , 255         , 0           , 0
-0.119911313, 0.132129639 , -9.784366   , -0.000143677287, -0.000300550426, -0.0009867174, -0.0131815821, -0.0125834392, 1.65817655E-05, 922.6331    , 33.3625679  , 783.128357  , 1.43        , 3           , 255         , 0           , 0
-0.130288437, 0.126454845 , -9.794943   , 0.0005036725, 0.000573582132, -0.0004638084, -0.0131764868, -0.0125777666, 1.186825E-05, 922.6331    , 33.3625679  , 783.128235  , 1.44        , 3           , 255         , 0           , 0
-0.122075453, 0.125556976 , -9.788722   , -0.00034249766, 1.77720212E-05, -0.00035673668, -0.0131798666, -0.0125776343, 8.298661E-06, 922.6331    , 33.3625679  , 783.1281    , 1.45        , 3           , 255         , 0           , 0
-0.121454462, 0.123578891 , -9.793522   , -3.03650158E-05, -0.000532724138, -0.000105124593, -0.0131801572, -0.0125829754, 7.31766E-06 , 922.6331    , 33.3625679  , 783.128     , 1.46        , 3           , 255         , 0           , 0
-0.121777974, 0.123863779 , -9.796512   , 5.90177369E-05, -9.922526E-05, 0.000271653931, -0.0131796021, -0.012583931, 1.004719E-05, 922.6331    , 33.3625679  , 783.127869  , 1.47        , 3           , 255         , 0           , 0
-0.129356533, 0.122883476 , -9.80207    , 0.000194812485, -0.000177162059, 8.229683E-05, -0.0131776631, -0.0125856912, 1.08934728E-05, 922.6331    , 33.3625679  , 783.1278    , 1.48        , 3           , 255         , 0           , 0
-0.12706019 , 0.129082859 , -9.796933   , -7.0082664E-05, -0.000437568931, -0.00023500713, -0.0131783346, -0.0125900954, 8.601133E-06, 922.6331    , 33.3625679  , 783.127747  , 1.49        , 3           , 255         , 0           , 0
-0.134561315, 0.127714947 , -9.786252   , -0.000126914936, 0.00014321052, -0.0007656181, -0.013179509, -0.0125887645, 9.2633195E-07, 922.6331    , 33.3625679  , 783.1277    , 1.5         , 3           , 255         , 0           , 0
-0.12927562 , 0.123737775 , -9.784212   , -1.69682316E-05, 0.000177899725, -0.0007048106, -0.0131756924, -0.0125896931, -6.194034E-06, 922.6331    , 33.3625679  , 783.1535    , 1.51        , 3           , 255         , 0           , 0
-0.123001717, 0.1280618   , -9.787024   , 9.372493E-05, -0.000323635817, -0.0004558659, -0.0131746978, -0.012592989, -1.07099095E-05, 922.6331    , 33.3625679  , 783.153564  , 1.52        , 3           , 255         , 0           , 0
-0.127644658, 0.125707775 , -9.800859   , -3.27988528E-05, -0.000104138046, -0.000286317547, -0.0131749893, -0.0125940684, -1.35592772E-05, 922.622559  , 33.3660965  , 783.1536    , 1.53        , 3           , 255         , 0           , 0
-0.134867683, 0.1313616   , -9.796779   , 0.000159891672, -0.000231769925, -4.24388563E-05, -0.0131733865, -0.0125963911, -1.39531267E-05, 922.622559  , 33.3660965  , 783.1537    , 1.54        , 3           , 255         , 0           , 0
-0.13202329 , 0.137628049 , -9.787985   , 0.0003948338, 0.000102341641, 0.0002878392, -0.013169473, -0.01259533 , -1.10883047E-05, 922.622559  , 33.3660965  , 783.153748  , 1.55        , 3           , 255         , 0           , 0
-0.129252866, 0.1325734   , -9.796047   , 0.000141671451, -8.959242E-05, -1.94686363E-05, -0.0131680556, -0.0125962282, -1.12711787E-05, 922.622559  , 33.3660965  , 783.1538    , 1.56        , 3           , 255         , 0           , 0
-0.12903735 , 0.126766965 , -9.792585   , 0.0008505584, 0.000656875 , -0.0009753463, -0.0131594269, -0.0125897881, -2.11107927E-05, 922.622559  , 33.3660965  , 783.1539    , 1.57        , 3           , 255         , 0           , 0
-0.126142174, 0.124652766 , -9.802316   , 1.27108069E-05, 9.034222E-05, -0.0001275191, -0.0131592844, -0.0125889014, -2.239783E-05, 922.622559  , 33.3660965  , 783.153931  , 1.58        , 3           , 255         , 0           , 0
-0.133207485, 0.131785423 , -9.79433    , 0.0004839432, -0.0001144837, -4.91448882E-05, -0.01315444 , -0.0125900526, -2.28742028E-05, 922.622559  , 33.3660965  , 783.154     , 1.59        , 3           , 255         , 0           , 0
-0.121159077, 0.125385791 , -9.786495   , 0.000146254082, -0.0001716328, -0.00101914292, -0.01315285 , -0.012591905, -3.30427174E-05, 922.622559  , 33.3660965  , 783.154053  , 1.6         , 3           , 255         , 0           , 0
-0.115638852, 0.135721952 , -9.784853   , -0.000182614545, 0.00011304408, -0.000507920864, -0.0131540559, -0.0126037588, -3.81436257E-05, 922.622559  , 33.3660965  , 783.1889    , 1.61        , 3           , 255         , 0           , 0
-0.11803849 , 0.123328105 , -9.787733   , -7.357902E-05, 6.567352E-05, -0.000122173544, -0.0131547768, -0.0126031181, -3.93739429E-05, 922.622559  , 33.3660965  , 783.189148  , 1.62        , 3           , 255         , 0           , 0
-0.123130426, 0.125193924 , -9.802006   , 0.000101341051, -6.44243555E-05, -0.000408823, -0.0131537113, -0.0126038166, -4.34535759E-05, 922.6956    , 33.3658943  , 783.1894    , 1.63        , 3           , 255         , 0           , 0
-0.126592   , 0.118654028 , -9.804853   , 0.000837237341, -0.000367354369, 0.0005218034, -0.0131454067, -0.0126074227, -3.818738E-05, 922.6956    , 33.3658943  , 783.189636  , 1.64        , 3           , 255         , 0           , 0
-0.120642856, 0.125965923 , -9.788113   , 0.000617350452, 0.00033944365, -0.0006111021, -0.0131391566, -0.0126041081, -4.43428071E-05, 922.6956    , 33.3658943  , 783.1899    , 1.65        , 3           , 255         , 0           , 0
-0.1296381  , 0.128597543 , -9.779611   , 0.00051255076, 5.276501E-05, -0.000548554352, -0.0131339626, -0.0126036517, -4.98351146E-05, 922.6956    , 33.3658943  , 783.1901    , 1.66        , 3           , 255         , 0           , 0
-0.127822191, 0.1430598   , -9.779418   , 0.0006451507, -0.000201675517, 0.000292593817, -0.0131275477, -0.01260563 , -4.68827857E-05, 922.6956    , 33.3658943  , 783.190369  , 1.67        , 3           , 255         , 0           , 0
-0.121533409, 0.132594332 , -9.793818   , 0.0001487899, -0.000123796286, 0.000235814034, -0.01312609 , -0.0126068378, -4.4508477E-05, 922.6956    , 33.3658943  , 783.1906    , 1.68        , 3           , 255         , 0           , 0
-0.119002327, 0.1376613   , -9.806728   , 0.0005657503, -0.00018163881, 1.10276487E-05, -0.0131204352, -0.0126086511, -4.43743666E-05, 922.6956    , 33.3658943  , 783.190857  , 1.69        , 3           , 255         , 0           , 0
-0.120249078, 0.138869077 , -9.8070755  , 0.0005157979, -0.000236684515, 0.000451403961, -0.0131153334, -0.012610958, -3.982943E-05, 922.6956    , 33.3658943  , 783.1911    , 1.7         , 3           , 255         , 0           , 0
-0.112342849, 0.1308492   , -9.790817   , 0.000340132538, -0.000478869828, 0.000133430673, -0.0131172435, -0.0126128215, -3.836561E-05, 922.6956    , 33.3658943  , 783.142456  , 1.71        , 3           , 255         , 0           , 0
-0.119928479, 0.129208654 , -9.791822   , -0.000249186, -0.00038386212, 0.0007103767, -0.0131198242, -0.0126165664, -3.12117154E-05, 922.6956    , 33.3658943  , 783.142456  , 1.72        , 3           , 255         , 0           , 0
-0.125969589, 0.1367097   , -9.790547   , -0.000244464318, -0.000418372045, 0.000712686742, -0.0131223584, -0.0126206577, -2.40301742E-05, 922.686157  , 33.36569    , 783.142456  , 1.73        , 3           , 255         , 0           , 0
-0.129005253, 0.129093915 , -9.794234   , -0.000226274657, -0.000214129162, 0.0007503055, -0.0131247155, -0.0126227  , -1.64992562E-05, 922.686157  , 33.36569    , 783.142456  , 1.74        , 3           , 255         , 0           , 0
-0.120324291, 0.1195114   , -9.803251   , -6.427168E-05, 0.000126231 , 9.453301E-05, -0.01312537 , -0.0126214251, -1.5570522E-05, 922.686157  , 33.36569    , 783.142456  , 1.75        , 3           , 255         , 0           , 0
-0.118535675, 0.125606433 , -9.792967   , 0.000244466879, -3.596564E-05, -0.000223325536, -0.0131228967, -0.0126218144, -1.77989841E-05, 922.686157  , 33.36569    , 783.142456  , 1.76        , 3           , 255         , 0           , 0
-0.112487152, 0.119104959 , -9.783538   , 0.000444618956, -0.000154903217, -4.62055832E-05, -0.0131184459, -0.0126233688, -1.82407075E-05, 922.686157  , 33.36569    , 783.142456  , 1.77        , 3           , 255         , 0           , 0
-0.122316085, 0.118736826 , -9.789497   , 5.3140684E-05, 0.000240463443, 0.0005764354, -0.0131179867, -0.0126208887, -1.2508076E-05, 922.686157  , 33.36569    , 783.142456  , 1.78        , 3           , 255         , 0           , 0
-0.124974564, 0.1235791   , -9.803881   , -9.745575E-05, -9.164872E-05, -7.132459E-05, -0.0131189507, -0.0126218144, -1.320928E-05, 922.686157  , 33.36569    , 783.142456  , 1.79        , 3           , 255         , 0           , 0
-0.118900418, 0.131856531 , -9.804102   , -0.000278274121, 0.000489031139, 0.0002994261, -0.0131217716, -0.0126168849, -1.02792874E-05, 922.686157  , 33.36569    , 783.142456  , 1.8         , 3           , 255         , 0           , 0
-0.119406238, 0.127352133 , -9.783895   , -1.158996E-05, 0.00024822983, 0.0002837172, -0.0131173171, -0.0126075419, -7.5328453E-06, 922.686157  , 33.36569    , 783.108643  , 1.81        , 3           , 255         , 0           , 0
-0.124089956, 0.123894058 , -9.776792   , 0.000283606525, 6.87244756E-05, -0.000286529859, -0.0131144449, -0.0126068955, -1.0407075E-05, 922.686157  , 33.36569    , 783.108459  , 1.82        , 3           , 255         , 0           , 0
-0.127653167, 0.120276131 , -9.790187   , 0.000499832851, 1.660036E-05, -0.000475955225, -0.0131093878, -0.0126067894, -1.51686527E-05, 922.670837  , 33.3637238  , 783.1083    , 1.83        , 3           , 255         , 0           , 0
-0.1303356  , 0.120130017 , -9.792559   , -0.000141567958, 0.0003861116, 0.000229509111, -0.0131108323, -0.0126028974, -1.29242553E-05, 922.670837  , 33.3637238  , 783.1081    , 1.84        , 3           , 255         , 0           , 0
-0.128972918, 0.12957862  , -9.803636   , -8.948607E-05, -2.08963174E-05, 0.0007754876, -0.0131118242, -0.0126030054, -5.166879E-06, 922.670837  , 33.3637238  , 783.1079    , 1.85        , 3           , 255         , 0           , 0
-0.127669   , 0.123225488 , -9.796089   , 0.0002035714, -0.0004519283, 0.0002360809, -0.013109819, -0.0126074944, -2.74689251E-06, 922.670837  , 33.3637238  , 783.1077    , 1.86        , 3           , 255         , 0           , 0
-0.123765685, 0.132277891 , -9.794577   , 1.15903094E-05, -0.000298233179, -0.0006560276, -0.0131096216, -0.0126105621, -9.267862E-06, 922.670837  , 33.3637238  , 783.107544  , 1.87        , 3           , 255         , 0           , 0
-0.117550254, 0.127465159 , -9.79254    , -0.000627495931, -0.000452516659, -0.000542426133, -0.0131158251, -0.0126151592, -1.46326192E-05, 922.670837  , 33.3637238  , 783.107361  , 1.88        , 3           , 255         , 0           , 0
-0.124661878, 0.129849032 , -9.789079   , -0.0003885253, -1.51428976E-05, 1.10392575E-05, -0.0131197125, -0.0126153072, -1.45202412E-05, 922.670837  , 33.3637238  , 783.1072    , 1.89        , 3           , 255         , 0           , 0
-0.125760287, 0.135442227 , -9.788805   , -0.0007059851, -0.000223059382, 5.16309156E-05, -0.0131267775, -0.0126175312, -1.39746835E-05, 922.670837  , 33.3637238  , 783.107     , 1.9         , 3           , 255         , 0           , 0
-0.125434771, 0.13089554  , -9.800798   , 0.000284761016, 0.000149483967, 0.000186690115, -0.01312006 , -0.0126203066, -1.21766152E-05, 922.670837  , 33.3637238  , 783.094238  , 1.91        , 3           , 255         , 0           , 0
-0.124095082, 0.140002653 , -9.79114    , -0.000388734217, 7.747009E-05, -0.000291052915, -0.01312391 , -0.0126195708, -1.5097221E-05, 922.670837  , 33.3637238  , 783.094     , 1.92        , 3           , 255         , 0           , 0
-0.136122823, 0.129534513 , -9.785985   , -5.818752E-05, 2.01141229E-05, -8.591973E-05, -0.0131244808, -0.0126193808, -1.59590327E-05, 922.6654    , 33.367794   , 783.09375   , 1.93        , 3           , 255         , 0           , 0
-0.137936056, 0.122926973 , -9.79127    , 0.000181651791, 6.114191E-06, -0.000217367444, -0.0131226368, -0.0126193482, -1.81334362E-05, 922.6654    , 33.367794   , 783.0935    , 1.94        , 3           , 255         , 0           , 0
-0.136467963, 0.13166149  , -9.7899     , 0.00020774  , -9.29075759E-05, 9.640277E-05, -0.0131205739, -0.0126202647, -1.71572447E-05, 922.6654    , 33.367794   , 783.093262  , 1.95        , 3           , 255         , 0           , 0
-0.129145637, 0.127655908 , -9.791117   , -0.00046561152, -0.000242063077, 0.000128063315, -0.0131252455, -0.0126226684, -1.58448765E-05, 922.6654    , 33.367794   , 783.093     , 1.96        , 3           , 255         , 0           , 0
-0.123651549, 0.130027533 , -9.793912   , 0.000238706474, -0.0003433961, 0.000450454 , -0.0131229162, -0.0126260417, -1.12954131E-05, 922.6654    , 33.367794   , 783.0928    , 1.97        , 3           , 255         , 0           , 0
-0.118689224, 0.131633133 , -9.786359   , 0.000133263413, -0.000299190637, 0.000325874076, -0.0131216245, -0.0126289884, -7.99751251E-06, 922.6654    , 33.367794   , 783.0925    , 1.98        , 3           , 255         , 0           , 0
-0.113748431, 0.123855516 , -9.789156   , 0.00021223264, 0.000202513416, 7.672058E-05, -0.0131195122, -0.0126269534, -7.25690643E-06, 922.6654    , 33.367794   , 783.0923    , 1.99        , 3           , 255         , 0           , 0
-0.120549634, 0.121968374 , -9.796222   , -1.98822236E-05, -0.000357509649, 0.000123967722, -0.0131197264, -0.0126305129, -5.97037069E-06, 922.6654    , 33.367794   , 783.092041  , 2           , 3           , 0           , 7.834236    , 200
-0.1297972  , 0.121766165 , -9.792539   , -0.000136554881, -7.934967E-05, -0.0009156949, -0.0131222932, -0.0126388939, -1.509996E-05, 922.6654    , 33.367794   , 783.087158  , 2.01        , 3           , 1           , 0           , 0
-0.1206342  , 0.133183718 , -9.790884   , 0.0001495927, -3.89268971E-05, -0.00106764655, -0.0131206652, -0.012639421, -2.5770978E-05, 922.6654    , 33.367794   , 783.0869    , 2.02        , 3           , 2           , 0           , 0
-0.119689345, 0.141437024 , -9.79072    , 0.0003553962, -0.000136265357, -3.73091025E-05, -0.0131171057, -0.0126407919, -2.6126183E-05, 922.668     , 33.36657    , 783.0867    , 2.03        , 3           , 3           , 0           , 0
-0.123979963, 0.133979559 , -9.790726   , 0.000110256369, 0.000137855473, 0.000376604556, -0.0131160505, -0.0126393614, -2.237834E-05, 922.668     , 33.36657    , 783.0864    , 2.04        , 3           , 4           , 0           , 0
-0.1172775  , 0.132880136 , -9.786527   , 2.11215811E-05, -0.000118784374, 0.000135822324, -0.0131158559, -0.0126405321, -2.10045873E-05, 922.668     , 33.36657    , 783.0862    , 2.05        , 3           , 5           , 0           , 0
-0.118092321, 0.1336706   , -9.800218   , 0.000543362636, -1.26165687E-05, -0.000453774235, -0.0131103639, -0.0126407165, -2.55405357E-05, 922.668     , 33.36657    , 783.085938  , 2.06        , 3           , 6           , 0           , 0
-0.126573965, 0.130174443 , -9.803083   , 0.0004116083, -0.000260666362, -0.0003607156, -0.0131062036, -0.0126433708, -2.91134129E-05, 922.668     , 33.36657    , 783.0857    , 2.07        , 3           , 7           , 0           , 0
-0.1227685  , 0.141293466 , -9.803199   , 0.0001469251, -0.000191189989, -0.000290098251, -0.0131046977, -0.01264532 , -3.198925E-05, 922.668     , 33.36657    , 783.085449  , 2.08        , 3           , 8           , 5           , 5
-0.129592285, 0.134902388 , -9.790077   , 0.00014073163, -4.27236664E-05, -0.000387182576, -0.013103243, -0.0126457978, -3.58553552E-05, 922.668     , 33.36657    , 783.0852    , 2.09        , 3           , 9           , 5           , 0.1
-0.123263635, 0.128734469 , -9.780054   , -7.470575E-05, -0.00050106243, 9.724441E-06, -0.0131039917, -0.0126508065, -3.56924538E-05, 922.668     , 33.36657    , 783.084961  , 2.1         , 3           , 10          , 0.1         , 0.1
-0.120561145, 0.1354729   , -9.78348351 , 0.000483795127, -0.000215512409, 0.000114741117, -0.01310975 , -0.0126515375, -3.438297E-05, 922.668     , 33.36657    , 783.0776    , 2.11        , 3           , 11          , 0.008028832 , 0.008028832
-0.127358913, 0.132502526 , -9.796869   , 0.000475933717, -3.04380665E-05, -0.000171458523, -0.0131049687, -0.0126518663, -3.609352E-05, 922.668     , 33.36657    , 783.0773    , 2.12        , 3           , 12          , 0.174643889 , 0
-0.124686159, 0.132250816 , -9.790968   , -2.52067111E-05, -0.000290513854, 0.000370560534, -0.0131052677, -0.0126547217, -3.23499553E-05, 922.6566    , 33.36881    , 783.076965  , 2.13        , 3           , 13          , 0           , 0
-0.110878468, 0.132345632 , -9.777143   , -0.00061988167, 0.000166937767, 0.0002925214, -0.0131115029, -0.0126530146, -2.94467154E-05, 922.6566    , 33.36881    , 783.07666   , 2.14        , 3           , 14          , -0.000794110936, -0.0005388758
-0.122084558, 0.131112665 , -9.814036   , -0.0007763553, -1.70994317E-05, 0.000142051809, -0.0131192841, -0.0126531674, -2.80239947E-05, 922.6566    , 33.36881    , 783.076355  , 2.15        , 3           , 15          , 0           , -4.33633468E-05
-0.123891577, 0.128977671 , -9.816024   , -0.000167551509, -0.000408978027, 0.000248235418, -0.0131209912, -0.0126572233, -2.548804E-05, 922.6566    , 33.36881    , 783.07605   , 2.16        , 3           , 16          , 0           , 1.401298E-45
-0.1266435  , 0.125222668 , -9.817047   , 0.0006646484, -0.000103273429, 0.0003717049, -0.0131143918, -0.0126582077, -2.17575634E-05, 922.6566    , 33.36881    , 783.075745  , 2.17        , 3           , 20          , 0           , 0
-0.11539378 , 0.118083738 , -9.79405    , 0.00115564209, -0.000296819024, -0.0003311126, -0.0131027931, -0.0126612177, -2.50296871E-05, 922.6566    , 33.36881    , 783.075439  , 2.18        , 3           , 21          , 0           , 0
-0.1192316  , 0.114697792 , -9.768053   , 0.0009101079, -0.000306111178, 0.000334382436, -0.0130937342, -0.0126642371, -2.16458666E-05, 922.6566    , 33.36881    , 783.075134  , 2.19        , 3           , 22          , 0           , 0
-0.122208968, 0.1325378   , -9.758775   , 0.0005908693, 0.000362806633, -0.000618666934, -0.0130877476, -0.01266069 , -2.78798543E-05, 922.6566    , 33.36881    , 783.0748    , 2.2         , 3           , 40          , 0           , 0
-0.124811411, 0.126154661 , -9.782526   , -0.0005277909, 0.000125410268, -0.0002241041, -0.0130927218, -0.0126532195, -3.014073E-05, 922.6566    , 33.36881    , 783.0831    , 2.21        , 3           , 41          , 0           , 0
-0.128975257, 0.135152221 , -9.811149   , -0.000352133473, 0.000169222971, 5.389283E-05, -0.0130962478, -0.01265152 , -2.96239723E-05, 922.6566    , 33.36881    , 783.0829    , 2.22        , 3           , 42          , 0           , 0
-0.132818088, 0.131874338 , -9.809753   , -0.000340491824, -9.148178E-05, 0.0006609328, -0.0130997365, -0.0126523469, -2.300286E-05, 922.6355    , 33.36725    , 783.082642  , 2.23        , 3           , 255         , 0           , 0
-0.1282099  , 0.132147819 , -9.787765   , 0.000269899552, 0.000169600418, 0.0003664993, -0.0130970851, -0.0126506034, -1.93601973E-05, 922.6355    , 33.36725    , 783.0824    , 2.24        , 3           , 255         , 0           , 0
-0.112296328, 0.134987235 , -9.778788   , -0.000159133808, 0.0001610477, -0.000958813762, -0.0130985556, -0.0126491189, -2.89691325E-05, 922.6355    , 33.36725    , 783.082153  , 2.25        , 3           , 255         , 0           , 0
-0.123657465, 0.138229191 , -9.787354   , -0.0003490792, -0.000174836081, -0.000439449679, -0.01310199 , -0.0126509238, -3.334059E-05, 922.6355    , 33.36725    , 783.0819    , 2.26        , 3           , 255         , 0           , 0
-0.127925828, 0.144531608 , -9.79855251 , 0.000193363056, -0.000431568944, 0.000159981544, -0.0131000774, -0.0126552181, -3.16842925E-05, 922.6355    , 33.36725    , 783.081665  , 2.27        , 3           , 255         , 0           , 0
-0.126615658, 0.139688954 , -9.810793   , 0.0006852781, -0.000523921859, 0.000782436167, -0.0130933253, -0.0126603553, -2.379155E-05, 922.6355    , 33.36725    , 783.0814    , 2.28        , 3           , 255         , 0           , 0
-0.11789526 , 0.131189927 , -9.796116   , 0.0007586885, 3.63233266E-06, -0.0002730502, -0.0130857024, -0.0126603534, -2.65224444E-05, 922.6355    , 33.36725    , 783.081238  , 2.29        , 3           , 255         , 0           , 0
-0.124047324, 0.127101272 , -9.781561   , 0.000192432024, 5.772445E-05, -0.000576891238, -0.0130837057, -0.0126598524, -3.22987362E-05, 922.6355    , 33.36725    , 783.081055  , 2.3         , 3           , 255         , 0           , 0
-0.117775917, 0.115915261 , -9.78054    , 0.000502234965, -0.0002896579, 0.00020835764, -0.0130898152, -0.0126642687, -3.00366974E-05, 922.6355    , 33.36725    , 783.1162    , 2.31        , 3           , 255         , 0           , 0
-0.1186926  , 0.117812119 , -9.790121   , -0.0005115842, 5.96523751E-06, 0.000140607692, -0.01309495 , -0.0126641905, -2.86314371E-05, 922.6355    , 33.36725    , 783.1162    , 2.32        , 3           , 255         , 0           , 0
-0.119902708, 0.126596078 , -9.804426   , -0.000183057855, -0.000193730346, 0.0002127017, -0.0130968066, -0.0126661006, -2.64791161E-05, 922.6258    , 33.3652153  , 783.1162    , 2.33        , 3           , 255         , 0           , 0
-0.126307636, 0.1295723   , -9.808249   , -0.000150042237, -0.000135168957, -0.0006586485, -0.0130982241, -0.0126675395, -3.30476978E-05, 922.6258    , 33.3652153  , 783.1162    , 2.34        , 3           , 255         , 0           , 0
-0.13151072 , 0.125353575 , -9.793307   , 0.000812362239, 0.000143959391, -0.0003672786, -0.0130900526, -0.0126661481, -3.67392131E-05, 922.6258    , 33.3652153  , 783.1162    , 2.35        , 3           , 255         , 0           , 0
-0.125004187, 0.128021047 , -9.777468   , 0.000112933456, -5.628582E-05, -0.000910680334, -0.0130888084, -0.01266683 , -4.58383765E-05, 922.6258    , 33.3652153  , 783.1162    , 2.36        , 3           , 255         , 0           , 0
-0.130481511, 0.135976672 , -9.788679   , 0.000301131164, -0.000293218, -0.000139850614, -0.0130857788, -0.0126697794, -4.71984677E-05, 922.6258    , 33.3652153  , 783.1162    , 2.37        , 3           , 255         , 0           , 0
-0.127900958, 0.120724544 , -9.800125   , 0.000481643918, -0.000144568039, 0.000223134484, -0.0130809918, -0.0126711959, -4.49482832E-05, 922.6258    , 33.3652153  , 783.1162    , 2.38        , 3           , 255         , 0           , 0
-0.121869043, 0.120870613 , -9.796277   , 0.000219146255, -9.571406E-05, -0.000712312933, -0.0130787091, -0.0126722455, -5.20586727E-05, 922.6258    , 33.3652153  , 783.1162    , 2.39        , 3           , 255         , 0           , 0
-0.124114111, 0.11462716  , -9.780657   , 0.000311397656, -0.000116052979, -0.000223461742, -0.01307557 , -0.0126734357, -5.427804E-05, 922.6258    , 33.3652153  , 783.1162    , 2.4         , 3           , 255         , 0           , 0
-0.128846318, 0.130300716 , -9.76729    , 0.000264842936, 0.000290814525, 1.46598959E-05, -0.01306247 , -0.0126712127, -5.4301905E-05, 922.6258    , 33.3652153  , 783.1603    , 2.41        , 3           , 255         , 0           , 0
-0.121373489, 0.142857283 , -9.795024   , 2.504012E-05, -0.000109791872, -0.000160483542, -0.0130621986, -0.0126723312, -5.58923421E-05, 922.6258    , 33.3652153  , 783.1606    , 2.42        , 3           , 255         , 0           , 0
-0.1230845  , 0.137802586 , -9.796275   , 0.000121917168, 0.000112663722, -0.000117666728, -0.0130609646, -0.01267122 , -5.70836855E-05, 922.6713    , 33.3704376  , 783.1609    , 2.43        , 3           , 255         , 0           , 0
-0.130104735, 0.129703313 , -9.810322   , 0.0004933895, 0.0007480661, -0.000774608634, -0.0130559318, -0.012663844, -6.492722E-05, 922.6713    , 33.3704376  , 783.1612    , 2.44        , 3           , 255         , 0           , 0
-0.119042084, 0.121707961 , -9.795483   , 0.0006181467, 0.000446358346, -0.0007293078, -0.0130496575, -0.0126594771, -7.227833E-05, 922.6713    , 33.3704376  , 783.1615    , 2.45        , 3           , 255         , 0           , 0
-0.120391607, 0.130175665 , -9.783495   , -0.000348623085, -0.000106415187, -8.986659E-06, -0.0130531434, -0.0126605425, -7.235432E-05, 922.6713    , 33.3704376  , 783.1618    , 2.46        , 3           , 255         , 0           , 0
-0.125970215, 0.127202168 , -9.777394   , -8.467841E-05, 0.000225501513, 0.00041261  , -0.0130540421, -0.0126582338, -6.825778E-05, 922.6713    , 33.3704376  , 783.1621    , 2.47        , 3           , 255         , 0           , 0
-0.125876546, 0.128518254 , -9.784396   , -9.742071E-05, -1.49335247E-05, 0.000432344619, -0.01305507 , -0.0126583269, -6.393252E-05, 922.6713    , 33.3704376  , 783.1624    , 2.48        , 3           , 255         , 0           , 0
-0.122615084, 0.13242662  , -9.802828   , -3.04665882E-05, 0.000345364359, 0.00121607608, -0.0130555285, -0.0126547134, -5.18172164E-05, 922.6713    , 33.3704376  , 783.1627    , 2.49        , 3           , 255         , 0           , 0
-0.124912381, 0.12697129  , -9.808222   , -7.44639547E-05, -6.55743061E-05, -0.00072660594, -0.01305618 , -0.012655464, -5.90744821E-05, 922.6713    , 33.3704376  , 783.163     , 2.5         , 3           , 255         , 0           , 0
-0.126381442, 0.123891279 , -9.793955   , 9.534706E-06, 0.000304706162, 7.526827E-05, -0.0130624808, -0.0126528945, -5.82808134E-05, 922.6713    , 33.3704376  , 783.1405    , 2.51        , 3           , 255         , 0           , 0
-0.124874257, 0.117297791 , -9.78693    , 0.0001263597, -0.000228010176, 0.0001871532, -0.0130612422, -0.01265515 , -5.637956E-05, 922.6713    , 33.3704376  , 783.1407    , 2.52        , 3           , 255         , 0           , 0
-0.1270782  , 0.126281843 , -9.78213    , -0.000284468231, 0.000293448975, 0.0006131562, -0.0130641628, -0.0126521345, -5.0286515E-05, 922.6652    , 33.3646736  , 783.140869  , 2.53        , 3           , 255         , 0           , 0
-0.131070092, 0.129186288 , -9.794861   , 9.585259E-05, 0.000331731 , 0.0005495235, -0.0130632743, -0.0126487464, -4.48347964E-05, 922.6652    , 33.3646736  , 783.141052  , 2.54        , 3           , 255         , 0           , 0
-0.1272153  , 0.131413385 , -9.791595   , 0.0006176566, 4.269142E-05, 0.00017101437, -0.0130571183, -0.0126482965, -4.3130276E-05, 922.6652    , 33.3646736  , 783.141235  , 2.55        , 3           , 255         , 0           , 0
-0.125305861, 0.127092853 , -9.78689    , -1.82180665E-05, 0.00018380041, 0.0006906601, -0.0130573893, -0.0126463724, -3.62478677E-05, 922.6652    , 33.3646736  , 783.1414    , 2.56        , 3           , 255         , 0           , 0
-0.12616533 , 0.1304801   , -9.780563   , 2.72970065E-05, -0.000260193658, 0.000249309553, -0.0130571481, -0.0126489392, -3.3720873E-05, 922.6652    , 33.3646736  , 783.1416    , 2.57        , 3           , 255         , 0           , 0
-0.120031022, 0.129330888 , -9.788162   , 7.668481E-05, 4.91451938E-05, 0.000105443571, -0.0130563937, -0.0126484344, -3.26728841E-05, 922.6652    , 33.3646736  , 783.1418    , 2.58        , 3           , 255         , 0           , 0
-0.123915851, 0.132279009 , -9.79517    , 0.0005982912, 0.00046195928, 2.96530961E-05, -0.0130504146, -0.01264381 , -3.24366629E-05, 922.6652    , 33.3646736  , 783.141968  , 2.59        , 3           , 255         , 0           , 0
-0.127016217, 0.130879357 , -9.793864   , 5.94586E-05 , 0.0006853843, -0.0005422855, -0.0130497525, -0.0126370285, -3.794879E-05, 922.6652    , 33.3646736  , 783.142151  , 2.6         , 3           , 255         , 0           , 0
-0.122536205, 0.139074624 , -9.799841   , -7.37285E-05, -6.517215E-05, 4.461742E-05, -0.01305039 , -0.012643124, -3.74954252E-05, 922.6652    , 33.3646736  , 783.1305    , 2.61        , 3           , 255         , 0           , 0
-0.117639937, 0.1366968   , -9.78962    , 0.0006358936, -0.000136060116, 0.000381080434, -0.0130440816, -0.0126444334, -3.36669873E-05, 922.6652    , 33.3646736  , 783.1306    , 2.62        , 3           , 255         , 0           , 0
-0.116532721, 0.132394075 , -9.793627   , -0.000264236238, 0.000107741973, -2.17938323E-05, -0.01304672 , -0.01264336 , -3.38989666E-05, 922.662354  , 33.3679276  , 783.130737  , 2.63        , 3           , 255         , 0           , 0
-0.11754711 , 0.128168523 , -9.791143   , -5.71055E-05, -9.0560934E-05, -0.00059078756, -0.0130472165, -0.0126443431, -3.97948461E-05, 922.662354  , 33.3679276  , 783.130859  , 2.64        , 3           , 255         , 0           , 0
-0.118031718, 0.130120173 , -9.791344   , -0.000248400029, 4.44561E-06 , -0.000284823269, -0.0130496658, -0.0126443356, -4.26435727E-05, 922.662354  , 33.3679276  , 783.131     , 2.65        , 3           , 255         , 0           , 0
-0.121554017, 0.13586624  , -9.794072   , 1.71335414E-05, 0.000424330821, -0.000147756407, -0.0130494758, -0.01264011 , -4.41764751E-05, 922.662354  , 33.3679276  , 783.1311    , 2.66        , 3           , 255         , 0           , 0
-0.127425328, 0.120550931 , -9.788198   , 0.000194466847, 9.32687544E-05, -0.000216726912, -0.0130475024, -0.0126392059, -4.63558281E-05, 922.662354  , 33.3679276  , 783.1312    , 2.67        , 3           , 255         , 0           , 0
-0.124655761, 0.123842254 , -9.787642   , 0.000208212179, 0.000145488331, -0.000110123277, -0.0130454069, -0.01263777 , -4.74760054E-05, 922.662354  , 33.3679276  , 783.131348  , 2.68        , 3           , 255         , 0           , 0
-0.122359037, 0.126731381 , -9.790446   , -0.000327241141, 0.000252444646, 0.000172805972, -0.0130487  , -0.0126352208, -4.578094E-05, 922.662354  , 33.3679276  , 783.1315    , 2.69        , 3           , 255         , 0           , 0
-0.12614277 , 0.128409117 , -9.794373   , 0.000313154567, 2.90701282E-05, 0.0002679614, -0.0130456025, -0.0126348948, -4.31052031E-05, 922.662354  , 33.3679276  , 783.1316    , 2.7         , 3           , 255         , 0           , 0
-0.12969631 , 0.118375167 , -9.797433   , 0.000137644121, -0.0001220032, 0.000268621719, -0.0130492654, -0.01263111 , -4.033995E-05, 922.662354  , 33.3679276  , 783.125366  , 2.71        , 3           , 255         , 0           , 0
-0.122646309, 0.124901496 , -9.786659   , -0.000211327046, 0.0005315354, 0.000100285411, -0.01305139 , -0.0126257809, -3.94064955E-05, 922.662354  , 33.3679276  , 783.1255    , 2.72        , 3           , 255         , 0           , 0
-0.126439661, 0.13149792  , -9.778572   , -0.0003622856, 0.000339123915, -0.00019425241, -0.0130549893, -0.012622417, -4.13931957E-05, 922.639343  , 33.3684044  , 783.1256    , 2.73        , 3           , 255         , 0           , 0
-0.1285034  , 0.127942413 , -9.794443   , -0.000735274341, -6.798253E-05, -0.000328262831, -0.0130623  , -0.01262314 , -4.466685E-05, 922.639343  , 33.3684044  , 783.125732  , 2.74        , 3           , 255         , 0           , 0
-0.117442057, 0.129082054 , -9.801138   , 0.00052869803, -0.000261832552, -1.2913406E-06, -0.013057013, -0.0126257576, -4.46455633E-05, 922.639343  , 33.3684044  , 783.125854  , 2.75        , 3           , 255         , 0           , 0
-0.122793458, 0.117167965 , -9.794906   , 0.00051849673, -0.0003576785, -0.0008112286, -0.0130517269, -0.012629441, -5.27109041E-05, 922.639343  , 33.3684044  , 783.126     , 2.76        , 3           , 255         , 0           , 0
-0.132981285, 0.124425031 , -9.794327   , 0.000175730791, -3.2169628E-05, 0.000489418569, -0.01305003 , -0.0126296971, -4.7812664E-05, 922.639343  , 33.3684044  , 783.1261    , 2.77        , 3           , 255         , 0           , 0
-0.128637508, 0.124195    , -9.789173   , 0.000198775961, -0.0004733111, 0.000454495545, -0.0130481012, -0.01263437 , -4.32060879E-05, 922.639343  , 33.3684044  , 783.1262    , 2.78        , 3           , 255         , 0           , 0
-0.118526146, 0.123668432 , -9.781916   , -0.0006722493, -0.000222009432, -4.85409946E-05, -0.0130548188, -0.0126365963, -4.36624978E-05, 922.639343  , 33.3684044  , 783.126343  , 2.79        , 3           , 255         , 0           , 0
-0.123469695, 0.13174057  , -9.795246   , -0.000186881691, 0.00013434561, -0.000772000232, -0.0130565884, -0.012635354, -5.13998166E-05, 922.639343  , 33.3684044  , 783.126465  , 2.8         , 3           , 255         , 0           , 0
-0.125658959, 0.128685236 , -9.801639   , 0.000176623638, 0.000670113659, -0.000656031654, -0.0130492123, -0.0126319248, -5.81172171E-05, 922.639343  , 33.3684044  , 783.1527    , 2.81        , 3           , 255         , 0           , 0
-0.115310118, 0.128499463 , -9.788473   , 0.000246585871, 0.000520161062, 4.9410708E-05, -0.0130467527, -0.0126267169, -5.76910024E-05, 922.639343  , 33.3684044  , 783.153     , 2.82        , 3           , 255         , 0           , 0
-0.1161928  , 0.1356068   , -9.783383   , 0.000124028942, -7.586909E-05, 0.000224753312, -0.01304554 , -0.0126274461, -5.54336366E-05, 922.6716    , 33.3692856  , 783.1533    , 2.83        , 3           , 255         , 0           , 0
-0.122242652, 0.131539673 , -9.78765    , 0.0005893643, -0.000183013966, -0.000154721463, -0.0130396271, -0.0126292957, -5.69569347E-05, 922.6716    , 33.3692856  , 783.1536    , 2.84        , 3           , 255         , 0           , 0
-0.132741973, 0.14544183  , -9.791628   , 0.000805165851, 9.444018E-05, 0.000258101471, -0.0130316084, -0.0126283178, -5.43882961E-05, 922.6716    , 33.3692856  , 783.153931  , 2.85        , 3           , 255         , 0           , 0
-0.122856751, 0.133448347 , -9.802658   , 0.000155820628, 0.0001852001, 0.000312762742, -0.0130300894, -0.0126264254, -5.128489E-05, 922.6716    , 33.3692856  , 783.154236  , 2.86        , 3           , 255         , 0           , 0
-0.1232551  , 0.128700823 , -9.799192   , -0.000142282224, -8.535426E-05, -0.000136270683, -0.0130314957, -0.0126272971, -5.26364274E-05, 922.6716    , 33.3692856  , 783.154541  , 2.87        , 3           , 255         , 0           , 0
-0.133043021, 0.125510365 , -9.789029   , -0.0001343533, 7.894047E-05, -0.000218132685, -0.0130328126, -0.0126265362, -5.4827975E-05, 922.6716    , 33.3692856  , 783.154846  , 2.88        , 3           , 255         , 0           , 0
-0.116874218, 0.124784268 , -9.790224   , -0.000336968747, 0.0001781974, -0.000679277233, -0.0130360946, -0.012624843, -6.16437756E-05, 922.6716    , 33.3692856  , 783.155151  , 2.89        , 3           , 255         , 0           , 0
-0.124911562, 0.119880557 , -9.786535   , -0.0006458124, -7.77693349E-05, -0.0002569274, -0.01304252 , -0.0126256552, -6.420281E-05, 922.6716    , 33.3692856  , 783.155457  , 2.9         , 3           , 255         , 0           , 0
-0.125089258, 0.116842151 , -9.791279   , -0.000135298877, -0.000186881982, 6.098618E-05, -0.0130490027, -0.0126267783, -6.3503925E-05, 922.6716    , 33.3692856  , 783.1326    , 2.91        , 3           , 255         , 0           , 0
-0.119668268, 0.130562723 , -9.799124   , 0.000115453673, -4.15194663E-05, 0.000100059173, -0.0130478609, -0.0126271807, -6.24979439E-05, 922.6716    , 33.3692856  , 783.132751  , 2.92        , 3           , 255         , 0           , 0
-0.1181227  , 0.127201244 , -9.791052   , -0.0004199198, -0.000112449809, -9.089531E-05, -0.0130520491, -0.0126283159, -6.339218E-05, 922.6659    , 33.36976    , 783.1329    , 2.93        , 3           , 255         , 0           , 0
-0.125570968, 0.120928071 , -9.78993    , 0.000352880044, 0.000201652874, 0.000231161786, -0.0130485492, -0.0126262689, -6.110694E-05, 922.6659    , 33.36976    , 783.133     , 2.94        , 3           , 255         , 0           , 0
-0.122742236, 0.129655451 , -9.802109   , 0.0006201653, 0.000172689557, 0.000270079065, -0.013042381, -0.0126245106, -5.84287627E-05, 922.6659    , 33.36976    , 783.1331    , 2.95        , 3           , 255         , 0           , 0
-0.117423855, 0.133132964 , -9.800592   , 0.0005283175, 0.000405944273, -0.000247298565, -0.0130370678, -0.0126204826, -6.09546078E-05, 922.6659    , 33.36976    , 783.1333    , 2.96        , 3           , 255         , 0           , 0
-0.1242398  , 0.130578756 , -9.791159   , -1.51040731E-05, -0.0004375829, 0.000639220467, -0.0130372988, -0.0126247732, -5.450557E-05, 922.6659    , 33.36976    , 783.1335    , 2.97        , 3           , 255         , 0           , 0
-0.12582323 , 0.122686125 , -9.786396   , 0.000293011253, 0.00013136043, -0.00024198553, -0.0130343391, -0.0126234908, -5.69424628E-05, 922.6659    , 33.36976    , 783.133667  , 2.98        , 3           , 255         , 0           , 0
-0.123338938, 0.135607451 , -9.786784   , 0.0005471441, -0.000233696133, -0.001303645, -0.0130287027, -0.0126259979, -6.99480661E-05, 922.6659    , 33.36976    , 783.13385   , 2.99        , 3           , 255         , 0           , 0
-0.1266565  , 0.134553    , -9.790586   , -0.000184004137, -0.000158569368, -0.0006229086, -0.0130304648, -0.0126276631, -7.6156306E-05, 922.6659    , 33.36976    , 783.134033  , 3           , 3           , 0           , 8.834236    , 300
-0.134342283, 0.138975829 , -9.793458   , 0.000134426518, 0.000103116792, -0.000263499882, -0.0130298641, -0.0126252137, -7.879484E-05, 922.6659    , 33.36976    , 783.1223    , 3.01        , 3           , 1           , 0           , 0
-0.131765112, 0.135769412 , -9.796666   , 0.000377082732, 0.000430198153, -0.0008391456, -0.0130259879, -0.0126210228, -8.724208E-05, 922.6659    , 33.36976    , 783.1224    , 3.02        , 3           , 2           , 0           , 0
-0.116914131, 0.137551427 , -9.789119   , 0.0004683754, 0.000252218 , -0.0009998386, -0.0130211785, -0.0126186321, -9.727301E-05, 922.6819    , 33.3690834  , 783.122437  , 3.03        , 3           , 3           , 0           , 0
-0.121650659, 0.128105253 , -9.789387   , -0.000128248532, -0.00017752999, -0.000402216858, -0.01302241 , -0.0126204584, -0.000101271937, 922.6819    , 33.3690834  , 783.1225    , 3.04        , 3           , 4           , 0           , 0
-0.123523965, 0.13047576  , -9.794859   , 0.000181565585, -0.000408523832, -0.0005397686, -0.0130205248, -0.012624613, -0.000106616251, 922.6819    , 33.3690834  , 783.122559  , 3.05        , 3           , 5           , 0           , 0
-0.121191181, 0.133129478 , -9.783097   , -0.000194753346, -3.48523026E-05, 3.540565E-05, -0.0130224777, -0.0126249576, -0.00010625767, 922.6819    , 33.3690834  , 783.1227    , 3.06        , 3           , 6           , 0           , 0
-0.121844672, 0.132144049 , -9.791979   , 0.000306647533, 0.000605458743, -8.878735E-05, -0.0130193988, -0.0126189152, -0.000107224354, 922.6819    , 33.3690834  , 783.1228    , 3.07        , 3           , 7           , 0           , 0
-0.12658301 , 0.128106371 , -9.79205    , 3.25165456E-05, 0.000478858943, -8.03868752E-05, -0.0130190635, -0.0126141356, -0.000108090528, 922.6819    , 33.3690834  , 783.1229    , 3.08        , 3           , 8           , 5           , 5
-0.122539565, 0.130668268 , -9.780071   , 0.000129218271, 0.000215231732, 2.4705223E-05, -0.0130177755, -0.0126119805, -0.000107871521, 922.6819    , 33.3690834  , 783.123047  , 3.09        , 3           , 9           , 5           , 0.1
-0.1265432  , 0.123143122 , -9.791838   , -5.80360065E-05, -5.7298108E-05, 0.000225554511, -0.0130183836, -0.0126125235, -0.000105608604, 922.6819    , 33.3690834  , 783.123169  , 3.1         , 3           , 10          , 0.1         , 0.1
-0.127295762, 0.127739623 , -9.794706   , -0.0006066182, -7.891527E-05, 0.000182808464, -0.0130340224, -0.0126156993, -0.000103649829, 922.6819    , 33.3690834  , 783.090149  , 3.11        , 3           , 11          , 0.00724342139, 0.00724342
-0.117542386, 0.121995725 , -9.790301   , -0.000164167315, 3.57169774E-05, -0.000143762983, -0.0130356466, -0.0126153613, -0.000105092062, 922.6819    , 33.3690834  , 783.09      , 3.12        , 3           , 12          , 0.174645633 , 0
-0.118898496, 0.132061854 , -9.795759   , 0.00014685822, 3.73908551E-06, 0.000243530652, -0.0130342077, -0.0126152923, -0.000102657323, 922.661743  , 33.371048   , 783.0899    , 3.13        , 3           , 13          , 0           , 0
-0.121915482, 0.12452291  , -9.791865   , 1.13295391E-06, 5.009357E-05, 0.000446927967, -0.0130342534, -0.0126147326, -9.819469E-05, 922.661743  , 33.371048   , 783.0898    , 3.14        , 3           , 14          , -0.0007940147, -0.0005388695
-0.126182288, 0.1267946   , -9.795603   , 0.000116765557, -0.000101699319, 0.000163254692, -0.0130331051, -0.0126157282, -9.654895E-05, 922.661743  , 33.371048   , 783.089661  , 3.15        , 3           , 15          , 0           , -4.336447E-05
-0.123162366, 0.121903196 , -9.792926   , 1.221057E-05, 0.00021034875, -0.000487561745, -0.0130329216, -0.0126136886, -0.000101451835, 922.661743  , 33.371048   , 783.089539  , 3.16        , 3           , 16          , 0           , 1.401298E-45
-0.118288614, 0.114862442 , -9.792637   , 0.000253847626, 0.0002686839, 0.00011303481, -0.0130304  , -0.0126109868, -0.000100356527, 922.661743  , 33.371048   , 783.0894    , 3.17        , 3           , 20          , 0           , 0
-0.120528385, 0.116413094 , -9.788578   , 0.000258847547, 4.29893844E-05, 0.000654523436, -0.0130278952, -0.0126104718, -9.38171E-05, 922.661743  , 33.371048   , 783.0893    , 3.18        , 3           , 21          , 0           , 0
-0.119902827, 0.124223016 , -9.789827   , -0.000229611935, 1.59585616E-05, 0.000448326435, -0.0130302459, -0.0126102539, -8.933605E-05, 922.661743  , 33.371048   , 783.0892    , 3.19        , 3           , 22          , 0           , 0
-0.121444844, 0.128587365 , -9.788755   , -0.000129040331, -0.00057173986, -0.000312930846, -0.0130314976, -0.01261601 , -9.239077E-05, 922.661743  , 33.371048   , 783.08905   , 3.2         , 3           , 40          , 0           , 0
-0.116313778, 0.124856688 , -9.789072   , 0.000336316531, 0.000371554255, -0.000478422415, -0.0130210212, -0.0126085123, -9.731219E-05, 922.661743  , 33.371048   , 783.0895    , 3.21        , 3           , 41          , 0           , 0
-0.121446647, 0.128976539 , -9.796948   , 0.0005510232, -4.32378729E-05, -0.000179163224, -0.0130154891, -0.0126089668, -9.909814E-05, 922.661743  , 33.371048   , 783.0894    , 3.22        , 3           , 42          , 0           , 0
-0.122455858, 0.129965067 , -9.798986   , -9.357935E-05, -0.000390733534, 0.000269836 , -0.0130164586, -0.0126128383, -9.63489947E-05, 922.6256    , 33.36942    , 783.089355  , 3.23        , 3           , 255         , 0           , 0
-0.117689133, 0.131170109 , -9.795447   , -0.000239078829, -0.000198882073, -0.000108730062, -0.0130188344, -0.0126148416, -9.741037E-05, 922.6256    , 33.36942    , 783.0893    , 3.24        , 3           , 255         , 0           , 0
-0.117696062, 0.12790589  , -9.798818   , -0.000251479854, -4.82274336E-05, 0.000129152468, -0.0130213667, -0.0126153072, -9.61126061E-05, 922.6256    , 33.36942    , 783.089233  , 3.25        , 3           , 255         , 0           , 0
-0.119480848, 0.136695713 , -9.789913   , -0.000196581648, 0.000140962366, -0.0001840503, -0.0130233085, -0.0126139214, -9.797141E-05, 922.6256    , 33.36942    , 783.0892    , 3.26        , 3           , 255         , 0           , 0
-0.12577343 , 0.130049184 , -9.787533   , 2.13402673E-05, 0.000391965237, 0.000132126836, -0.0130231129, -0.0126099847, -9.670123E-05, 922.6256    , 33.36942    , 783.0891    , 3.27        , 3           , 255         , 0           , 0
-0.12645413 , 0.125692084 , -9.792966   , 0.000161843374, -3.38468235E-05, 0.000108212756, -0.0130215082, -0.0126103088, -9.561473E-05, 922.6256    , 33.36942    , 783.08905   , 3.28        , 3           , 255         , 0           , 0
-0.116119862, 0.13133198  , -9.792219   , 0.000403354526, 0.0003000211, 0.0002481662, -0.0130175045, -0.0126072764, -9.317221E-05, 922.6256    , 33.36942    , 783.089     , 3.29        , 3           , 255         , 0           , 0
-0.121415973, 0.133069873 , -9.798871   , -0.0004227566, 6.2318024E-05, 0.000225465279, -0.0130217606, -0.0126066236, -9.092576E-05, 922.6256    , 33.36942    , 783.0889    , 3.3         , 3           , 255         , 0           , 0
-0.129471481, 0.13121298  , -9.794489   , -0.000464246667, 0.000379573234, -8.75297555E-05, -0.0130303409, -0.0125978477, -9.18007E-05, 922.6256    , 33.36942    , 783.140747  , 3.31        , 3           , 255         , 0           , 0
-0.1248605  , 0.1309535   , -9.80158    , 0.00016399828, 0.000467913022, 0.000379149715, -0.0130287483, -0.0125931194, -8.807029E-05, 922.6256    , 33.36942    , 783.141     , 3.32        , 3           , 255         , 0           , 0
-0.124020122, 0.1258624   , -9.793344   , 0.000338964339, 0.000203272619, 0.0005509122, -0.013025431, -0.0125910146, -8.2587816E-05, 922.6451    , 33.36881    , 783.141235  , 3.33        , 3           , 255         , 0           , 0
-0.121916853, 0.124558687 , -9.799948   , 0.000369306043, -0.000209392456, -8.071402E-05, -0.0130217271, -0.0125931185, -8.336765E-05, 922.6451    , 33.36881    , 783.1415    , 3.34        , 3           , 255         , 0           , 0
-0.126828432, 0.139217973 , -9.79918    , 0.0009225599, -8.210109E-05, 0.000695856637, -0.01301259 , -0.0125938505, -7.63985954E-05, 922.6451    , 33.36881    , 783.1417    , 3.35        , 3           , 255         , 0           , 0
-0.121983074, 0.131036222 , -9.79553    , 0.000240266614, -5.229324E-05, 0.000243383984, -0.0130102169, -0.0125943394, -7.395803E-05, 922.6451    , 33.36881    , 783.141968  , 3.36        , 3           , 255         , 0           , 0
-0.128654525, 0.134747416 , -9.786717   , -0.000311299518, 6.85299747E-05, -4.22672747E-05, -0.0130133228, -0.0125936605, -7.43895944E-05, 922.6451    , 33.36881    , 783.1422    , 3.37        , 3           , 255         , 0           , 0
-0.127098054, 0.1379835   , -9.79567    , -0.000195531815, 0.000295150734, 4.15234026E-05, -0.0130152842, -0.0125907045, -7.40128E-05, 922.6451    , 33.36881    , 783.142456  , 3.38        , 3           , 255         , 0           , 0
-0.126213118, 0.131431639 , -9.799755   , -0.000477065041, 0.000252597878, -0.0005426202, -0.0130199846, -0.0125882495, -7.94717052E-05, 922.6451    , 33.36881    , 783.1427    , 3.39        , 3           , 255         , 0           , 0
-0.12911059 , 0.129197374 , -9.799232   , 0.0003664188, -6.312766E-05, -0.0009671808, -0.0130162016, -0.0125890076, -8.913499E-05, 922.6451    , 33.36881    , 783.142944  , 3.4         , 3           , 255         , 0           , 0
-0.126725   , 0.1336163   , -9.795903   , 0.000332726457, 0.000199225382, -0.0002853085, -0.0130184488, -0.0125906439, -9.194325E-05, 922.6451    , 33.36881    , 783.1592    , 3.41        , 3           , 255         , 0           , 0
-0.1233171  , 0.123341516 , -9.78759    , -0.000168331317, 0.000261272071, -0.0008134966, -0.0130200284, -0.0125881387, -0.000100111996, 922.6451    , 33.36881    , 783.159546  , 3.42        , 3           , 255         , 0           , 0
-0.126334712, 0.123718441 , -9.782583   , 4.48530773E-05, 0.000230492151, -0.0003382555, -0.0130195366, -0.0125858774, -0.000103524442, 922.6638    , 33.3660965  , 783.1599    , 3.43        , 3           , 255         , 0           , 0
-0.127202675, 0.123988882 , -9.787764   , 0.0001299514, 0.0005134726, -0.000530785765, -0.01301817 , -0.012580811, -0.000108898996, 922.6638    , 33.3660965  , 783.1603    , 3.44        , 3           , 255         , 0           , 0
-0.131094813, 0.140658319 , -9.787832   , 0.0001508618, 0.000216120621, -0.000215995024, -0.0130166337, -0.0125786783, -0.000111087, 922.6638    , 33.3660965  , 783.160645  , 3.45        , 3           , 255         , 0           , 0
-0.121561155, 0.137767583 , -9.796633   , -0.000141797354, 0.000124139013, -0.000564171933, -0.0130179795, -0.0125775114, -0.000116744704, 922.6638    , 33.3660965  , 783.161     , 3.46        , 3           , 255         , 0           , 0
-0.126965627, 0.132614419 , -9.788137   , -0.000180423318, 0.000204065291, -0.000261901267, -0.0130197508, -0.0125755053, -0.000119390214, 922.6638    , 33.3660965  , 783.1614    , 3.47        , 3           , 255         , 0           , 0
-0.12717247 , 0.132467628 , -9.789122   , -0.0003256239, 0.000120167591, -0.000344961474, -0.013022963, -0.0125743486, -0.000122855359, 922.6638    , 33.3660965  , 783.161743  , 3.48        , 3           , 255         , 0           , 0
-0.12508294 , 0.13684538  , -9.792779   , -0.000237089582, 0.0001386255, -0.000159411968, -0.0130253136, -0.0125729842, -0.0001244675, 922.6638    , 33.3660965  , 783.1621    , 3.49        , 3           , 255         , 0           , 0
-0.120178424, 0.132469773 , -9.787096   , 7.911003E-05, 0.0004325481, 0.000252142141, -0.0130245546, -0.0125686256, -0.000122002493, 922.6638    , 33.3660965  , 783.1625    , 3.5         , 3           , 255         , 0           , 0
-0.121665277, 0.129009664 , -9.795146   , -2.71304743E-05, 0.000115882314, 0.000225072639, -0.013034354, -0.0125727262, -0.000119647506, 922.6638    , 33.3660965  , 783.149658  , 3.51        , 3           , 255         , 0           , 0
-0.118705727, 0.13168706  , -9.785503   , 4.21183649E-05, -0.000172885542, -8.559473E-05, -0.0130339228, -0.0125744659, -0.000120480894, 922.6638    , 33.3660965  , 783.149963  , 3.52        , 3           , 255         , 0           , 0
-0.125032634, 0.131058127 , -9.780937   , -0.000370544847, 0.0002106776, -0.000420381664, -0.0130375745, -0.0125724142, -0.000124712038, 922.6768    , 33.3690147  , 783.150269  , 3.53        , 3           , 255         , 0           , 0
-0.123819351, 0.118398979 , -9.788603   , -2.10031867E-05, -0.0007328196, -8.538096E-05, -0.0130377747, -0.0125797521, -0.000125470251, 922.6768    , 33.3690147  , 783.1506    , 3.54        , 3           , 255         , 0           , 0
-0.117788233, 0.126068264 , -9.791296   , -0.0002887823, -0.0002156694, 0.00142029161, -0.0130408416, -0.0125817219, -0.000111239664, 922.6768    , 33.3690147  , 783.1509    , 3.55        , 3           , 255         , 0           , 0
-0.112507224, 0.126790822 , -9.805392   , -8.125347E-05, -0.0005419789, 4.659391E-05, -0.01304166 , -0.0125871366, -0.000110703055, 922.6768    , 33.3690147  , 783.1512    , 3.56        , 3           , 255         , 0           , 0
-0.120572351, 0.140029624 , -9.802298   , 0.000270165154, -0.000242821348, -0.0004823465, -0.0130388988, -0.0125896269, -0.0001154947, 922.6768    , 33.3690147  , 783.1515    , 3.57        , 3           , 255         , 0           , 0
-0.129254729, 0.130048051 , -9.797242   , 6.47307E-05 , 3.11891781E-05, -0.0006259596, -0.0130381724, -0.0125893969, -0.000121758196, 922.6768    , 33.3690147  , 783.1518    , 3.58        , 3           , 255         , 0           , 0
-0.115657881, 0.13078247  , -9.778359   , -5.74608566E-05, -0.0005166636, -0.000294812169, -0.0130387107, -0.0125946021, -0.000124638857, 922.6768    , 33.3690147  , 783.1521    , 3.59        , 3           , 255         , 0           , 0
-0.118439138, 0.130959779 , -9.775527   , 0.00016908237, -0.000230888661, 0.0006567496, -0.0130371032, -0.0125968251, -0.000118041455, 922.6768    , 33.3690147  , 783.1524    , 3.6         , 3           , 255         , 0           , 0
-0.119779728, 0.1281311   , -9.791993   , 0.000234788749, 0.000152185326, 0.000488915131, -0.01303861 , -0.0125893084, -0.00011312453, 922.6768    , 33.3690147  , 783.1222    , 3.61        , 3           , 255         , 0           , 0
-0.133037284, 0.1345304   , -9.800196   , 0.000225191237, -0.0001174261, 0.00011744826, -0.013036374, -0.0125904679, -0.00011193478, 922.6768    , 33.3690147  , 783.1223    , 3.62        , 3           , 255         , 0           , 0
-0.12916787 , 0.132598892 , -9.799262   , -3.6351732E-05, 0.000275131373, -0.0005993036, -0.01303666 , -0.012587795, -0.0001179635, 922.654     , 33.37003    , 783.122437  , 3.63        , 3           , 255         , 0           , 0
-0.125950426, 0.132340223 , -9.798601   , -8.58889E-06, 0.000479196868, -0.000256602449, -0.013036713, -0.0125830369, -0.000120591911, 922.654     , 33.37003    , 783.122559  , 3.64        , 3           , 255         , 0           , 0
-0.135292664, 0.135728    , -9.78746    , 6.4531574E-05, 6.10082934E-05, -0.000221291455, -0.0130360406, -0.0125824548, -0.000122812737, 922.654     , 33.37003    , 783.1227    , 3.65        , 3           , 255         , 0           , 0
-0.121546268, 0.13747865  , -9.783125   , -0.000156890368, 0.000340201776, -0.000417000643, -0.0130375559, -0.0125791077, -0.000127026942, 922.654     , 33.37003    , 783.1228    , 3.66        , 3           , 255         , 0           , 0
-0.124469675, 0.133241415 , -9.793456   , 0.000742009666, 0.00011478932, -0.000266500429, -0.0130301025, -0.0125779985, -0.000129706837, 922.654     , 33.37003    , 783.1229    , 3.67        , 3           , 255         , 0           , 0
-0.121547863, 0.132513881 , -9.79969    , 0.0004658589, 9.397269E-05, -0.000338825921, -0.0130254  , -0.0125771016, -0.000133107242, 922.654     , 33.37003    , 783.123047  , 3.68        , 3           , 255         , 0           , 0
-0.1206492  , 0.125597179 , -9.798276   , 0.000661978964, -0.0004263717, -0.0002147212, -0.0130187562, -0.0125813922, -0.000135198847, 922.654     , 33.37003    , 783.123169  , 3.69        , 3           , 255         , 0           , 0
-0.114092968, 0.130905792 , -9.791964   , -0.000218832167, -0.0001992468, -0.00041033054, -0.0130208936, -0.0125834392, -0.00013927609, 922.654     , 33.37003    , 783.1233    , 3.7         , 3           , 255         , 0           , 0
-0.12169335 , 0.120828964 , -9.785351   , -0.000329923816, 7.43486453E-07, -0.000395410316, -0.0130309537, -0.0125853969, -0.00014314444, 922.654     , 33.37003    , 783.1298    , 3.71        , 3           , 255         , 0           , 0
-0.124390759, 0.135485813 , -9.791223   , 6.42332E-05 , 1.96492765E-05, 0.000371295057, -0.0130303577, -0.0125851519, -0.000139434138, 922.654     , 33.37003    , 783.13      , 3.72        , 3           , 255         , 0           , 0
-0.123595558, 0.130120277 , -9.793799   , 6.518053E-05, -3.58122052E-05, -0.000433352252, -0.0130296517, -0.0125855664, -0.000143762882, 922.631     , 33.3705063  , 783.1302    , 3.73        , 3           , 255         , 0           , 0
-0.1207615  , 0.12427853  , -9.798818   , -0.0005207142, -0.000409902248, -0.000228630321, -0.01303483 , -0.0125896931, -0.000145995669, 922.631     , 33.3705063  , 783.1304    , 3.74        , 3           , 255         , 0           , 0
-0.124335945, 0.11956574  , -9.786833   , 0.000208251935, -0.0004567972, 9.96319941E-05, -0.0130327614, -0.0125942472, -0.000144939841, 922.631     , 33.3705063  , 783.130554  , 3.75        , 3           , 255         , 0           , 0
-0.119086877, 0.109955572 , -9.793073   , 6.850419E-05, -0.0003231879, 0.0003634074, -0.0130321225, -0.0125974333, -0.000141263779, 922.631     , 33.3705063  , 783.130737  , 3.76        , 3           , 255         , 0           , 0
-0.126926869, 0.126739085 , -9.796047   , 0.000232478429, 5.73839352E-05, 3.38388127E-05, -0.0130298017, -0.0125968549, -0.000140932869, 922.631     , 33.3705063  , 783.1309    , 3.77        , 3           , 255         , 0           , 0
-0.123523094, 0.132407382 , -9.79416752 , 0.00061850145, 3.43865249E-05, -0.00081278407, -0.0130235143, -0.0125966184, -0.000149064945, 922.631     , 33.3705063  , 783.1311    , 3.78        , 3           , 255         , 0           , 0
-0.128362924, 0.130009443 , -9.804937   , 0.0003903764, 0.000110719149, -0.000445892481, -0.0130195562, -0.0125955679, -0.000153538145, 922.631     , 33.3705063  , 783.1313    , 3.79        , 3           , 255         , 0           , 0
-0.129873872, 0.119538404 , -9.793862   , 0.000176098838, 0.000433610025, 0.00010915321, -0.0130178072, -0.0125912186, -0.0001525031, 922.631     , 33.3705063  , 783.1315    , 3.8         , 3           , 255         , 0           , 0
-0.122099623, 0.130318373 , -9.790162   , 0.000116199895, 2.010318E-05, 0.000242993148, -0.013012467, -0.0125923706, -0.00015012885, 922.631     , 33.3705063  , 783.169434  , 3.81        , 3           , 255         , 0           , 0
-0.11658901 , 0.124816179 , -9.787622   , -7.71658961E-07, -7.193966E-05, 0.000175706489, -0.0130124968, -0.0125930673, -0.00014836248, 922.631     , 33.3705063  , 783.169861  , 3.82        , 3           , 255         , 0           , 0
-0.129690662, 0.126601487 , -9.793717   , -0.000115910021, -8.20158748E-05, 0.000154158537, -0.0130136749, -0.0125938673, -0.000146810256, 922.657837  , 33.3715935  , 783.1703    , 3.83        , 3           , 255         , 0           , 0
-0.139589131, 0.128718928 , -9.797293   , -0.0004357504, -0.0003885422, 0.000395532872, -0.0130180828, -0.0125977006, -0.0001428045, 922.657837  , 33.3715935  , 783.1707    , 3.84        , 3           , 255         , 0           , 0
-0.123196326, 0.124647737 , -9.798681   , -0.000354597054, -0.000160487252, 0.0002574237, -0.01302166 , -0.0125992708, -0.000140209449, 922.657837  , 33.3715935  , 783.171143  , 3.85        , 3           , 255         , 0           , 0
-0.111148342, 0.125922263 , -9.789696   , -0.000425147067, -0.000170543615, 0.000220601243, -0.0130259413, -0.0126009472, -0.000137981275, 922.657837  , 33.3715935  , 783.1716    , 3.86        , 3           , 255         , 0           , 0
-0.121495783, 0.124551192 , -9.787498   , -0.000184375269, -0.000160091091, -2.18049172E-06, -0.0130277844, -0.0126025481, -0.000137982235, 922.657837  , 33.3715935  , 783.172     , 3.87        , 3           , 255         , 0           , 0
-0.120477162, 0.121842578 , -9.789476   , 1.55291636E-05, 6.404519E-05, -8.59636057E-05, -0.0130276177, -0.0126019185, -0.000138850184, 922.657837  , 33.3715935  , 783.1724    , 3.88        , 3           , 255         , 0           , 0
-0.118438043, 0.132883489 , -9.797338   , 0.000215718872, -0.000317346945, -0.000183107346, -0.0130254384, -0.0126051158, -0.000140639837, 922.657837  , 33.3715935  , 783.172852  , 3.89        , 3           , 255         , 0           , 0
-0.123559192, 0.132889509 , -9.793645   , 0.000808385143, -0.0002517075, 0.0008428332, -0.0130174607, -0.0126075251, -0.00013217899, 922.657837  , 33.3715935  , 783.1733    , 3.9         , 3           , 255         , 0           , 0
-0.12540397 , 0.12131609  , -9.797511   , -0.0001247151, -3.02388216E-05, -6.89012E-05, -0.01301839 , -0.0126065863, -0.000132867935, 922.657837  , 33.3715935  , 783.1673    , 3.91        , 3           , 255         , 0           , 0
-0.11328423 , 0.13067542  , -9.788176   , -0.0003161676, 0.000441244454, 1.893453E-05, -0.0130215529, -0.0126021719, -0.000132736066, 922.657837  , 33.3715935  , 783.1677    , 3.92        , 3           , 255         , 0           , 0
-0.119744405, 0.126980737 , -9.792943   , -0.0003105488, 0.000317084079, 0.000360230217, -0.0130247027, -0.0125989541, -0.000129175154, 922.666     , 33.3698273  , 783.168152  , 3.93        , 3           , 255         , 0           , 0
-0.11704848 , 0.132798314 , -9.791656   , -0.0002745199, -2.01539369E-05, 0.000139156735, -0.013027465, -0.0125991385, -0.000127781, 922.666     , 33.3698273  , 783.1686    , 3.94        , 3           , 255         , 0           , 0
-0.125407666, 0.135493621 , -9.804078   , 0.000244771 , -0.000237830332, 0.0006467064, -0.0130250994, -0.0126014315, -0.000121283141, 922.666     , 33.3698273  , 783.169     , 3.95        , 3           , 255         , 0           , 0
-0.115937412, 0.1305547   , -9.793744   , 0.0003914188, -0.000188065518, 0.0001289213, -0.0130212009, -0.0126032941, -0.000119969482, 922.666     , 33.3698273  , 783.169434  , 3.96        , 3           , 255         , 0           , 0
-0.118505836, 0.131577119 , -9.794906   , 0.000418778218, 6.199145E-05, -0.0001478965, -0.013016995, -0.0126026934, -0.000121456469, 922.666     , 33.3698273  , 783.169861  , 3.97        , 3           , 255         , 0           , 0
-0.127796486, 0.141081557 , -9.784402   , -0.000243426068, -0.000171984662, 0.000330491224, -0.0130194714, -0.01260437 , -0.000118129268, 922.666     , 33.3698273  , 783.1703    , 3.98        , 3           , 255         , 0           , 0
-0.130482122, 0.135271147 , -9.789053   , -9.99344047E-06, 3.37922829E-05, 0.0005002178, -0.0130196335, -0.0126039665, -0.000113131638, 922.666     , 33.3698273  , 783.1707    , 3.99        , 3           , 255         , 0           , 0
-0.125560775, 0.131133422 , -9.799089   , 9.533239E-05, -0.000489136437, 0.0009459101, -0.0130188009, -0.0126087377, -0.000103609149, 922.666     , 33.3698273  , 783.171143  , 4           , 3           , 0           , 9.834236    , 400
-0.135042936, 0.133505046 , -9.799635   , -0.0001103477, -0.000524197763, 0.000657413329, -0.0130261546, -0.012611635, -9.68891763E-05, 922.666     , 33.3698273  , 783.153748  , 4.01        , 3           , 1           , 0           , 0
-0.118416607, 0.127309456 , -9.789619   , -0.000269675453, 1.56252645E-06, -0.0007163798, -0.0130287595, -0.0126117105, -0.000104052961, 922.666     , 33.3698273  , 783.154053  , 4.02        , 3           , 2           , 0           , 0
-0.119695343, 0.124459587 , -9.796088   , -0.000104784325, 0.000404295221, -0.000207365083, -0.01302978 , -0.0126076955, -0.000106179228, 922.647     , 33.3654861  , 783.154358  , 4.03        , 3           , 3           , 0           , 0
-0.132116228, 0.128279358 , -9.797127   , 0.000326583278, 0.00043792036, -0.000287454226, -0.01302648 , -0.0126033528, -0.000109110741, 922.647     , 33.3654861  , 783.154663  , 4.04        , 3           , 4           , 0           , 0
-0.126449332, 0.13727963  , -9.796547   , 0.000378171564, -3.66719323E-05, -0.0004208144, -0.0130226463, -0.0126037775, -0.000113313989, 922.647     , 33.3654861  , 783.154968  , 4.05        , 3           , 5           , 0           , 0
-0.118424736, 0.127669483 , -9.792852   , 0.0003464367, 0.000367378234, -0.000112439819, -0.0130191678, -0.0126001183, -0.000114486196, 922.647     , 33.3654861  , 783.1553    , 4.06        , 3           , 6           , 0           , 0
-0.122132063, 0.125929266 , -9.789      , 0.000245017873, 0.0005417344, -0.000478185364, -0.013016657, -0.0125947632, -0.000119338445, 922.647     , 33.3654861  , 783.1556    , 4.07        , 3           , 7           , 0           , 0
-0.123938367, 0.130947188 , -9.789468   , 0.000193385582, -0.000134776754, -0.0006039783, -0.0130146462, -0.012596189, -0.00012536053, 922.647     , 33.3654861  , 783.1559    , 4.08        , 3           , 8           , 5           , 5
-0.116270944, 0.13384226  , -9.792752   , 0.0003606056, 0.00025738508, -0.0005734025, -0.0130109685, -0.0125936894, -0.000131127847, 922.647     , 33.3654861  , 783.1562    , 4.09        , 3           , 9           , 5           , 0.1
-0.111814655, 0.126755312 , -9.788393   , 2.8402661E-05, 0.0005805307, 0.000255829946, -0.0130107142, -0.0125878518, -0.000128645173, 922.647     , 33.3654861  , 783.156555  , 4.1         , 3           , 10          , 0.1         , 0.1
-0.126322612, 0.131618187 , -9.791374   , 8.09984049E-05, 5.76118473E-05, 0.000289324555, -0.0130130528, -0.0125856875, -0.000125720326, 922.647     , 33.3654861  , 783.168335  , 4.11        , 3           , 11          , 0.006685161 , 0.0066851587
-0.12715666 , 0.13237457  , -9.7978     , 0.000626134337, -0.000136101327, -0.000131297784, -0.0130067756, -0.0125870658, -0.000127015548, 922.647     , 33.3654861  , 783.168762  , 4.12        , 3           , 12          , 0.174648076 , 0
-0.118914679, 0.1193161   , -9.789467   , 0.000155203452, -4.637288E-05, 0.000354747 , -0.0130052688, -0.012587483, -0.00012346216, 922.6651    , 33.3706436  , 783.1692    , 4.13        , 3           , 13          , 0           , 0
-0.11793641 , 0.130694225 , -9.790282   , 0.000247092161, 0.0003971302, 0.000328058173, -0.0130028389, -0.0125834718, -0.000120233315, 922.6651    , 33.3706436  , 783.1696    , 4.14        , 3           , 14          , -0.000793834, -0.0005389175
-0.125904351, 0.132667035 , -9.794942   , 0.000846357143, 2.15539476E-05, 0.00038039076, -0.0129944244, -0.0125832073, -0.000116432326, 922.6651    , 33.3706436  , 783.170044  , 4.15        , 3           , 15          , 0           , -4.3367374E-05
-0.131706789, 0.1290411   , -9.796791   , -2.33937753E-05, -8.227612E-05, 0.0003109961, -0.0129946973, -0.01258399 , -0.000113311769, 922.6651    , 33.3706436  , 783.1705    , 4.16        , 3           , 16          , 0           , 1.401298E-45
-0.125366852, 0.131296486 , -9.788275   , 0.000227114069, 4.68228827E-05, -0.0004533748, -0.0129923709, -0.01258358 , -0.00011785145, 922.6651    , 33.3706436  , 783.1709    , 4.17        , 3           , 20          , 0           , 0
-0.1201309  , 0.124134228 , -9.79187    , -0.000283806, 9.69697139E-05, -0.000233761311, -0.0129951769, -0.0125826411, -0.000120201614, 922.6651    , 33.3706436  , 783.1713    , 4.18        , 3           , 21          , 0           , 0
-0.114083007, 0.125357643 , -9.796417   , -0.0002209089, -0.000232347462, 0.0006606935, -0.0129974708, -0.0125848791, -0.000113564653, 922.6651    , 33.3706436  , 783.171753  , 4.19        , 3           , 22          , 0           , 0
-0.121312082, 0.127356321 , -9.795427   , -0.000221389928, 2.57220236E-05, -0.000179426221, -0.0129996622, -0.0125846434, -0.000115362207, 922.6651    , 33.3706436  , 783.1722    , 4.2         , 3           , 40          , 0           , 0
-0.124401495, 0.132617638 , -9.788534   , -3.726856E-05, 0.000189367216, 0.000459965959, -0.0130017158, -0.0125821447, -0.000110766887, 922.6651    , 33.3706436  , 783.1559    , 4.21        , 3           , 41          , 0           , 0
-0.126141027, 0.12480557  , -9.786763   , -0.000167314254, 8.962402E-05, 0.000328858063, -0.01300343 , -0.0125812059, -0.00010749005, 922.6651    , 33.3706436  , 783.1562    , 4.22        , 3           , 42          , 0           , 0
-0.121677056, 0.118022718 , -9.794294   , 0.000342688872, 0.00015960462, 0.000705472252, -0.0130000925, -0.0125795184, -0.0001004563, 922.628967  , 33.3703041  , 783.1565    , 4.23        , 3           , 255         , 0           , 0
-0.117565133, 0.12671873  , -9.791165   , 0.0003417376, 0.00018780987, 0.0008003614, -0.012996777, -0.0125775365, -9.247734E-05, 922.628967  , 33.3703041  , 783.1568    , 4.24        , 3           , 255         , 0           , 0
-0.123923913, 0.120489895 , -9.792946   , -1.0773656E-05, -0.000329919159, 0.000613538 , -0.0129969623, -0.0125807552, -8.62992747E-05, 922.628967  , 33.3703041  , 783.1571    , 4.25        , 3           , 255         , 0           , 0
-0.125614092, 0.128922775 , -9.790955   , -0.000199305883, 8.652141E-05, 0.000215286185, -0.0129989823, -0.012579862, -8.415771E-05, 922.628967  , 33.3703041  , 783.1574    , 4.26        , 3           , 255         , 0           , 0
-0.108925387, 0.118535779 , -9.794046   , 1.57235772E-05, 0.0001332828, 3.765196E-05, -0.01299883 , -0.0125785237, -8.37985353E-05, 922.628967  , 33.3703041  , 783.1577    , 4.27        , 3           , 255         , 0           , 0
-0.123438261, 0.125746608 , -9.791079   , -0.000196810986, -0.000176181551, -0.000249883218, -0.0130007658, -0.0125803184, -8.627439E-05, 922.628967  , 33.3703041  , 783.158     , 4.28        , 3           , 255         , 0           , 0
-0.126329169, 0.134819657 , -9.79346752 , 0.000358780526, -2.76334467E-05, -0.00111236866, -0.0129970387, -0.01258074 , -9.739414E-05, 922.628967  , 33.3703041  , 783.1583    , 4.29        , 3           , 255         , 0           , 0
-0.120665886, 0.128029585 , -9.797082   , 0.0005300826, -0.000277692277, -0.0005254064, -0.0129916742, -0.0125835864, -0.000102611957, 922.628967  , 33.3703041  , 783.1587    , 4.3         , 3           , 255         , 0           , 0
-0.118638113, 0.126060456 , -9.796739   , 0.0006169522, 0.0002022637, 2.24042233E-05, -0.0129832448, -0.0125794178, -0.00010244266, 922.628967  , 33.3703041  , 783.1955    , 4.31        , 3           , 255         , 0           , 0
-0.121213987, 0.132740334 , -9.792407   , 6.644649E-05, -0.00025979866, 3.72862451E-05, -0.0129825855, -0.0125820106, -0.00010203608, 922.628967  , 33.3703041  , 783.196045  , 4.32        , 3           , 255         , 0           , 0
-0.128340021, 0.133390009 , -9.795082   , -0.000109406014, -0.000395561161, 0.00013048196, -0.0129836965, -0.0125859492, -0.000100679943, 922.68      , 33.3702354  , 783.1966    , 4.33        , 3           , 255         , 0           , 0
-0.129825518, 0.1369548   , -9.793844   , 0.000232076913, 0.000169654319, 0.0008467296, -0.0129814819, -0.0125841433, -9.223491E-05, 922.68      , 33.3702354  , 783.197144  , 4.34        , 3           , 255         , 0           , 0
-0.11978104 , 0.126030043 , -9.800414   , -4.41679731E-06, 0.000320193329, 0.0007018822, -0.0129816141, -0.0125808492, -8.52578742E-05, 922.68      , 33.3702354  , 783.1977    , 4.35        , 3           , 255         , 0           , 0
-0.122128785, 0.130253136 , -9.794454   , 3.78961558E-05, 0.000553071965, -0.000640156446, -0.012981154, -0.0125754019, -9.173104E-05, 922.68      , 33.3702354  , 783.198242  , 4.36        , 3           , 255         , 0           , 0
-0.119167492, 0.128785565 , -9.784821   , -0.000101297628, -6.673229E-05, 0.000154741458, -0.0129821859, -0.0125760492, -9.01749954E-05, 922.68      , 33.3702354  , 783.1988    , 4.37        , 3           , 255         , 0           , 0
-0.119839527, 0.126446247 , -9.786386   , -0.000134881411, -0.000554261554, 0.000475298235, -0.012983596, -0.01258153 , -8.53502E-05, 922.68      , 33.3702354  , 783.199341  , 4.38        , 3           , 255         , 0           , 0
-0.129233867, 0.126199931 , -9.796989   , -7.618294E-05, -0.00014667405, -0.000149856744, -0.0129843391, -0.0125830173, -8.682966E-05, 922.68      , 33.3702354  , 783.1999    , 4.39        , 3           , 255         , 0           , 0
-0.126738518, 0.12575236  , -9.795214   , 0.000432835775, -0.000400236866, -0.000233771338, -0.0129799815, -0.0125870481, -8.91153541E-05, 922.68      , 33.3702354  , 783.200439  , 4.4         , 3           , 255         , 0           , 0
-0.1261486  , 0.129531533 , -9.78900051 , 0.0005037106, -0.0001787729, -0.000481379684, -0.0129778832, -0.01258925 , -9.386806E-05, 922.68      , 33.3702354  , 783.1593    , 4.41        , 3           , 255         , 0           , 0
-0.132174715, 0.129529148 , -9.790491   , 0.0005254581, -0.000265379727, -0.0009593145, -0.0129725086, -0.0125920288, -0.000103426486, 922.68      , 33.3702354  , 783.1596    , 4.42        , 3           , 255         , 0           , 0
-0.121438108, 0.12860015  , -9.786023   , -0.0002941258, -0.000122942554, -0.0006409089, -0.0129753677, -0.01259334 , -0.000109819426, 922.6775    , 33.3667755  , 783.1599    , 4.43        , 3           , 255         , 0           , 0
-0.117850281, 0.12497735  , -9.794029   , -0.000477979134, 0.000254313025, -0.000586534559, -0.0129800746, -0.012590874, -0.0001157176, 922.6775    , 33.3667755  , 783.1602    , 4.44        , 3           , 255         , 0           , 0
-0.11945045 , 0.129065    , -9.793981   , -0.000374654715, 3.82066355E-05, 6.201658E-05, -0.0129838288, -0.0125904838, -0.000115102412, 922.6775    , 33.3667755  , 783.1605    , 4.45        , 3           , 255         , 0           , 0
-0.123005584, 0.131035447 , -9.795603   , 6.682408E-05, -0.000261681678, -0.0005049731, -0.0129830968, -0.012593166, -0.000120118006, 922.6775    , 33.3667755  , 783.1608    , 4.46        , 3           , 255         , 0           , 0
-0.124351621, 0.130502    , -9.798814   , 0.0004947119, -0.000206969969, -0.000563374837, -0.0129780779, -0.0125953089, -0.00012572472, 922.6775    , 33.3667755  , 783.161133  , 4.47        , 3           , 255         , 0           , 0
-0.1294071  , 0.123160243 , -9.792387   , 4.40957956E-05, -0.00014830532, 0.000758261944, -0.0129777333, -0.0125966938, -0.000118123076, 922.6775    , 33.3667755  , 783.161438  , 4.48        , 3           , 255         , 0           , 0
-0.128786147, 0.124638185 , -9.796604   , 0.000484411838, -0.000349876, 0.0002165316, -0.0129729174, -0.0126001639, -0.000115912429, 922.6775    , 33.3667755  , 783.1618    , 4.49        , 3           , 255         , 0           , 0
-0.134420916, 0.124263667 , -9.797743   , 0.0008565579, 6.46273838E-06, 3.83280349E-06, -0.012964353, -0.0126000978, -0.000115874936, 922.6775    , 33.3667755  , 783.1622    , 4.5         , 3           , 255         , 0           , 0
-0.1250501  , 0.124923006 , -9.789068   , 0.0004930021, -0.000325152127, -9.733565E-05, -0.0129599487, -0.01260673 , -0.0001167993, 922.6775    , 33.3667755  , 783.129761  , 4.51        , 3           , 255         , 0           , 0
-0.122719325, 0.12480481  , -9.793665   , 0.000174509536, -0.000149663654, 0.000548475247, -0.0129582714, -0.0126081547, -0.000111295332, 922.6775    , 33.3667755  , 783.1299    , 4.52        , 3           , 255         , 0           , 0
-0.120570481, 0.1328399   , -9.795252   , -0.000183489, 0.000306234433, 1.69263858E-05, -0.0129601089, -0.0126050906, -0.00011116574, 922.6748    , 33.36752    , 783.13      , 4.53        , 3           , 255         , 0           , 0
-0.118990384, 0.132190913 , -9.795313   , -9.62090562E-05, -0.0001002315, -0.0003869626, -0.0129610226, -0.012606144, -0.000115022252, 922.6748    , 33.36752    , 783.1301    , 4.54        , 3           , 255         , 0           , 0
-0.128118828, 0.1267983   , -9.789448   , 5.997921E-05, 5.08852827E-05, -0.000357150449, -0.0129603781, -0.0126056811, -0.000118600248, 922.6748    , 33.36752    , 783.130249  , 4.55        , 3           , 255         , 0           , 0
-0.119536296, 0.117891893 , -9.793037   , 0.000166323676, -9.319541E-05, 0.000340058177, -0.0129587566, -0.01260657 , -0.000115187708, 922.6748    , 33.36752    , 783.1304    , 4.56        , 3           , 255         , 0           , 0
-0.121958114, 0.128320575 , -9.785893   , -0.0003221337, 0.000208348414, -3.04309215E-05, -0.0129619753, -0.012604489, -0.000115518989, 922.6748    , 33.36752    , 783.1305    , 4.57        , 3           , 255         , 0           , 0
-0.125685051, 0.13079384  , -9.796785   , 0.000453859684, 0.000223495881, -0.0006051533, -0.01295736 , -0.012602333, -0.000121599318, 922.6748    , 33.36752    , 783.1306    , 4.58        , 3           , 255         , 0           , 0
-0.124413148, 0.126570418 , -9.794307   , 0.0002460701, 0.000292432553, -9.1892085E-05, -0.0129548889, -0.0125994235, -0.0001225561, 922.6748    , 33.36752    , 783.130737  , 4.59        , 3           , 255         , 0           , 0
-0.124581829, 0.1300806   , -9.801786   , 0.000387258828, -0.000188892416, 0.0003801452, -0.0129510639, -0.012601262, -0.000118730284, 922.6748    , 33.36752    , 783.130859  , 4.6         , 3           , 255         , 0           , 0
-0.125089645, 0.12884292  , -9.796884   , -0.000120526936, -0.000441178039, 0.0006182559, -0.0129531678, -0.01260516 , -0.000112480404, 922.6748    , 33.36752    , 783.1067    , 4.61        , 3           , 255         , 0           , 0
-0.125313446, 0.128864527 , -9.789655   , -0.0003428954, 2.574001E-06, 0.000547994161, -0.0129566649, -0.0126050627, -0.000107000982, 922.6748    , 33.36752    , 783.1067    , 4.62        , 3           , 255         , 0           , 0
-0.118041828, 0.136446252 , -9.794339   , -0.0003191646, 0.000239947782, -0.0004760442, -0.0129597979, -0.0126027269, -0.00011179236, 922.6367    , 33.3696251  , 783.1067    , 4.63        , 3           , 255         , 0           , 0
-0.125934   , 0.134630084 , -9.791555   , -0.00023279083, 0.000438992254, -0.0008800405, -0.0129620135, -0.01259845 , -0.000120649405, 922.6367    , 33.3696251  , 783.1067    , 4.64        , 3           , 255         , 0           , 0
-0.132740647, 0.127990991 , -9.80164051 , 0.000200693787, 0.000148942112, -0.000183892946, -0.0129599841, -0.0125969844, -0.000122507583, 922.6367    , 33.3696251  , 783.1067    , 4.65        , 3           , 255         , 0           , 0
-0.12015754 , 0.134655148 , -9.800841   , 3.94250965E-05, -0.0004702296, -0.00023046507, -0.0129595613, -0.0126017164, -0.000124751226, 922.6367    , 33.3696251  , 783.1067    , 4.66        , 3           , 255         , 0           , 0
-0.120696448, 0.1332264   , -9.793503   , -0.0002891064, -0.000238043838, -6.361221E-05, -0.0129624447, -0.0126041053, -0.000125356455, 922.6367    , 33.3696251  , 783.1067    , 4.67        , 3           , 255         , 0           , 0
-0.132516056, 0.129237354 , -9.793278   , -0.000354377553, -0.000279420638, -0.000343485561, -0.0129659455, -0.0126069449, -0.000128755011, 922.6367    , 33.3696251  , 783.1067    , 4.68        , 3           , 255         , 0           , 0
-0.129302263, 0.12794131  , -9.794274   , -0.00018809922, -0.000421950419, 0.000604291447, -0.0129679022, -0.0126110846, -0.00012265754, 922.6367    , 33.3696251  , 783.1067    , 4.69        , 3           , 255         , 0           , 0
-0.124714233, 0.128877282 , -9.795398   , 0.000223552284, 1.96406618E-05, 0.000240533758, -0.0129656978, -0.0126108564, -0.000120254816, 922.6367    , 33.3696251  , 783.1067    , 4.7         , 3           , 255         , 0           , 0
-0.120716773, 0.131130844 , -9.787042   , 8.910848E-05, -6.06657122E-05, -0.000216728135, -0.0129698729, -0.0126140146, -0.000122349928, 922.6367    , 33.3696251  , 783.14      , 4.71        , 3           , 255         , 0           , 0
-0.127553985, 0.1292081   , -9.78611851 , 0.000168560073, 0.000384248444, -5.13281338E-05, -0.01296818 , -0.0126101794, -0.000122913028, 922.6367    , 33.3696251  , 783.140259  , 4.72        , 3           , 255         , 0           , 0
-0.117141023, 0.129007459 , -9.792147   , 5.72380959E-05, 0.000215155189, 1.07339E-05 , -0.0129676079, -0.0126080262, -0.00012283359, 922.654541  , 33.3668442  , 783.1405    , 4.73        , 3           , 255         , 0           , 0
-0.120634854, 0.127461478 , -9.79214    , -0.000231981743, 3.27912858E-05, 0.0007809615, -0.0129700284, -0.0126075977, -0.000115028444, 922.654541  , 33.3668442  , 783.140747  , 4.74        , 3           , 255         , 0           , 0
-0.127932742, 0.130697653 , -9.796222   , -0.000277489657, 1.8318533E-06, -4.52822933E-05, -0.0129727973, -0.0126075856, -0.0001154815, 922.654541  , 33.3668442  , 783.141     , 4.75        , 3           , 255         , 0           , 0
-0.126153678, 0.133883744 , -9.790311   , -0.000141929311, -0.000276893436, 0.0005662916, -0.0129742874, -0.0126102809, -0.000109782835, 922.654541  , 33.3668442  , 783.141235  , 4.76        , 3           , 255         , 0           , 0
-0.1278966  , 0.128041551 , -9.797101   , 3.42302374E-05, -0.000265645562, 0.000101146907, -0.0129739577, -0.0126129221, -0.000108736924, 922.654541  , 33.3668442  , 783.1415    , 4.77        , 3           , 255         , 0           , 0
-0.126726612, 0.1262252   , -9.790307   , 0.000400564342, 7.75666558E-05, 0.000143762038, -0.0129699707, -0.0126121286, -0.00010730941, 922.654541  , 33.3668442  , 783.1417    , 4.78        , 3           , 255         , 0           , 0
-0.127087265, 0.12125431  , -9.7866745  , 0.0002530982, 0.0002883422, -7.84340737E-05, -0.012967431, -0.0126092555, -0.000108131113, 922.654541  , 33.3668442  , 783.141968  , 4.79        , 3           , 255         , 0           , 0
-0.119246148, 0.130740151 , -9.786229   , -0.000515352236, 0.000226894917, -1.79056E-05, -0.0129725812, -0.0126069887, -0.000108339606, 922.654541  , 33.3668442  , 783.1422    , 4.8         , 3           , 255         , 0           , 0
-0.131180212, 0.140091747 , -9.792404   , 0.00020530558, 0.000227016222, -0.00040577515, -0.0129734967, -0.012605899, -0.000112388618, 922.654541  , 33.3668442  , 783.145142  , 4.81        , 3           , 255         , 0           , 0
-0.122334361, 0.13095738  , -9.802311   , 0.000402787817, 0.000239606423, 0.000139202821, -0.0129694864, -0.0126034888, -0.0001110277, 922.654541  , 33.3668442  , 783.1454    , 4.82        , 3           , 255         , 0           , 0
-0.110189125, 0.127768934 , -9.792353   , -2.929318E-05, 0.000521613343, 1.11593545E-06, -0.0129697789, -0.0125982715, -0.0001110842, 922.6308    , 33.3682671  , 783.1456    , 4.83        , 3           , 255         , 0           , 0
-0.115153171, 0.130626708 , -9.792295   , 0.000712894835, 0.000379780278, 0.000196359586, -0.0129626747, -0.0125944493, -0.000109169909, 922.6308    , 33.3682671  , 783.1459    , 4.84        , 3           , 255         , 0           , 0
-0.124003671, 0.123634592 , -9.794593   , -2.52120662E-05, -0.000261947163, 0.0002932895, -0.0129629644, -0.01259703 , -0.000106203152, 922.6308    , 33.3682671  , 783.1461    , 4.85        , 3           , 255         , 0           , 0
-0.1286737  , 0.134116173 , -9.787072   , -6.867584E-05, -0.000111624831, -0.000148080057, -0.0129636321, -0.0125981662, -0.000107669439, 922.6308    , 33.3682671  , 783.146362  , 4.86        , 3           , 255         , 0           , 0
-0.127410471, 0.132984534 , -9.78755951 , -0.00021471252, -0.0003249533, 0.000110744062, -0.0129657928, -0.0126014007, -0.0001065199, 922.6308    , 33.3682671  , 783.1466    , 4.87        , 3           , 255         , 0           , 0
-0.118631504, 0.1337817   , -9.800252   , 0.000289839634, 0.000116478128, -0.0004375774, -0.0129628386, -0.0126002925, -0.000110910652, 922.6308    , 33.3682671  , 783.146851  , 4.88        , 3           , 255         , 0           , 0
-0.120878637, 0.133836225 , -9.7919035  , 0.000634459429, -3.33648641E-05, -0.0007279428, -0.0129564023, -0.0126007227, -0.000118185526, 922.6308    , 33.3682671  , 783.1471    , 4.89        , 3           , 255         , 0           , 0
-0.1231006  , 0.123458862 , -9.790229   , -0.0004590798, 7.822964E-05, -0.00054511684, -0.0129609257, -0.0126000121, -0.000123646663, 922.6308    , 33.3682671  , 783.147339  , 4.9         , 3           , 255         , 0           , 0
-0.12236084 , 0.120914653 , -9.799712   , 0.000237031665, -0.00018919626, 0.000707071857, -0.0129644061, -0.01260013 , -0.00011647903, 922.6308    , 33.3682671  , 783.183167  , 4.91        , 3           , 255         , 0           , 0
-0.128714517, 0.129768819 , -9.796816   , 0.000460052455, 0.000140073244, 2.89709278E-05, -0.012959809, -0.012598726, -0.000116207491, 922.6308    , 33.3682671  , 783.183655  , 4.92        , 3           , 255         , 0           , 0
-0.12631157 , 0.129339278 , -9.794817   , 0.0001262626, 0.00019258415, -0.000299722364, -0.0129585089, -0.0125968419, -0.000119229582, 922.691     , 33.3682     , 783.184143  , 4.93        , 3           , 255         , 0           , 0
-0.12220037 , 0.130104631 , -9.785832   , -0.000531523139, 0.0002267647, -0.000110410285, -0.01296381 , -0.0125945872, -0.000120363031, 922.691     , 33.3682     , 783.184631  , 4.94        , 3           , 255         , 0           , 0
-0.12301787 , 0.124805525 , -9.794128   , 0.000162333541, 0.00017312984, -0.0004373914, -0.0129621318, -0.0125929117, -0.000124759274, 922.691     , 33.3682     , 783.1851    , 4.95        , 3           , 255         , 0           , 0
-0.129747033, 0.125824139 , -9.786566   , 4.155643E-05, -1.00474572E-05, -0.000402267266, -0.012961667, -0.0125930645, -0.000128780521, 922.691     , 33.3682     , 783.1856    , 4.96        , 3           , 255         , 0           , 0
-0.130355075, 0.130143076 , -9.798708   , 0.0004407643, 0.000107331813, 5.76603343E-05, -0.0129572656, -0.0125919832, -0.000128217827, 922.691     , 33.3682     , 783.1861    , 4.97        , 3           , 255         , 0           , 0
-0.123228237, 0.128043428 , -9.795961   , 0.0002519813, 0.0001547182, 0.000184393357, -0.0129547706, -0.0125904121, -0.000126394, 922.691     , 33.3682     , 783.1866    , 4.98        , 3           , 255         , 0           , 0
-0.118238665, 0.128282651 , -9.79266548 , -0.00036680873, 1.11312256E-05, -3.580607E-05, -0.0129584335, -0.0125903059, -0.000126753483, 922.691     , 33.3682     , 783.1871    , 4.99        , 3           , 255         , 0           , 0
-0.12707366 , 0.12796104  , -9.802585   , -0.0001631527, -5.51739358E-05, -0.000323608052, -0.0129600251, -0.0125909  , -0.0001299823, 922.691     , 33.3682     , 783.187561  , 5           , 3           , 0           , -1          , 500
-0.122241735, 0.134618089 , -9.801803   , 3.24987341E-05, -3.47254681E-05, 0.000432190835, -0.01296042 , -0.0125933429, -0.000125647639, 922.691     , 33.3682     , 783.1326    , 5.01        , 3           , 1           , 0           , 0
-0.127886876, 0.135837    , -9.791808   , 0.000120612967, 0.0007190469, -0.0003320944, -0.01295917 , -0.012586196, -0.000129061649, 922.691     , 33.3682     , 783.1328    , 5.02        , 3           , 2           , 0           , 0
-0.121980093, 0.12607266  , -9.795188   , -0.000238053617, 0.000132139656, -0.000178151429, -0.0129615292, -0.0125848986, -0.000130860222, 922.6394    , 33.3701668  , 783.133     , 5.03        , 3           , 3           , 0           , 0
-0.121552944, 0.128526    , -9.794905   , -0.000321288, -0.000240042165, -0.0001976776, -0.0129647171, -0.0125873247, -0.000132805828, 922.6394    , 33.3701668  , 783.1332    , 5.04        , 3           , 4           , 0           , 0
-0.127385184, 0.1298547   , -9.792917   , 0.000533259532, -0.000245902338, 0.000108226275, -0.0129593983, -0.01258977 , -0.000131691733, 922.6394    , 33.3701668  , 783.133362  , 5.05        , 3           , 5           , 0           , 0
-0.122176424, 0.125545219 , -9.791973   , 0.000233987346, 2.48227152E-05, -0.0006934909, -0.0129569713, -0.012589612, -0.000138629635, 922.6394    , 33.3701668  , 783.133545  , 5.06        , 3           , 6           , 0           , 0
-0.126114354, 0.123383939 , -9.791263   , 4.94744745E-05, -0.0001933829, -0.000558773638, -0.012956406, -0.0125916172, -0.000144192163, 922.6394    , 33.3701668  , 783.1337    , 5.07        , 3           , 7           , 0           , 0
