Acc X       , Acc Y       , Acc Z       , Gyro X      , Gyro Y      , Gyro Z      , Euler X     , Euler Y     , Euler Z     , Pres X      , Pres Y      , Pres Z      , Time        , Status      , LowRate X   , LowRate Y   , LowRate Z    
-0.198188514, -0.02280733 , -9.785986   , 0           , 0           , 0           , 0.00233060727, -0.0202494562, 1.90935743  , 918.648254  , 30.9985466  , 819.2036    , 0           , 2           , 0           , 5.493232    , 0
-0.194185451, -0.0186799616, -9.794246   , 0.000180158284, -0.000125600869, 2.35968037E-06, 0.00233236817, -0.0202509072, 1.90935755  , 918.648254  , 30.9985466  , 819.2036    , 0.01        , 7           , 1           , 0           , 0
-0.205328912, -0.01804786 , -9.79039    , -0.000129943743, 9.791349E-05, -0.000210277081, 0.00233111065, -0.0202499237, 1.90935552  , 918.648254  , 30.9985466  , 819.2036    , 0.02        , 7           , 2           , 0           , 0
-0.1989937  , -0.0189125184, -9.791857   , -0.0005468136, -0.000290700526, -4.26455954E-05, 0.0023256524, -0.0202528331, 1.909355    , 918.5928    , 30.5646286  , 819.2036    , 0.03        , 7           , 3           , 0           , 0
-0.205349684, -0.0191608258, -9.79147    , -0.0004302393, -5.989638E-05, -0.000338900427, 0.002321418 , -0.0202534236, 1.90935171  , 918.5928    , 30.5646286  , 819.2036    , 0.04        , 7           , 4           , 0           , 0
-0.2064857  , -0.014273338, -9.791494   , 0.000232248291, 0.000340115628, -0.000904408866, 0.0023239227, -0.0202499982, 1.90934277  , 918.5928    , 30.5646286  , 819.2036    , 0.05        , 7           , 5           , 0           , 0
-0.202727646, -0.0240646582, -9.791859   , 0.0002507968, 0.000177963346, -9.820023E-05, 0.00232645124, -0.0202482212, 1.90934181  , 918.5928    , 30.5646286  , 819.2036    , 0.06        , 7           , 6           , 0           , 0
-0.201167032, -0.01861589 , -9.783693   , -0.000142298028, -0.000223938929, 0.000181242212, 0.002324992 , -0.02025046 , 1.90934348  , 918.5928    , 30.5646286  , 819.2036    , 0.07        , 7           , 7           , 0           , 0
-0.1946005  , -0.0229991823, -9.782419   , -0.0003800444, -7.575369E-05, 0.0004732446, 0.00232109637, -0.02025123 , 1.90934825  , 918.5928    , 30.5646286  , 819.2036    , 0.08        , 7           , 8           , 5           , 5
-0.1968495  , -0.0253450982, -9.790297   , -0.000359634985, 0.000156819879, 0.0006994429, 0.00231735921, -0.0202496778, 1.90935528  , 918.5928    , 30.5646286  , 819.2036    , 0.09        , 7           , 9           , 5           , 0.1
-0.190713853, -0.0251179133, -9.789587   , -0.0002583313, 2.41732923E-05, -0.00014285103, 0.002314804 , -0.0202494338, 1.90935385  , 918.5928    , 30.5646286  , 819.2036    , 0.1         , 7           , 10          , 0.1         , 0.1
-0.197321445, -0.0254321937, -9.793249   , -0.000304610585, 9.235018E-05, -0.000319008745, 0.002300773 , -0.0202552658, 1.90935087  , 918.5928    , 30.5646286  , 819.7057    , 0.11        , 7           , 11          , 0.0109544508, 0.0109544508
-0.19817096 , -0.0232663788, -9.798166   , -0.000334780139, 0.000148721156, 0.000306478643, 0.00229736185, -0.0202537831, 1.909354    , 918.5928    , 30.5646286  , 819.7057    , 0.12        , 7           , 12          , 0.0346410163, 0
-0.197514161, -0.021821849, -9.795397   , -3.541878E-05, -0.000118810392, -2.6676993E-05, 0.00229701237, -0.0202549733, 1.90935373  , 918.586243  , 30.6036377  , 819.7057    , 0.13        , 7           , 13          , 0           , 0
-0.2061166  , -0.01579431 , -9.792836   , 0.000359362515, -0.0001218729, 4.72555839E-05, 0.00230059773, -0.0202561952, 1.90935409  , 918.586243  , 30.6036377  , 819.7057    , 0.14        , 7           , 14          , -0.000328072347, 0.0004953669
-0.190604642, -0.0194141753, -9.797063   , 0.00022979427, -0.0007881144, 0.0002219644, 0.00230285246, -0.02026408 , 1.90935624  , 918.586243  , 30.6036377  , 819.7057    , 0.15        , 7           , 15          , 0           , 0.00020558406
-0.189453334, -0.0202085134, -9.790136   , -8.355419E-06, -0.000207708654, -2.44344847E-05, 0.00230277516, -0.0202661566, 1.90935588  , 918.586243  , 30.6036377  , 819.7057    , 0.16        , 7           , 16          , 0           , 1.401298E-45
-0.2005332  , -0.03144005 , -9.792697   , -0.00032819726, 0.000228349643, -9.5765914E-05, 0.002299514 , -0.020263873, 1.90935493  , 918.586243  , 30.6036377  , 819.7057    , 0.17        , 7           , 20          , 0           , 0
-0.198063225, -0.031438455, -9.80112    , 3.93643E-05 , -0.0003921995, 0.000233612474, 0.00229985965, -0.0202678  , 1.90935731  , 918.586243  , 30.6036377  , 819.7057    , 0.18        , 7           , 21          , 0           , 0
-0.202638358, -0.018861454, -9.799967   , 0.000549749529, -0.00027905032, 6.858878E-05, 0.00230534328, -0.0202705916, 1.90935779  , 918.586243  , 30.6036377  , 819.70575   , 0.19        , 7           , 22          , 0           , 0
-0.199654266, -0.014333698, -9.795116   , 0.0004739842, 0.000248470169, 0.000874859339, 0.0023099042, -0.0202681217, 1.90936661  , 918.586243  , 30.6036377  , 819.7058    , 0.2         , 7           , 40          , 0           , 0
-0.200840518, -0.0226246156, -9.795186   , 0.000279951229, -6.174142E-05, 4.056841E-06, 0.0023115892, -0.0202671681, 1.90936661  , 918.586243  , 30.6036377  , 819.7351    , 0.21        , 7           , 41          , 0           , 0
-0.206070617, -0.020988401, -9.797696   , 0.000308638846, -3.68751062E-05, 0.000209586738, 0.002314633 , -0.0202675443, 1.90936875  , 918.586243  , 30.6036377  , 819.735168  , 0.22        , 7           , 42          , 1           , 0
-0.19517687 , -0.015869813, -9.796301   , -3.696166E-05, -0.000124856015, -0.00017483416, 0.00231429818, -0.0202687848, 1.909367    , 918.5964    , 30.629961   , 819.7352    , 0.23        , 7           , 255         , 0           , 0
-0.198565364, -0.0163858682, -9.79109    , 0.0005160294, 0.000122233934, 5.3131298E-05, 0.00231944746, -0.0202675648, 1.90936744  , 918.5964    , 30.629961   , 819.7353    , 0.24        , 7           , 255         , 0           , 0
-0.1936489  , -0.0104672937, -9.801366   , 0.000240729933, 0.000424863 , -7.984128E-05, 0.002321871 , -0.0202633142, 1.90936685  , 918.5964    , 30.629961   , 819.735352  , 0.25        , 7           , 255         , 0           , 0
-0.203053951, -0.0278811269, -9.789152   , 0.0001621783, 2.52020545E-05, 0.000357365643, 0.002323422 , -0.0202630721, 1.9093703   , 918.5964    , 30.629961   , 819.7354    , 0.26        , 7           , 255         , 0           , 0
-0.204992056, -0.0205950364, -9.789913   , 0.000432803325, -0.000216616143, -0.000424299622, 0.00232783682, -0.02026523 , 1.909366    , 918.5964    , 30.629961   , 819.7355    , 0.27        , 7           , 255         , 0           , 0
-0.197583616, -0.02684031 , -9.786748   , -7.771989E-05, -0.000179163646, -0.0005168164, 0.00232716417, -0.02026701 , 1.90936089  , 918.5964    , 30.629961   , 819.735535  , 0.28        , 7           , 255         , 0           , 0
-0.200202912, -0.0253018849, -9.785847   , -0.000159712508, -9.920224E-05, 0.000287937 , 0.002325509 , -0.0202680081, 1.90936375  , 918.5964    , 30.629961   , 819.7356    , 0.29        , 7           , 255         , 0           , 0
-0.194838524, -0.0165602323, -9.794891   , 0.000187065627, -4.98985755E-05, -0.000271058583, 0.00232743449, -0.0202685017, 1.909361    , 918.5964    , 30.629961   , 819.735657  , 0.3         , 7           , 255         , 0           , 0
-0.1922957  , -0.0144551024, -9.796026   , 0.000122486541, 0.0004100146, -0.00016873228, 0.002319985 , -0.020268131, 1.90935946  , 918.5964    , 30.629961   , 819.7143    , 0.31        , 7           , 255         , 0           , 0
-0.198756427, -0.01679293 , -9.800791   , -0.000314197619, 0.000446620747, 0.000382231869, 0.00231676549, -0.0202636719, 1.90936327  , 918.5964    , 30.629961   , 819.714355  , 0.32        , 7           , 255         , 0           , 0
-0.2070154  , -0.029520493, -9.797879   , -0.000258932123, -0.000111877773, 5.848531E-05, 0.002314163 , -0.0202647951, 1.909364    , 918.602539  , 30.6464462  , 819.7144    , 0.33        , 7           , 255         , 0           , 0
-0.203881115, -0.0195869356, -9.791492   , 0.000249776116, -0.000296829065, 9.877031E-05, 0.00231664  , -0.0202677641, 1.90936494  , 918.602539  , 30.6464462  , 819.7145    , 0.34        , 7           , 255         , 0           , 0
-0.198923424, -0.0195938442, -9.786099   , 2.261385E-05, -2.66560819E-05, -0.0002802285, 0.002316923 , -0.020268023, 1.9093622   , 918.602539  , 30.6464462  , 819.714539  , 0.35        , 7           , 255         , 0           , 0
-0.201522946, -0.0159408525, -9.79186249 , -0.000582065841, 0.000596386264, -0.000331774267, 0.002311169 , -0.02026205 , 1.90935886  , 918.602539  , 30.6464462  , 819.7146    , 0.36        , 7           , 255         , 0           , 0
-0.188602686, -0.0230679382, -9.799937   , -0.0006460352, -1.71877909E-05, 0.000255744468, 0.00230465527, -0.02026223 , 1.9093616   , 918.602539  , 30.6464462  , 819.714661  , 0.37        , 7           , 255         , 0           , 0
-0.198959664, -0.0277355313, -9.794662   , -0.000291423174, 0.000128785381, -0.000203047792, 0.00230178121, -0.0202609338, 1.90935957  , 918.602539  , 30.6464462  , 819.7147    , 0.38        , 7           , 255         , 0           , 0
-0.209954187, -0.0238544829, -9.797674   , 0.000378087076, 3.17097874E-05, -0.000179852665, 0.00230559846, -0.0202606134, 1.90935779  , 918.602539  , 30.6464462  , 819.7148    , 0.39        , 7           , 255         , 0           , 0
-0.193926468, -0.0216912813, -9.802801   , 0.000387607 , 0.000192155479, 0.000371888716, 0.0023094   , -0.0202586986, 1.90936136  , 918.602539  , 30.6464462  , 819.714844  , 0.4         , 7           , 255         , 0           , 0
-0.2065582  , -0.0237510744, -9.792386   , -5.42104244E-05, 6.264041E-05, 0.000949079054, 0.002304353 , -0.02026048 , 1.9093709   , 918.602539  , 30.6464462  , 819.689941  , 0.41        , 7           , 255         , 0           , 0
-0.20098877 , -0.01333231 , -9.785857   , -0.00011770273, -0.000172761414, -6.70344452E-05, 0.00230319053, -0.0202622041, 1.90937018  , 918.602539  , 30.6464462  , 819.69      , 0.42        , 7           , 255         , 0           , 0
-0.195238233, -0.0137628866, -9.790667   , 0.000450578518, 1.17655145E-06, -0.000313471, 0.00230775937, -0.0202621855, 1.90936708  , 918.663     , 30.6579113  , 819.690063  , 0.43        , 7           , 255         , 0           , 0
-0.19806388 , -0.0242658071, -9.800138   , 7.210253E-05, 0.000187320344, -0.000871559838, 0.002308658 , -0.020260293, 1.90935838  , 918.663     , 30.6579113  , 819.6901    , 0.44        , 7           , 255         , 0           , 0
-0.200827792, -0.024328988, -9.797847   , -8.882722E-06, -0.000224091491, -0.000470666, 0.00230866368, -0.0202625226, 1.90935373  , 918.663     , 30.6579113  , 819.6902    , 0.45        , 7           , 255         , 0           , 0
-0.202713817, -0.0231129415, -9.793621   , 0.000177667709, -0.000138857926, -0.000289271557, 0.002310499 , -0.0202639047, 1.90935075  , 918.663     , 30.6579113  , 819.690247  , 0.46        , 7           , 255         , 0           , 0
-0.197462618, -0.0228029378, -9.797276   , 0.000272476667, 0.000130836444, -0.000358848571, 0.00231329584, -0.0202625841, 1.90934718  , 918.663     , 30.6579113  , 819.6903    , 0.47        , 7           , 255         , 0           , 0
-0.195980936, -0.0258416124, -9.792437   , 0.000218342582, -0.0004801865, -6.354782E-05, 0.00231549237, -0.020267386, 1.90934658  , 918.663     , 30.6579113  , 819.690369  , 0.48        , 7           , 255         , 0           , 0
-0.195122212, -0.0135462312, -9.796351   , -0.000356667239, -0.000358746882, 0.000137453 , 0.00231189956, -0.0202709753, 1.90934777  , 918.663     , 30.6579113  , 819.6904    , 0.49        , 7           , 255         , 0           , 0
-0.1958681  , -0.0250410885, -9.784241   , 0.000397370546, 0.0003404115, 0.000550599769, 0.00231576152, -0.0202675853, 1.90935338  , 918.663     , 30.6579113  , 819.6905    , 0.5         , 7           , 255         , 0           , 0
-0.195708349, -0.0258545727, -9.794965   , 0.000632338168, 0.0005442593, -0.000306216, 0.00231663417, -0.0202635881, 1.90935028  , 918.663     , 30.6579113  , 819.5634    , 0.51        , 7           , 255         , 0           , 0
-0.193105429, -0.0175286438, -9.793262   , 0.000210747079, 0.0003355904, 0.000123906735, 0.00231871684, -0.0202602372, 1.90935159  , 918.663     , 30.6579113  , 819.5635    , 0.52        , 7           , 255         , 0           , 0
-0.193020374, -0.0189153068, -9.796702   , 0.0007433649, -0.000217821158, -0.0002132447, 0.0023261942, -0.02026241 , 1.90934944  , 918.6143    , 30.6659164  , 819.563538  , 0.53        , 7           , 255         , 0           , 0
-0.197425842, -0.009514899, -9.787605   , 0.000257284264, -0.000262974441, -0.0004106741, 0.00232885  , -0.0202650316, 1.90934527  , 918.6143    , 30.6659164  , 819.5636    , 0.54        , 7           , 255         , 0           , 0
-0.198366135, -0.0182366539, -9.786004   , 0.00045914494, 0.00010993355, 8.246396E-05, 0.00233342475, -0.0202639326, 1.9093461   , 918.6143    , 30.6659164  , 819.56366   , 0.55        , 7           , 255         , 0           , 0
-0.198520765, -0.0224866513, -9.789134   , 4.350519E-05, -0.000221051567, -0.0004180182, 0.0023339435, -0.0202661343, 1.90934181  , 918.6143    , 30.6659164  , 819.5637    , 0.56        , 7           , 255         , 0           , 0
-0.200648457, -0.024283452, -9.792959   , -1.62779179E-05, 0.000270796358, -0.000504817464, 0.00233388413, -0.0202634111, 1.90933681  , 918.6143    , 30.6659164  , 819.5638    , 0.57        , 7           , 255         , 0           , 0
-0.202007249, -0.0125984848, -9.799231   , -0.000140635471, -0.000362679624, 0.000115545088, 0.00233245478, -0.0202670451, 1.909338    , 918.6143    , 30.6659164  , 819.563843  , 0.58        , 7           , 255         , 0           , 0
-0.196685463, -0.016704753, -9.797655   , 0.000372730836, -0.0002887408, -0.0005080295, 0.002336285 , -0.0202699155, 1.90933275  , 918.6143    , 30.6659164  , 819.5639    , 0.59        , 7           , 255         , 0           , 0
-0.196424738, -0.0166466385, -9.7899065  , 7.30242755E-05, 9.450741E-05, 0.000180084957, 0.00233697984, -0.0202689748, 1.90933466  , 918.6143    , 30.6659164  , 819.563965  , 0.6         , 7           , 255         , 0           , 0
-0.2017177  , -0.01962831 , -9.788582   , -0.000183864933, -0.00036702567, -0.0004951805, 0.00231993641, -0.0202683415, 1.90933     , 918.6143    , 30.6659164  , 819.554749  , 0.61        , 7           , 255         , 0           , 0
-0.200703576, -0.02770544 , -9.800827   , -0.000224636489, -0.000162961776, -0.000554119237, 0.00231780321, -0.0202699583, 1.90932441  , 918.6143    , 30.6659164  , 819.5548    , 0.62        , 7           , 255         , 0           , 0
-0.196560353, -0.0178151745, -9.799869   , 0.0007769364, -0.0002870905, -0.000417706848, 0.00232565636, -0.0202728175, 1.90932035  , 918.5986    , 30.6701221  , 819.5549    , 0.63        , 7           , 255         , 0           , 0
-0.193792686, -0.0211368967, -9.801221   , 0.0004605765, 9.396963E-05, -4.8722155E-05, 0.002330272 , -0.0202718731, 1.90931988  , 918.5986    , 30.6701221  , 819.554932  , 0.64        , 7           , 255         , 0           , 0
-0.188273713, -0.0272594187, -9.795413   , -0.000232869555, 0.000101533078, -0.0005035409, 0.00232804473, -0.0202708468, 1.909315    , 918.5986    , 30.6701221  , 819.555     , 0.65        , 7           , 255         , 0           , 0
-0.1918855  , -0.02957778 , -9.790615   , -0.000225147087, -5.730844E-05, -0.0007355681, 0.00232594088, -0.0202714074, 1.9093076   , 918.5986    , 30.6701221  , 819.555054  , 0.66        , 7           , 255         , 0           , 0
-0.199723348, -0.0245973337, -9.80229    , -0.0003380767, -0.00012243574, -0.000356033037, 0.00232263142, -0.0202726182, 1.90930414  , 918.5986    , 30.6701221  , 819.5552    , 0.67        , 7           , 255         , 0           , 0
-0.200670749, -0.036800988, -9.789103   , -0.000182322081, 1.76706235E-05, 0.000200801514, 0.002320767 , -0.0202724468, 1.90930629  , 918.5986    , 30.6701221  , 819.5553    , 0.68        , 7           , 255         , 0           , 0
-0.189476222, -0.0272974316, -9.778055   , -2.594231E-05, -0.00035748232, 0.000430470158, 0.00232042233, -0.0202760343, 1.90931058  , 918.5986    , 30.6701221  , 819.5554    , 0.69        , 7           , 255         , 0           , 0
-0.196613923, -0.0199884586, -9.791827   , -0.000268122967, -0.0005638207, 0.0002847626, 0.00231768121, -0.0202816725, 1.90931332  , 918.5986    , 30.6701221  , 819.555542  , 0.7         , 7           , 255         , 0           , 0
-0.2050416  , -0.0185034275, -9.794554   , -0.000146345556, -4.81176539E-05, -0.0009230365, 0.00232361723, -0.0202741772, 1.90930414  , 918.5986    , 30.6701221  , 819.57074   , 0.71        , 7           , 255         , 0           , 0
-0.198237211, -0.0207144674, -9.809496   , 4.58234863E-05, 0.000260561821, -0.000327460264, 0.00232414133, -0.0202715658, 1.9093008   , 918.5986    , 30.6701221  , 819.570862  , 0.72        , 7           , 255         , 0           , 0
-0.199276045, -0.0278098173, -9.794828   , -8.579559E-05, -5.32660633E-05, -0.000428284024, 0.00232337019, -0.0202720854, 1.90929663  , 918.625366  , 30.67338    , 819.571     , 0.73        , 7           , 255         , 0           , 0
-0.200901836, -0.009332242, -9.787596   , 0.000501485541, -5.99989726E-05, -0.000160736323, 0.002328417 , -0.0202726815, 1.909295    , 918.625366  , 30.67338    , 819.5711    , 0.74        , 7           , 255         , 0           , 0
-0.204189777, -0.014465305, -9.787634   , 0.0005949697, 7.769663E-05, 0.00038445316, 0.00233429  , -0.0202719141, 1.90929878  , 918.625366  , 30.67338    , 819.5712    , 0.75        , 7           , 255         , 0           , 0
-0.210673124, -0.0161865316, -9.793921   , 0.000206609358, 0.000469593331, 0.000142755773, 0.00233632675, -0.02026722 , 1.90930021  , 918.625366  , 30.67338    , 819.57135   , 0.76        , 7           , 255         , 0           , 0
-0.205461472, -0.0147013618, -9.79081    , -4.67809732E-05, 0.00029685162, -0.000251203, 0.00233590882, -0.020264253, 1.9092977   , 918.625366  , 30.67338    , 819.5715    , 0.77        , 7           , 255         , 0           , 0
-0.204345793, -0.0107616354, -9.789949   , -0.000391406822, -0.0002657698, 0.00012175375, 0.00233197  , -0.02026691 , 1.90929914  , 918.625366  , 30.67338    , 819.5716    , 0.78        , 7           , 255         , 0           , 0
-0.195574224, -0.0228664372, -9.792821   , -8.945534E-05, 0.000209997757, -0.000427486928, 0.00233116047, -0.0202647988, 1.90929484  , 918.625366  , 30.67338    , 819.5717    , 0.79        , 7           , 255         , 0           , 0
-0.2023071  , -0.0155298132, -9.793198   , 0.0001289282, -0.000187405356, 0.000638903468, 0.0023323202, -0.0202666856, 1.90930128  , 918.625366  , 30.67338    , 819.571838  , 0.8         , 7           , 255         , 0           , 0
-0.203476623, -0.02133189 , -9.801122   , 0.000210009253, -0.000136455637, -0.000261782145, 0.002317288 , -0.0202801041, 1.9092989   , 918.625366  , 30.67338    , 819.5497    , 0.81        , 7           , 255         , 0           , 0
-0.185141191, -0.0230311546, -9.798254   , 0.000243762785, -0.000265605864, -0.0001758395, 0.002319762 , -0.0202827584, 1.90929723  , 918.625366  , 30.67338    , 819.5498    , 0.82        , 7           , 255         , 0           , 0
-0.196546108, -0.0155605879, -9.793715   , 0.0003425713, -0.000238237, -0.000340477447, 0.0023232582, -0.0202851314, 1.90929365  , 918.618469  , 30.6779251  , 819.5499    , 0.83        , 7           , 255         , 0           , 0
-0.2013518  , -0.0238035582, -9.791675   , 0.000222393355, 2.24494142E-05, -0.000441446551, 0.00232557324, -0.0202848967, 1.90928936  , 918.618469  , 30.6779251  , 819.550049  , 0.84        , 7           , 255         , 0           , 0
-0.190939039, -0.0208081789, -9.797232   , 3.35841032E-05, 0.000312400341, -3.98810953E-05, 0.002325916 , -0.0202817712, 1.90928888  , 918.618469  , 30.6779251  , 819.5502    , 0.85        , 7           , 255         , 0           , 0
-0.196329549, -0.0242293421, -9.790313   , -0.000454554276, -1.17940363E-06, 0.000290682045, 0.00232131057, -0.020281788, 1.90929174  , 918.618469  , 30.6779251  , 819.5503    , 0.86        , 7           , 255         , 0           , 0
-0.19377169 , -0.0231430642, -9.793068   , 0.000228179182, 0.000251834921, 4.066818E-05, 0.00232358463, -0.0202792771, 1.90929234  , 918.618469  , 30.6779251  , 819.5504    , 0.87        , 7           , 255         , 0           , 0
-0.196359426, -0.0324854143, -9.788788   , 0.0003033852, 3.395439E-05, 0.0002471267, 0.00232656673, -0.0202789381, 1.90929472  , 918.618469  , 30.6779251  , 819.550537  , 0.88        , 7           , 255         , 0           , 0
-0.185791418, -0.0213758089, -9.790297   , 0.000220656017, -0.000283875153, -0.0002619101, 0.00232882751, -0.0202817731, 1.909292    , 918.618469  , 30.6779251  , 819.550659  , 0.89        , 7           , 255         , 0           , 0
-0.194363236, -0.0277332328, -9.785012   , -5.409625E-05, 0.000157146889, -0.000147655373, 0.00232831715, -0.0202801973, 1.90929055  , 918.618469  , 30.6779251  , 819.5508    , 0.9         , 7           , 255         , 0           , 0
-0.19586882 , -0.0159039926, -9.798009   , -0.000265752518, 4.82921023E-05, -4.32731176E-05, 0.00232740934, -0.020266816, 1.90929019  , 918.618469  , 30.6779251  , 819.5411    , 0.91        , 7           , 255         , 0           , 0
-0.20148465 , -0.02066124 , -9.792226   , 7.419541E-05, 3.23652057E-06, 0.000166543454, 0.002328119 , -0.0202667881, 1.90929174  , 918.618469  , 30.6779251  , 819.5412    , 0.92        , 7           , 255         , 0           , 0
-0.196073055, -0.01276427 , -9.79737    , 0.000423029356, 0.000121748424, -0.0002606422, 0.0023324003, -0.0202655625, 1.90928912  , 918.62616   , 30.6789417  , 819.5413    , 0.93        , 7           , 255         , 0           , 0
-0.19078058 , -0.0214718971, -9.808456   , -0.0002428605, 0.000108861306, -0.000268117059, 0.00233002682, -0.0202644672, 1.90928662  , 918.62616   , 30.6789417  , 819.541443  , 0.94        , 7           , 255         , 0           , 0
-0.20210579 , -0.0192404334, -9.787595   , -9.184357E-05, 0.000247993565, -0.0008982682, 0.00232929  , -0.0202619676, 1.9092778   , 918.62616   , 30.6789417  , 819.541565  , 0.95        , 7           , 255         , 0           , 0
-0.184917688, -0.0227711983, -9.798032   , 0.000239653775, -0.0002980608, 5.13481064E-05, 0.002331676 , -0.0202649552, 1.90927827  , 918.62616   , 30.6789417  , 819.5417    , 0.96        , 7           , 255         , 0           , 0
-0.200258568, -0.0260106828, -9.79344749 , -0.00020390682, -0.000576179358, 0.00107230013, 0.002329419 , -0.020270735, 1.90928888  , 918.62616   , 30.6789417  , 819.5418    , 0.97        , 7           , 255         , 0           , 0
-0.211585686, -0.0176563058, -9.802414   , 0.000213842082, 2.43723043E-05, 0.000128928586, 0.00233153137, -0.0202704947, 1.90929019  , 918.62616   , 30.6789417  , 819.541931  , 0.98        , 7           , 255         , 0           , 0
-0.2078493  , -0.0242068581, -9.788389   , -0.00013781857, 0.000342692016, -0.000479446258, 0.00233024987, -0.0202670619, 1.90928555  , 918.62616   , 30.6789417  , 819.542053  , 0.99        , 7           , 255         , 0           , 0
-0.215878934, -0.01028424 , -9.80092049 , 6.40414655E-05, 0.000103790895, 0.000119201213, 0.002330866 , -0.0202660244, 1.90928674  , 918.62616   , 30.6789417  , 819.5422    , 1           , 7           , 0           , 6.49323654  , 100
-0.210155755, -0.007283325, -9.793626   , -0.0001664095, 0.000262367423, 0.0007508459, 0.002320312 , -0.020268444, 1.90929449  , 918.62616   , 30.6789417  , 819.525757  , 1.01        , 7           , 1           , 0           , 0
-0.211760327, -0.00798309 , -9.788663   , 8.647196E-05, 0.000373033283, -0.0002419199, 0.00232122559, -0.02026471 , 1.909292    , 918.62616   , 30.6789417  , 819.5259    , 1.02        , 7           , 2           , 0           , 0
-0.201201349, -0.0121017713, -9.796464   , -0.000309874333, 0.0002787765, -2.37182539E-05, 0.00231813267, -0.020261921, 1.90929174  , 918.6121    , 30.6836243  , 819.526     , 1.03        , 7           , 3           , 0           , 0
-0.199829653, -0.0159594119, -9.791142   , -7.117944E-05, 3.50871123E-05, -0.0004258877, 0.00231750682, -0.02026156 , 1.90928757  , 918.6121    , 30.6836243  , 819.5261    , 1.04        , 7           , 4           , 0           , 0
-0.2087895  , -0.0216874424, -9.784814   , 1.18292519E-06, 0.00025377993, -0.0005593095, 0.00231763162, -0.02025901 , 1.909282    , 918.6121    , 30.6836243  , 819.526245  , 1.05        , 7           , 5           , 0           , 0
-0.210345939, -0.0255604722, -9.791006   , -0.0006039741, 0.000121697783, -0.000491404149, 0.00231169118, -0.0202577822, 1.90927708  , 918.6121    , 30.6836243  , 819.526367  , 1.06        , 7           , 6           , 0           , 0
-0.212713808, -0.0223977268, -9.79339    , -6.0899416E-05, -0.000223961542, 0.000106783235, 0.00231105974, -0.020260023, 1.90927815  , 918.6121    , 30.6836243  , 819.5265    , 1.07        , 7           , 7           , 0           , 0
-0.204531878, -0.0105040539, -9.797529   , -0.000461403542, 0.000185856654, -0.000290653377, 0.00230650557, -0.02025816 , 1.90927529  , 918.6121    , 30.6836243  , 819.5266    , 1.08        , 7           , 8           , 5           , 5
-0.2006742  , -0.016083274, -9.794447   , 4.04461171E-05, 0.000199350121, -0.000602143642, 0.00230703177, -0.0202561524, 1.90926933  , 918.6121    , 30.6836243  , 819.526733  , 1.09        , 7           , 9           , 5           , 0.1
-0.197466478, -0.0180987343, -9.798029   , 0.000324319524, 0.000212362153, 0.000206253113, 0.002310235 , -0.0202540327, 1.90927124  , 918.6121    , 30.6836243  , 819.526855  , 1.1         , 7           , 10          , 0.1         , 0.1
-0.183993965, -0.02816983 , -9.793734   , 6.807415E-06, -0.0001392746, -2.79096275E-05, 0.0022905597, -0.0202762671, 1.90927148  , 918.6121    , 30.6836243  , 819.5276    , 1.11        , 7           , 11          , 0.009305751 , 0.009305751
-0.1934327  , -0.0292409658, -9.792337   , -0.00016213776, 0.000140692922, 0.000331463641, 0.00228886981, -0.02027487 , 1.90927482  , 918.6121    , 30.6836243  , 819.5277    , 1.12        , 7           , 12          , 0.0346428268, 0
-0.191386387, -0.0324017778, -9.799745   , 0.0004283541, 8.010829E-06, 0.00091629813, 0.002292967 , -0.0202748068, 1.90928411  , 918.6116    , 30.6807747  , 819.527832  , 1.13        , 7           , 13          , 0           , 0
-0.193155065, -0.0262456443, -9.78477    , 0.000129765089, -7.439303E-05, -0.000155066824, 0.00229429733, -0.0202755481, 1.90928245  , 918.6116    , 30.6807747  , 819.527954  , 1.14        , 7           , 14          , -0.0003280129, 0.0004953908
-0.18963787 , -0.01978248 , -9.789522   , -0.0002510935, 0.000160023861, -0.000482392672, 0.002291884 , -0.0202739425, 1.90927768  , 918.6116    , 30.6807747  , 819.5281    , 1.15        , 7           , 15          , 0           , 0.000205582823
-0.191382378, -0.0238395818, -9.796643   , -0.000478669739, -0.000111854431, -0.000203615607, 0.00228713732, -0.0202750526, 1.90927565  , 918.6116    , 30.6807747  , 819.5282    , 1.16        , 7           , 16          , 0           , 1.401298E-45
-0.199569657, -0.0186903216, -9.791707   , -0.000206103054, 9.273412E-06, -0.000368956651, 0.00228515221, -0.02027495 , 1.909272    , 918.6116    , 30.6807747  , 819.5283    , 1.17        , 7           , 20          , 0           , 0
-0.192380369, -0.02774481 , -9.787451   , 3.45264853E-05, 0.000248798518, 0.00010178113, 0.00228547631, -0.0202724617, 1.909273    , 918.6116    , 30.6807747  , 819.528442  , 1.18        , 7           , 21          , 0           , 0
-0.1929929  , -0.0181239657, -9.792967   , 0.000276533217, -2.24741234E-05, 7.787708E-05, 0.00228822534, -0.0202726889, 1.90927374  , 918.6116    , 30.6807747  , 819.528564  , 1.19        , 7           , 22          , 0           , 0
-0.192161992, -0.01761417 , -9.787597   , -7.882179E-05, 0.000365726359, 0.000118394644, 0.002287413 , -0.0202690363, 1.90927494  , 918.6116    , 30.6807747  , 819.5287    , 1.2         , 7           , 40          , 0           , 0
-0.200656459, -0.0288262274, -9.789457   , -0.000303525536, -0.000129424589, 8.780096E-05, 0.00228971  , -0.0202501714, 1.90927577  , 918.6116    , 30.6807747  , 819.529846  , 1.21        , 7           , 41          , 0           , 0
-0.203975   , -0.021070078, -9.784602   , -0.000148064457, -0.0002060227, 1.37850438E-05, 0.00228822813, -0.0202522315, 1.90927589  , 918.6116    , 30.6807747  , 819.529968  , 1.22        , 7           , 42          , 1           , 0
-0.1973587  , -0.0241500977, -9.79306    , -0.0006780191, 0.000161127886, -0.000265253562, 0.002281502 , -0.02025062 , 1.90927327  , 918.6192    , 30.6838951  , 819.5301    , 1.23        , 7           , 255         , 0           , 0
-0.201416567, -0.0186279155, -9.786889   , -0.000550880737, 0.0005883149, 0.000179991155, 0.00227595586, -0.0202447381, 1.909275    , 918.6192    , 30.6838951  , 819.5302    , 1.24        , 7           , 255         , 0           , 0
-0.202533171, -0.0215263553, -9.787932   , -0.000376242038, 0.000243637827, 0.0004383577, 0.002272104 , -0.0202423111, 1.90927947  , 918.6192    , 30.6838951  , 819.530334  , 1.25        , 7           , 255         , 0           , 0
-0.198594391, -0.0257946663, -9.789419   , 8.493962E-05, -0.0006116649, 0.000586500741, 0.00227283733, -0.0202484448, 1.90928543  , 918.6192    , 30.6838951  , 819.530457  , 1.26        , 7           , 255         , 0           , 0
-0.199991867, -0.0169352647, -9.804318   , 7.909344E-05, 0.0002374344, 0.000306679169, 0.00227356562, -0.0202460773, 1.90928841  , 918.6192    , 30.6838951  , 819.5306    , 1.27        , 7           , 255         , 0           , 0
-0.199226752, -0.0272070579, -9.78981    , 0.000227161188, 0.000155659567, -0.000140938879, 0.00227586739, -0.0202445164, 1.909287    , 918.6192    , 30.6838951  , 819.5307    , 1.28        , 7           , 255         , 0           , 0
-0.194602162, -0.0150824543, -9.781715   , 6.485838E-05, -0.000404641381, -0.0003531852, 0.0022765866, -0.0202485565, 1.9092834   , 918.6192    , 30.6838951  , 819.5308    , 1.29        , 7           , 255         , 0           , 0
-0.198531479, -0.0153610855, -9.792241   , 9.307827E-05, -0.0002067732, 0.000170456828, 0.00227748184, -0.0202506278, 1.90928507  , 918.6192    , 30.6838951  , 819.530945  , 1.3         , 7           , 255         , 0           , 0
-0.209034517, -0.0203309748, -9.79347    , -7.75890949E-05, -0.000190772931, -0.000444797159, 0.00227409252, -0.0202575345, 1.90928078  , 918.6192    , 30.6838951  , 819.523743  , 1.31        , 7           , 255         , 0           , 0
-0.220996976, -0.0223793965, -9.805595   , -0.000194048625, 0.0001844106, -0.000678023265, 0.00227228855, -0.02025568 , 1.9092741   , 918.6192    , 30.6838951  , 819.523865  , 1.32        , 7           , 255         , 0           , 0
-0.212693721, -0.0149482265, -9.791479   , 3.60473641E-05, 0.0003414324, -0.000210266982, 0.002272691 , -0.0202522557, 1.90927207  , 918.6464    , 30.68654    , 819.524     , 1.33        , 7           , 255         , 0           , 0
-0.196026251, -0.0186228044, -9.786959   , 8.146497E-05, 0.000261128938, 8.827045E-05, 0.00227348949, -0.020249648, 1.90927291  , 918.6464    , 30.68654    , 819.5241    , 1.34        , 7           , 255         , 0           , 0
-0.195624068, -0.008657465, -9.787961   , -0.0002912453, 8.208846E-05, -0.000120515615, 0.002270599 , -0.0202488229, 1.90927184  , 918.6464    , 30.68654    , 819.524231  , 1.35        , 7           , 255         , 0           , 0
-0.19704771 , -0.0246100277, -9.795161   , -0.000389705529, -0.000455696, -0.00015830886, 0.00226673414, -0.0202533752, 1.90927017  , 918.6464    , 30.68654    , 819.524353  , 1.36        , 7           , 255         , 0           , 0
-0.202916935, -0.0265196972, -9.808715   , -0.000311331765, -0.0003045292, -0.000484449381, 0.002263719 , -0.02025641 , 1.9092654   , 918.6464    , 30.68654    , 819.5245    , 1.37        , 7           , 255         , 0           , 0
-0.200502589, -0.019694047, -9.800848   , 0.000464754 , 5.339732E-05, 0.0006879137, 0.00226822658, -0.0202558935, 1.90927219  , 918.6464    , 30.68654    , 819.5246    , 1.38        , 7           , 255         , 0           , 0
-0.201310948, -0.0205339547, -9.782081   , -0.000401813071, -0.0002630602, -2.87283474E-05, 0.00226421375, -0.02025852 , 1.909272    , 918.6464    , 30.68654    , 819.5247    , 1.39        , 7           , 255         , 0           , 0
-0.194749683, -0.0241163149, -9.790337   , -0.0006641629, -4.848934E-05, -0.000401876343, 0.00225765421, -0.0202589966, 1.9092679   , 918.6464    , 30.68654    , 819.524841  , 1.4         , 7           , 255         , 0           , 0
-0.187950358, -0.0305567924, -9.80053    , -6.659739E-05, 0.0002922578, 0.000296928163, 0.00225162879, -0.0202674475, 1.909271    , 918.6464    , 30.68654    , 819.490356  , 1.41        , 7           , 255         , 0           , 0
-0.191139251, -0.0230602715, -9.795898   , -0.000101692276, 0.000243391667, -0.000361274346, 0.00225068582, -0.0202650074, 1.90926743  , 918.6464    , 30.68654    , 819.490356  , 1.42        , 7           , 255         , 0           , 0
-0.190175265, -0.02183084 , -9.796735   , 0.000722773 , 0.000167708669, -0.00152990792, 0.00225822232, -0.0202632956, 1.90925217  , 918.614563  , 30.6849117  , 819.490356  , 1.43        , 7           , 255         , 0           , 0
-0.196017042, -0.01858015 , -9.798273   , 0.000465694116, 0.000109911314, -0.001263227, 0.002263134 , -0.0202621669, 1.90923953  , 918.614563  , 30.6849117  , 819.490356  , 1.44        , 7           , 255         , 0           , 0
-0.191578835, -0.0269842  , -9.78641    , -0.00032326745, 0.000394682516, 5.77855244E-05, 0.00225988682, -0.02025822 , 1.90924025  , 918.614563  , 30.6849117  , 819.490356  , 1.45        , 7           , 255         , 0           , 0
-0.19142364 , -0.0326938741, -9.784769   , -0.0006344676, -0.000476666115, -0.000354228, 0.00225361413, -0.02026298 , 1.90923679  , 918.614563  , 30.6849117  , 819.490356  , 1.46        , 7           , 255         , 0           , 0
-0.189938992, -0.023495676, -9.791666   , 8.051662E-06, -0.0004344499, 0.000174470464, 0.0022536593, -0.0202673245, 1.90923858  , 918.614563  , 30.6849117  , 819.490356  , 1.47        , 7           , 255         , 0           , 0
-0.191807181, -0.0304012541, -9.796675   , -7.80177361E-05, 0.000343578984, -0.0002657704, 0.00225293171, -0.0202638842, 1.909236    , 918.614563  , 30.6849117  , 819.490356  , 1.48        , 7           , 255         , 0           , 0
-0.19613719 , -0.0293655582, -9.79610348 , 0.000236628039, 9.919942E-05, -0.0003529769, 0.002255368 , -0.0202628858, 1.90923238  , 918.614563  , 30.6849117  , 819.490356  , 1.49        , 7           , 255         , 0           , 0
-0.188226327, -0.0224000867, -9.790423   , 6.09734E-06 , 6.754568E-05, 0.000202976618, 0.00225538784, -0.0202622116, 1.90923452  , 918.614563  , 30.6849117  , 819.490356  , 1.5         , 7           , 255         , 0           , 0
-0.2019804  , -0.0186045133, -9.789396   , 0.0003055088, 5.46241645E-05, -6.380712E-05, 0.00226777233, -0.020244468, 1.90923357  , 918.614563  , 30.6849117  , 819.4924    , 1.51        , 7           , 255         , 0           , 0
-0.204312056, -0.0245825388, -9.79375    , -3.39052931E-05, 0.0004478445, -0.000221817987, 0.0022674778, -0.0202399865, 1.90923142  , 918.614563  , 30.6849117  , 819.4924    , 1.52        , 7           , 255         , 0           , 0
-0.198686674, -0.0213917345, -9.788388   , 0.000299176347, -1.93568121E-05, -0.000262958871, 0.002270522 , -0.0202401727, 1.90922868  , 918.631531  , 30.6864738  , 819.4924    , 1.53        , 7           , 255         , 0           , 0
-0.2057335  , -0.03189448 , -9.791031   , 0.0001444366, 0.000454382272, 0.000182047515, 0.00227193045, -0.0202356316, 1.90923059  , 918.631531  , 30.6864738  , 819.4924    , 1.54        , 7           , 255         , 0           , 0
-0.200331375, -0.0175021887, -9.791348   , 0.0002692744, -0.000182908087, -4.52155946E-05, 0.00227463082, -0.02023746 , 1.90923011  , 918.631531  , 30.6864738  , 819.4924    , 1.55        , 7           , 255         , 0           , 0
-0.201827377, -0.0180506669, -9.787556   , 0.000116768875, 0.0003056242, -0.0008135416, 0.00227596168, -0.0202343836, 1.90922189  , 918.631531  , 30.6864738  , 819.4924    , 1.56        , 7           , 255         , 0           , 0
-0.207854658, -0.0236262325, -9.79047    , 0.000174004585, 0.00063236  , -0.000634156633, 0.00227783015, -0.0202280488, 1.90921569  , 918.631531  , 30.6864738  , 819.4924    , 1.57        , 7           , 255         , 0           , 0
-0.201401919, -0.0229377635, -9.796765   , -0.0002821775, 8.014991E-05, -0.0007230991, 0.002275155 , -0.02022723 , 1.90920854  , 918.631531  , 30.6864738  , 819.492432  , 1.58        , 7           , 255         , 0           , 0
-0.203908727, -0.0229448415, -9.803262   , -1.702903E-05, 0.0006403092, -0.000242180526, 0.00227503246, -0.0202208217, 1.90920615  , 918.631531  , 30.6864738  , 819.4925    , 1.59        , 7           , 255         , 0           , 0
-0.2008824  , -0.0087621  , -9.80221748 , -0.000408611115, 0.000494593871, -8.213727E-06, 0.00227094744, -0.0202158745, 1.909206    , 918.631531  , 30.6864738  , 819.492554  , 1.6         , 7           , 255         , 0           , 0
-0.203393057, -0.016376175, -9.788998   , 0.000278533727, 0.000254737155, -5.06053038E-06, 0.00227074325, -0.0202241428, 1.90920615  , 918.631531  , 30.6864738  , 819.476135  , 1.61        , 7           , 255         , 0           , 0
-0.1976781  , -0.009041481, -9.79182148 , 0.000336739438, 0.000400262827, 0.000288955984, 0.002274051 , -0.02022015 , 1.909209    , 918.631531  , 30.6864738  , 819.4761    , 1.62        , 7           , 255         , 0           , 0
-0.204081446, -0.005639293, -9.794919   , 0.000271183759, -9.596048E-05, -0.000199744652, 0.00227680337, -0.0202211  , 1.909207    , 918.6053    , 30.6860657  , 819.476     , 1.63        , 7           , 255         , 0           , 0
-0.2105786  , -0.012620328, -9.792669   , 0.0004013295, -0.000282661349, -0.000791480648, 0.00228097569, -0.0202239081, 1.909199    , 918.6053    , 30.6860657  , 819.475952  , 1.64        , 7           , 255         , 0           , 0
-0.209839657, -0.0218688548, -9.796109   , 0.000436540926, -0.000157408853, -0.0007732675, 0.0022854975, -0.02022546 , 1.90919137  , 918.6053    , 30.6860657  , 819.4759    , 1.65        , 7           , 255         , 0           , 0
-0.205636546, -0.0228862576, -9.787854   , 0.000162583048, 2.27249111E-05, -0.0006311109, 0.00228725024, -0.0202252213, 1.90918493  , 918.6053    , 30.6860657  , 819.4758    , 1.66        , 7           , 255         , 0           , 0
-0.204265043, -0.01247904 , -9.795194   , -8.051598E-05, 4.91776154E-05, 7.656995E-05, 0.00228643  , -0.0202247277, 1.90918577  , 918.6053    , 30.6860657  , 819.475769  , 1.67        , 7           , 255         , 0           , 0
-0.20411846 , -0.0159144737, -9.796649   , -1.78361952E-05, 0.000377478544, 0.0005540152, 0.00228613918, -0.0202209651, 1.90919137  , 918.6053    , 30.6860657  , 819.4757    , 1.68        , 7           , 255         , 0           , 0
-0.195690185, -0.02734063 , -9.795395   , -5.37394662E-05, 0.000268806063, -0.000204955009, 0.002285641 , -0.0202182755, 1.90918934  , 918.6053    , 30.6860657  , 819.475647  , 1.69        , 7           , 255         , 0           , 0
-0.207302287, -0.0151510313, -9.798666   , -0.000200847368, -0.000125295308, 5.72405261E-05, 0.002283621 , -0.0202195272, 1.90918994  , 918.6053    , 30.6860657  , 819.475647  , 1.7         , 7           , 255         , 0           , 0
-0.208678052, -0.02180133 , -9.792397   , 2.63992115E-05, -0.000202658819, -0.000179062743, 0.00226912927, -0.0202356819, 1.90918851  , 918.6053    , 30.6860657  , 819.489868  , 1.71        , 7           , 255         , 0           , 0
-0.203548759, -0.0355985574, -9.787644   , -5.03544E-05, 9.72600537E-05, -0.0002829767, 0.00226868247, -0.0202347059, 1.90918577  , 918.6053    , 30.6860657  , 819.4899    , 1.72        , 7           , 255         , 0           , 0
-0.198086455, -0.0246288441, -9.786761   , 1.65846141E-05, 0.000399001758, 1.40813936E-05, 0.00226884382, -0.0202307142, 1.90918589  , 918.6274    , 30.68817    , 819.49      , 1.73        , 7           , 255         , 0           , 0
-0.189672887, -0.0339984819, -9.791113   , -0.000265005539, 8.08204641E-05, -0.000182031727, 0.00226623053, -0.0202299077, 1.90918422  , 918.6274    , 30.68817    , 819.490051  , 1.74        , 7           , 255         , 0           , 0
-0.20116663 , -0.0258069243, -9.784767   , -0.000153116562, -0.000343763677, -0.000142669611, 0.00226472877, -0.0202333368, 1.90918279  , 918.6274    , 30.68817    , 819.4901    , 1.75        , 7           , 255         , 0           , 0
-0.193842322, -0.02100958 , -9.791186   , -0.0008140935, -0.000590613, -0.00011344214, 0.00225661159, -0.0202392414, 1.90918159  , 918.6274    , 30.68817    , 819.4902    , 1.76        , 7           , 255         , 0           , 0
-0.200499728, -0.0200444  , -9.784682   , -0.000326862646, -0.000237101427, -0.0003291972, 0.00225340948, -0.0202416033, 1.90917838  , 918.6274    , 30.68817    , 819.490234  , 1.77        , 7           , 255         , 0           , 0
-0.199074253, -0.0262971483, -9.780594   , -0.0004554269, -0.000147970946, -0.0005321849, 0.00224896241, -0.02024307 , 1.909173    , 918.6274    , 30.68817    , 819.4903    , 1.78        , 7           , 255         , 0           , 0
-0.193594143, -0.0330180153, -9.790617   , -0.000190114049, -0.00031217 , 0.0003305524, 0.00224699336, -0.0202462  , 1.90917635  , 918.6274    , 30.68817    , 819.490356  , 1.79        , 7           , 255         , 0           , 0
-0.197091579, -0.0265366677, -9.798213   , -9.60154E-05, 0.000209093734, 0.000264688046, 0.00224597962, -0.0202441141, 1.909179    , 918.6274    , 30.68817    , 819.4904    , 1.8         , 7           , 255         , 0           , 0
-0.195816681, -0.0279756  , -9.794039   , -8.344356E-05, 0.000128143642, 9.478873E-05, 0.002260689 , -0.0202443227, 1.90917969  , 918.6274    , 30.68817    , 819.4784    , 1.81        , 7           , 255         , 0           , 0
-0.186532944, -0.013189326, -9.803137   , -0.000928138732, 0.000109118118, 0.0004353462, 0.00225131842, -0.0202432368, 1.9091841   , 918.6274    , 30.68817    , 819.4784    , 1.82        , 7           , 255         , 0           , 0
-0.195943773, -0.0123015009, -9.805155   , 0.000165187565, 0.00066746003, 0.0003069233, 0.00225290679, -0.0202365741, 1.90918708  , 918.627869  , 30.68756    , 819.4784    , 1.83        , 7           , 255         , 0           , 0
-0.191563249, -0.0114111071, -9.784929   , -0.000210114435, 0.00051401055, -0.000461663236, 0.0022508984, -0.02023142 , 1.90918255  , 918.627869  , 30.68756    , 819.4784    , 1.84        , 7           , 255         , 0           , 0
-0.188644022, -0.0170391332, -9.785524   , 0.000228558434, 0.000361684826, -0.000478077476, 0.00225328025, -0.0202277917, 1.90917778  , 918.627869  , 30.68756    , 819.4784    , 1.85        , 7           , 255         , 0           , 0
-0.203999445, -0.0207837671, -9.779399   , 0.00019862286, 0.000413468166, -0.000228542573, 0.00225531287, -0.0202236511, 1.90917552  , 918.627869  , 30.68756    , 819.4784    , 1.86        , 7           , 255         , 0           , 0
-0.2018543  , -0.017079901, -9.798292   , -0.000419659569, 0.0004612286, 2.86644645E-05, 0.00225110934, -0.02021904 , 1.90917587  , 918.627869  , 30.68756    , 819.4784    , 1.87        , 7           , 255         , 0           , 0
-0.198476359, -0.029444525, -9.794946   , 0.000419437885, 0.000257154461, -1.51688291E-05, 0.00225530448, -0.0202164669, 1.90917575  , 918.627869  , 30.68756    , 819.4784    , 1.88        , 7           , 255         , 0           , 0
-0.193102032, -0.0192992724, -9.799733   , 0.000634503434, 0.000138323754, -0.000213428691, 0.00226169452, -0.0202150811, 1.90917349  , 918.627869  , 30.68756    , 819.4784    , 1.89        , 7           , 255         , 0           , 0
-0.195586681, -0.0151422266, -9.788996   , -8.577184E-05, 0.0003163073, 0.000376608223, 0.00226075924, -0.0202119257, 1.9091773   , 918.627869  , 30.68756    , 819.4784    , 1.9         , 7           , 255         , 0           , 0
-0.196191519, -0.0163738765, -9.77822    , -7.607529E-05, 0.0001227734, -3.60234117E-06, 0.002251642 , -0.0202039443, 1.90917754  , 918.627869  , 30.68756    , 819.466736  , 1.91        , 7           , 255         , 0           , 0
-0.199510932, -0.0207924079, -9.79087448 , -0.000409032451, 0.000120126933, -1.143587E-05, 0.002247554 , -0.02020274 , 1.90917742  , 918.627869  , 30.68756    , 819.4667    , 1.92        , 7           , 255         , 0           , 0
-0.218094066, -0.0206674878, -9.796476   , -1.01293263E-05, -0.000270075747, -0.000716647133, 0.00224759779, -0.0202054232, 1.90917027  , 918.5833    , 30.6895943  , 819.4666    , 1.93        , 7           , 255         , 0           , 0
-0.216711283, -0.0303369574, -9.802725   , 0.000418794632, -0.000161875825, -0.0005852767, 0.00225190329, -0.0202070288, 1.90916443  , 918.5833    , 30.6895943  , 819.466553  , 1.94        , 7           , 255         , 0           , 0
-0.194444075, -0.021410346, -9.78654    , 0.0006879716, 0.000173221983, -0.0004184161, 0.002258866 , -0.0202052854, 1.90916038  , 918.5833    , 30.6895943  , 819.4665    , 1.95        , 7           , 255         , 0           , 0
-0.196972653, -0.0167112444, -9.785986   , 8.741362E-05, -0.00016575976, -0.000199011236, 0.00225978  , -0.0202069376, 1.90915823  , 918.5833    , 30.6895943  , 819.466431  , 1.96        , 7           , 255         , 0           , 0
-0.203871056, -0.009601831, -9.793219   , 2.89137824E-05, -0.00041970046, -0.000633068848, 0.00226019765, -0.0202111229, 1.90915191  , 918.5833    , 30.6895943  , 819.4664    , 1.97        , 7           , 255         , 0           , 0
-0.205388352, -0.0132349674, -9.798574   , 0.0005098843, -0.00023663271, -0.000102910228, 0.002265318 , -0.0202134885, 1.90915084  , 918.5833    , 30.6895943  , 819.4663    , 1.98        , 7           , 255         , 0           , 0
-0.2007457  , -0.015345159, -9.80069    , 0.0005637045, -0.0002720803, 4.339991E-05, 0.00227094744, -0.02021621 , 1.9091512   , 918.5833    , 30.6895943  , 819.466248  , 1.99        , 7           , 255         , 0           , 0
-0.201088637, -0.025029581, -9.783168   , 0.000230708887, -0.000263042748, 2.26926641E-05, 0.00227324944, -0.02021884 , 1.90915143  , 918.5833    , 30.6895943  , 819.4662    , 2           , 7           , 0           , 7.49323654  , 200
-0.195529848, -0.0299306177, -9.783601   , 0.000274118473, 0.0001386709, -0.0001357327, 0.00226824661, -0.0202308632, 1.90915012  , 918.5833    , 30.6895943  , 819.50946   , 2.01        , 7           , 1           , 0           , 0
-0.189030141, -0.0308298878, -9.786202   , -0.000237146654, 0.000248049328, 0.000193432439, 0.00226583681, -0.0202283859, 1.909152    , 918.5833    , 30.6895943  , 819.5097    , 2.02        , 7           , 2           , 0           , 0
-0.1888007  , -0.0193389859, -9.796677   , -0.000215355161, 0.000241387461, 0.00045223374, 0.00226359  , -0.02022598 , 1.90915668  , 918.5941    , 30.689661   , 819.509949  , 2.03        , 7           , 3           , 0           , 0
-0.190445855, -0.008388437, -9.798601   , -0.000508789555, -3.94042581E-05, 0.000223955809, 0.00225845654, -0.02022638 , 1.909159    , 918.5941    , 30.689661   , 819.5102    , 2.04        , 7           , 4           , 0           , 0
-0.191871569, -0.024872886, -9.791682   , 0.00057855557, -0.000163463323, -9.121587E-05, 0.00226426055, -0.0202280134, 1.909158    , 918.5941    , 30.689661   , 819.510437  , 2.05        , 7           , 5           , 0           , 0
-0.187496811, -0.02439404 , -9.79645    , 0.0005824852, 0.000191938016, -0.0003228335, 0.00227015046, -0.0202260856, 1.90915477  , 918.5941    , 30.689661   , 819.5107    , 2.06        , 7           , 6           , 0           , 0
-0.18872267 , -0.0365662277, -9.798182   , 0.000511604769, -0.000300799671, -0.0008267509, 0.00227543525, -0.0202290732, 1.90914643  , 918.5941    , 30.689661   , 819.5109    , 2.07        , 7           , 7           , 0           , 0
-0.184685081, -0.0232065916, -9.794224   , 0.000188047983, 0.0002534219, -1.31592387E-05, 0.00227731746, -0.0202265363, 1.90914631  , 918.5941    , 30.689661   , 819.511169  , 2.08        , 7           , 8           , 5           , 5
-0.185887247, -0.0268175118, -9.792408   , -8.23084556E-05, 0.000117036747, 0.000562080066, 0.00227638031, -0.02022538 , 1.90915191  , 918.5941    , 30.689661   , 819.5114    , 2.09        , 7           , 9           , 5           , 0.1
-0.194088638, -0.0220834427, -9.793268   , 0.000176144124, 0.000256560743, 0.000157848524, 0.00227811025, -0.0202228185, 1.90915346  , 918.5941    , 30.689661   , 819.511658  , 2.1         , 7           , 10          , 0.1         , 0.1
-0.1938556  , -0.02486291 , -9.797234   , 0.00017256719, -6.149302E-05, -0.000170914456, 0.00228539412, -0.0202046558, 1.90915179  , 918.5941    , 30.689661   , 819.537048  , 2.11        , 7           , 11          , 0.00815929  , 0.008159291
-0.196359336, -0.035662774, -9.789297   , -0.0002583873, 0.000137143186, 0.000357333047, 0.00228273775, -0.020203298, 1.90915537  , 918.5941    , 30.689661   , 819.5375    , 2.12        , 7           , 12          , 0.0346481539, 0
-0.192598134, -0.02914309 , -9.785558   , -0.000137683674, 0.000370273367, -0.000399197917, 0.00228144228, -0.020199582, 1.90915132  , 918.6597    , 30.6917648  , 819.5379    , 2.13        , 7           , 13          , 0           , 0
-0.18934685 , -0.02929253 , -9.801286   , -9.772903E-05, -3.40483966E-05, -0.0004739305, 0.00228056032, -0.02019991 , 1.90914667  , 918.6597    , 30.6917648  , 819.5383    , 2.14        , 7           , 14          , -0.0003279964, 0.000495378743
-0.194785744, -0.0272785779, -9.79796    , -0.0007102823, 0.00012104027, -1.69591076E-05, 0.002273461 , -0.0201987  , 1.90914655  , 918.6597    , 30.6917648  , 819.538757  , 2.15        , 7           , 15          , 0           , 0.000205582546
-0.191890225, -0.0190251283, -9.805754   , -0.000593815348, 0.000272843929, 0.000563937065, 0.00226740865, -0.0201959889, 1.90915227  , 918.6597    , 30.6917648  , 819.5392    , 2.16        , 7           , 16          , 0           , 1.401298E-45
-0.197710022, -0.0128390286, -9.797886   , -0.000489815953, 0.000185191573, 0.0005719517, 0.00226239418, -0.0201941468, 1.90915811  , 918.6597    , 30.6917648  , 819.5396    , 2.17        , 7           , 20          , 0           , 0
-0.195564032, -0.013531765, -9.794603   , -1.04512146E-05, -0.000131253619, -0.00104798109, 0.00226250221, -0.0201954376, 1.90914762  , 918.6597    , 30.6917648  , 819.540039  , 2.18        , 7           , 21          , 0           , 0
-0.2085549  , -0.0107212448, -9.793283   , -6.650621E-05, 1.931371E-05, 4.608075E-05, 0.002261827 , -0.0201952476, 1.9091481   , 918.6597    , 30.6917648  , 819.540466  , 2.19        , 7           , 22          , 0           , 0
-0.206862122, -0.00862375647, -9.799935   , -0.000338034239, 9.240117E-05, 0.00019810519, 0.00225840556, -0.0201943275, 1.90915012  , 918.6597    , 30.6917648  , 819.5409    , 2.2         , 7           , 40          , 0           , 0
-0.201249331, -0.008580793, -9.800228   , -0.000272639358, 0.0003857371, -0.000119710705, 0.00225356617, -0.0201884136, 1.909149    , 918.6597    , 30.6917648  , 819.479858  , 2.21        , 7           , 41          , 0           , 0
-0.209349066, -0.0127702206, -9.791577   , -5.380434E-05, 0.000264390546, -0.0004544191, 0.00225312  , -0.0201857612, 1.90914452  , 918.6597    , 30.6917648  , 819.4799    , 2.22        , 7           , 42          , 1           , 0
-0.196479708, -0.006579301, -9.795368   , 0.000607151655, 0.000381036545, -0.000285234244, 0.00225925073, -0.0201819465, 1.90914166  , 918.6271    , 30.6923065  , 819.48      , 2.23        , 7           , 255         , 0           , 0
-0.192807272, -0.0142959934, -9.792401   , 0.00024230266, 0.000286111783, -0.000151392742, 0.00226170523, -0.0201790817, 1.90914011  , 918.6271    , 30.6923065  , 819.480042  , 2.24        , 7           , 255         , 0           , 0
-0.194869041, -0.0120137585, -9.791407   , -0.000393809722, 0.0007711075, -0.001058559, 0.002257979 , -0.020171348, 1.90912974  , 918.6271    , 30.6923065  , 819.4801    , 2.25        , 7           , 255         , 0           , 0
-0.195643634, -0.01884137 , -9.797644   , -0.0003633336, 0.000661422731, -0.0004022332, 0.00225442671, -0.0201647244, 1.9091258   , 918.6271    , 30.6923065  , 819.480164  , 2.26        , 7           , 255         , 0           , 0
-0.2081866  , -0.025396537, -9.79723549 , -0.000466510683, 0.000228402612, 4.258714E-05, 0.00224975334, -0.02016244 , 1.90912628  , 918.6271    , 30.6923065  , 819.4802    , 2.27        , 7           , 255         , 0           , 0
-0.20447883 , -0.0203865245, -9.800338   , -0.0007672893, 0.000154915149, -2.68245349E-05, 0.00224208669, -0.0201608911, 1.90912592  , 918.6271    , 30.6923065  , 819.4803    , 2.28        , 7           , 255         , 0           , 0
-0.194019437, -0.0269444641, -9.78867149 , -0.000917973, 0.000365290849, 0.000341257459, 0.00223283842, -0.0201572478, 1.90912926  , 918.6271    , 30.6923065  , 819.480347  , 2.29        , 7           , 255         , 0           , 0
-0.19340378 , -0.0165593214, -9.785957   , 0.000421584817, -0.000159521529, 0.0002983768, 0.00223699422, -0.0201588459, 1.90913224  , 918.6271    , 30.6923065  , 819.4804    , 2.3         , 7           , 255         , 0           , 0
-0.198055014, -0.0177676529, -9.787899   , 0.0004073272, -0.000273415935, 0.0004581695, 0.00222926447, -0.020164445, 1.909137    , 918.6271    , 30.6923065  , 819.4684    , 2.31        , 7           , 255         , 0           , 0
-0.1960367  , -0.0169255827, -9.798419   , 3.03249981E-05, -0.000352179457, 0.00043217116, 0.00222947984, -0.0201679785, 1.9091413   , 918.6271    , 30.6923065  , 819.4684    , 2.32        , 7           , 255         , 0           , 0
-0.1963193  , -0.0244079754, -9.793715   , 0.000482386036, -9.578111E-05, 0.0006889492, 0.00223416649, -0.0201689489, 1.90914834  , 918.6203    , 30.6904755  , 819.4684    , 2.33        , 7           , 255         , 0           , 0
-0.200667292, -0.0292999856, -9.793937   , 0.000416159979, 0.000257627573, -0.000122912112, 0.00223835069, -0.02016637 , 1.909147    , 918.6203    , 30.6904755  , 819.4684    , 2.34        , 7           , 255         , 0           , 0
-0.190418154, -0.0336472169, -9.799284   , 0.0003479081, -0.000326558977, -0.0007686171, 0.00224198541, -0.0201696176, 1.90913928  , 918.6203    , 30.6904755  , 819.4684    , 2.35        , 7           , 255         , 0           , 0
-0.188415855, -0.0232358016, -9.799585   , 0.0002033714, 0.00017422362, -0.00022990632, 0.00224406552, -0.02016787 , 1.909137    , 918.6203    , 30.6904755  , 819.4684    , 2.36        , 7           , 255         , 0           , 0
-0.197359949, -0.0165521763, -9.799771   , 0.000202414216, -0.000446835533, -3.94926465E-05, 0.00224609929, -0.0201723389, 1.90913653  , 918.6203    , 30.6904755  , 819.4684    , 2.37        , 7           , 255         , 0           , 0
-0.191501752, -0.0230897218, -9.799688   , -0.000457266666, 8.204352E-05, -3.307867E-05, 0.002241533 , -0.0201715175, 1.90913618  , 918.6203    , 30.6904755  , 819.4684    , 2.38        , 7           , 255         , 0           , 0
-0.199463084, -0.0224603824, -9.801897   , -0.0006220626, -0.000203292555, -0.000245105475, 0.00223536254, -0.0201735459, 1.90913379  , 918.6203    , 30.6904755  , 819.4684    , 2.39        , 7           , 255         , 0           , 0
-0.205916077, -0.03067116 , -9.789486   , -0.0002815126, -0.000245999341, -2.884616E-05, 0.00223255437, -0.0201760065, 1.90913343  , 918.6203    , 30.6904755  , 819.4684    , 2.4         , 7           , 255         , 0           , 0
-0.193943352, -0.0217830688, -9.794607   , 0.000229659185, 0.00019114773, -0.000284967537, 0.00223808549, -0.0201720521, 1.90913045  , 918.6203    , 30.6904755  , 819.466736  , 2.41        , 7           , 255         , 0           , 0
-0.200884074, -0.0276333336, -9.791109   , -0.000180312, 3.3614866E-05, -0.0001277021, 0.002236309 , -0.0201717149, 1.90912926  , 918.6203    , 30.6904755  , 819.466736  , 2.42        , 7           , 255         , 0           , 0
-0.195065424, -0.0222401973, -9.789904   , -5.845551E-05, -5.70998236E-05, 0.00020997737, 0.00223568315, -0.02017229 , 1.90913129  , 918.633362  , 30.69129    , 819.466736  , 2.43        , 7           , 255         , 0           , 0
-0.199912578, -0.0147629483, -9.79441    , 0.000126173123, 6.491557E-05, 0.000335186254, 0.00223687734, -0.020171646, 1.90913463  , 918.633362  , 30.69129    , 819.466736  , 2.44        , 7           , 255         , 0           , 0
-0.198551029, -0.0256353021, -9.794417   , -0.000179364783, 8.385256E-05, 0.000260582368, 0.00223502913, -0.0201708153, 1.90913725  , 918.633362  , 30.69129    , 819.466736  , 2.45        , 7           , 255         , 0           , 0
-0.1921281  , -0.0172051173, -9.796385   , -4.404073E-05, -0.000267867552, 0.00052835606, 0.00223448244, -0.0201735068, 1.90914249  , 918.633362  , 30.69129    , 819.466736  , 2.46        , 7           , 255         , 0           , 0
-0.201650336, -0.016928073, -9.790936   , 0.000158433322, -2.52230675E-05, -0.000166185, 0.00223609945, -0.0201737545, 1.90914083  , 918.633362  , 30.69129    , 819.466736  , 2.47        , 7           , 255         , 0           , 0
-0.202012986, -0.0211168732, -9.7879715  , -3.8446422E-05, -0.000212136045, 0.000195193323, 0.002235676 , -0.02017588 , 1.90914273  , 918.633362  , 30.69129    , 819.466736  , 2.48        , 7           , 255         , 0           , 0
-0.2072175  , -0.0276063289, -9.789066   , -0.00015153503, -0.0004499792, 0.0004750422, 0.00223406358, -0.02018039 , 1.9091475   , 918.633362  , 30.69129    , 819.466736  , 2.49        , 7           , 255         , 0           , 0
-0.20639956 , -0.015026629, -9.78685    , 0.000153165267, 9.012158E-05, 0.000801305636, 0.00223543285, -0.0201795045, 1.90915561  , 918.633362  , 30.69129    , 819.466736  , 2.5         , 7           , 255         , 0           , 0
-0.1945246  , -0.0249699969, -9.782125   , 2.37217173E-05, -0.000347285939, 0.0006084448, 0.00223350688, -0.0201880913, 1.90916169  , 918.633362  , 30.69129    , 819.4476    , 2.51        , 7           , 255         , 0           , 0
-0.192346379, -0.0228393283, -9.795431   , -0.00043746733, -0.000158525741, 0.00031747797, 0.00222906843, -0.020189682, 1.90916491  , 918.633362  , 30.69129    , 819.447449  , 2.52        , 7           , 255         , 0           , 0
-0.194656551, -0.0308637135, -9.798953   , -0.000119250471, -0.000198086665, -0.000175970185, 0.00222791242, -0.020191662, 1.90916312  , 918.592957  , 30.6907463  , 819.4473    , 2.53        , 7           , 255         , 0           , 0
-0.195299909, -0.02079987 , -9.794285   , 0.000223115319, -0.000206822035, 6.9007845E-05, 0.002230129 , -0.0201937351, 1.90916383  , 918.592957  , 30.6907463  , 819.4472    , 2.54        , 7           , 255         , 0           , 0
-0.200888276, -0.01652115 , -9.798406   , 0.000231081591, 0.0001318524, -0.000429656357, 0.0022325255, -0.0201924015, 1.90915966  , 918.592957  , 30.6907463  , 819.4471    , 2.55        , 7           , 255         , 0           , 0
-0.197253659, -0.0210203212, -9.787611   , 7.449897E-05, 4.406576E-05, 9.923433E-05, 0.00223324937, -0.0201919675, 1.90916061  , 918.592957  , 30.6907463  , 819.44696   , 2.56        , 7           , 255         , 0           , 0
-0.203023717, -0.0159278028, -9.789907   , 4.77892754E-05, 0.0007124647, -0.000108679233, 0.002233748 , -0.0201848354, 1.90915966  , 918.592957  , 30.6907463  , 819.446838  , 2.57        , 7           , 255         , 0           , 0
-0.20204325 , -0.02309237 , -9.78552151 , 5.13535633E-05, 0.0005132159, -0.0003682564, 0.00223433576, -0.0201796945, 1.90915608  , 918.592957  , 30.6907463  , 819.4467    , 2.58        , 7           , 255         , 0           , 0
-0.196588427, -0.009626439, -9.787234   , 0.0005591079, 0.0002742344, -0.000485536468, 0.00224002521, -0.0201769453, 1.9091512   , 918.592957  , 30.6907463  , 819.4466    , 2.59        , 7           , 255         , 0           , 0
-0.20661974 , -0.0127836335, -9.792829   , 4.69131919E-05, 0.000202022027, -0.0003310191, 0.00224056235, -0.0201749187, 1.90914786  , 918.592957  , 30.6907463  , 819.4465    , 2.6         , 7           , 255         , 0           , 0
-0.2115138  , -0.0265304632, -9.78989    , -0.000163935154, 0.0004548981, -0.000523246068, 0.00223444053, -0.02017169 , 1.90914273  , 918.592957  , 30.6907463  , 819.4849    , 2.61        , 7           , 255         , 0           , 0
-0.206200838, -0.0297558662, -9.791731   , 0.000343044841, 0.000361281622, 1.7792001E-05, 0.00223786733, -0.0201680791, 1.90914273  , 918.592957  , 30.6907463  , 819.485046  , 2.62        , 7           , 255         , 0           , 0
-0.205289155, -0.01816152 , -9.789369   , 0.000268419739, 0.0002122132, -0.0007364826, 0.002240699 , -0.02016594 , 1.90913558  , 918.611     , 30.6929188  , 819.485168  , 2.63        , 7           , 255         , 0           , 0
-0.1958619  , -0.02142578 , -9.788637   , 0.000420383585, 0.00031971198, -5.90382551E-05, 0.002244914 , -0.02016274 , 1.909135    , 918.611     , 30.6929188  , 819.4853    , 2.64        , 7           , 255         , 0           , 0
-0.1887466  , -0.0199506581, -9.79746    , 0.000203863281, -0.0004285301, 0.0005478669, 0.00224684342, -0.02016704 , 1.90914035  , 918.611     , 30.6929188  , 819.4854    , 2.65        , 7           , 255         , 0           , 0
-0.19475919 , -0.02550168 , -9.794427   , 0.000533252256, -3.5920355E-05, -8.286646E-05, 0.002252192 , -0.0201673973, 1.90913951  , 918.611     , 30.6929188  , 819.485535  , 2.66        , 7           , 255         , 0           , 0
-0.1934965  , -0.029215524, -9.795589   , -6.495198E-05, 0.00024245627, -0.0002002771, 0.00225158269, -0.0201649666, 1.90913749  , 918.611     , 30.6929188  , 819.485657  , 2.67        , 7           , 255         , 0           , 0
-0.195239142, -0.0187416766, -9.791903   , -0.000124717015, 8.680823E-05, -0.0001815951, 0.002250372 , -0.0201640949, 1.9091357   , 918.611     , 30.6929188  , 819.4858    , 2.68        , 7           , 255         , 0           , 0
-0.2022382  , -0.0178290419, -9.795804   , 0.000111265879, 0.000169187551, -0.000425981, 0.00225156965, -0.0201623924, 1.90913153  , 918.611     , 30.6929188  , 819.4859    , 2.69        , 7           , 255         , 0           , 0
-0.207322642, -0.0252201967, -9.801122   , 0.000234020525, -0.0004261382, -0.0007726689, 0.00225406629, -0.0201666374, 1.90912366  , 918.611     , 30.6929188  , 819.486     , 2.7         , 7           , 255         , 0           , 0
-0.206330866, -0.03051787 , -9.791825   , -3.927719E-05, 3.757974E-05, 0.0001567426, 0.00225597876, -0.0201710854, 1.90912521  , 918.611     , 30.6929188  , 819.4949    , 2.71        , 7           , 255         , 0           , 0
-0.194309741, -0.0312827043, -9.794068   , 0.000412230263, 2.53903563E-05, 0.000370561378, 0.00226002722, -0.0201708358, 1.9091289   , 918.611     , 30.6929188  , 819.495056  , 2.72        , 7           , 255         , 0           , 0
-0.196778208, -0.019807972, -9.798107   , 0.000224390067, -0.000410408771, 0.0005379034, 0.00226216251, -0.0201749541, 1.90913427  , 918.577759  , 30.69224    , 819.4953    , 2.73        , 7           , 255         , 0           , 0
-0.199997053, -0.0100508584, -9.790163   , -0.000316324644, -0.000187047262, -8.146421E-05, 0.00225901487, -0.0201768223, 1.90913343  , 918.577759  , 30.69224    , 819.495544  , 2.74        , 7           , 255         , 0           , 0
-0.197528258, -0.0184254833, -9.792994   , -2.69824232E-05, -6.455934E-05, -0.000113308255, 0.00225876924, -0.0201774649, 1.90913224  , 918.577759  , 30.69224    , 819.4958    , 2.75        , 7           , 255         , 0           , 0
-0.20382604 , -0.01642501 , -9.783701   , 0.0003005621, 0.0001355618, 0.0005874394, 0.00226165657, -0.0201761257, 1.90913808  , 918.577759  , 30.69224    , 819.496033  , 2.76        , 7           , 255         , 0           , 0
-0.200690776, -0.0137067195, -9.793218   , 0.000452586537, -0.0005089131, 0.0006628906, 0.00226604985, -0.0201812256, 1.90914464  , 918.577759  , 30.69224    , 819.4963    , 2.77        , 7           , 255         , 0           , 0
-0.197553754, -0.0252200421, -9.796965   , -0.000537061249, -0.0004628455, -0.000120087374, 0.00226070243, -0.0201858543, 1.90914357  , 918.577759  , 30.69224    , 819.4965    , 2.78        , 7           , 255         , 0           , 0
-0.201524779, -0.0253038369, -9.794241   , 0.000484174758, -0.000331383577, -5.025239E-05, 0.00226555369, -0.0201891661, 1.90914309  , 918.577759  , 30.69224    , 819.496765  , 2.79        , 7           , 255         , 0           , 0
-0.204392388, -0.0120010413, -9.80151    , 0.00065805827, -0.000115559844, -0.00020955423, 0.00227217772, -0.0201903172, 1.909141    , 918.577759  , 30.69224    , 819.497     , 2.8         , 7           , 255         , 0           , 0
-0.206274867, -0.00995450653, -9.803228   , 0.0009256003, 9.987416E-05, -0.000713871443, 0.00227815378, -0.0201942176, 1.90913391  , 918.577759  , 30.69224    , 819.550537  , 2.81        , 7           , 255         , 0           , 0
-0.197832376, -0.0273732487, -9.789722   , 0.00103320729, -0.000159164774, -0.000239866626, 0.002288533 , -0.0201958027, 1.90913165  , 918.577759  , 30.69224    , 819.5511    , 2.82        , 7           , 255         , 0           , 0
-0.200662568, -0.0269097444, -9.799134   , 0.000431737979, 9.011233E-05, 0.000207797333, 0.00229280838, -0.0201949086, 1.90913367  , 918.604248  , 30.6923752  , 819.551636  , 2.83        , 7           , 255         , 0           , 0
-0.20384042 , -0.0252012517, -9.791039   , 0.000219501846, 8.978823E-05, 0.000104381557, 0.00229498348, -0.0201940127, 1.90913463  , 918.604248  , 30.6923752  , 819.5522    , 2.84        , 7           , 255         , 0           , 0
-0.202595279, -0.020814877, -9.790384   , -7.53345957E-05, -0.000299356645, 0.000230886915, 0.00229418161, -0.0201970115, 1.909137    , 918.604248  , 30.6923752  , 819.552734  , 2.85        , 7           , 255         , 0           , 0
-0.1983079  , -0.0182201453, -9.785001   , -6.39966747E-05, -8.53764941E-05, 0.000113925169, 0.00229351851, -0.0201978665, 1.90913808  , 918.604248  , 30.6923752  , 819.5533    , 2.86        , 7           , 255         , 0           , 0
-0.194305956, -0.0215471648, -9.783327   , -0.000259554334, 5.34360879E-05, 0.000368395937, 0.00229084888, -0.0201973412, 1.90914178  , 918.604248  , 30.6923752  , 819.5539    , 2.87        , 7           , 255         , 0           , 0
-0.197766468, -0.0161644313, -9.798729   , -0.0005542488, -0.000206919591, 0.000110270339, 0.00228528166, -0.0201994143, 1.90914309  , 918.604248  , 30.6923752  , 819.5545    , 2.88        , 7           , 255         , 0           , 0
-0.196349621, -0.0161295421, -9.797041   , -0.000268956559, 5.13112172E-06, 0.000121249468, 0.00228256825, -0.0201993641, 1.90914428  , 918.604248  , 30.6923752  , 819.5551    , 2.89        , 7           , 255         , 0           , 0
-0.20389156 , -0.0211387165, -9.795992   , 0.0003002372, 0.000470025 , -0.0008709998, 0.00228574616, -0.0201946478, 1.90913558  , 918.604248  , 30.6923752  , 819.5557    , 2.9         , 7           , 255         , 0           , 0
-0.201995492, -0.0229022056, -9.796261   , 0.0002771462, 0.0004342546, -1.07711094E-05, 0.00228457083, -0.0201947037, 1.90913546  , 918.604248  , 30.6923752  , 819.564453  , 2.91        , 7           , 255         , 0           , 0
-0.1898586  , -0.02158958 , -9.796419   , 0.0005229131, 0.000240968773, 0.0005445303, 0.00228969031, -0.0201923065, 1.909141    , 918.604248  , 30.6923752  , 819.5651    , 2.92        , 7           , 255         , 0           , 0
-0.195660159, -0.0225912444, -9.782415   , 0.000355977158, 0.000366825785, 0.0002678294, 0.002293196 , -0.0201886389, 1.90914369  , 918.612854  , 30.69129    , 819.5658    , 2.93        , 7           , 255         , 0           , 0
-0.1979922  , -0.01974577 , -9.79292    , -9.161045E-05, 7.932697E-05, 0.000383457053, 0.00229220185, -0.0201878548, 1.9091475   , 918.612854  , 30.69129    , 819.566467  , 2.94        , 7           , 255         , 0           , 0
-0.193764687, -0.0191914272, -9.789547   , -0.000467542472, 0.0003893582, 0.000163348348, 0.002287492 , -0.0201839656, 1.90914917  , 918.612854  , 30.69129    , 819.567139  , 2.95        , 7           , 255         , 0           , 0
-0.195340544, -0.02774348 , -9.789357   , -0.00044428985, 0.000140854449, 0.0002515508, 0.002282998 , -0.020182563, 1.90915167  , 918.612854  , 30.69129    , 819.5678    , 2.96        , 7           , 255         , 0           , 0
-0.198458523, -0.0282149613, -9.787511   , -0.0006653244, 0.00036875403, 0.000199856513, 0.00227630464, -0.0201788861, 1.90915382  , 918.612854  , 30.69129    , 819.5685    , 2.97        , 7           , 255         , 0           , 0
-0.185524315, -0.0225148778, -9.787717   , -0.000345745735, 5.338638E-05, -4.259264E-05, 0.00227285363, -0.020178346, 1.90915346  , 918.612854  , 30.69129    , 819.569153  , 2.98        , 7           , 255         , 0           , 0
-0.196950957, -0.0239603166, -9.785982   , -0.0007632453, -0.000143641548, -0.0005540933, 0.00226533529, -0.020179769, 1.90914786  , 918.612854  , 30.69129    , 819.5698    , 2.99        , 7           , 255         , 0           , 0
-0.200322345, -0.0286396854, -9.789625   , -0.000248880446, -0.000103121332, -0.0007865215, 0.00226300536, -0.020180786, 1.90914     , 918.612854  , 30.69129    , 819.5705    , 3           , 7           , 0           , 8.493237    , 300
-0.198410064, -0.0246411748, -9.78984451 , 0.000186791149, 0.0001050405, -0.000290843251, 0.0022680487, -0.02017481 , 1.909137    , 918.612854  , 30.69129    , 819.564758  , 3.01        , 7           , 1           , 0           , 0
-0.186655432, -0.02718201 , -9.787409   , 0.000202728 , 0.000202240655, -0.000237495566, 0.00227012276, -0.0201727822, 1.90913463  , 918.612854  , 30.69129    , 819.565369  , 3.02        , 7           , 2           , 0           , 0
-0.189115956, -0.0198787432, -9.796473   , -1.92063744E-05, 0.000204732467, 0.000475413341, 0.002269834 , -0.0201707426, 1.90913951  , 918.598938  , 30.6921711  , 819.566     , 3.03        , 7           , 3           , 0           , 0
-0.190878987, -0.0221656077, -9.788205   , 0.000416609459, -0.000177872193, -0.000260283239, 0.00227405317, -0.020172514, 1.90913677  , 918.598938  , 30.6921711  , 819.5666    , 3.04        , 7           , 4           , 0           , 0
-0.197309658, -0.02559354 , -9.796038   , 0.000517205859, -0.000311973534, 1.99976057E-05, 0.00227922224, -0.0201756377, 1.909137    , 918.598938  , 30.6921711  , 819.5672    , 3.05        , 7           , 5           , 0           , 0
-0.192192018, -0.0287712626, -9.794161   , 0.000553056132, 3.36187077E-05, -0.000129094784, 0.00228477875, -0.020175295, 1.90913558  , 918.598938  , 30.6921711  , 819.5678    , 3.06        , 7           , 6           , 0           , 0
-0.189828634, -0.033007808, -9.793785   , 6.066318E-05, 0.000434177637, 5.97376929E-05, 0.00228537247, -0.0201709569, 1.9091363   , 918.598938  , 30.6921711  , 819.5684    , 3.07        , 7           , 7           , 0           , 0
-0.1977182  , -0.0253155436, -9.795831   , 0.000259573 , -8.300805E-05, 0.0003601039, 0.00228789425, -0.0201717913, 1.90913987  , 918.598938  , 30.6921711  , 819.569031  , 3.08        , 7           , 8           , 5           , 5
-0.199428111, -0.0333389044, -9.782093   , 0.000465402874, 5.658582E-05, 4.5525594E-05, 0.00229254086, -0.0201712269, 1.90914035  , 918.598938  , 30.6921711  , 819.569641  , 3.09        , 7           , 9           , 5           , 0.1
-0.1905042  , -0.0279092547, -9.787976   , 0.00012834571, -0.000259109947, 0.000444434525, 0.00229373621, -0.020173829, 1.90914464  , 918.598938  , 30.6921711  , 819.570251  , 3.1         , 7           , 10          , 0.1         , 0.1
-0.200215459, -0.0245133061, -9.798312   , -9.520809E-05, -0.000301670079, -0.00021882671, 0.00230225082, -0.02016769 , 1.90914226  , 918.598938  , 30.6921711  , 819.5844    , 3.11        , 7           , 11          , 0.00741049228, 0.007410495
-0.188093036, -0.0212718453, -9.796478   , 4.6143803E-05, -0.000193089538, -0.000494709529, 0.00230281265, -0.02016961 , 1.90913725  , 918.598938  , 30.6921711  , 819.585144  , 3.12        , 7           , 12          , 0.034656994 , 0
-0.2016278  , -0.0257943533, -9.79088    , 0.0002968029, -6.82006357E-05, 0.0004391281, 0.00230569276, -0.0201703012, 1.90914154  , 918.634766  , 30.6937313  , 819.5859    , 3.13        , 7           , 13          , 0           , 0
-0.198411345, -0.0211495087, -9.797288   , 0.000643459265, -7.979243E-05, 0.0002870694, 0.002312069 , -0.0201711059, 1.9091444   , 918.634766  , 30.6937313  , 819.5866    , 3.14        , 7           , 14          , -0.0003279752, 0.00049539085
-0.196534514, -0.0195519682, -9.804759   , -5.92211436E-05, -0.000210538041, 0.000101523008, 0.00231145439, -0.0201732125, 1.90914547  , 918.634766  , 30.6937313  , 819.587341  , 3.15        , 7           , 15          , 0           , 0.0002055821
-0.200794891, -0.0211640019, -9.791504   , -0.0006190288, -5.464186E-06, -0.000174096916, 0.00230529974, -0.0201732628, 1.90914381  , 918.634766  , 30.6937313  , 819.5881    , 3.16        , 7           , 16          , 0           , 1.401298E-45
-0.204268247, -0.0123276571, -9.796457   , 0.000229661338, 0.000290331081, -3.42571875E-05, 0.00230760244, -0.0201703589, 1.90914357  , 918.634766  , 30.6937313  , 819.5888    , 3.17        , 7           , 20          , 0           , 0
-0.207431465, -0.0273382459, -9.792856   , 0.000237723376, -0.000106479187, 0.00028749535, 0.002309922 , -0.0201714281, 1.90914643  , 918.634766  , 30.6937313  , 819.589539  , 3.18        , 7           , 21          , 0           , 0
-0.199761465, -0.01447017 , -9.800913   , 1.71519641E-05, 9.93680442E-05, -0.0005207986, 0.00231019943, -0.0201704241, 1.90914118  , 918.634766  , 30.6937313  , 819.5903    , 3.19        , 7           , 22          , 0           , 0
-0.201504424, -0.0297832824, -9.794289   , 0.000322529551, 0.0004268405, 0.0004992201, 0.00231332285, -0.0201661661, 1.90914619  , 918.634766  , 30.6937313  , 819.591     , 3.2         , 7           , 40          , 0           , 0
-0.203835517, -0.0196313  , -9.788092   , 0.000274764752, 4.04499E-05 , 0.000340273575, 0.00231466978, -0.0201690178, 1.90914953  , 918.634766  , 30.6937313  , 819.551     , 3.21        , 7           , 41          , 0           , 0
-0.190914   , -0.02101552 , -9.787126   , 0.000201412739, 0.000204821292, -7.469901E-05, 0.00231669936, -0.0201669689, 1.90914881  , 918.634766  , 30.6937313  , 819.5515    , 3.22        , 7           , 42          , 1           , 0
-0.198163152, -0.0145030813, -9.793485   , -0.000351548428, 0.00010844908, -2.497631E-05, 0.00231318781, -0.0201658811, 1.90914869  , 918.613647  , 30.6942749  , 819.552     , 3.23        , 7           , 255         , 0           , 0
-0.192590147, -0.02445424 , -9.796567   , -0.000141650438, 3.79679841E-05, 6.784563E-05, 0.00231175823, -0.0201655086, 1.90914941  , 918.613647  , 30.6942749  , 819.5525    , 3.24        , 7           , 255         , 0           , 0
-0.1977498  , -0.0323624127, -9.794786   , 2.84950947E-05, 0.0002446485, 0.0005234098, 0.00231193542, -0.0201630685, 1.90915477  , 918.613647  , 30.6942749  , 819.553     , 3.25        , 7           , 255         , 0           , 0
-0.207691938, -0.0216154512, -9.791971   , 0.0004601065, 8.87402E-05 , -0.0004363843, 0.002316624 , -0.02016217 , 1.90915036  , 918.613647  , 30.6942749  , 819.553467  , 3.26        , 7           , 255         , 0           , 0
-0.203957155, -0.0176717639, -9.79184151 , -0.0002675529, -0.000162436481, -0.000539430068, 0.00231405837, -0.0201637857, 1.909145    , 918.613647  , 30.6942749  , 819.553955  , 3.27        , 7           , 255         , 0           , 0
-0.200490072, -0.02362532 , -9.79645252 , 9.883303E-05, 1.32145942E-05, 0.000659006764, 0.00231491448, -0.02016367 , 1.90915155  , 918.613647  , 30.6942749  , 819.554443  , 3.28        , 7           , 255         , 0           , 0
-0.207751349, -0.03069826 , -9.795018   , -1.6013626E-05, 0.000106257445, 0.000307267153, 0.00231469073, -0.02016261 , 1.90915465  , 918.613647  , 30.6942749  , 819.554932  , 3.29        , 7           , 255         , 0           , 0
-0.197588235, -0.0225839578, -9.795417   , -0.00028500153, 2.37562344E-05, 3.46137822E-05, 0.0023118346, -0.0201623756, 1.909155    , 918.613647  , 30.6942749  , 819.5554    , 3.3         , 7           , 255         , 0           , 0
-0.200444192, -0.03008021 , -9.79405    , 0.0001192441, -0.000164208788, 9.667837E-05, 0.002313317 , -0.0201685578, 1.909156    , 918.613647  , 30.6942749  , 819.550354  , 3.31        , 7           , 255         , 0           , 0
-0.191973954, -0.0218919776, -9.794983   , 0.0005120397, 0.000222907227, -0.000305163616, 0.002318497 , -0.0201663226, 1.909153    , 918.613647  , 30.6942749  , 819.550842  , 3.32        , 7           , 255         , 0           , 0
-0.201080829, -0.020932585, -9.78682    , 0.000124211918, 0.000115660368, 0.000263201015, 0.00231968518, -0.0201651677, 1.90915561  , 918.6148    , 30.6919     , 819.551331  , 3.33        , 7           , 255         , 0           , 0
-0.1866157  , -0.0222815014, -9.793047   , -0.0005536624, 0.000102943566, 0.000393938681, 0.00231406838, -0.0201641526, 1.90915966  , 918.6148    , 30.6919     , 819.5518    , 3.34        , 7           , 255         , 0           , 0
-0.196908683, -0.02116159 , -9.7909565  , -0.000143139041, 7.726345E-05, -0.000284061069, 0.002312695 , -0.0201633666, 1.90915692  , 918.6148    , 30.6919     , 819.5523    , 3.35        , 7           , 255         , 0           , 0
-0.205068752, -0.0250735618, -9.799174   , 0.000221390481, -1.841769E-05, 0.00011717646, 0.00231488585, -0.0201635547, 1.909158    , 918.6148    , 30.6919     , 819.5528    , 3.36        , 7           , 255         , 0           , 0
-0.2007742  , -0.01908477 , -9.790292   , 0.0002560421, 0.000491015962, -7.1908E-06 , 0.00231744559, -0.0201586485, 1.909158    , 918.6148    , 30.6919     , 819.5533    , 3.37        , 7           , 255         , 0           , 0
-0.192308411, -0.0238805  , -9.795284   , 4.319183E-06, 0.000212919607, 7.50702748E-06, 0.00231748517, -0.0201565158, 1.90915823  , 918.6148    , 30.6919     , 819.5538    , 3.38        , 7           , 255         , 0           , 0
-0.200368434, -0.0243611149, -9.800021   , 0.000142580611, 0.000474181783, 0.000170354571, 0.00231887656, -0.0201517791, 1.90916014  , 918.6148    , 30.6919     , 819.55426   , 3.39        , 7           , 255         , 0           , 0
-0.210476279, -0.0275882483, -9.798981   , -0.000122100231, 0.000174622342, -0.00100603944, 0.00231785723, -0.02015001 , 1.90915012  , 918.6148    , 30.6919     , 819.554749  , 3.4         , 7           , 255         , 0           , 0
-0.211411908, -0.0210965555, -9.792852   , 5.736269E-05, 7.023872E-05, -0.000416045223, 0.0023200768, -0.02015103 , 1.90914607  , 918.6148    , 30.6919     , 819.5481    , 3.41        , 7           , 255         , 0           , 0
-0.204896286, -0.0221421383, -9.796568   , 0.0002484095, -0.000437404233, 2.89777672E-05, 0.002322556 , -0.0201554038, 1.90914631  , 918.6148    , 30.6919     , 819.5485    , 3.42        , 7           , 255         , 0           , 0
-0.201062888, -0.018646609, -9.786686   , 0.00048407857, 6.177765E-05, -1.89066486E-05, 0.00232739933, -0.0201547835, 1.90914607  , 918.6743    , 30.69597    , 819.54895   , 3.43        , 7           , 255         , 0           , 0
-0.203732446, -0.0149416309, -9.790703   , 0.000187892059, -0.000482843927, -0.0002292364, 0.002329324 , -0.0201596059, 1.90914369  , 918.6743    , 30.69597    , 819.5494    , 3.44        , 7           , 255         , 0           , 0
-0.2127339  , -0.0242333673, -9.786779   , -9.703971E-05, -0.000285403832, -0.0007130494, 0.00232849875, -0.0201624427, 1.90913653  , 918.6743    , 30.69597    , 819.5498    , 3.45        , 7           , 255         , 0           , 0
-0.2029018  , -0.0177441277, -9.801061   , 0.000612652046, 4.54380061E-05, -0.000967716333, 0.002334819 , -0.0201619659, 1.90912688  , 918.6743    , 30.69597    , 819.550232  , 3.46        , 7           , 255         , 0           , 0
-0.198398232, -0.0290761031, -9.793347   , 0.0001627441, 1.65805686E-05, -0.00125476788, 0.00233669882, -0.0201617684, 1.90911436  , 918.6743    , 30.69597    , 819.550659  , 3.47        , 7           , 255         , 0           , 0
-0.203285784, -0.0217979178, -9.791666   , -0.0003280979, -0.000118395459, -0.0007940602, 0.002333579 , -0.0201629382, 1.90910649  , 918.6743    , 30.69597    , 819.5511    , 3.48        , 7           , 255         , 0           , 0
-0.202221826, -0.021914836, -9.797411   , -9.37148E-05, -4.7022826E-05, -0.000507908757, 0.00233274279, -0.0201633926, 1.90910137  , 918.6743    , 30.69597    , 819.5515    , 3.49        , 7           , 255         , 0           , 0
-0.20256111 , -0.0229330268, -9.799493   , 9.114519E-05, 0.000706847059, 7.631461E-05, 0.00233363872, -0.0201563258, 1.90910208  , 918.6743    , 30.69597    , 819.551941  , 3.5         , 7           , 255         , 0           , 0
-0.1990206  , -0.0273755342, -9.789162   , 6.492142E-05, 0.0005026367, 0.000118345371, 0.002332047 , -0.0201624855, 1.90910339  , 918.6743    , 30.69597    , 819.4613    , 3.51        , 7           , 255         , 0           , 0
-0.197012946, -0.0193444584, -9.780174   , -0.000103513157, 0.000713426 , -0.0009722563, 0.0023312082, -0.0201553311, 1.90909362  , 918.6743    , 30.69597    , 819.4612    , 3.52        , 7           , 255         , 0           , 0
-0.196755677, -0.0190309566, -9.796378   , 7.9579564E-05, 0.0006351426, -0.000564949354, 0.002332118 , -0.0201489683, 1.9090879   , 918.642639  , 30.6940041  , 819.46106   , 3.53        , 7           , 255         , 0           , 0
-0.201970458, -0.02145587 , -9.78587151 , 0.00057965226, 0.000177878886, -0.0002789218, 0.0023379717, -0.0201471839, 1.90908527  , 918.642639  , 30.6940041  , 819.460938  , 3.54        , 7           , 255         , 0           , 0
-0.2020971  , -0.0297273342, -9.785888   , -0.000219648442, 0.0002766124, 0.000158300856, 0.00233574165, -0.02014442 , 1.909087    , 918.642639  , 30.6940041  , 819.4608    , 3.55        , 7           , 255         , 0           , 0
-0.19334659 , -0.02438549 , -9.794261   , -0.000312410441, -0.000132542948, -0.000390031375, 0.00233269646, -0.0201457385, 1.90908289  , 918.642639  , 30.6940041  , 819.4607    , 3.56        , 7           , 255         , 0           , 0
-0.2012913  , -0.02635571 , -9.79772    , 3.54352524E-05, 0.0005107085, -0.0003986913, 0.00233313045, -0.0201406218, 1.90907907  , 918.642639  , 30.6940041  , 819.4606    , 3.57        , 7           , 255         , 0           , 0
-0.200444147, -0.0276673548, -9.801143   , -9.158772E-06, 0.000164499856, -0.00116076716, 0.00233327178, -0.020138951, 1.90906751  , 918.642639  , 30.6940041  , 819.460449  , 3.58        , 7           , 255         , 0           , 0
-0.200564235, -0.0251093917, -9.789116   , -0.00030369396, 0.000295444974, -0.00103912246, 0.00233044219, -0.0201359745, 1.90905738  , 918.642639  , 30.6940041  , 819.4603    , 3.59        , 7           , 255         , 0           , 0
-0.1903785  , -0.0258269012, -9.796927   , -0.000565686263, 0.000109094137, -0.000651320443, 0.00232491782, -0.0201348625, 1.90905082  , 918.642639  , 30.6940041  , 819.4602    , 3.6         , 7           , 255         , 0           , 0
-0.188949347, -0.0221794061, -9.789622   , -0.000150313077, 9.785645E-05, -0.0005709758, 0.00232678838, -0.0201357417, 1.909045    , 918.642639  , 30.6940041  , 819.427734  , 3.61        , 7           , 255         , 0           , 0
-0.184639573, -0.0282304548, -9.791727   , 1.9260915E-07, 6.42022351E-05, 0.0004319468, 0.002326704 , -0.0201351158, 1.90904939  , 918.642639  , 30.6940041  , 819.4274    , 3.62        , 7           , 255         , 0           , 0
-0.18818295 , -0.0300631337, -9.796776   , 0.0002391618, 0.0003546048, -0.000451156666, 0.00232918584, -0.0201315563, 1.909045    , 918.6056    , 30.6939354  , 819.4271    , 3.63        , 7           , 255         , 0           , 0
-0.193859458, -0.0294278264, -9.792059   , 0.0002103202, 0.0003197668, 0.000216419779, 0.00233124639, -0.0201283637, 1.90904713  , 918.6056    , 30.6939354  , 819.4268    , 3.64        , 7           , 255         , 0           , 0
-0.197067082, -0.0335811749, -9.789515   , 0.000466278463, -0.000155493733, 0.000327610731, 0.0023358434, -0.0201299265, 1.90905035  , 918.6056    , 30.6939354  , 819.4265    , 3.65        , 7           , 255         , 0           , 0
-0.180910125, -0.0259729978, -9.794054   , -0.000247040647, -0.000293585355, 0.000347026653, 0.002333302 , -0.0201328676, 1.9090538   , 918.6056    , 30.6939354  , 819.4262    , 3.66        , 7           , 255         , 0           , 0
-0.201314688, -0.0229487848, -9.791544   , -9.426195E-05, -7.04615959E-05, -3.125664E-05, 0.002332368 , -0.0201335736, 1.90905356  , 918.6056    , 30.6939354  , 819.4259    , 3.67        , 7           , 255         , 0           , 0
-0.203793481, -0.0287213624, -9.787684   , -0.000273870653, -0.000169203209, -0.000257174252, 0.0023296806, -0.0201352574, 1.909051    , 918.6056    , 30.6939354  , 819.4256    , 3.68        , 7           , 255         , 0           , 0
-0.198560745, -0.0261606332, -9.78338051 , 9.48275847E-05, -0.000225670548, -0.00029276032, 0.00233068853, -0.02013751 , 1.909048    , 918.6056    , 30.6939354  , 819.4253    , 3.69        , 7           , 255         , 0           , 0
-0.1979156  , -0.0182797872, -9.791746   , 0.0005614838, -0.000559709035, 0.000742956065, 0.00233615423, -0.02014312 , 1.90905547  , 918.6056    , 30.6939354  , 819.425     , 3.7         , 7           , 255         , 0           , 0
-0.19469139 , -0.0143662412, -9.795148   , 0.0004453822, 0.000330904615, 3.99060955E-05, 0.00234788726, -0.02013275 , 1.90905583  , 918.6056    , 30.6939354  , 819.450256  , 3.71        , 7           , 255         , 0           , 0
-0.194368571, -0.0218412019, -9.793676   , -0.0003849518, -0.000102287013, 0.000400616933, 0.002343958 , -0.0201337785, 1.90905988  , 918.6056    , 30.6939354  , 819.450134  , 3.72        , 7           , 255         , 0           , 0
-0.196210116, -0.0241643  , -9.794624   , -0.00052552775, 0.0001926818, 0.000133975525, 0.00233867625, -0.0201318562, 1.90906119  , 918.6623    , 30.6957     , 819.45      , 3.73        , 7           , 255         , 0           , 0
-0.200616553, -0.02688015 , -9.79554749 , -0.000517699169, 0.000281405 , -0.0004720484, 0.00233359216, -0.0201290343, 1.90905666  , 918.6623    , 30.6957     , 819.4499    , 3.74        , 7           , 255         , 0           , 0
-0.2087781  , -0.0212167427, -9.787638   , 0.000345739973, -0.000226503093, -0.000239164132, 0.002337098 , -0.0201312937, 1.90905416  , 918.6623    , 30.6957     , 819.449768  , 3.75        , 7           , 255         , 0           , 0
-0.199176341, -0.0179864429, -9.790386   , 0.000395506155, -0.000402957259, -9.998773E-05, 0.002341073 , -0.0201353151, 1.90905309  , 918.6623    , 30.6957     , 819.449646  , 3.76        , 7           , 255         , 0           , 0
-0.21262762 , -0.0217786934, -9.79601    , 0.000297333841, 0.000131181849, -3.21157859E-05, 0.00234405277, -0.0201340057, 1.90905285  , 918.6623    , 30.6957     , 819.4495    , 3.77        , 7           , 255         , 0           , 0
-0.2050674  , -0.0250747446, -9.798617   , -0.0002535855, -0.000148458319, 0.000793366344, 0.00234135636, -0.0201355051, 1.90906072  , 918.6623    , 30.6957     , 819.4494    , 3.78        , 7           , 255         , 0           , 0
-0.205684334, -0.0170268957, -9.798655   , 0.000127360661, -0.000259688473, 0.000478983129, 0.00234253379, -0.0201381147, 1.90906549  , 918.6623    , 30.6957     , 819.4493    , 3.79        , 7           , 255         , 0           , 0
-0.1908811  , -0.0189545061, -9.803564   , 0.000489968632, 4.8244663E-05, -0.000503792951, 0.002347534 , -0.0201376211, 1.90906048  , 918.6623    , 30.6957     , 819.449158  , 3.8         , 7           , 255         , 0           , 0
-0.2017807  , -0.01417806 , -9.790558   , -8.036179E-06, 0.000153665489, -0.0005002328, 0.00234480668, -0.0201411378, 1.90905559  , 918.6623    , 30.6957     , 819.390442  , 3.81        , 7           , 255         , 0           , 0
-0.206610009, -0.0150614083, -9.796809   , -0.0001533333, 0.000163348683, -0.0006019578, 0.00234339363, -0.0201394912, 1.90904951  , 918.6623    , 30.6957     , 819.389954  , 3.82        , 7           , 255         , 0           , 0
-0.192192927, -0.0129584447, -9.791787   , -0.000289732154, -0.000504513446, 0.000126725135, 0.00234046974, -0.020144539, 1.90905082  , 918.643433  , 30.6957     , 819.389465  , 3.83        , 7           , 255         , 0           , 0
-0.198010653, -0.018315237, -9.792601   , -6.311055E-05, -0.000300960266, 0.000389565655, 0.00233975938, -0.0201475583, 1.90905488  , 918.643433  , 30.6957     , 819.389     , 3.84        , 7           , 255         , 0           , 0
-0.202989265, -0.0212022979, -9.791925   , -7.56190275E-06, 0.000187269878, -0.000304034358, 0.00233974587, -0.02014568 , 1.90905178  , 918.643433  , 30.6957     , 819.3885    , 3.85        , 7           , 255         , 0           , 0
-0.199269712, -0.0214581527, -9.783629   , -7.771261E-05, 0.0002652589, 0.0007735892, 0.00233881362, -0.0201430451, 1.90905952  , 918.643433  , 30.6957     , 819.388     , 3.86        , 7           , 255         , 0           , 0
-0.202742726, -0.0255541448, -9.790691   , -0.000322588632, 0.000254163751, 6.235896E-05, 0.00233557448, -0.0201405045, 1.90906024  , 918.643433  , 30.6957     , 819.3875    , 3.87        , 7           , 255         , 0           , 0
-0.198466569, -0.0117642544, -9.787924   , 0.000306146248, 7.117132E-05, -0.0002699217, 0.00233868835, -0.0201397873, 1.9090575   , 918.643433  , 30.6957     , 819.387     , 3.88        , 7           , 255         , 0           , 0
-0.201826125, -0.0201911069, -9.794937   , -0.00014531755, -4.80071758E-05, -0.000728034938, 0.00233738264, -0.02014025 , 1.90905023  , 918.643433  , 30.6957     , 819.386536  , 3.89        , 7           , 255         , 0           , 0
-0.200456768, -0.0134769771, -9.796264   , 8.814169E-05, -0.0006275213, -0.000244466326, 0.00233831187, -0.0201465152, 1.90904784  , 918.643433  , 30.6957     , 819.386047  , 3.9         , 7           , 255         , 0           , 0
-0.1985188  , -0.023271285, -9.79601    , -0.000115443574, 0.000155405025, 0.0004825075, 0.002327348 , -0.02015052 , 1.90905285  , 918.643433  , 30.6957     , 819.363159  , 3.91        , 7           , 255         , 0           , 0
-0.202865437, -0.02112246 , -9.794454   , -0.0003121066, 0.000173702487, 0.0007392268, 0.00232407777, -0.0201488063, 1.90906036  , 918.643433  , 30.6957     , 819.362549  , 3.92        , 7           , 255         , 0           , 0
-0.192598388, -0.0278473888, -9.800494   , -0.000115069211, 3.908982E-05, -0.0003292117, 0.00232299371, -0.0201484058, 1.90905714  , 918.639     , 30.6938     , 819.361938  , 3.93        , 7           , 255         , 0           , 0
-0.203452617, -0.0176761728, -9.798289   , 0.000482638279, -0.000373278017, -0.000672179565, 0.002327958 , -0.0201521218, 1.90905035  , 918.639     , 30.6938     , 819.3613    , 3.94        , 7           , 255         , 0           , 0
-0.18826206 , -0.0185949169, -9.796714   , 0.000118094729, -0.000467736, -0.000182299511, 0.00232917583, -0.0201567952, 1.90904844  , 918.639     , 30.6938     , 819.3607    , 3.95        , 7           , 255         , 0           , 0
-0.1971267  , -0.0193477981, -9.796137   , -1.98669441E-05, -0.000127566018, -0.000333547068, 0.00232904428, -0.0201580636, 1.9090451   , 918.639     , 30.6938     , 819.3601    , 3.96        , 7           , 255         , 0           , 0
-0.197528765, -0.017870212, -9.800628   , -0.000271071884, -0.0002757561, 0.000149138737, 0.00232630386, -0.0201608241, 1.90904653  , 918.639     , 30.6938     , 819.3595    , 3.97        , 7           , 255         , 0           , 0
-0.195776075, -0.0226459038, -9.791724   , -0.000335451361, 0.000129531778, 8.452861E-05, 0.00232293271, -0.0201595314, 1.90904748  , 918.639     , 30.6938     , 819.3589    , 3.98        , 7           , 255         , 0           , 0
-0.209415108, -0.024278786, -9.790207   , 0.00104874664, 5.30545367E-05, 0.000609388459, 0.0023332967, -0.0201590154, 1.9090538   , 918.639     , 30.6938     , 819.3583    , 3.99        , 7           , 255         , 0           , 0
-0.195328757, -0.0279817283, -9.799688   , 0.000361575454, 0.000107064552, 0.000325005938, 0.002336846 , -0.02015795 , 1.9090569   , 918.639     , 30.6938     , 819.357666  , 4           , 7           , 0           , 9.493237    , 400
-0.192535013, -0.0306941327, -9.790374   , 0.0005296484, 6.517739E-05, 0.0008412779, 0.00234100036, -0.0201581083, 1.90906549  , 918.639     , 30.6938     , 819.3452    , 4.01        , 7           , 1           , 0           , 0
-0.2057772  , -0.0297149811, -9.793294   , -0.0003287248, -2.687893E-05, -7.312556E-05, 0.00233772886, -0.0201583765, 1.90906465  , 918.639     , 30.6938     , 819.344543  , 4.02        , 7           , 2           , 0           , 0
-0.193363011, -0.0185344927, -9.792372   , 0.0002380364, -7.023098E-05, -0.0005030213, 0.00234021037, -0.0201590676, 1.90905976  , 918.6232    , 30.69285    , 819.3439    , 4.03        , 7           , 3           , 0           , 0
-0.196006864, -0.0280066524, -9.78825951 , 0.0004058691, -0.000133894559, -8.9830035E-05, 0.0023442877, -0.020160405, 1.90905881  , 918.6232    , 30.69285    , 819.3432    , 4.04        , 7           , 4           , 0           , 0
-0.1877804  , -0.0259298  , -9.79112    , 0.000654281932, -9.941001E-05, 0.000163483783, 0.00235079625, -0.0201613978, 1.90906036  , 918.6232    , 30.69285    , 819.3425    , 4.05        , 7           , 5           , 0           , 0
-0.19061473 , -0.0233419929, -9.794302   , 5.64989459E-05, -0.0005350591, -0.0001699872, 0.00235139579, -0.0201667435, 1.90905857  , 918.6232    , 30.69285    , 819.341858  , 4.06        , 7           , 6           , 0           , 0
-0.193188474, -0.03293789 , -9.784412   , 8.14195955E-05, -0.000189693325, -0.000931008835, 0.00235239766, -0.02016862 , 1.90904927  , 918.6232    , 30.69285    , 819.3412    , 4.07        , 7           , 7           , 0           , 0
-0.199721351, -0.0262687467, -9.79422951 , 0.000431038381, -0.000136590155, -0.0008247749, 0.002356875 , -0.0201699641, 1.90904093  , 918.6232    , 30.69285    , 819.3405    , 4.08        , 7           , 8           , 5           , 5
-0.201414078, -0.0341287926, -9.7961     , 0.000136151735, 0.000102154387, -0.00058651244, 0.002358353 , -0.0201689266, 1.90903521  , 918.6232    , 30.69285    , 819.339844  , 4.09        , 7           , 9           , 5           , 0.1
-0.202830955, -0.0292186551, -9.789416   , -0.000113954215, -0.0002830783, -0.000183654935, 0.00235725124, -0.0201717541, 1.9090333   , 918.6232    , 30.69285    , 819.3392    , 4.1         , 7           , 10          , 0.1         , 0.1
-0.199740082, -0.0202273987, -9.785707   , -0.000150208856, 0.0003018675, 0.000208604237, 0.002364354 , -0.0201667771, 1.90903521  , 918.6232    , 30.69285    , 819.352     , 4.11        , 7           , 11          , 0.006860261 , 0.006860264
-0.201583117, -0.0231463425, -9.794907   , -4.71277453E-05, 0.000633348653, 0.0004066813, 0.002363799 , -0.0201604553, 1.90903938  , 918.6232    , 30.69285    , 819.35144   , 4.12        , 7           , 12          , 0.0346693471, 0
-0.2030147  , -0.0278296918, -9.795842   , 8.90205E-05 , 0.000310092641, 7.24904239E-05, 0.002364674 , -0.020157354, 1.90904009  , 918.649353  , 30.691494   , 819.3509    , 4.13        , 7           , 13          , 0           , 0
-0.197559074, -0.0308985412, -9.792573   , 8.250409E-05, 0.0002345664, 3.378917E-05, 0.00236549159, -0.0201550089, 1.90904045  , 918.649353  , 30.691494   , 819.350342  , 4.14        , 7           , 14          , -0.0003280037, 0.0004955354
-0.196874171, -0.0233146045, -9.79241    , 0.0003675815, 0.0003148071, -0.000536825857, 0.00236927625, -0.020151848, 1.909035    , 918.649353  , 30.691494   , 819.3498    , 4.15        , 7           , 15          , 0           , 0.000205582386
-0.200386092, -0.02696065 , -9.792557   , -0.0001987342, -3.809214E-05, -0.000246613374, 0.0023673377, -0.0201522224, 1.90903258  , 918.649353  , 30.691494   , 819.349243  , 4.16        , 7           , 16          , 0           , 1.401298E-45
-0.205226138, -0.019932868, -9.786734   , 4.36885748E-05, 0.0004346373, 5.155735E-05, 0.002367765 , -0.0201478787, 1.9090333   , 918.649353  , 30.691494   , 819.3487    , 4.17        , 7           , 20          , 0           , 0
-0.192908332, -0.02190454 , -9.789482   , 0.000101994956, 0.000160908268, 6.357464E-05, 0.002368771 , -0.0201462712, 1.90903378  , 918.649353  , 30.691494   , 819.348145  , 4.18        , 7           , 21          , 0           , 0
-0.201768085, -0.0201532673, -9.786482   , 0.000366598048, -0.000322622247, 0.000107992411, 0.00237241527, -0.0201494973, 1.90903473  , 918.649353  , 30.691494   , 819.3476    , 4.19        , 7           , 22          , 0           , 0
-0.194347411, -0.02880852 , -9.786314   , 0.000314606848, -7.76660163E-05, -0.0004357699, 0.00237564836, -0.0201502629, 1.90903032  , 918.649353  , 30.691494   , 819.347046  , 4.2         , 7           , 40          , 0           , 0
-0.198967665, -0.0210954063, -9.796748   , -0.000148048857, -0.000197716814, 0.000256226165, 0.00237625977, -0.0201560445, 1.90903306  , 918.649353  , 30.691494   , 819.321838  , 4.21        , 7           , 41          , 0           , 0
-0.198931411, -0.0289355777, -9.798474   , -0.000453240966, -0.000168343366, 0.000555821869, 0.0023716155, -0.0201577377, 1.90903854  , 918.649353  , 30.691494   , 819.321167  , 4.22        , 7           , 42          , 1           , 0
-0.196553677, -0.0261078328, -9.798604   , 2.04184325E-05, -0.0006069272, 0.000381619844, 0.00237174355, -0.0201638155, 1.90904236  , 918.649353  , 30.69665    , 819.3205    , 4.23        , 7           , 255         , 0           , 0
-0.202508971, -0.0253773425, -9.786324   , -3.16234364E-05, 0.000147151586, 0.0003928122, 0.00237134751, -0.0201623514, 1.90904629  , 918.649353  , 30.69665    , 819.3198    , 4.24        , 7           , 255         , 0           , 0
-0.19778946 , -0.0214349329, -9.793909   , -0.000706491643, 0.000116860843, -0.0003888159, 0.002364362 , -0.0201611761, 1.90904236  , 918.649353  , 30.69665    , 819.319153  , 4.25        , 7           , 255         , 0           , 0
-0.197994143, -0.0225683562, -9.7941885  , 9.410169E-05, 0.000193777843, -0.0002736905, 0.00236535748, -0.0201592315, 1.90903962  , 918.649353  , 30.69665    , 819.3185    , 4.26        , 7           , 255         , 0           , 0
-0.1922326  , -0.0274305642, -9.795309   , -0.000202348718, 0.0009037076, 0.000142378689, 0.00236330414, -0.0201501958, 1.90904117  , 918.649353  , 30.69665    , 819.3178    , 4.27        , 7           , 255         , 0           , 0
-0.198647931, -0.0253135413, -9.788434   , 0.00024873935, 0.000203971285, -0.0001895279, 0.00236582849, -0.0201481525, 1.90903926  , 918.649353  , 30.69665    , 819.317139  , 4.28        , 7           , 255         , 0           , 0
-0.187590882, -0.02242105 , -9.789031   , 0.0005138119, -1.56972965E-05, -0.000136704446, 0.00237099547, -0.0201483071, 1.90903783  , 918.649353  , 30.69665    , 819.316467  , 4.29        , 7           , 255         , 0           , 0
-0.193660766, -0.0245545674, -9.793554   , 6.19872E-05 , -0.000364432984, -0.000318599981, 0.00237167953, -0.0201519411, 1.90903461  , 918.649353  , 30.69665    , 819.3158    , 4.3         , 7           , 255         , 0           , 0
-0.200823545, -0.01970608 , -9.795328   , 0.000802619033, -0.0004450194, -0.000269704615, 0.00238175015, -0.0201549176, 1.909032    , 918.649353  , 30.69665    , 819.295166  , 4.31        , 7           , 255         , 0           , 0
-0.197186992, -0.01821055 , -9.797769   , 0.0006462041, 0.0005106582, 7.67189049E-05, 0.00238819653, -0.0201498121, 1.9090327   , 918.649353  , 30.69665    , 819.2944    , 4.32        , 7           , 255         , 0           , 0
-0.19921574 , -0.013618147, -9.790527   , 0.000286053866, 3.73198418E-06, -0.00034373728, 0.002391128 , -0.0201497674, 1.90902913  , 918.616333  , 30.69224    , 819.2936    , 4.33        , 7           , 255         , 0           , 0
-0.203204632, -0.0240333788, -9.789293   , -0.000639765058, -0.000190665654, 0.000157808521, 0.00238469942, -0.0201516747, 1.9090308   , 918.616333  , 30.69224    , 819.2928    , 4.34        , 7           , 255         , 0           , 0
-0.2118167  , -0.0208403822, -9.791123   , -4.07599728E-05, -0.0002216986, 0.0001782053, 0.002384256 , -0.020153895, 1.90903258  , 918.616333  , 30.69224    , 819.292     , 4.35        , 7           , 255         , 0           , 0
-0.205447435, -0.0266819  , -9.794718   , 0.0005940877, -0.000164351077, -0.000241730944, 0.00239024567, -0.0201555341, 1.90903     , 918.616333  , 30.69224    , 819.2912    , 4.36        , 7           , 255         , 0           , 0
-0.204717   , -0.02118614 , -9.791531   , 0.000366747816, -0.000336065481, -0.000315985759, 0.00239397655, -0.020158885, 1.90902686  , 918.616333  , 30.69224    , 819.2904    , 4.37        , 7           , 255         , 0           , 0
-0.2023586  , -0.0179464277, -9.784358   , -0.000152014341, 0.0002719647, 0.0001722756, 0.00239242218, -0.020156173, 1.90902853  , 918.616333  , 30.69224    , 819.2896    , 4.38        , 7           , 255         , 0           , 0
-0.204249308, -0.0146479141, -9.789196   , 2.64991832E-05, 0.000312533637, 0.000651708746, 0.002392554 , -0.0201530587, 1.90903521  , 918.616333  , 30.69224    , 819.2888    , 4.39        , 7           , 255         , 0           , 0
-0.209626436, -0.0128486361, -9.798525   , 9.266543E-05, -8.2819286E-05, 0.000260150468, 0.00239342777, -0.020153895, 1.90903783  , 918.616333  , 30.69224    , 819.288     , 4.4         , 7           , 255         , 0           , 0
-0.208035424, -0.0113702146, -9.793806   , 0.000138002652, 2.0476582E-05, -0.000349415583, 0.00238798279, -0.0201639067, 1.90903449  , 918.616333  , 30.69224    , 819.318054  , 4.41        , 7           , 255         , 0           , 0
-0.205963179, -0.0160583444, -9.790979   , 0.000248735829, 0.000129014545, -0.000190757215, 0.00239050854, -0.02016261 , 1.90903258  , 918.616333  , 30.69224    , 819.317444  , 4.42        , 7           , 255         , 0           , 0
-0.211851954, -0.009101709, -9.795855   , 0.000501776347, 0.000304470421, -0.0004040523, 0.00239560776, -0.0201595556, 1.90902853  , 918.617065  , 30.6952248  , 819.316833  , 4.43        , 7           , 255         , 0           , 0
-0.20063448 , -0.0123507436, -9.79276848 , 0.000851025339, 0.00032293913, 0.0009523886, 0.00240392424, -0.0201563518, 1.90903807  , 918.617065  , 30.6952248  , 819.3162    , 4.44        , 7           , 255         , 0           , 0
-0.197059065, -0.0166823454, -9.790873   , 0.000125208666, 0.000471188629, 0.0007313667, 0.00240502856, -0.0201516561, 1.90904546  , 918.617065  , 30.6952248  , 819.3156    , 4.45        , 7           , 255         , 0           , 0
-0.192625523, -0.016147742, -9.786869   , -0.000205700868, 0.000213826308, 0.0005499956, 0.00240286  , -0.0201495327, 1.90905106  , 918.617065  , 30.6952248  , 819.315     , 4.46        , 7           , 255         , 0           , 0
-0.192090556, -0.0210304167, -9.78937    , 0.0002058376, 0.000516330532, -0.0005909479, 0.002405037 , -0.0201443546, 1.90904522  , 918.617065  , 30.6952248  , 819.3144    , 4.47        , 7           , 255         , 0           , 0
-0.1949126  , -0.0207623132, -9.803038   , 9.47808E-05 , 9.401498E-05, -7.911251E-06, 0.00240598572, -0.0201434139, 1.9090451   , 918.617065  , 30.6952248  , 819.3138    , 4.48        , 7           , 255         , 0           , 0
-0.195213169, -0.0293389075, -9.790754   , -0.000223456009, 0.000196459878, 0.000256621 , 0.00240369886, -0.0201414544, 1.90904772  , 918.617065  , 30.6952248  , 819.313232  , 4.49        , 7           , 255         , 0           , 0
-0.19115448 , -0.0310130659, -9.788389   , -0.000418839569, 0.000325722562, 0.000812662533, 0.002399345 , -0.0201382171, 1.909056    , 918.617065  , 30.6952248  , 819.3127    , 4.5         , 7           , 255         , 0           , 0
-0.190342486, -0.0240767226, -9.789567   , 0.000226773991, 3.40845436E-05, -0.0002780594, 0.00239360938, -0.0201403368, 1.90905356  , 918.617065  , 30.6952248  , 819.338562  , 4.51        , 7           , 255         , 0           , 0
-0.19396925 , -0.03048851 , -9.79154    , 0.0002379045, 0.0003287698, 0.00047581445, 0.00239589252, -0.0201370623, 1.90905821  , 918.617065  , 30.6952248  , 819.338135  , 4.52        , 7           , 255         , 0           , 0
-0.195529133, -0.0281686727, -9.790529   , 0.000450877647, 0.000347870577, 0.000174601839, 0.00240036566, -0.0201335847, 1.90906     , 918.596558  , 30.6943417  , 819.3377    , 4.53        , 7           , 255         , 0           , 0
-0.195012063, -0.0197271314, -9.782912   , 0.0003633909, 0.000262941932, 0.000158820374, 0.00240396778, -0.02013096 , 1.90906155  , 918.596558  , 30.6943417  , 819.3373    , 4.54        , 7           , 255         , 0           , 0
-0.195757419, -0.0235589724, -9.799381   , 0.000422939 , 1.2878736E-05, -0.0009681167, 0.00240839226, -0.02013081 , 1.9090519   , 918.596558  , 30.6943417  , 819.336853  , 4.55        , 7           , 255         , 0           , 0
-0.190223113, -0.0231940784, -9.793764   , 3.49336478E-05, 0.000258719141, -0.000162309792, 0.002408774 , -0.0201282185, 1.90905023  , 918.596558  , 30.6943417  , 819.3364    , 4.56        , 7           , 255         , 0           , 0
-0.197516963, -0.0242509264, -9.789419   , 0.000729886 , 0.000277914281, -0.0002719799, 0.00241612829, -0.0201254319, 1.9090476   , 918.596558  , 30.6943417  , 819.336     , 4.57        , 7           , 255         , 0           , 0
-0.199507639, -0.0275002327, -9.783177   , 0.000213769948, -0.0002755404, -0.000377253746, 0.00241834181, -0.02012818 , 1.90904379  , 918.596558  , 30.6943417  , 819.3356    , 4.58        , 7           , 255         , 0           , 0
-0.189949527, -0.0253792461, -9.788734   , 0.000208585028, 0.000209049438, -0.000235738946, 0.00242047478, -0.02012608 , 1.9090414   , 918.596558  , 30.6943417  , 819.335144  , 4.59        , 7           , 255         , 0           , 0
-0.192932025, -0.0271956213, -9.792465   , 0.000112543406, -0.000341570674, -0.000248364551, 0.002421649 , -0.0201294869, 1.909039    , 918.596558  , 30.6943417  , 819.3347    , 4.6         , 7           , 255         , 0           , 0
-0.198392987, -0.0211652927, -9.789856   , -0.0005709176, -0.000363780651, -0.000251143356, 0.00241925917, -0.0201275833, 1.90903652  , 918.596558  , 30.6943417  , 819.386658  , 4.61        , 7           , 255         , 0           , 0
-0.206359   , -0.02378352 , -9.794523   , -0.000184244534, -0.000211714883, -9.9781726E-05, 0.00241743657, -0.0201296955, 1.90903544  , 918.596558  , 30.6943417  , 819.3866    , 4.62        , 7           , 255         , 0           , 0
-0.195311189, -0.0268845819, -9.79991    , -8.76069244E-05, -0.000139473123, 5.0079645E-05, 0.00241655251, -0.0201310925, 1.90903592  , 918.6207    , 30.69285    , 819.386536  , 4.63        , 7           , 255         , 0           , 0
-0.189833447, -0.02300733 , -9.794006   , 0.000331372779, 5.26990625E-05, -1.99155475E-05, 0.00241986918, -0.02013057 , 1.9090358   , 918.6207    , 30.69285    , 819.3865    , 4.64        , 7           , 255         , 0           , 0
-0.195918247, -0.0182134863, -9.795839   , 0.0005747355, 2.391229E-06, -0.000627479749, 0.00242574257, -0.0201305263, 1.90902948  , 918.6207    , 30.69285    , 819.3864    , 4.65        , 7           , 255         , 0           , 0
-0.191050738, -0.0256204959, -9.798133   , -8.495827E-05, -0.0002883463, -0.00150068186, 0.00242519449, -0.0201333687, 1.90901446  , 918.6207    , 30.69285    , 819.386353  , 4.66        , 7           , 255         , 0           , 0
-0.196239218, -0.0223529451, -9.798578   , -4.97216824E-05, -0.000281789515, -9.237254E-05, 0.002424715 , -0.02013619 , 1.90901351  , 918.6207    , 30.69285    , 819.3863    , 4.67        , 7           , 255         , 0           , 0
-0.2005041  , -0.0241469461, -9.787163   , 0.000413130736, 2.27490673E-05, 0.000731282053, 0.00242869835, -0.0201359764, 1.9090209   , 918.6207    , 30.69285    , 819.3862    , 4.68        , 7           , 255         , 0           , 0
-0.1981866  , -0.0228761621, -9.789377   , 0.0005418897, -0.0003094423, 0.0007267794, 0.0024339708, -0.0201390889, 1.90902829  , 918.6207    , 30.69285    , 819.386169  , 4.69        , 7           , 255         , 0           , 0
-0.1980601  , -0.0163140167, -9.789699   , 0.00024184  , -0.0002503229, 0.0005075604, 0.002436286 , -0.0201416016, 1.9090333   , 918.6207    , 30.69285    , 819.3861    , 4.7         , 7           , 255         , 0           , 0
-0.194035679, -0.0200928543, -9.79406452 , 0.000149734668, -8.50465149E-05, 0.000347926485, 0.00243592262, -0.0201421939, 1.90903687  , 918.6207    , 30.69285    , 819.3963    , 4.71        , 7           , 255         , 0           , 0
-0.2061019  , -0.0197486151, -9.795093   , 8.938946E-05, 0.000365293527, 0.0007307379, 0.00243666861, -0.02013856 , 1.90904427  , 918.6207    , 30.69285    , 819.3963    , 4.72        , 7           , 255         , 0           , 0
-0.206949145, -0.0167274512, -9.791424   , -0.000252010941, -3.78075929E-05, -0.000386508647, 0.00243422529, -0.0201389287, 1.90904045  , 918.6407    , 30.69855    , 819.3963    , 4.73        , 7           , 255         , 0           , 0
-0.206993073, -0.010550363, -9.785558   , 7.421308E-05, -0.000390774483, 0.00013988436, 0.00243493915, -0.0201428384, 1.90904188  , 918.6407    , 30.69855    , 819.3963    , 4.74        , 7           , 255         , 0           , 0
-0.199012756, -0.01898645 , -9.792061   , -0.000111025758, 0.000214596512, 0.000158133364, 0.00243379781, -0.0201406982, 1.90904355  , 918.6407    , 30.69855    , 819.3963    , 4.75        , 7           , 255         , 0           , 0
-0.196213529, -0.0172653943, -9.78729    , 0.000113670831, -0.000380480662, -0.000514254556, 0.0024350388, -0.0201444887, 1.90903831  , 918.6407    , 30.69855    , 819.3963    , 4.76        , 7           , 255         , 0           , 0
-0.201951951, -0.0170176141, -9.792663   , -0.000669996371, 9.473931E-05, 0.000148113962, 0.00242830813, -0.02014354 , 1.90903974  , 918.6407    , 30.69855    , 819.3963    , 4.77        , 7           , 255         , 0           , 0
-0.196237385, -0.0132872369, -9.796255   , -0.000355955272, 2.618751E-05, -0.00014332401, 0.002424778 , -0.0201432817, 1.90903842  , 918.6407    , 30.69855    , 819.3963    , 4.78        , 7           , 255         , 0           , 0
-0.204001859, -0.0124281868, -9.801512   , -0.000381577818, 0.000495632237, 0.0005088354, 0.00242085848, -0.0201383363, 1.90904355  , 918.6407    , 30.69855    , 819.3963    , 4.79        , 7           , 255         , 0           , 0
-0.199842691, -0.0310170166, -9.799033   , 0.000316202524, -3.82371072E-05, 0.000240031426, 0.00242397329, -0.0201387256, 1.909046    , 918.6407    , 30.69855    , 819.3963    , 4.8         , 7           , 255         , 0           , 0
-0.195311651, -0.023725491, -9.79955    , 0.00128419546, -0.0002637002, 0.000341852778, 0.00242831535, -0.0201466642, 1.90904963  , 918.6407    , 30.69855    , 819.376831  , 4.81        , 7           , 255         , 0           , 0
-0.195763588, -0.0198163949, -9.793706   , 0.000305187 , -8.90930241E-05, 0.000316131744, 0.00243130466, -0.020147562, 1.90905273  , 918.6407    , 30.69855    , 819.3767    , 4.82        , 7           , 255         , 0           , 0
-0.193351   , -0.0089598475, -9.793374   , 0.0003267766, 0.0002464506, 9.79476E-05 , 0.00243455125, -0.0201451033, 1.9090538   , 918.645264  , 30.69407    , 819.376648  , 4.83        , 7           , 255         , 0           , 0
-0.198653966, -0.01891663 , -9.789777   , 7.841477E-05, 9.818596E-05, 7.526632E-05, 0.00243532  , -0.020144118, 1.90905452  , 918.645264  , 30.69407    , 819.3766    , 4.84        , 7           , 255         , 0           , 0
-0.201306731, -0.01834766 , -9.78752    , 0.000244474679, 5.78947365E-05, 2.0591775E-05, 0.00243776082, -0.0201435387, 1.90905464  , 918.645264  , 30.69407    , 819.3765    , 4.85        , 7           , 255         , 0           , 0
-0.198967   , -0.0241752136, -9.781946   , 0.0005931022, 0.0003884469, -0.000210253973, 0.00244373269, -0.0201396476, 1.90905249  , 918.645264  , 30.69407    , 819.376465  , 4.86        , 7           , 255         , 0           , 0
-0.203849822, -0.0255436189, -9.78738    , -4.898323E-05, 5.124061E-05, -0.000393687573, 0.00244332268, -0.0201391261, 1.90904856  , 918.645264  , 30.69407    , 819.3764    , 4.87        , 7           , 255         , 0           , 0
-0.195233271, -0.0170930531, -9.789243   , -0.000562788453, 9.996351E-05, 8.065876E-05, 0.002437678 , -0.0201381333, 1.90904963  , 918.645264  , 30.69407    , 819.376343  , 4.88        , 7           , 255         , 0           , 0
-0.205488369, -0.03254757 , -9.789732   , -0.000397712545, -0.0003387197, 0.0004865303, 0.00243360223, -0.0201415289, 1.90905452  , 918.645264  , 30.69407    , 819.3763    , 4.89        , 7           , 255         , 0           , 0
-0.201197192, -0.0215788651, -9.788884   , 0.000157751871, -7.843823E-05, 6.449912E-05, 0.00243516732, -0.0201423131, 1.909055    , 918.645264  , 30.69407    , 819.3762    , 4.9         , 7           , 255         , 0           , 0
-0.189950466, -0.0188778155, -9.795522   , 6.362668E-05, -3.029508E-05, 0.000725772348, 0.00243078731, -0.0201455615, 1.90906239  , 918.645264  , 30.69407    , 819.353455  , 4.91        , 7           , 255         , 0           , 0
-0.205658764, -0.0231830217, -9.796903   , 3.66616E-05 , 0.000125645485, 0.0005426354, 0.00243104645, -0.0201443154, 1.90906763  , 918.645264  , 30.69407    , 819.3532    , 4.92        , 7           , 255         , 0           , 0
-0.202716321, -0.0369692929, -9.789507   , -0.000105193059, 0.000124170852, 0.000406348146, 0.00242991163, -0.0201430842, 1.9090718   , 918.608948  , 30.696106   , 819.352966  , 4.93        , 7           , 255         , 0           , 0
-0.199006408, -0.0205155052, -9.789761   , 0.000314746139, -0.0002452498, 0.00036694546, 0.00243298477, -0.0201455466, 1.9090755   , 918.608948  , 30.696106   , 819.3527    , 4.94        , 7           , 255         , 0           , 0
-0.200674623, -0.0250758938, -9.796176   , 0.0006918731, -0.000130752218, -1.81121286E-05, 0.00243990729, -0.0201468524, 1.90907526  , 918.608948  , 30.696106   , 819.3525    , 4.95        , 7           , 255         , 0           , 0
-0.193543538, -0.0271606334, -9.791702   , 0.000193514716, -0.00013634513, 0.0005164902, 0.0024417385, -0.0201482289, 1.90908051  , 918.608948  , 30.696106   , 819.3523    , 4.96        , 7           , 255         , 0           , 0
-0.204571053, -0.0173374452, -9.791988   , 0.000194439272, -0.000156400085, -5.56477025E-05, 0.00244369381, -0.0201497879, 1.90907979  , 918.608948  , 30.696106   , 819.3521    , 4.97        , 7           , 255         , 0           , 0
-0.196093738, -0.0243515912, -9.785167   , -0.00029724848, -3.09061143E-05, -0.0012824029, 0.002440978 , -0.0201500673, 1.90906715  , 918.608948  , 30.696106   , 819.3519    , 4.98        , 7           , 255         , 0           , 0
-0.19506599 , -0.0251382776, -9.790634   , -0.000453547167, -0.000284433336, -0.00044093834, 0.00243653147, -0.0201529  , 1.90906262  , 918.608948  , 30.696106   , 819.351746  , 4.99        , 7           , 255         , 0           , 0
-0.2029932  , -0.0186533891, -9.793073   , -2.40484369E-05, -0.0006318287, -0.0006442993, 0.00243642181, -0.0201592017, 1.90905619  , 918.608948  , 30.696106   , 819.351563  , 5           , 7           , 0           , -1          , 500
-0.2053025  , -0.0126502085, -9.793816   , 0.000302735716, -0.00012721392, 0.000286240451, 0.00243918155, -0.020163035, 1.90905917  , 918.608948  , 30.696106   , 819.3834    , 5.01        , 7           , 1           , 0           , 0
-0.201953769, -0.0179636721, -9.793556   , 2.783598E-05, 0.0001688808, 7.71356E-05 , 0.00243944419, -0.0201613456, 1.90905988  , 918.608948  , 30.696106   , 819.3834    , 5.02        , 7           , 2           , 0           , 0
-0.203930184, -0.0181274526, -9.796061   , -0.000579749467, 0.00024773262, 0.000391743175, 0.00243356638, -0.0201588832, 1.90906394  , 918.635254  , 30.69658    , 819.3834    , 5.03        , 7           , 3           , 0           , 0
-0.202932477, -0.0226549953, -9.799287   , -0.0001303083, 5.91814169E-05, -0.00048962736, 0.002432363 , -0.0201582778, 1.909059    , 918.635254  , 30.69658    , 819.3834    , 5.04        , 7           , 4           , 0           , 0
-0.204238936, -0.01769063 , -9.800573   , -3.69414629E-05, 0.00022693869, -0.000219055568, 0.002432036 , -0.0201560054, 1.9090569   , 918.635254  , 30.69658    , 819.3834    , 5.05        , 7           , 5           , 0           , 0
-0.211922929, -0.0198576655, -9.781291   , 0.0004265209, 0.0005431655, 0.000147847808, 0.002436271 , -0.0201505721, 1.90905833  , 918.635254  , 30.69658    , 819.3834    , 5.06        , 7           , 6           , 0           , 0
-0.199020445, -0.009264802, -9.801015   , -0.000209471124, 0.000136135146, -0.0001960991, 0.002434215 , -0.0201492123, 1.90905654  , 918.635254  , 30.69658    , 819.3834    , 5.07        , 7           , 7           , 0           , 0
-0.197360471, -0.02334962 , -9.793635   , -0.000134155474, -0.0002859502, -0.0004571021, 0.002432966 , -0.0201520566, 1.909052    , 918.635254  , 30.69658    , 819.3834    , 5.08        , 7           , 8           , 5           , 5
-0.194074959, -0.0295274444, -9.789011   , 0.000235681859, -0.0003216179, 0.000200079434, 0.00243528257, -0.020155279, 1.909054    , 918.635254  , 30.69658    , 819.3834    , 5.09        , 7           , 9           , 5           , 0.1
-0.18813543 , -0.0268017948, -9.792032   , 6.894604E-05, 0.000322270731, 0.0005802327, 0.00243585464, -0.0201520734, 1.90905976  , 918.635254  , 30.69658    , 819.3834    , 5.1         , 7           , 10          , 0.1         , 0.1
-0.191983745, -0.0131135257, -9.797437   , 0.000333698321, 0.000511134858, -9.099462E-05, 0.00243405462, -0.0201513562, 1.909059    , 918.635254  , 30.69658    , 819.37384   , 5.11        , 7           , 11          , 0.006391445 , 0.006391451
