Acc X       , Acc Y       , Acc Z       , Gyro X      , Gyro Y      , Gyro Z      , Euler X     , Euler Y     , Euler Z     , Pres X      , Pres Y      , Pres Z      , Time        , Status      , LowRate X   , LowRate Y   , LowRate Z    
-0.118390821, 0.09137745  , -9.845126   , 0           , 0.0128885629, 0           , -0.009281225, -0.0120242266, 1.74558342  , 917.522     , 25.8196239  , 829.360657  , 0           , 2           , 0           , 5.45623159  , 0
-0.12418256 , 0.08918345  , -9.840019   , 0.0004572363, 0.0131961061, -0.000232187449, -0.009276384, -0.011891989, 1.74557972  , 917.522     , 25.8196239  , 829.360657  , 0.01        , 7           , 1           , 0           , 0
-0.1261197  , 0.09058043  , -9.847116   , 0.000746893929, 0.0131100863, -1.39202457E-05, -0.00926889852, -0.0117609007, 1.74557841  , 917.522     , 25.8196239  , 829.360657  , 0.02        , 7           , 2           , 0           , 0
-0.121053316, 0.08769333  , -9.843018   , 0.000150023261, 0.0126156211, 0.000155778369, -0.009267404, -0.0116347391, 1.74557877  , 917.4493    , 25.4142     , 829.360657  , 0.03        , 7           , 3           , 0           , 0
-0.123679638, 0.09134412  , -9.843409   , 0.00037238677, 0.01329851  , -0.0005698289, -0.009263598, -0.0115018152, 1.74557173  , 917.4493    , 25.4142     , 829.360657  , 0.04        , 7           , 4           , 0           , 0
-0.127181411, 0.09126961  , -9.847544   , 0.0003729721, 0.0131961061, -0.0003480506, -0.009259816, -0.0113698952, 1.74556708  , 917.4493    , 25.4142     , 829.3607    , 0.05        , 7           , 5           , 0           , 0
-0.119805336, 0.101029873 , -9.853355   , 0.000399890123, 0.0133172367, 0.000132371671, -0.009255817, -0.0112367179, 1.7455672   , 917.4493    , 25.4142     , 829.3608    , 0.06        , 7           , 6           , 0           , 0
-0.121816993, 0.09404495  , -9.848382   , 3.76717653E-05, 0.0127466973, -0.000185959274, -0.00925540552, -0.0111092757, 1.7455641   , 917.4493    , 25.4142     , 829.36084   , 0.07        , 7           , 7           , 0           , 0
-0.117793679, 0.0883638859, -9.848122   , -0.000294703757, 0.01221127  , 0.000350639224, -0.00925838 , -0.0109871384, 1.74556661  , 917.4493    , 25.4142     , 829.3609    , 0.08        , 7           , 8           , 5           , 5
-0.115372241, 0.09024516  , -9.854958   , 2.7138507E-05, 0.0126156211, 0.0002564271, -0.009258123, -0.0108609674, 1.745568    , 917.4493    , 25.4142     , 829.360962  , 0.09        , 7           , 9           , 5           , 0.1
-0.116471194, 0.0898912549, -9.850971   , 1.95312314E-05, 0.0130527411, 5.27889933E-05, -0.00925792 , -0.0107304435, 1.7455672   , 917.4493    , 25.4142     , 829.361     , 0.1         , 7           , 10          , 0.1         , 0.1
-0.121071935, 0.0956282   , -9.849891   , 0.000394623028, 0.012798192 , -0.0003615094, -0.009254061, -0.0106101977, 1.74556243  , 917.4493    , 25.4142     , 830.0193    , 0.11        , 7           , 11          , 0.0109544508, 0.0109544508
-0.119656324, 0.08638948  , -9.852908   , 0.0002980712, 0.0127613274, 0.000162800308, -0.009251085, -0.0104825776, 1.74556291  , 917.4493    , 25.4142     , 830.019348  , 0.12        , 7           , 12          , 0.0346410163, 0
-0.111106776, 0.08866191  , -9.853933   , 0.000219073379, 0.012771274 , -0.000146752922, -0.009248867, -0.0103548858, 1.74556029  , 917.454834  , 25.45565    , 830.0195    , 0.13        , 7           , 13          , 0           , 0
-0.116322182, 0.09620562  , -9.851885   , -3.1378353E-05, 0.0125167267, 0.0005162414, -0.00924922153, -0.0102296788, 1.74556434  , 917.454834  , 25.45565    , 830.0196    , 0.14        , 7           , 14          , 0.00360557972, 3.635276E-10
-0.11369586 , 0.08715317  , -9.851791   , 0.000145341968, 0.01371398  , -9.238953E-06, -0.009247754, -0.010092549, 1.74556291  , 917.454834  , 25.45565    , 830.0197    , 0.15        , 7           , 15          , 0           , 0.00214158813
-0.121090554, 0.09004027  , -9.847563   , 0.0004677691, 0.0129427286, -0.0003322512, -0.009243029, -0.00996316 , 1.7455585   , 917.454834  , 25.45565    , 830.019836  , 0.16        , 7           , 16          , 0           , 4.203895E-45
-0.126026571, 0.09434298  , -9.847618   , -0.0003579019, 0.0130170435, 0.00010955031, -0.009246608, -0.009832988, 1.74555838  , 917.454834  , 25.45565    , 830.019958  , 0.17        , 7           , 20          , 0           , 0
-0.12954697 , 0.0887364149, -9.8514185  , 0.000236628344, 0.0125611993, -3.966759E-05, -0.009244227, -0.009707389, 1.74555671  , 917.454834  , 25.45565    , 830.0201    , 0.18        , 7           , 21          , 0           , 0
-0.118929885, 0.09411946  , -9.852666   , -1.44084916E-05, 0.0129532618, 9.37506557E-05, -0.009244368, -0.00957785547, 1.74555659  , 917.454834  , 25.45565    , 830.0202    , 0.19        , 7           , 22          , 0           , 0
-0.119823955, 0.09177253  , -9.849574   , 0.000251257559, 0.0132218525, 0.0004120816, -0.009241881, -0.009445608, 1.74555945  , 917.454834  , 25.45565    , 830.0203    , 0.2         , 7           , 40          , 0           , 0
-0.12008474 , 0.08739531  , -9.851046   , -0.000296459068, 0.0129234148, 0.000188547652, -0.009245015, -0.009332569, 1.74556017  , 917.454834  , 25.45565    , 829.995239  , 0.21        , 7           , 41          , 0           , 0
-0.120028853, 0.089854    , -9.85689449 , 0.000162897166, 0.01258636  , 0.000223657815, -0.009243396, -0.009206695, 1.74556124  , 917.454834  , 25.45565    , 829.9954    , 0.22        , 7           , 42          , 1           , 0
-0.12293458 , 0.09609386  , -9.853542   , -1.14825089E-05, 0.0127221188, -0.000185374171, -0.009243481, -0.009079497, 1.74555826  , 917.4994    , 25.48333    , 829.9956    , 0.23        , 7           , 255         , 0           , 0
-0.121220946, 0.0862591   , -9.84555149 , 0.0002407243, 0.0128549514, -0.000283682253, -0.009241038, -0.008950982, 1.74555421  , 917.4994    , 25.48333    , 829.9958    , 0.24        , 7           , 255         , 0           , 0
-0.124201179, 0.08650124  , -9.843744   , 0.0001623123, 0.0134740574, -0.000200003153, -0.009239386, -0.008816269, 1.74555087  , 917.4994    , 25.48333    , 829.996     , 0.25        , 7           , 255         , 0           , 0
-0.121835612, 0.0874698162, -9.85194    , -0.000102768652, 0.0130784856, -2.97196675E-05, -0.009240399, -0.008685495, 1.74554944  , 917.4994    , 25.48333    , 829.996155  , 0.26        , 7           , 255         , 0           , 0
-0.121425845, 0.08583069  , -9.856708   , -6.76589552E-05, 0.0130457152, -0.000236283755, -0.009241046, -0.008555068, 1.74554586  , 917.4994    , 25.48333    , 829.996338  , 0.27        , 7           , 255         , 0           , 0
-0.12382865 , 0.09169802  , -9.847936   , 0.000143586658, 0.0137180733, -0.0005265265, -0.009239553, -0.008417945, 1.74553931  , 917.4994    , 25.48333    , 829.9965    , 0.28        , 7           , 255         , 0           , 0
-0.124480583, 0.0872463   , -9.854362   , 0.000202103518, 0.0128455879, 0.0001429047, -0.009237533, -0.008289484, 1.74553967  , 917.4994    , 25.48333    , 829.9967    , 0.29        , 7           , 255         , 0           , 0
-0.114887953, 0.0916235149, -9.845551   , 0.000112572918, 0.0130937   , 0.0005765136, -0.009236445, -0.008158502, 1.74554408  , 917.4994    , 25.48333    , 829.996948  , 0.3         , 7           , 255         , 0           , 0
-0.1225248  , 0.09242445  , -9.844657   , 4.879036E-05, 0.01258401  , -0.0002064401, -0.009234283, -0.008060483, 1.74554086  , 917.4994    , 25.48333    , 829.852661  , 0.31        , 7           , 255         , 0           , 0
-0.120457269, 0.0902637839, -9.846427   , 0.0003361071, 0.0129421344, -0.000108131906, -0.009230902, -0.00793108 , 1.74553859  , 917.4994    , 25.48333    , 829.8529    , 0.32        , 7           , 255         , 0           , 0
-0.116508462, 0.0920891762, -9.84693    , -4.7177542E-05, 0.0126998741, -0.0001964923, -0.009231351, -0.007804108, 1.74553537  , 917.5034    , 25.49968    , 829.853149  , 0.33        , 7           , 255         , 0           , 0
-0.1225248  , 0.0954046845, -9.847395   , -6.239163E-05, 0.0131609859, -0.000433485024, -0.00923193 , -0.00767254736, 1.74552977  , 917.5034    , 25.49968    , 829.8534    , 0.34        , 7           , 255         , 0           , 0
-0.119265176, 0.0910460949, -9.845085   , -7.64355063E-05, 0.0129924584, -0.000135635026, -0.009232676, -0.007542645, 1.74552727  , 917.5034    , 25.49968    , 829.853638  , 0.35        , 7           , 255         , 0           , 0
-0.11937692 , 0.09017065  , -9.854007   , -0.0003906705, 0.0128871277, 3.9330218E-05, -0.009236576, -0.00741377752, 1.74552655  , 917.5034    , 25.49968    , 829.8539    , 0.36        , 7           , 255         , 0           , 0
-0.126194209, 0.09402633  , -9.851772   , 8.03892E-05 , 0.0130018191, 0.000213124556, -0.00923578 , -0.00728374766, 1.74552751  , 917.5034    , 25.49968    , 829.8541    , 0.37        , 7           , 255         , 0           , 0
-0.118203461, 0.08817762  , -9.846594   , 5.11307735E-05, 0.0131247044, 0.000103113474, -0.009235267, -0.00715250056, 1.74552727  , 917.5034    , 25.49968    , 829.854431  , 0.38        , 7           , 255         , 0           , 0
-0.118259333, 0.09715557  , -9.84775    , -0.000129100634, 0.0126161948, 0.000152267283, -0.00923656 , -0.007026332, 1.74552774  , 917.5034    , 25.49968    , 829.854736  , 0.39        , 7           , 255         , 0           , 0
-0.124592327, 0.08773059  , -9.846204   , -0.000132026616, 0.0130006494, -1.68459956E-05, -0.009237872, -0.006896335, 1.74552643  , 917.5034    , 25.49968    , 829.855042  , 0.4         , 7           , 255         , 0           , 0
-0.122729681, 0.08976087  , -9.855461   , 0.000189229846, 0.0124365361, 0.00104815839, -0.009236825, -0.006810682, 1.74553573  , 917.5034    , 25.49968    , 829.7735    , 0.41        , 7           , 255         , 0           , 0
-0.110454857, 0.09447336  , -9.859595   , -0.000472009182, 0.0129368547, 0.000573587837, -0.009241575, -0.00668127043, 1.74554026  , 917.5034    , 25.49968    , 829.7738    , 0.42        , 7           , 255         , 0           , 0
-0.112224363, 0.09538606  , -9.848643   , -0.000361997634, 0.0132411411, -1.9186642E-05, -0.009245186, -0.00654886942, 1.74553883  , 917.4673    , 25.5120277  , 829.7741    , 0.43        , 7           , 255         , 0           , 0
-0.119004391, 0.0943616   , -9.84750652 , -9.808713E-05, 0.0131018721, 0.000290366355, -0.009246178, -0.00641783141, 1.74554062  , 917.4673    , 25.5120277  , 829.7744    , 0.44        , 7           , 255         , 0           , 0
-0.116471194, 0.0854767859, -9.845049   , 0.000219073612, 0.0129128629, 9.901682E-05, -0.009243984, -0.006288702, 1.74554038  , 917.4673    , 25.5120277  , 829.7747    , 0.45        , 7           , 255         , 0           , 0
-0.11857599 , 0.08409843  , -9.846184   , 0.000384090934, 0.0127929021, -0.000171330292, -0.009240123, -0.00616079662, 1.74553752  , 917.4673    , 25.5120277  , 829.775     , 0.46        , 7           , 255         , 0           , 0
-0.126417726, 0.0909902155, -9.859503   , 0.00048473943, 0.0134102544, 0.0005876315, -0.009235306, -0.00602665 , 1.74554217  , 917.4673    , 25.5120277  , 829.7754    , 0.47        , 7           , 255         , 0           , 0
-0.120811164, 0.09395182  , -9.85071    , 8.975156E-05, 0.0136449058, -0.0003410289, -0.00923438 , -0.00589024136, 1.74553752  , 917.4673    , 25.5120277  , 829.775757  , 0.48        , 7           , 255         , 0           , 0
-0.117830932, 0.08719042  , -9.848624   , -0.000267785741, 0.012777688 , -0.000184789067, -0.009237039, -0.00576248951, 1.74553442  , 917.4673    , 25.5120277  , 829.7761    , 0.49        , 7           , 255         , 0           , 0
-0.112392008, 0.08832663  , -9.847805   , 0.000389942434, 0.0133318417, 3.75744421E-05, -0.009233135, -0.005629176, 1.74553347  , 917.4673    , 25.5120277  , 829.7765    , 0.5         , 7           , 255         , 0           , 0
-0.1092814  , 0.08780509  , -9.843763   , -3.639143E-07, 0.0132692074, 0.00036760862, -0.009232614, -0.00554062147, 1.745536    , 917.4673    , 25.5120277  , 829.79364   , 0.51        , 7           , 255         , 0           , 0
-0.115446746, 0.08722767  , -9.84911    , -0.000266615069, 0.0132709648, 0.0006818434, -0.009235312, -0.00540785724, 1.74554157  , 917.4673    , 25.5120277  , 829.794     , 0.52        , 7           , 255         , 0           , 0
-0.130198881, 0.09050593  , -9.849128   , -0.0002016616, 0.0133909239, -0.000378479715, -0.009237301, -0.00527399126, 1.74553657  , 917.4882    , 25.5207787  , 829.7944    , 0.53        , 7           , 255         , 0           , 0
-0.124741338, 0.0885129   , -9.850115   , 9.794417E-05, 0.0129871583, -0.000441677868, -0.009236291, -0.00514416955, 1.74553084  , 917.4882    , 25.5207787  , 829.794739  , 0.54        , 7           , 255         , 0           , 0
-0.119395554, 0.09160489  , -9.841192   , 0.0002693981, 0.01322766  , 9.486219E-06, -0.009233591, -0.00501190033, 1.74552977  , 917.4882    , 25.5207787  , 829.7951    , 0.55        , 7           , 255         , 0           , 0
-0.12097881 , 0.09164214  , -9.850339   , 8.74113757E-05, 0.01285842  , 0.000809995 , -0.009232748, -0.004883249, 1.74553668  , 917.4882    , 25.5207787  , 829.795532  , 0.56        , 7           , 255         , 0           , 0
-0.109989189, 0.0925175846, -9.847059   , -0.00052408874, 0.0133511312, 0.0003354242, -0.009238   , -0.0047497144, 1.74553883  , 917.4882    , 25.5207787  , 829.795959  , 0.57        , 7           , 255         , 0           , 0
-0.11831522 , 0.09037554  , -9.847451   , -0.00022097188, 0.0132411206, 0.000422029058, -0.009240223, -0.004617273, 1.74554169  , 917.4882    , 25.5207787  , 829.7964    , 0.58        , 7           , 255         , 0           , 0
-0.123064972, 0.09106472  , -9.845961   , 0.000286953524, 0.01310185  , -8.41408037E-05, -0.009237343, -0.00448627071, 1.74553967  , 917.4882    , 25.5207787  , 829.7968    , 0.59        , 7           , 255         , 0           , 0
-0.123661019, 0.08881092  , -9.846744   , -1.85039826E-05, 0.0128116077, 0.000205517048, -0.009237532, -0.00435814355, 1.74554062  , 917.4882    , 25.5207787  , 829.797241  , 0.6         , 7           , 255         , 0           , 0
-0.121593475, 0.08990988  , -9.84937    , -0.0003368347, 0.0129022747, -7.53635541E-05, -0.009240115, -0.00428746268, 1.74553871  , 917.4882    , 25.5207787  , 829.7757    , 0.61        , 7           , 255         , 0           , 0
-0.126231462, 0.077560544 , -9.840783   , -0.000369603978, 0.0133124767, 0.000422613928, -0.009243823, -0.004154309, 1.74554157  , 917.4882    , 25.5207787  , 829.7761    , 0.62        , 7           , 255         , 0           , 0
-0.120513141, 0.08692965  , -9.843782   , 0.000192156527, 0.0136337345, 0.000244722934, -0.009241906, -0.00401795749, 1.74554288  , 917.4468    , 25.52702    , 829.77655   , 0.63        , 7           , 255         , 0           , 0
-0.123400234, 0.09588897  , -9.842478   , 7.804902E-05, 0.0135810692, 0.0003974517, -0.009241137, -0.00388211943, 1.74554563  , 917.4468    , 25.52702    , 829.777     , 0.64        , 7           , 255         , 0           , 0
-0.129099935, 0.0954605639, -9.84177    , 0.0004905921, 0.01374199  , 0.000175088178, -0.00923623 , -0.00374469161, 1.74554586  , 917.4468    , 25.52702    , 829.7774    , 0.65        , 7           , 255         , 0           , 0
-0.124163926, 0.101830818 , -9.837503   , 0.000296316342, 0.0135371825, 0.0006391257, -0.009233286, -0.003609271, 1.74555111  , 917.4468    , 25.52702    , 829.7779    , 0.66        , 7           , 255         , 0           , 0
-0.1221709  , 0.09115785  , -9.83946    , 0.000249502948, 0.0132633224, 0.000504537253, -0.009230803, -0.00347659877, 1.7455548   , 917.4468    , 25.52702    , 829.7784    , 0.67        , 7           , 255         , 0           , 0
-0.11725352 , 0.09145588  , -9.847768   , 0.000350151444, 0.0133288624, -0.000261446577, -0.00922729 , -0.0033433442, 1.745551    , 917.4468    , 25.52702    , 829.7789    , 0.68        , 7           , 255         , 0           , 0
-0.109802939, 0.09743497  , -9.840541   , -0.0005311102, 0.0140211154, -0.000221655238, -0.009232588, -0.00320316269, 1.74554753  , 917.4468    , 25.52702    , 829.779358  , 0.69        , 7           , 255         , 0           , 0
-0.120494507, 0.09268522  , -9.843539   , -0.00038189278, 0.0133984974, 0.000554861734, -0.00923642 , -0.00306913443, 1.745552    , 917.4468    , 25.52702    , 829.779846  , 0.7         , 7           , 255         , 0           , 0
-0.127702951, 0.09417534  , -9.845011   , -0.00015718909, 0.0130485166, 0.000733337365, -0.009238987, -0.00301319174, 1.745558    , 917.4468    , 25.52702    , 829.8209    , 0.71        , 7           , 255         , 0           , 0
-0.120531775, 0.0981800258, -9.847041   , -3.37183E-05, 0.01293909  , 0.000125348568, -0.009239323, -0.00288379681, 1.74555814  , 917.4468    , 25.52702    , 829.8215    , 0.72        , 7           , 255         , 0           , 0
-0.122338533, 0.09754673  , -9.851939   , 0.0003577585, 0.0131795947, 0.0005203367, -0.009235755, -0.002751962, 1.74556208  , 917.4674    , 25.5293274  , 829.822     , 0.73        , 7           , 255         , 0           , 0
-0.122748315, 0.09190291  , -9.847154   , 0.000126617262, 0.0131392172, 0.0006929606, -0.009234505, -0.00262051425, 1.74556768  , 917.4674    , 25.5293274  , 829.8226    , 0.74        , 7           , 255         , 0           , 0
-0.114254653, 0.09085983  , -9.847414   , 0.000955799362, 0.0126704993, 0.000685938867, -0.00922496 , -0.00249375449, 1.7455734   , 917.4674    , 25.5293274  , 829.8231    , 0.75        , 7           , 255         , 0           , 0
-0.124871731, 0.08877367  , -9.846949   , 0.000562566565, 0.01319832  , 0.000278662425, -0.009219338, -0.002361755, 1.745575    , 917.4674    , 25.5293274  , 829.823669  , 0.76        , 7           , 255         , 0           , 0
-0.121649362, 0.09616837  , -9.844881   , 0.00048649474, 0.0129402615, -0.000370288035, -0.009214462, -0.002232395, 1.74557006  , 917.4674    , 25.5293274  , 829.8242    , 0.77        , 7           , 255         , 0           , 0
-0.11866913 , 0.09460375  , -9.849724   , 0.00030392292, 0.0131936381, -0.000329911476, -0.009211411, -0.00210049772, 1.74556553  , 917.4674    , 25.5293274  , 829.824768  , 0.78        , 7           , 255         , 0           , 0
-0.116862357, 0.09033829  , -9.848941   , -0.0002121944, 0.012609642 , 0.00053555076, -0.009213541, -0.00197436032, 1.74556971  , 917.4674    , 25.5293274  , 829.8253    , 0.79        , 7           , 255         , 0           , 0
-0.113174319, 0.09832904  , -9.849258   , -8.053193E-05, 0.0128296632, 0.00115465792, -0.009214364, -0.00184596481, 1.74558008  , 917.4674    , 25.5293274  , 829.8259    , 0.8         , 7           , 255         , 0           , 0
-0.1131557  , 0.09575859  , -9.856764   , -8.404511E-05, 0.0129495636, 0.000479959417, -0.009217818, -0.00179396174, 1.74558365  , 917.4674    , 25.5293274  , 829.8313    , 0.81        , 7           , 255         , 0           , 0
-0.121556222, 0.09490177  , -9.844508   , -0.000205174787, 0.0128506683, -9.467499E-05, -0.009219865, -0.00166547264, 1.74558151  , 917.4674    , 25.5293274  , 829.8319    , 0.82        , 7           , 255         , 0           , 0
-0.117998578, 0.10009855  , -9.842925   , -0.000261935871, 0.0129068457, -0.00022282626, -0.00922248 , -0.0015364323, 1.745578    , 917.467041  , 25.5354328  , 829.8325    , 0.83        , 7           , 255         , 0           , 0
-0.12187288 , 0.102296472 , -9.843224   , -0.000163042918, 0.013319389 , 9.257882E-05, -0.009224108, -0.00140323816, 1.74557781  , 917.467041  , 25.5354328  , 829.8331    , 0.84        , 7           , 255         , 0           , 0
-0.112205744, 0.0965409   , -9.847023   , 0.0002530117, 0.0128377955, -0.000297727878, -0.009221573, -0.001274896, 1.74557364  , 917.467041  , 25.5354328  , 829.83374   , 0.85        , 7           , 255         , 0           , 0
-0.117737792, 0.09573996  , -9.844638   , -0.000644634943, 0.0128582772, -0.0006535095, -0.009228011, -0.00114638149, 1.745566    , 917.467041  , 25.5354328  , 829.834351  , 0.86        , 7           , 255         , 0           , 0
-0.129826352, 0.0931508839, -9.845049   , -0.0004468488, 0.0128307743, -0.0005394018, -0.00923247 , -0.00101813232, 1.74555922  , 917.467041  , 25.5354328  , 829.834961  , 0.87        , 7           , 255         , 0           , 0
-0.127572566, 0.09762123  , -9.848214   , -6.414903E-05, 0.0128026856, 0.000787757337, -0.009233116, -0.0008900409, 1.74556613  , 917.467041  , 25.5354328  , 829.835632  , 0.88        , 7           , 255         , 0           , 0
-0.121407211, 0.09391457  , -9.841956   , 0.000333179254, 0.0132111339, 0.000831645 , -0.009229792, -0.0007578624, 1.74557316  , 917.467041  , 25.5354328  , 829.8363    , 0.89        , 7           , 255         , 0           , 0
-0.115837909, 0.09408221  , -9.85127    , 0.000202101888, 0.01297297  , 0.000618644059, -0.009227773, -0.000628084, 1.74557829  , 917.467041  , 25.5354328  , 829.837     , 0.9         , 7           , 255         , 0           , 0
-0.113546848, 0.0905245543, -9.852126   , 0.000435579335, 0.01291613  , 0.0002862683, -0.009228022, -0.00058683526, 1.74558008  , 917.467041  , 25.5354328  , 829.841064  , 0.91        , 7           , 255         , 0           , 0
-0.111497939, 0.0895746052, -9.847841   , 0.0005444207, 0.01277452  , -0.000442264834, -0.009222574, -0.000459139264, 1.74557436  , 917.467041  , 25.5354328  , 829.841736  , 0.92        , 7           , 255         , 0           , 0
-0.116769217, 0.08806586  , -9.852387   , 4.93691768E-05, 0.0128857018, -4.435121E-05, -0.009222078, -0.000330294948, 1.74557281  , 917.4527    , 25.5384865  , 829.8424    , 0.93        , 7           , 255         , 0           , 0
-0.119339682, 0.08819625  , -9.843633   , 0.00044962368, 0.0130337477, -0.000627762754, -0.009217582, -0.000200023875, 1.74556541  , 917.4527    , 25.5384865  , 829.8431    , 0.94        , 7           , 255         , 0           , 0
-0.116620205, 0.0990740955, -9.840075   , 0.000365945278, 0.0130003933, -0.0008220384, -0.00921392 , -7.01043755E-05, 1.745556    , 917.4527    , 25.5384865  , 829.84375   , 0.95        , 7           , 255         , 0           , 0
-0.123400234, 0.100210309 , -9.840932   , -0.000237362692, 0.0126054063, -0.0005312102, -0.009216294, 5.58919273E-05, 1.74554944  , 917.4527    , 25.5384865  , 829.8445    , 0.96        , 7           , 255         , 0           , 0
-0.127721578, 0.09259209  , -9.841063   , -9.22412146E-05, 0.01266802  , -0.000329327653, -0.009217216, 0.000182533637, 1.745545    , 917.4527    , 25.5384865  , 829.8452    , 0.97        , 7           , 255         , 0           , 0
-0.124573708, 0.0864826143, -9.848457   , -7.29304738E-05, 0.0130571546, -0.000373215065, -0.009217945, 0.0003130613, 1.7455399   , 917.4527    , 25.5384865  , 829.845947  , 0.98        , 7           , 255         , 0           , 0
-0.119525932, 0.087376684 , -9.852499   , -0.00031987112, 0.0126498789, -0.000229264144, -0.009221146, 0.000439530239, 1.74553645  , 917.4527    , 25.5384865  , 829.8467    , 0.99        , 7           , 255         , 0           , 0
-0.12177974 , 0.09402633  , -9.850767   , 7.97978137E-05, 0.0130624212, 0.0002189742, -0.009220345, 0.0005701655, 1.74553728  , 917.4527    , 25.5384865  , 829.8474    , 1           , 7           , 0           , 6.45623636  , 100
-0.12116506 , 0.0914186239, -9.847414   , 0.000192149309, 0.0129119381, -0.000214050291, -0.009219127, 0.0006032214, 1.745534    , 917.4527    , 25.5384865  , 829.865967  , 1.01        , 7           , 1           , 0           , 0
-0.116731979, 0.08892268  , -9.85233    , 0.0006456538, 0.0130447717, -0.000165481353, -0.009212671, 0.0007336452, 1.74553108  , 917.4527    , 25.5384865  , 829.86676   , 1.02        , 7           , 2           , 0           , 0
-0.121816993, 0.0925175846, -9.850655   , -0.000378388679, 0.0128978938, -1.74341258E-05, -0.009216457, 0.000862613437, 1.74552965  , 917.451538  , 25.5416737  , 829.867554  , 1.03        , 7           , 3           , 0           , 0
-0.124815844, 0.100936748 , -9.850952   , -0.0005527686, 0.0129218856, -0.000335765071, -0.009221986, 0.0009917916, 1.74552488  , 917.451538  , 25.5416737  , 829.868347  , 1.04        , 7           , 4           , 0           , 0
-0.129248947, 0.09145588  , -9.851679   , -0.000100434292, 0.0134584839, -0.0003603421, -0.00922299549, 0.00112633384, 1.74552011  , 917.451538  , 25.5416737  , 829.869141  , 1.05        , 7           , 5           , 0           , 0
-0.127293184, 0.09378418  , -9.847041   , -7.64427241E-05, 0.013268305 , -3.908528E-05, -0.00922376 , 0.00125900412, 1.74551845  , 917.451538  , 25.5416737  , 829.869934  , 1.06        , 7           , 6           , 0           , 0
-0.117309391, 0.08638948  , -9.85063648 , 0.000138313975, 0.01244439  , -0.0005926534, -0.009222386, 0.00138338469, 1.74551129  , 917.451538  , 25.5416737  , 829.8707    , 1.07        , 7           , 7           , 0           , 0
-0.113900758, 0.09106472  , -9.850953   , 0.0005087247, 0.0125467936, -0.0001619705, -0.009217304, 0.00150883023, 1.74550867  , 917.451538  , 25.5416737  , 829.8716    , 1.08        , 7           , 8           , 5           , 5
-0.117272139, 0.09132549  , -9.852592   , -0.00015485473, 0.0134450253, 0.000381064834, -0.009218847, 0.00164330634, 1.74551117  , 917.451538  , 25.5416737  , 829.872437  , 1.09        , 7           , 9           , 5           , 0.1
-0.119172037, 0.08840114  , -9.84706    , -0.0005989969, 0.0131161613, -0.000213465071, -0.009224843, 0.00177443912, 1.74550784  , 917.451538  , 25.5416737  , 829.8733    , 1.1         , 7           , 10          , 0.1         , 0.1
-0.117290758, 0.09631738  , -9.842478   , 0.000244813738, 0.0132377651, 0.000110131223, -0.009222992, 0.00180562818, 1.74550772  , 917.451538  , 25.5416737  , 829.889648  , 1.11        , 7           , 11          , 0.0105223842, 0.0105223618
-0.113714479, 0.10037794  , -9.846036   , -0.0007575778, 0.0133430939, -9.584776E-05, -0.009230569, 0.00193904107, 1.74550557  , 917.451538  , 25.5416737  , 829.890564  , 1.12        , 7           , 12          , 0.0346428268, 0
-0.108852983, 0.09588897  , -9.843893   , -0.000301147345, 0.01367781  , 0.000123589765, -0.009233581, 0.00207582163, 1.74550557  , 917.5101    , 25.5425568  , 829.8915    , 1.13        , 7           , 13          , 0           , 0
-0.11369586 , 0.09460375  , -9.84281349 , 2.12795567E-05, 0.0129656615, 0.000319035957, -0.009233364, 0.002205499 , 1.7455076   , 917.5101    , 25.5425568  , 829.8924    , 1.14        , 7           , 14          , 0.00360558671, 4.74241858E-07
-0.121202327, 0.0982917845, -9.84136    , -1.54157169E-06, 0.0125548737, 8.96502752E-05, -0.009233379, 0.00233104732, 1.74550736  , 917.5101    , 25.5425568  , 829.8933    , 1.15        , 7           , 15          , 0           , 0.00214159233
-0.112727284, 0.09758398  , -9.846576   , -0.000185284065, 0.0128989518, 0.000441921176, -0.009235223, 0.00246006879, 1.7455107   , 917.5101    , 25.5425568  , 829.8942    , 1.16        , 7           , 16          , 0           , 4.203895E-45
-0.1220964  , 0.09544194  , -9.852797   , -0.0001367156, 0.0128544793, 0.0005560287, -0.009236578, 0.002588655 , 1.745515    , 917.5101    , 25.5425568  , 829.895142  , 1.17        , 7           , 20          , 0           , 0
-0.117141746, 0.09667128  , -9.847674   , -0.000360834179, 0.0130838649, 0.000122419791, -0.009240186, 0.002719496 , 1.745515    , 917.5101    , 25.5425568  , 829.896057  , 1.18        , 7           , 21          , 0           , 0
-0.117588781, 0.09289011  , -9.851455   , 0.0005122351, 0.0128655983, 0.000169232953, -0.00923506 , 0.00284815882, 1.74551558  , 917.5101    , 25.5425568  , 829.897     , 1.19        , 7           , 22          , 0           , 0
-0.114124276, 0.0924617052, -9.846967   , 0.000485317549, 0.0134531064, 8.438388E-05, -0.009230209, 0.002982688 , 1.74551511  , 917.5101    , 25.5425568  , 829.897949  , 1.2         , 7           , 40          , 0           , 0
-0.116918229, 0.0925175846, -9.8457365  , -0.0005059608, 0.0127700772, -0.000698571443, -0.009239445, 0.0029984205, 1.745507    , 917.5101    , 25.5425568  , 829.8507    , 1.21        , 7           , 41          , 0           , 0
-0.114832066, 0.089854    , -9.852163   , 0.000122508733, 0.0128888665, -0.0001221816, -0.009238227, 0.00312728854, 1.7455045   , 917.5101    , 25.5425568  , 829.8515    , 1.22        , 7           , 42          , 1           , 0
-0.115837909, 0.0935606658, -9.85492    , 0.000402218662, 0.0128245   , 0.000131195877, -0.009234202, 0.00325553562, 1.7455045   , 917.483765  , 25.5457439  , 829.8523    , 1.23        , 7           , 255         , 0           , 0
-0.117942691, 0.08512288  , -9.8518095  , 0.0003665234, 0.01280987  , 0.00047176308, -0.009230526, 0.003383669 , 1.74550807  , 917.483765  , 25.5457439  , 829.853149  , 1.24        , 7           , 255         , 0           , 0
-0.111423433, 0.08830801  , -9.851828   , -2.26125121E-05, 0.0126875695, 0.000233015046, -0.009230746, 0.00351055642, 1.74550915  , 917.483765  , 25.5457439  , 829.854     , 1.25        , 7           , 255         , 0           , 0
-0.12079253 , 0.0882335   , -9.85235    , -0.0003924386, 0.0126805482, 0.000178594375, -0.009234668, 0.00363736949, 1.74550962  , 917.483765  , 25.5457439  , 829.854858  , 1.26        , 7           , 255         , 0           , 0
-0.117104508, 0.1001358   , -9.847918   , 5.34588471E-05, 0.0128806755, -3.96731775E-05, -0.009234138, 0.00376616255, 1.745508    , 917.483765  , 25.5457439  , 829.8557    , 1.27        , 7           , 255         , 0           , 0
-0.1157634  , 0.0930391252, -9.850375   , 0.0005198377, 0.0130310636, 0.000727481 , -0.009228916, 0.00389653118, 1.745514    , 917.483765  , 25.5457439  , 829.856567  , 1.28        , 7           , 255         , 0           , 0
-0.123120844, 0.09408221  , -9.845216   , 0.000136552611, 0.0129801529, 0.00062156585, -0.009227529, 0.0040263813, 1.74551916  , 917.483765  , 25.5457439  , 829.8574    , 1.29        , 7           , 255         , 0           , 0
-0.129770488, 0.0891089439, -9.839814   , 0.0002524159, 0.0129936133, 0.000879039755, -0.009224973, 0.00415638927, 1.74552679  , 917.483765  , 25.5457439  , 829.8583    , 1.3         , 7           , 255         , 0           , 0
-0.118371107, 0.09268522  , -9.849798   , -0.000290034572, 0.0132719977, 9.7254524E-05, -0.00922824349, 0.00417193864, 1.74552655  , 917.483765  , 25.5457439  , 829.8428    , 1.31        , 7           , 255         , 0           , 0
-0.105127692, 0.08979812  , -9.847451   , 0.000604101 , 0.0128231728, 0.000285678543, -0.009222195, 0.00430018827, 1.74552834  , 917.483765  , 25.5457439  , 829.8436    , 1.32        , 7           , 255         , 0           , 0
-0.115912415, 0.08961186  , -9.845757   , 0.00024012709, 0.0128594544, 2.64493283E-05, -0.009219797, 0.00442877738, 1.74552739  , 917.4642    , 25.5502911  , 829.8445    , 1.33        , 7           , 255         , 0           , 0
-0.121947385, 0.0864267349, -9.838882   , -0.000222740229, 0.0129425479, 0.000894252444, -0.009221991, 0.00455827639, 1.74553514  , 917.4642    , 25.5502911  , 829.845337  , 1.34        , 7           , 255         , 0           , 0
-0.122487545, 0.0886805356, -9.836331   , 0.000516911037, 0.0125405379, -0.000249749515, -0.009216839, 0.00468365056, 1.74553156  , 917.4642    , 25.5502911  , 829.8462    , 1.35        , 7           , 255         , 0           , 0
-0.115055583, 0.09102747  , -9.839349   , -0.00033333688, 0.0131467711, -1.21714547E-05, -0.009220178, 0.004815108 , 1.74553013  , 917.4642    , 25.5502911  , 829.847046  , 1.36        , 7           , 255         , 0           , 0
-0.114794828, 0.08909032  , -9.846222   , 4.52662352E-05, 0.0129969679, 0.000148749212, -0.009219723, 0.00494508352, 1.74553049  , 917.4642    , 25.5502911  , 829.8479    , 1.37        , 7           , 255         , 0           , 0
-0.115986921, 0.08819625  , -9.858999   , -4.4264365E-05, 0.0129782436, 0.0006789109, -0.009220138, 0.0050749206, 1.74553609  , 917.4642    , 25.5502911  , 829.848755  , 1.38        , 7           , 255         , 0           , 0
-0.121816993, 0.09743497  , -9.853467   , 4.702201E-05, 0.0130917644, 2.70346645E-05, -0.00921967253, 0.00520583149, 1.74553514  , 917.4642    , 25.5502911  , 829.8496    , 1.39        , 7           , 255         , 0           , 0
-0.12749806 , 0.09305775  , -9.850971   , -0.000292375451, 0.0132199163, 0.000137046212, -0.009222595, 0.00533803552, 1.74553537  , 917.4642    , 25.5502911  , 829.850464  , 1.4         , 7           , 255         , 0           , 0
-0.125281513, 0.08722767  , -9.84922    , 0.000137722818, 0.0132214865, -0.000102289254, -0.009221091, 0.005340829 , 1.74553311  , 917.4642    , 25.5502911  , 829.8562    , 1.41        , 7           , 255         , 0           , 0
-0.119712211, 0.09691343  , -9.841229   , -7.937406E-05, 0.0131009407, 0.0007672694, -0.009221851, 0.005471901 , 1.74553955  , 917.4642    , 25.5502911  , 829.8571    , 1.42        , 7           , 255         , 0           , 0
-0.113621354, 0.0948272645, -9.85102749 , -0.0002590206, 0.0126977619, 0.000503944 , -0.00922441948, 0.00559891667, 1.74554336  , 917.4842    , 25.5497475  , 829.858032  , 1.43        , 7           , 255         , 0           , 0
-0.118818142, 0.08497387  , -9.847656   , 0.0001693219, 0.0126737691, -0.000886413269, -0.009222781, 0.005725563 , 1.74553335  , 917.4842    , 25.5497475  , 829.858948  , 1.44        , 7           , 255         , 0           , 0
-0.121463083, 0.0915676355, -9.846017   , -0.000263701659, 0.0133824078, -0.000216981978, -0.00922543649, 0.00585935824, 1.74552989  , 917.4842    , 25.5497475  , 829.859863  , 1.45        , 7           , 255         , 0           , 0
-0.136643648, 0.09045005  , -9.847581   , -0.000224495539, 0.0131612131, -0.000368540175, -0.00922771 , 0.00599092524, 1.74552488  , 917.4842    , 25.5497475  , 829.8608    , 1.46        , 7           , 255         , 0           , 0
-0.121090554, 0.09695068  , -9.849146   , -3.0805124E-05, 0.0128218168, -0.000484988559, -0.0092280535, 0.006119089 , 1.7455188   , 917.4842    , 25.5497475  , 829.861755  , 1.47        , 7           , 255         , 0           , 0
-0.119134784, 0.0916235149, -9.839013   , 0.000608782051, 0.0129353395, -0.0003931173, -0.009221997, 0.006248397 , 1.74551368  , 917.4842    , 25.5497475  , 829.862732  , 1.48        , 7           , 255         , 0           , 0
-0.118371107, 0.0984966755, -9.853598   , 0.000539148459, 0.0129013993, -3.499491E-05, -0.009216616, 0.00637739757, 1.74551213  , 917.4842    , 25.5497475  , 829.8637    , 1.49        , 7           , 255         , 0           , 0
-0.118538737, 0.09721145  , -9.852034   , 0.000417432515, 0.012770907 , 0.0003670149, -0.009212423, 0.00650513126, 1.74551475  , 917.4842    , 25.5497475  , 829.8647    , 1.5         , 7           , 255         , 0           , 0
-0.113900758, 0.101178885 , -9.856839   , 0.000404556515, 0.0127747869, 0.000790088437, -0.00921002 , 0.006494804 , 1.74552143  , 917.4842    , 25.5497475  , 829.8477    , 1.51        , 7           , 255         , 0           , 0
-0.115893781, 0.102557242 , -9.850431   , -0.000210454455, 0.0129760867, 1.64974481E-05, -0.009212131, 0.00662455661, 1.74552035  , 917.4842    , 25.5497475  , 829.848633  , 1.52        , 7           , 255         , 0           , 0
-0.112373374, 0.0902637839, -9.849202   , -0.000129701337, 0.0131773837, -0.0002801821, -0.009213454, 0.00675629545, 1.7455163   , 917.4788    , 25.5532761  , 829.849548  , 1.53        , 7           , 255         , 0           , 0
-0.125467777, 0.08635223  , -9.853226   , 0.000711769564, 0.0133546889, -0.000205280725, -0.009206358, 0.006889813 , 1.74551308  , 917.4788    , 25.5532761  , 829.850464  , 1.54        , 7           , 255         , 0           , 0
-0.117588781, 0.09370968  , -9.849501   , 0.000350720948, 0.01305918  , -0.0006137274, -0.0092029  , 0.00702033937, 1.74550581  , 917.4788    , 25.5532761  , 829.8514    , 1.55        , 7           , 255         , 0           , 0
-0.121276833, 0.09490177  , -9.849686   , 0.000126016792, 0.0130457208, 0.0004173373, -0.009201618, 0.007150825 , 1.74550879  , 917.4788    , 25.5532761  , 829.8523    , 1.56        , 7           , 255         , 0           , 0
-0.120382763, 0.08892268  , -9.849146   , 0.00029805582, 0.01279995  , 0.000408559572, -0.009198616, 0.00727885263, 1.74551177  , 917.4788    , 25.5532761  , 829.8532    , 1.57        , 7           , 255         , 0           , 0
-0.115372241, 0.0893138349, -9.847786   , 0.0007855005, 0.0129778422, 0.000434306916, -0.009190738, 0.007408664 , 1.745515    , 917.4788    , 25.5532761  , 829.8541    , 1.58        , 7           , 255         , 0           , 0
-0.117272139, 0.100545585 , -9.843838   , 5.345582E-05, 0.0126975467, 0.0006771516, -0.009190161, 0.007535692 , 1.74552059  , 917.4788    , 25.5532761  , 829.8551    , 1.59        , 7           , 255         , 0           , 0
-0.1221709  , 0.09331852  , -9.846073   , -3.84154264E-05, 0.01327569  , 0.000327221584, -0.00919053052, 0.00766847143, 1.74552262  , 917.4788    , 25.5532761  , 829.8561    , 1.6         , 7           , 255         , 0           , 0
-0.126380473, 0.09031966  , -9.847618   , 0.00022958708, 0.0133023746, -0.0003843439, -0.009190851, 0.00766172959, 1.74551761  , 917.4788    , 25.5532761  , 829.8457    , 1.61        , 7           , 255         , 0           , 0
-0.123083591, 0.08933246  , -9.844602   , -0.000317543978, 0.0131215593, -0.000398387667, -0.009194066, 0.00779289845, 1.74551225  , 917.4788    , 25.5532761  , 829.8466    , 1.62        , 7           , 255         , 0           , 0
-0.123921774, 0.09888783  , -9.84244    , -0.000168326311, 0.0127809914, -0.0001063894, -0.009195767, 0.007920691 , 1.7455101   , 917.462463  , 25.5536137  , 829.847534  , 1.63        , 7           , 255         , 0           , 0
-0.124853112, 0.09536743  , -9.849985   , -0.000158963492, 0.01308762  , -0.0004077505, -0.009197399, 0.00805152  , 1.74550474  , 917.462463  , 25.5536137  , 829.84845   , 1.64        , 7           , 255         , 0           , 0
-0.125970691, 0.0918842852, -9.846203   , -6.23520464E-06, 0.0132339112, -3.03175766E-05, -0.009197473, 0.008183848 , 1.74550319  , 917.462463  , 25.5536137  , 829.849365  , 1.65        , 7           , 255         , 0           , 0
-0.129342079, 0.09853393  , -9.851828   , -0.000392445363, 0.0130899595, -4.14357055E-05, -0.009201411, 0.008314735 , 1.74550152  , 917.462463  , 25.5536137  , 829.8503    , 1.66        , 7           , 255         , 0           , 0
-0.116657473, 0.09380281  , -9.840113   , -7.76255038E-05, 0.0131695429, -0.000196505222, -0.009202213, 0.008446405 , 1.74549842  , 917.462463  , 25.5536137  , 829.851257  , 1.67        , 7           , 255         , 0           , 0
-0.11423602 , 0.08434057  , -9.847135   , -0.00013555726, 0.0128371678, -5.13836276E-05, -0.009203581, 0.00857476  , 1.74549675  , 917.462463  , 25.5536137  , 829.852234  , 1.68        , 7           , 255         , 0           , 0
-0.117886804, 0.08609146  , -9.848066   , 0.0007813999, 0.0128354123, 0.00033833785, -0.009195749, 0.008703137 , 1.745499    , 917.462463  , 25.5536137  , 829.8532    , 1.69        , 7           , 255         , 0           , 0
-0.117644668, 0.08998439  , -9.846371   , 0.000264112139, 0.0126265073, -2.914737E-05, -0.00919312052, 0.008829392 , 1.74549758  , 917.462463  , 25.5536137  , 829.8542    , 1.7         , 7           , 255         , 0           , 0
-0.119060278, 0.09927899  , -9.846538   , -1.32590067E-05, 0.0128345471, 0.000244708266, -0.009194242, 0.00880075153, 1.74549878  , 917.462463  , 25.5536137  , 829.8616    , 1.71        , 7           , 255         , 0           , 0
-0.12267381 , 0.0932998955, -9.849705   , -0.000184713164, 0.0132283652, 0.000217790948, -0.00919608 , 0.008933047 , 1.74549985  , 917.462463  , 25.5536137  , 829.8626    , 1.72        , 7           , 255         , 0           , 0
-0.1165457  , 0.09149313  , -9.838491   , 3.35541554E-05, 0.0130118532, 0.000199650647, -0.009195737, 0.009063174 , 1.74550056  , 917.4433    , 25.5554466  , 829.863647  , 1.73        , 7           , 255         , 0           , 0
-0.123269856, 0.0900961459, -9.835455   , -5.714665E-05, 0.0125437183, 1.06415246E-05, -0.009196316, 0.009188604 , 1.74549949  , 917.4433    , 25.5554466  , 829.8647    , 1.74        , 7           , 255         , 0           , 0
-0.11848285 , 0.0919960439, -9.850096   , -0.000120344339, 0.0129334405, -0.0003252444, -0.009197562, 0.009317898 , 1.74549508  , 917.4433    , 25.5554466  , 829.8657    , 1.75        , 7           , 255         , 0           , 0
-0.125300139, 0.0868923962, -9.850003   , 0.0002676216, 0.01291179  , -0.0002696535, -0.009194921, 0.009446981 , 1.74549115  , 917.4433    , 25.5554466  , 829.86676   , 1.76        , 7           , 255         , 0           , 0
-0.1306273  , 0.09158626  , -9.848066   , -0.000109811779, 0.0126666036, -1.74464658E-05, -0.00919603 , 0.009573636 , 1.74548972  , 917.4433    , 25.5554466  , 829.8678    , 1.77        , 7           , 255         , 0           , 0
-0.125616789, 0.09292737  , -9.845217   , 6.6368375E-06, 0.0128246   , 2.5855843E-05, -0.009195972, 0.009701875 , 1.74548888  , 917.4433    , 25.5554466  , 829.868835  , 1.78        , 7           , 255         , 0           , 0
-0.108946107, 0.08756295  , -9.846464   , 0.000163461315, 0.0132781044, 0.0006402817, -0.00919428747, 0.009834708 , 1.745494    , 917.4433    , 25.5554466  , 829.8699    , 1.79        , 7           , 255         , 0           , 0
-0.117756426, 0.09294599  , -9.848308   , 0.000128351385, 0.0125513254, 7.442478E-05, -0.009193008, 0.009960219 , 1.74549377  , 917.4433    , 25.5554466  , 829.871     , 1.8         , 7           , 255         , 0           , 0
-0.1229532  , 0.09665266  , -9.845887   , 0.000420933124, 0.0127599165, -0.0007729004, -0.00918986 , 0.009922646 , 1.74548483  , 917.4433    , 25.5554466  , 829.8986    , 1.81        , 7           , 255         , 0           , 0
-0.11635945 , 0.101029873 , -9.85063648 , 0.000140053453, 0.0129296156, 6.85702544E-05, -0.009188463, 0.0100519406, 1.74548435  , 917.4433    , 25.5554466  , 829.899841  , 1.82        , 7           , 255         , 0           , 0
-0.119060278, 0.0959262252, -9.860993   , 0.0002009105, 0.0131408619, 0.000644959742, -0.009186403, 0.0101833986, 1.74548948  , 917.480347  , 25.5574131  , 829.901062  , 1.83        , 7           , 255         , 0           , 0
-0.114291906, 0.100322068 , -9.852331   , -0.0003403693, 0.0127271479, -0.000120438868, -0.009189829, 0.01031065  , 1.74548721  , 917.480347  , 25.5574131  , 829.902344  , 1.84        , 7           , 255         , 0           , 0
-0.119321048, 0.08828938  , -9.850171   , -0.0003936193, 0.0128991874, 0.000230661361, -0.009193754, 0.0104396548, 1.74548817  , 917.480347  , 25.5574131  , 829.9036    , 1.85        , 7           , 255         , 0           , 0
-0.116936862, 0.09216368  , -9.850245   , -0.0006113015, 0.012815509 , -0.0005323966, -0.009199933, 0.0105677517, 1.74548173  , 917.480347  , 25.5574131  , 829.9049    , 1.86        , 7           , 255         , 0           , 0
-0.122208141, 0.09905547  , -9.8480835  , -7.821433E-05, 0.0131993778, -0.000172518659, -0.009200746, 0.01069972  , 1.74547887  , 917.480347  , 25.5574131  , 829.9062    , 1.87        , 7           , 255         , 0           , 0
-0.1109764  , 0.09417534  , -9.843111   , 0.000359490979, 0.0127979536, -0.000243909191, -0.00919719 , 0.0108276671, 1.74547517  , 917.480347  , 25.5574131  , 829.9075    , 1.88        , 7           , 255         , 0           , 0
-0.11343509 , 0.0915676355, -9.853467   , -5.36371954E-05, 0.0126200635, -0.000177200185, -0.009197758, 0.0109538427, 1.74547231  , 917.480347  , 25.5574131  , 829.908752  , 1.89        , 7           , 255         , 0           , 0
-0.117402531, 0.0902637839, -9.852386   , 4.58410941E-05, 0.0127593316, 0.000336576719, -0.009197277, 0.01108146  , 1.74547458  , 917.480347  , 25.5574131  , 829.910034  , 1.9         , 7           , 255         , 0           , 0
-0.113267444, 0.09059906  , -9.855032   , -1.5608035E-05, 0.0130896335, 2.40942463E-05, -0.009200604, 0.0110541405, 1.74547362  , 917.480347  , 25.5574131  , 829.8903    , 1.91        , 7           , 255         , 0           , 0
-0.128988177, 0.0936538   , -9.84693    , 0.0006778147, 0.0122411409, 0.000430785585, -0.009193791, 0.0111765862, 1.74547684  , 917.480347  , 25.5574131  , 829.8915    , 1.92        , 7           , 255         , 0           , 0
-0.12079253 , 0.0943616   , -9.846186   , 0.0001628683, 0.0130164865, 0.000124743208, -0.00919216 , 0.0113067525, 1.745477    , 917.5124    , 25.5580235  , 829.892639  , 1.93        , 7           , 255         , 0           , 0
-0.1190789  , 0.09149313  , -9.848383   , 0.0005537593, 0.0127900261, 0.000462384662, -0.0091865845, 0.0114346873, 1.74548042  , 917.5124    , 25.5580235  , 829.89386   , 1.94        , 7           , 255         , 0           , 0
-0.113938   , 0.08311123  , -9.849165   , 0.000339588616, 0.0127467252, 0.0004916431, -0.009183144, 0.0115621909, 1.74548423  , 917.5124    , 25.5580235  , 829.8951    , 1.95        , 7           , 255         , 0           , 0
-0.122077763, 0.0896304846, -9.842143   , 0.000136535848, 0.0125179254, -3.79332341E-05, -0.009181796, 0.0116873579, 1.74548268  , 917.5124    , 25.5580235  , 829.8963    , 1.96        , 7           , 255         , 0           , 0
-0.122059129, 0.08998439  , -9.841528   , 0.00011898065, 0.0131218173, 0.000455947826, -0.009180567, 0.0118186073, 1.745486    , 917.5124    , 25.5580235  , 829.8975    , 1.97        , 7           , 255         , 0           , 0
-0.118743636, 0.09054318  , -9.846743   , 0.000197393354, 0.0135372868, -9.845244E-06, -0.00917861 , 0.0119539713, 1.74548459  , 917.5124    , 25.5580235  , 829.898743  , 1.98        , 7           , 255         , 0           , 0
-0.122133635, 0.08825213  , -9.854268   , -5.188817E-05, 0.0130463308, 0.000118891476, -0.009179127, 0.0120844347, 1.74548459  , 917.5124    , 25.5580235  , 829.899963  , 1.99        , 7           , 255         , 0           , 0
-0.111553811, 0.105295323 , -9.841975   , 0.000350706745, 0.0135273393, -0.000143848592, -0.009175653, 0.012219687 , 1.745482    , 917.5124    , 25.5580235  , 829.9012    , 2           , 7           , 0           , 7.45623636  , 200
-0.125467777, 0.106692314 , -9.845904   , 4.87586949E-05, 0.0127779525, 8.143741E-05, -0.009176109, 0.0121724643, 1.74548149  , 917.5124    , 25.5580235  , 829.8434    , 2.01        , 7           , 1           , 0           , 0
-0.121071935, 0.101570033 , -9.851604   , 5.28548844E-05, 0.0131858131, -4.20329161E-05, -0.0091756  , 0.012304307 , 1.7454797   , 917.5124    , 25.5580235  , 829.8443    , 2.02        , 7           , 2           , 0           , 0
-0.12634322 , 0.09678304  , -9.851735   , 0.000119563658, 0.0133309346, -0.000284292037, -0.009174455, 0.01243758  , 1.74547565  , 917.472     , 25.5593815  , 829.8452    , 2.03        , 7           , 3           , 0           , 0
-0.129677355, 0.0938773155, -9.850487   , -6.651925E-05, 0.0132630551, -0.000308283838, -0.009175174, 0.0125701725, 1.74547136  , 917.472     , 25.5593815  , 829.8461    , 2.04        , 7           , 4           , 0           , 0
-0.129938126, 0.09318814  , -9.854082   , -0.000215736916, 0.0132373068, 0.0002423583, -0.009177314, 0.0127025619, 1.74547255  , 917.472     , 25.5593815  , 829.847046  , 2.05        , 7           , 5           , 0           , 0
-0.115893781, 0.0941380858, -9.850525   , -9.806827E-07, 0.0136252735, 0.000462966273, -0.009177281, 0.012838847 , 1.745476    , 917.472     , 25.5593815  , 829.847961  , 2.06        , 7           , 6           , 0           , 0
-0.117737792, 0.09559095  , -9.840802   , -0.000153709436, 0.0137768323, -0.000238649081, -0.009178863, 0.0129765822, 1.74547243  , 917.472     , 25.5593815  , 829.8489    , 2.07        , 7           , 7           , 0           , 0
-0.122487545, 0.101570033 , -9.844526   , -0.000109236455, 0.0130307442, -0.000242745155, -0.009180003, 0.0131068574, 1.74546874  , 917.472     , 25.5593815  , 829.8498    , 2.08        , 7           , 8           , 5           , 5
-0.113844872, 0.08797273  , -9.852257   , -0.000112162437, 0.0130746309, 0.0005723927, -0.009181065, 0.0132376486, 1.74547327  , 917.472     , 25.5593815  , 829.8507    , 2.09        , 7           , 9           , 5           , 0.1
-0.116620205, 0.08376315  , -9.839647   , 0.0002523968, 0.0135234557, 0.0003307187, -0.009178511, 0.0133729037, 1.74547541  , 917.472     , 25.5593815  , 829.8516    , 2.1         , 7           , 10          , 0.1         , 0.1
-0.115502618, 0.08946285  , -9.842756   , -0.000180050265, 0.0133890426, 0.000261665555, -0.009184077, 0.0133252861, 1.74547684  , 917.472     , 25.5593815  , 829.84845   , 2.11        , 7           , 11          , 0.0101494184, 0.0101493765
-0.112690032, 0.09059906  , -9.850822   , 0.00014998368, 0.0127219511, -2.44814437E-05, -0.00918259751, 0.0134524954, 1.74547529  , 917.472     , 25.5593815  , 829.849365  , 2.12        , 7           , 12          , 0.03464815  , 0
-0.121220946, 0.076815486 , -9.848866   , 0.000294520054, 0.0126944482, -2.8302893E-06, -0.009179668, 0.01357943  , 1.7454741   , 917.5208    , 25.5611458  , 829.8503    , 2.13        , 7           , 13          , 0           , 0
-0.117514275, 0.08130446  , -9.846017   , 0.000442567049, 0.0131672639, 0.0008076264, -0.009175146, 0.0137111666, 1.745481    , 917.5208    , 25.5611458  , 829.8512    , 2.14        , 7           , 14          , 0.00360561931, 3.09440134E-06
-0.123623751, 0.09000301  , -9.849817   , 0.0006403539, 0.01323807  , 0.000381039456, -0.009168705, 0.0138435708, 1.74548364  , 917.5208    , 25.5611458  , 829.8522    , 2.15        , 7           , 15          , 0           , 0.00214161654
-0.120308258, 0.09242445  , -9.850599   , -0.000113341026, 0.0127482852, 0.000216607237, -0.009169823, 0.0139710633, 1.74548459  , 917.5208    , 25.5611458  , 829.853149  , 2.16        , 7           , 16          , 0           , 4.203895E-45
-0.114738941, 0.08722767  , -9.846762   , -0.000238566659, 0.0125891194, 1.94062013E-05, -0.00917222351, 0.0140969483, 1.74548364  , 917.5208    , 25.5611458  , 829.8541    , 2.17        , 7           , 20          , 0           , 0
-0.118967153, 0.08834526  , -9.845179   , 0.000767920865, 0.01317136  , -0.000659388, -0.009164654, 0.0142285917, 1.74547577  , 917.5208    , 25.5611458  , 829.8551    , 2.18        , 7           , 21          , 0           , 0
-0.129416585, 0.08830801  , -9.843502   , 0.000456026057, 0.01300927  , -0.0005973603, -0.009160194, 0.0143586174, 1.74546874  , 917.5208    , 25.5611458  , 829.8561    , 2.19        , 7           , 22          , 0           , 0
-0.1305528  , 0.100024045 , -9.843279   , 0.000413309084, 0.0132837119, 0.000381624559, -0.009156022, 0.0144914789, 1.74547136  , 917.5208    , 25.5611458  , 829.857056  , 2.2         , 7           , 40          , 0           , 0
-0.11138618 , 0.09113923  , -9.851773   , -0.00011392287, 0.0130070616, 4.8075337E-05, -0.009155781, 0.0144299967, 1.74547052  , 917.5208    , 25.5611458  , 829.790955  , 2.21        , 7           , 41          , 0           , 0
-0.119041659, 0.0936724246, -9.849966   , -0.000474385684, 0.0126711745, 0.0007701719, -0.009160429, 0.01455677  , 1.74547708  , 917.5208    , 25.5611458  , 829.7915    , 2.22        , 7           , 42          , 1           , 0
-0.122413039, 0.097882    , -9.851194   , 0.000316760037, 0.0129789729, -0.0002872256, -0.00915732048, 0.014686523 , 1.745473    , 917.489746  , 25.5635185  , 829.7921    , 2.23        , 7           , 255         , 0           , 0
-0.120531775, 0.100396574 , -9.849406   , 0.000487628859, 0.0129046561, 3.28607857E-05, -0.009152455, 0.0148155633, 1.74547207  , 917.489746  , 25.5635185  , 829.7927    , 2.24        , 7           , 255         , 0           , 0
-0.128708765, 0.0979192555, -9.850804   , 0.0003436776, 0.0129350862, 0.00033422187, -0.009148985, 0.0149449343, 1.74547422  , 917.489746  , 25.5635185  , 829.793335  , 2.25        , 7           , 255         , 0           , 0
-0.121854246, 0.09229407  , -9.844899   , -5.54062426E-05, 0.0129052419, -9.294995E-05, -0.00914957 , 0.0150739644, 1.74547207  , 917.489746  , 25.5635185  , 829.793945  , 2.26        , 7           , 255         , 0           , 0
-0.115819275, 0.106189393 , -9.841564   , -0.000175950816, 0.0129748769, 0.000520890346, -0.009151267, 0.0152037516, 1.745476    , 917.489746  , 25.5635185  , 829.794556  , 2.27        , 7           , 255         , 0           , 0
-0.117514275, 0.103004277 , -9.851624   , -0.000477897, 0.0130404169, 0.000237084227, -0.009156027, 0.0153341657, 1.7454772   , 917.489746  , 25.5635185  , 829.795166  , 2.28        , 7           , 255         , 0           , 0
-0.121034682, 0.106673695 , -9.853895   , -0.000281280838, 0.0134289674, 0.000292089768, -0.009158813, 0.0154684726, 1.745479    , 917.489746  , 25.5635185  , 829.7958    , 2.29        , 7           , 255         , 0           , 0
-0.112261631, 0.0977143645, -9.848233   , 1.71544962E-05, 0.0131949   , -0.00080451346, -0.009158784, 0.0156003376, 1.74546969  , 917.489746  , 25.5635185  , 829.7964    , 2.3         , 7           , 255         , 0           , 0
-0.12328849 , 0.09747222  , -9.84786    , 0.000813551946, 0.0132014491, -0.000236320309, -0.009156819, 0.0155424671, 1.745466    , 917.489746  , 25.5635185  , 829.777039  , 2.31        , 7           , 255         , 0           , 0
-0.125654042, 0.0933557749, -9.842589   , 9.26260836E-05, 0.0127011323, 0.000616853358, -0.009155815, 0.0156695228, 1.74547112  , 917.489746  , 25.5635185  , 829.7775    , 2.32        , 7           , 255         , 0           , 0
-0.114087008, 0.09102747  , -9.843689   , -0.000119204866, 0.01296036  , 0.000156912021, -0.009156998, 0.0157991331, 1.74547148  , 917.427246  , 25.5635185  , 829.7781    , 2.33        , 7           , 255         , 0           , 0
-0.11635945 , 0.09601936  , -9.852275   , 0.000420904951, 0.0131721906, -0.000218180474, -0.009152844, 0.015930824 , 1.74546826  , 917.427246  , 25.5635185  , 829.7786    , 2.34        , 7           , 255         , 0           , 0
-0.11626631 , 0.0914186239, -9.845831   , 0.0005279903, 0.0127157606, -0.000190677354, -0.009147611, 0.0160579588, 1.74546528  , 917.427246  , 25.5635185  , 829.7792    , 2.35        , 7           , 255         , 0           , 0
-0.112690032, 0.08974224  , -9.851512   , 0.0002699315, 0.0124770124, 0.000265753129, -0.009144889, 0.0161827467, 1.74546671  , 917.427246  , 25.5635185  , 829.7797    , 2.36        , 7           , 255         , 0           , 0
-0.124052167, 0.0808388   , -9.845961   , -0.000229215948, 0.012861467 , -4.61412128E-05, -0.009147209, 0.01631135  , 1.74546516  , 917.427246  , 25.5635185  , 829.7803    , 2.37        , 7           , 255         , 0           , 0
-0.1258403  , 0.08970499  , -9.857528   , 0.000156408874, 0.0132190045, -0.00028371904, -0.00914571 , 0.016443504 , 1.74546111  , 917.427246  , 25.5635185  , 829.7808    , 2.38        , 7           , 255         , 0           , 0
-0.119246542, 0.08834526  , -9.846519   , -5.77620231E-05, 0.0126016531, 0.000469976338, -0.009146228, 0.0165695548, 1.74546468  , 917.427246  , 25.5635185  , 829.7814    , 2.39        , 7           , 255         , 0           , 0
-0.12498349 , 0.09087846  , -9.846687   , 0.0002038076, 0.0130405286, 0.000340069178, -0.009144154, 0.0166999828, 1.745467    , 917.427246  , 25.5635185  , 829.7819    , 2.4         , 7           , 255         , 0           , 0
-0.124406077, 0.08715317  , -9.852704   , 0.000388718676, 0.0130610708, -2.68351287E-05, -0.009140851, 0.01662947  , 1.74546552  , 917.427246  , 25.5635185  , 829.847046  , 2.41        , 7           , 255         , 0           , 0
-0.129509717, 0.08901581  , -9.843801   , -0.000209321966, 0.0128790848, 0.000533169834, -0.009142874, 0.0167583022, 1.74546957  , 917.427246  , 25.5635185  , 829.848     , 2.42        , 7           , 255         , 0           , 0
-0.133682042, 0.08473173  , -9.849724   , 0.000109594315, 0.0131412391, -0.000157912727, -0.009141826, 0.0168896914, 1.74546683  , 917.452332  , 25.56854    , 829.849     , 2.43        , 7           , 255         , 0           , 0
-0.118613243, 0.08352101  , -9.850803   , 8.67722556E-05, 0.01296686  , -0.000363891479, -0.00914104 , 0.0170193184, 1.74546206  , 917.452332  , 25.56854    , 829.850037  , 2.44        , 7           , 255         , 0           , 0
-0.125113875, 0.08067116  , -9.853914   , 9.964616E-05, 0.0131043736, 0.000428424682, -0.009139991, 0.0171503928, 1.74546516  , 917.452332  , 25.56854    , 829.8511    , 2.45        , 7           , 255         , 0           , 0
-0.126231462, 0.0945106149, -9.84437752 , -0.0004972243, 0.01319683  , 4.2214524E-05, -0.009144977, 0.0172823574, 1.74546432  , 917.452332  , 25.56854    , 829.8521    , 2.46        , 7           , 255         , 0           , 0
-0.124033533, 0.09462237  , -9.8486805  , 0.000471812673, 0.0134876585, 0.0007169123, -0.009140156, 0.01741729  , 1.74547029  , 917.452332  , 25.56854    , 829.853149  , 2.47        , 7           , 255         , 0           , 0
-0.12036413 , 0.0939890742, -9.855125   , 0.0001435338, 0.0130130863, 0.000335383462, -0.009138684, 0.0175474361, 1.74547243  , 917.452332  , 25.56854    , 829.8542    , 2.48        , 7           , 255         , 0           , 0
-0.1254864  , 0.09711832  , -9.848345   , 0.000183325261, 0.012743324 , 0.000155736925, -0.009136843, 0.0176748745, 1.74547279  , 917.452332  , 25.56854    , 829.8552    , 2.49        , 7           , 255         , 0           , 0
-0.120140612, 0.08966774  , -9.839516   , 0.000325521 , 0.0129803186, 0.00075670355, -0.009133473, 0.0178047419, 1.74547923  , 917.452332  , 25.56854    , 829.856262  , 2.5         , 7           , 255         , 0           , 0
-0.115223229, 0.09221956  , -9.847768   , 0.000215510372, 0.0128761744, 0.000263402471, -0.009130923, 0.01772485  , 1.74548078  , 917.452332  , 25.56854    , 829.8787    , 2.51        , 7           , 255         , 0           , 0
-0.124461949, 0.08976087  , -9.850375   , 0.000143534737, 0.0132208383, -0.000183080323, -0.009129543, 0.01785703  , 1.74547756  , 917.452332  , 25.56854    , 829.879944  , 2.52        , 7           , 255         , 0           , 0
-0.120177865, 0.09620562  , -9.845383   , 1.36280432E-05, 0.013295739 , 0.000198448775, -0.009129394, 0.0179899987, 1.74547839  , 917.47406   , 25.56759    , 829.881165  , 2.53        , 7           , 255         , 0           , 0
-0.121034682, 0.0947713852, -9.848233   , -0.000122131314, 0.0133630345, 0.0005875849, -0.009130529, 0.0181236733, 1.74548316  , 917.47406   , 25.56759    , 829.8824    , 2.54        , 7           , 255         , 0           , 0
-0.124461949, 0.08331612  , -9.855796   , 0.0002038069, 0.0126403533, 0.0003640512, -0.009128446, 0.0182501022, 1.74548554  , 917.47406   , 25.56759    , 829.8836    , 2.55        , 7           , 255         , 0           , 0
-0.126510859, 0.09197742  , -9.850859   , 0.000227798941, 0.0130973672, 5.92879951E-06, -0.009126189, 0.0183810685, 1.74548447  , 917.47406   , 25.56759    , 829.8848    , 2.56        , 7           , 255         , 0           , 0
-0.120382763, 0.0938214362, -9.84095    , 0.000213169726, 0.0132284453, 0.000420812285, -0.00912400149, 0.0185133815, 1.74548745  , 917.47406   , 25.56759    , 829.886047  , 2.57        , 7           , 255         , 0           , 0
-0.122766949, 0.09059906  , -9.845104   , 1.42131466E-05, 0.0131728547, -0.0003241055, -0.009123941, 0.01864507  , 1.74548316  , 917.47406   , 25.56759    , 829.887268  , 2.58        , 7           , 255         , 0           , 0
-0.123921774, 0.0846944749, -9.850897   , 9.204005E-05, 0.01286096  , 0.0003938945, -0.009122968, 0.0187737066, 1.74548578  , 917.47406   , 25.56759    , 829.8885    , 2.59        , 7           , 255         , 0           , 0
-0.125002116, 0.08871779  , -9.850412   , -5.24963252E-05, 0.0132050384, 0.000545453047, -0.009123414, 0.0189057961, 1.74549007  , 917.47406   , 25.56759    , 829.8898    , 2.6         , 7           , 255         , 0           , 0
-0.125598162, 0.09447336  , -9.846668   , 0.00047005713, 0.0126894824, 0.000410859 , -0.009119149, 0.018818954 , 1.745493    , 917.47406   , 25.56759    , 829.878357  , 2.61        , 7           , 255         , 0           , 0
-0.115837909, 0.08678064  , -9.842012   , 5.224743E-05, 0.0131780971, 0.000251693418, -0.00911860447, 0.0189507529, 1.74549425  , 917.47406   , 25.56759    , 829.8795    , 2.62        , 7           , 255         , 0           , 0
-0.124052167, 0.0899471343, -9.850934   , 0.000328446273, 0.0132056   , -8.419249E-05, -0.009115357, 0.0190827921, 1.74549234  , 917.495667  , 25.5682678  , 829.880737  , 2.63        , 7           , 255         , 0           , 0
-0.125169754, 0.0930950046, -9.846464   , 0.000264663016, 0.013255924 , -0.000123398611, -0.009112758, 0.0192153286, 1.74549     , 917.495667  , 25.5682678  , 829.881958  , 2.64        , 7           , 255         , 0           , 0
-0.121966004, 0.09706244  , -9.839945   , 0.000609912 , 0.0132974721, -0.000638345839, -0.009106804, 0.0193482339, 1.74548233  , 917.495667  , 25.5682678  , 829.8832    , 2.65        , 7           , 255         , 0           , 0
-0.12399628 , 0.09469688  , -9.839236   , 0.00041739177, 0.0131148994, -0.00013393187, -0.009102679, 0.01947936  , 1.7454797   , 917.495667  , 25.5682678  , 829.8844    , 2.66        , 7           , 255         , 0           , 0
-0.11689961 , 0.09223819  , -9.855032   , 0.000385792926, 0.01277082  , 0.000101890881, -0.009098821, 0.0196070671, 1.74547958  , 917.495667  , 25.5682678  , 829.8856    , 2.67        , 7           , 255         , 0           , 0
-0.123120844, 0.08491799  , -9.852704   , -0.00040593883, 0.0125993676, 0.000154555775, -0.009102874, 0.01973307  , 1.74548006  , 917.495667  , 25.5682678  , 829.886841  , 2.68        , 7           , 255         , 0           , 0
-0.118259333, 0.08990988  , -9.847059   , -0.0003690729, 0.01294169  , 0.0005196999, -0.009106486, 0.0198625214, 1.745484    , 917.495667  , 25.5682678  , 829.888062  , 2.69        , 7           , 255         , 0           , 0
-0.119544566, 0.101141632 , -9.84447    , 0.000312061515, 0.013085641 , 0.0004336806, -0.0091033  , 0.0199934058, 1.74548709  , 917.495667  , 25.5682678  , 829.8893    , 2.7         , 7           , 255         , 0           , 0
-0.117309391, 0.09190291  , -9.843223   , -0.000473238761, 0.0128643624, 0.000199607341, -0.009110002, 0.01989585  , 1.74548793  , 917.495667  , 25.5682678  , 829.8479    , 2.71        , 7           , 255         , 0           , 0
-0.12595205 , 0.0877864659, -9.84801    , -0.0002941778, 0.0128403716, 0.0003347809, -0.009112896, 0.0200242735, 1.74549007  , 917.495667  , 25.5682678  , 829.8489    , 2.72        , 7           , 255         , 0           , 0
-0.123549245, 0.09311363  , -9.852536   , 0.000244176015, 0.0130779482, -0.0003258729, -0.009110543, 0.0201550145, 1.74548578  , 917.474731  , 25.5696259  , 829.849854  , 2.73        , 7           , 255         , 0           , 0
-0.124126673, 0.09544194  , -9.845421   , -7.649581E-05, 0.0125688529, -0.000404285267, -0.009111413, 0.0202806536, 1.74548054  , 917.474731  , 25.5696259  , 829.8508    , 2.74        , 7           , 255         , 0           , 0
-0.127255917, 0.09521842  , -9.849649   , 0.00016459357, 0.0130820442, 0.000207214383, -0.009109748, 0.0204114858, 1.74548125  , 917.474731  , 25.5696259  , 829.8518    , 2.75        , 7           , 255         , 0           , 0
-0.119842589, 0.100955367 , -9.84221649 , 0.0005794768, 0.0130346464, 4.57081478E-05, -0.009103969, 0.02054182  , 1.74548054  , 917.474731  , 25.5696259  , 829.8528    , 2.76        , 7           , 255         , 0           , 0
-0.121667981, 0.0883638859, -9.850766   , 0.0009768056, 0.0126700867, -0.000112286769, -0.00909424853, 0.0206685066, 1.74547815  , 917.474731  , 25.5696259  , 829.8538    , 2.77        , 7           , 255         , 0           , 0
-0.123176716, 0.081229955 , -9.845905   , 0.000204970129, 0.0126425838, -8.185813E-05, -0.00909224 , 0.020794915 , 1.74547625  , 917.474731  , 25.5696259  , 829.854858  , 2.78        , 7           , 255         , 0           , 0
-0.118520118, 0.09350479  , -9.845327   , -0.000242097536, 0.0130416676, 0.00026104995, -0.009094629, 0.0209253468, 1.74547756  , 917.474731  , 25.5696259  , 829.8559    , 2.79        , 7           , 255         , 0           , 0
-0.119339682, 0.09145588  , -9.846185   , 0.000286893221, 0.013040497 , 6.911508E-05, -0.00909177 , 0.021055745 , 1.7454772   , 917.474731  , 25.5696259  , 829.856934  , 2.8         , 7           , 255         , 0           , 0
-0.113658607, 0.0924617052, -9.843725   , 0.000121871242, 0.0118437018, -0.000651817536, -0.009092277, 0.0209429711, 1.74546957  , 917.474731  , 25.5696259  , 829.849     , 2.81        , 7           , 255         , 0           , 0
-0.115558505, 0.0885315239, -9.849314   , 0.000271674478, 0.0125312731, -0.0002492224, -0.009089636, 0.0210682526, 1.74546587  , 917.474731  , 25.5696259  , 829.85      , 2.82        , 7           , 255         , 0           , 0
-0.11458993 , 0.0892207   , -9.854287   , 6.393995E-05, 0.0131375054, 0.000375150936, -0.009088941, 0.0211996511, 1.7454685   , 917.45      , 25.5694218  , 829.850952  , 2.83        , 7           , 255         , 0           , 0
-0.121854246, 0.100955367 , -9.850954   , 0.000507496763, 0.0128858844, -5.787285E-05, -0.009083902, 0.0213285   , 1.74546683  , 917.45      , 25.5694218  , 829.8519    , 2.84        , 7           , 255         , 0           , 0
-0.125430524, 0.08473173  , -9.847451   , -0.000185926678, 0.0128519442, 0.000330093084, -0.009085716, 0.021457037 , 1.745469    , 917.45      , 25.5694218  , 829.8529    , 2.85        , 7           , 255         , 0           , 0
-0.117756426, 0.09138137  , -9.848308   , 0.000100220321, 0.0130778188, -3.21255066E-05, -0.009084746, 0.0215878021, 1.74546742  , 917.45      , 25.5694218  , 829.853943  , 2.86        , 7           , 255         , 0           , 0
-0.1251325  , 0.08163974  , -9.850283   , 0.00034774607, 0.0129970666, -0.0005470726, -0.00908141 , 0.0217177123, 1.74546087  , 917.45      , 25.5694218  , 829.855     , 2.87        , 7           , 255         , 0           , 0
-0.115185976, 0.09581447  , -9.853262   , -0.000189437764, 0.0129771708, -0.000166128622, -0.009083365, 0.0218474586, 1.745458    , 917.45      , 25.5694218  , 829.856     , 2.88        , 7           , 255         , 0           , 0
-0.120718025, 0.103097416 , -9.852517   , -0.00051245 , 0.0126605956, -0.00033875322, -0.009088588, 0.0219740234, 1.74545348  , 917.45      , 25.5694218  , 829.857056  , 2.89        , 7           , 255         , 0           , 0
-0.124014914, 0.100601457 , -9.845365   , 0.000236564316, 0.012883544 , -0.000241615344, -0.009086301, 0.02210283  , 1.7454499   , 917.45      , 25.5694218  , 829.8581    , 2.9         , 7           , 255         , 0           , 0
-0.1220964  , 0.0915676355, -9.840224   , 0.000107819913, 0.0128032342, 0.000207201345, -0.009087502, 0.0220043827, 1.74545062  , 917.45      , 25.5694218  , 829.8844    , 2.91        , 7           , 255         , 0           , 0
-0.123064972, 0.08903444  , -9.845011   , 0.0003933818, 0.01339601  , 0.000753747765, -0.009083429, 0.0221384019, 1.745457    , 917.45      , 25.5694218  , 829.8856    , 2.92        , 7           , 255         , 0           , 0
-0.124201179, 0.08827075  , -9.854864   , 0.000380508136, 0.0129401637, 0.0003985511, -0.009079559, 0.02226783  , 1.74545991  , 917.482849  , 25.5721359  , 829.886841  , 2.93        , 7           , 255         , 0           , 0
-0.131297857, 0.0826455653, -9.853673   , 0.000306776725, 0.0130092129, 0.0006062854, -0.00907638 , 0.0223979671, 1.7454648   , 917.482849  , 25.5721359  , 829.888062  , 2.94        , 7           , 255         , 0           , 0
-0.12230128 , 0.09704381  , -9.846781   , 0.000170432962, 0.0127207264, 0.000359930331, -0.009074623, 0.0225251969, 1.74546731  , 917.482849  , 25.5721359  , 829.8893    , 2.95        , 7           , 255         , 0           , 0
-0.126510859, 0.08545816  , -9.844434   , -0.0002473765, 0.01287404  , 5.91541175E-05, -0.00907710753, 0.0226539318, 1.74546671  , 917.482849  , 25.5721359  , 829.8905    , 2.96        , 7           , 255         , 0           , 0
-0.119097531, 0.09804964  , -9.846762   , 0.0003846041, 0.0128213745, 0.000436587026, -0.009073187, 0.0227821749, 1.74546993  , 917.482849  , 25.5721359  , 829.8917    , 2.97        , 7           , 255         , 0           , 0
-0.115949653, 0.100638725 , -9.839889   , 0.0006297892, 0.0130296946, 0.000981963 , -0.00906669348, 0.02291255  , 1.74547851  , 917.482849  , 25.5721359  , 829.893     , 2.98        , 7           , 255         , 0           , 0
-0.121556222, 0.09743497  , -9.846445   , 1.94597524E-05, 0.0123942019, 0.0004594084, -0.009066419, 0.0230365284, 1.74548209  , 917.482849  , 25.5721359  , 829.8943    , 2.99        , 7           , 255         , 0           , 0
-0.124648213, 0.0872463   , -9.842031   , -0.000146727776, 0.0128605813, -0.000269124634, -0.009067978, 0.0231651012, 1.74547815  , 917.482849  , 25.5721359  , 829.895569  , 3           , 7           , 0           , 8.456237    , 300
-0.12293458 , 0.08704141  , -9.845998   , 0.000249424716, 0.0128825791, -0.000239288784, -0.009067275, 0.0230468921, 1.74547458  , 917.482849  , 25.5721359  , 829.8705    , 3.01        , 7           , 1           , 0           , 0
-0.12524426 , 0.09447336  , -9.853727   , 0.000438433839, 0.013173406 , -0.000325893634, -0.009062995, 0.0231785867, 1.74547     , 917.482849  , 25.5721359  , 829.8716    , 3.02        , 7           , 2           , 0           , 0
-0.120867036, 0.097882    , -9.853895   , 0.000229528872, 0.0130914822, 0.000429557171, -0.009060629, 0.0233095326, 1.74547315  , 917.459045  , 25.5741024  , 829.8727    , 3.03        , 7           , 3           , 0           , 0
-0.113304712, 0.0899471343, -9.852592   , 0.0004676918, 0.0127011761, 2.97045335E-06, -0.009055978, 0.0234365351, 1.74547207  , 917.459045  , 25.5741024  , 829.8738    , 3.04        , 7           , 4           , 0           , 0
-0.129379332, 0.08361414  , -9.849091   , 0.000241232337, 0.0128615126, 4.33470123E-05, -0.009053584, 0.0235651433, 1.74547136  , 917.459045  , 25.5741024  , 829.874939  , 3.05        , 7           , 5           , 0           , 0
-0.121966004, 0.08715317  , -9.851065   , -2.03375239E-05, 0.0131646292, 0.000341197 , -0.009053736, 0.0236968156, 1.7454735   , 917.459045  , 25.5741024  , 829.8761    , 3.06        , 7           , 6           , 0           , 0
-0.109598041, 0.08560717  , -9.849257   , 0.0005162612, 0.0132073462, 0.000117663061, -0.009048574, 0.0238288883, 1.74547362  , 917.459045  , 25.5741024  , 829.877258  , 3.07        , 7           , 7           , 0           , 0
-0.118073083, 0.0927224755, -9.845457   , 0.000224847347, 0.0131751616, 0.000128781423, -0.009046322, 0.0239606425, 1.74547374  , 917.459045  , 25.5741024  , 829.8784    , 3.08        , 7           , 8           , 5           , 5
-0.116862357, 0.09264797  , -9.843781   , 8.44073948E-05, 0.0127444789, 1.64289959E-05, -0.009045504, 0.02408808  , 1.74547279  , 917.459045  , 25.5741024  , 829.8796    , 3.09        , 7           , 9           , 5           , 0.1
-0.121556222, 0.09715557  , -9.841882   , -0.00015726639, 0.013196229 , -0.0003475448, -0.00904719 , 0.024220001 , 1.74546814  , 917.459045  , 25.5741024  , 829.880737  , 3.1         , 7           , 10          , 0.1         , 0.1
-0.129081309, 0.08845702  , -9.846538   , -0.0003322356, 0.0128249824, 5.679787E-05, -0.009051657, 0.0241070744, 1.74546754  , 917.459045  , 25.5741024  , 829.8912    , 3.11        , 7           , 11          , 0.009825306 , 0.009825241
-0.118184827, 0.0886805356, -9.846855   , -0.000305317575, 0.0132860951, 4.68504149E-05, -0.009054727, 0.0242399275, 1.74546683  , 917.459045  , 25.5741024  , 829.8924    , 3.12        , 7           , 12          , 0.03465699  , 0
-0.1237914  , 0.08350238  , -9.852182   , -0.0002251498, 0.0125669241, -0.000250414829, -0.009057068, 0.0243655667, 1.74546325  , 917.4521    , 25.5734253  , 829.8936    , 3.13        , 7           , 13          , 0           , 0
-0.120904304, 0.08596107  , -9.85397    , 0.000481147552, 0.0125400051, -0.0004844817, -0.00905240048, 0.0244909152, 1.74545729  , 917.4521    , 25.5734253  , 829.894836  , 3.14        , 7           , 14          , 0.00360566075, 9.489787E-06
-0.115558505, 0.08825213  , -9.848643   , -0.000229831086, 0.0125417607, 2.34434847E-05, -0.009054722, 0.0246163327, 1.74545646  , 917.4521    , 25.5734253  , 829.8961    , 3.15        , 7           , 15          , 0           , 0.00214167521
-0.116191804, 0.08972362  , -9.842123   , -0.000308828661, 0.0126576247, 0.000176757574, -0.009057791, 0.0247429125, 1.74545717  , 917.4521    , 25.5734253  , 829.8974    , 3.16        , 7           , 16          , 0           , 4.203895E-45
-0.117681921, 0.09674579  , -9.838939   , 0.000588817755, 0.0129338242, 8.31307843E-05, -0.009051913, 0.0248722434, 1.7454567   , 917.4521    , 25.5734253  , 829.8987    , 3.17        , 7           , 20          , 0           , 0
-0.125709921, 0.08849427  , -9.842925   , -0.000164877158, 0.0129449414, -0.0001456698, -0.009053626, 0.02500167  , 1.74545407  , 917.4521    , 25.5734253  , 829.899963  , 3.18        , 7           , 21          , 0           , 0
-0.123362996, 0.09601936  , -9.847601   , -0.000324628083, 0.0130877234, 3.54787335E-06, -0.009056901, 0.0251325388, 1.74545288  , 917.4521    , 25.5734253  , 829.901245  , 3.19        , 7           , 22          , 0           , 0
-0.116042793, 0.08918345  , -9.849276   , -0.0003497901, 0.0132585913, -0.000129285036, -0.009060462, 0.0252651032, 1.74545026  , 917.4521    , 25.5734253  , 829.9025    , 3.2         , 7           , 40          , 0           , 0
-0.113025308, 0.09158626  , -9.84339    , 0.000309107127, 0.0135028688, -0.000417195843, -0.009057748, 0.025146408 , 1.74544489  , 917.4521    , 25.5734253  , 829.919861  , 3.21        , 7           , 41          , 0           , 0
-0.112820409, 0.09668991  , -9.844191   , -1.09793618E-05, 0.0129405232, -1.9867206E-05, -0.009057889, 0.0252758022, 1.74544358  , 917.4521    , 25.5734253  , 829.921265  , 3.22        , 7           , 42          , 1           , 0
-0.114999712, 0.09974465  , -9.843111   , 0.0002511756, 0.0128942952, 4.09900676E-05, -0.009055397, 0.0254047383, 1.74544287  , 917.4831    , 25.5764771  , 829.922668  , 3.23        , 7           , 255         , 0           , 0
-0.112615526, 0.09853393  , -9.84421    , 1.30122062E-05, 0.0130950063, -3.33262142E-05, -0.00905530248, 0.0255356748, 1.74544132  , 917.4831    , 25.5764771  , 829.9241    , 3.24        , 7           , 255         , 0           , 0
-0.120140612, 0.09601936  , -9.843371   , 9.501586E-06, 0.0129703656, -2.6304042E-05, -0.009055243, 0.025665367 , 1.74543977  , 917.4831    , 25.5764771  , 829.9255    , 3.25        , 7           , 255         , 0           , 0
-0.119823955, 0.0976584852, -9.852257   , -0.000386071624, 0.01275444  , 0.000479865819, -0.009059013, 0.0257929433, 1.74544334  , 917.4831    , 25.5764771  , 829.9269    , 3.26        , 7           , 255         , 0           , 0
-0.120010234, 0.0928342342, -9.842664   , -0.0002690379, 0.0127848685, 0.000280908542, -0.009061658, 0.025920812 , 1.745445    , 917.4831    , 25.5764771  , 829.9283    , 3.27        , 7           , 255         , 0           , 0
-0.115353607, 0.09493902  , -9.843856   , 0.0003208106, 0.0128305117, 0.000118232332, -0.00905845 , 0.0260491185, 1.745445    , 917.4831    , 25.5764771  , 829.929749  , 3.28        , 7           , 255         , 0           , 0
-0.11458993 , 0.09002164  , -9.842794   , -0.0006218939, 0.0131511837, -0.000118760392, -0.009064729, 0.02618061  , 1.74544263  , 917.4831    , 25.5764771  , 829.9312    , 3.29        , 7           , 255         , 0           , 0
-0.11848285 , 0.0948272645, -9.852797   , -4.66746278E-05, 0.0130751105, 5.56195155E-05, -0.00906521 , 0.0263113566, 1.74544215  , 917.4831    , 25.5764771  , 829.9327    , 3.3         , 7           , 255         , 0           , 0
-0.123530626, 0.09479001  , -9.854194   , 0.00103469822, 0.0127874045, -0.000470455154, -0.009059386, 0.0261766538, 1.74543619  , 917.4831    , 25.5764771  , 829.90155   , 3.31        , 7           , 255         , 0           , 0
-0.126641244, 0.09177253  , -9.835847   , 6.449106E-05, 0.0126879262, -0.000220003538, -0.009058828, 0.0263035018, 1.74543285  , 917.4831    , 25.5764771  , 829.902832  , 3.32        , 7           , 255         , 0           , 0
-0.122692443, 0.0927783549, -9.843372   , -0.0006295175, 0.0126826605, 0.0004090513, -0.009065045, 0.026430361 , 1.7454356   , 917.4754    , 25.5741711  , 829.9041    , 3.33        , 7           , 255         , 0           , 0
-0.123009086, 0.09479001  , -9.845831   , -9.467453E-05, 0.0131466975, 0.00044006505, -0.009065907, 0.0265618581, 1.74543881  , 917.4754    , 25.5741711  , 829.9054    , 3.34        , 7           , 255         , 0           , 0
-0.1234375  , 0.09872019  , -9.846669   , 0.000128274085, 0.0126914382, -0.000518438756, -0.009064792, 0.0266887136, 1.7454325   , 917.4754    , 25.5741711  , 829.9067    , 3.35        , 7           , 255         , 0           , 0
-0.116396688, 0.0965595245, -9.849127   , 0.00029270607, 0.0122145256, -0.000825066352, -0.009062117, 0.0268107764, 1.7454232   , 917.4754    , 25.5741711  , 829.907959  , 3.36        , 7           , 255         , 0           , 0
-0.114031136, 0.0993907452, -9.836219   , -7.946044E-05, 0.0125316856, 0.0003569713, -0.009062847, 0.0269361176, 1.74542558  , 917.4754    , 25.5741711  , 829.909241  , 3.37        , 7           , 255         , 0           , 0
-0.1221709  , 0.09741634  , -9.840857   , 1.29290856E-06, 0.0126475515, -0.000284957117, -0.009062939, 0.0270625576, 1.74542165  , 917.4754    , 25.5741711  , 829.9105    , 3.38        , 7           , 255         , 0           , 0
-0.115502618, 0.0950880349, -9.842255   , -0.00053413515, 0.0124439122, -0.0003130451, -0.009068397, 0.02718696  , 1.74541736  , 917.4754    , 25.5741711  , 829.9118    , 3.39        , 7           , 255         , 0           , 0
-0.11947006 , 0.08581206  , -9.853989   , -0.00046215998, 0.0129594449, -0.00101524568, -0.009073326, 0.0273164585, 1.745406    , 917.4754    , 25.5741711  , 829.9131    , 3.4         , 7           , 255         , 0           , 0
-0.118818142, 0.0982359052, -9.847041   , 0.000260507222, 0.013093573 , -0.0005102563, -0.009074776, 0.0271745455, 1.74539983  , 917.4754    , 25.5741711  , 829.8955    , 3.41        , 7           , 255         , 0           , 0
-0.115521252, 0.09754673  , -9.848122   , 0.0006116072, 0.0132340128, -0.0005676027, -0.009068848, 0.0273068212, 1.74539292  , 917.4754    , 25.5741711  , 829.8967    , 3.42        , 7           , 255         , 0           , 0
-0.109095119, 0.09763986  , -9.842962   , 0.0004419086, 0.0131082023, 0.000718009658, -0.009064264, 0.0274379589, 1.745399    , 917.4745    , 25.5783081  , 829.897949  , 3.43        , 7           , 255         , 0           , 0
-0.109672546, 0.09920448  , -9.837598   , 0.000164539786, 0.0126348017, -0.000235227635, -0.009062714, 0.0275642835, 1.74539554  , 917.4745    , 25.5783081  , 829.8992    , 3.44        , 7           , 255         , 0           , 0
-0.1116097  , 0.0991299748, -9.84097    , 0.000165124657, 0.012934993 , -0.000381519319, -0.0090612  , 0.0276935864, 1.74539053  , 917.4745    , 25.5783081  , 829.9004    , 3.45        , 7           , 255         , 0           , 0
-0.1231581  , 0.09620562  , -9.854176   , -0.000300083077, 0.0129426   , -0.0008888594, -0.009064477, 0.0278229173, 1.7453804   , 917.4745    , 25.5783081  , 829.9016    , 3.46        , 7           , 255         , 0           , 0
-0.123493373, 0.08825213  , -9.845308   , -0.000227522571, 0.012610225 , -0.000399659621, -0.009066898, 0.0279489737, 1.74537528  , 917.4745    , 25.5783081  , 829.902832  , 3.47        , 7           , 255         , 0           , 0
-0.119023025, 0.09253621  , -9.850543   , -0.0001017116, 0.0130075542, -0.000235227635, -0.009068014, 0.02807902  , 1.7453717   , 917.4745    , 25.5783081  , 829.904053  , 3.48        , 7           , 255         , 0           , 0
-0.113863491, 0.09160489  , -9.849817   , -0.000194167718, 0.012903979 , -0.0003376319, -0.0090700835, 0.0282080173, 1.74536717  , 917.4745    , 25.5783081  , 829.9053    , 3.49        , 7           , 255         , 0           , 0
-0.12088567 , 0.09201467  , -9.855572   , 0.000274551334, 0.01274657  , -0.0006916581, -0.009067564, 0.028335413 , 1.74535906  , 917.4745    , 25.5783081  , 829.9065    , 3.5         , 7           , 255         , 0           , 0
-0.119116165, 0.08827075  , -9.857434   , 2.99352687E-05, 0.0126425279, -0.000194860855, -0.00907145 , 0.0281960089, 1.745356    , 917.4745    , 25.5783081  , 829.891052  , 3.51        , 7           , 255         , 0           , 0
-0.1199916  , 0.08657575  , -9.851158   , 0.000217773952, 0.0126641775, 0.0002135858, -0.00906924251, 0.0283226613, 1.745357    , 917.4745    , 25.5783081  , 829.8922    , 3.52        , 7           , 255         , 0           , 0
-0.123921774, 0.0942871   , -9.848978   , 0.000240009977, 0.0130129373, -0.0004897851, -0.009067014, 0.0284527335, 1.745351    , 917.413452  , 25.5790558  , 829.8934    , 3.53        , 7           , 255         , 0           , 0
-0.112298869, 0.08771196  , -9.847805   , 5.56826126E-05, 0.0130421957, -0.0004511641, -0.009066619, 0.0285831057, 1.74534535  , 917.413452  , 25.5790558  , 829.894531  , 3.54        , 7           , 255         , 0           , 0
-0.119134784, 0.08955598  , -9.854119   , -1.04417559E-05, 0.0131405052, 2.92579643E-05, -0.00906675 , 0.0287145   , 1.7453444   , 917.413452  , 25.5790558  , 829.8957    , 3.55        , 7           , 255         , 0           , 0
-0.121239565, 0.09423122  , -9.850375   , -0.000393725932, 0.0129181407, 0.000330619281, -0.009070624, 0.0288437027, 1.74534643  , 917.413452  , 25.5790558  , 829.896851  , 3.56        , 7           , 255         , 0           , 0
-0.118371107, 0.09747222  , -9.845904   , -0.0002802033, 0.01298719  , -0.000186668476, -0.009073517, 0.0289735422, 1.74534321  , 917.413452  , 25.5790558  , 829.898     , 3.57        , 7           , 255         , 0           , 0
-0.119972967, 0.09322539  , -9.841696   , -0.000262063462, 0.0127858929, 0.000472815 , -0.009076032, 0.0291014351, 1.74534678  , 917.413452  , 25.5790558  , 829.899231  , 3.58        , 7           , 255         , 0           , 0
-0.113230206, 0.0876374543, -9.848848   , 0.0009925351, 0.0131387478, -0.00012112991, -0.009066177, 0.0292328019, 1.74534428  , 917.413452  , 25.5790558  , 829.900452  , 3.59        , 7           , 255         , 0           , 0
-0.120382763, 0.08542091  , -9.847172   , 0.00039039785, 0.0126044909, 1.87251717E-05, -0.0090623  , 0.0293588415, 1.74534333  , 917.413452  , 25.5790558  , 829.9017    , 3.6         , 7           , 255         , 0           , 0
-0.114738941, 0.0874698162, -9.852238   , 0.00015106122, 0.0126443729, -0.0005366083, -0.00906173047, 0.0292208   , 1.74533689  , 917.413452  , 25.5790558  , 829.9741    , 3.61        , 7           , 255         , 0           , 0
-0.12008474 , 0.09726733  , -9.85289    , -0.000130989123, 0.0132506061, 0.000339386985, -0.009062972, 0.02935333  , 1.745339    , 917.413452  , 25.5790558  , 829.975769  , 3.62        , 7           , 255         , 0           , 0
-0.119581819, 0.0968761742, -9.842459   , 0.000189097133, 0.0132576274, 0.0008356089, -0.009060871, 0.0294859763, 1.74534631  , 917.438     , 25.5800056  , 829.9774    , 3.63        , 7           , 255         , 0           , 0
-0.115539886, 0.09423122  , -9.842123   , 0.0002441029, 0.0129170595, 0.000242834445, -0.00905839 , 0.02961516  , 1.74534774  , 917.438     , 25.5800056  , 829.9791    , 3.64        , 7           , 255         , 0           , 0
-0.119749449, 0.101421021 , -9.849146   , 0.000498065259, 0.0125811743, 0.000191924861, -0.009053386, 0.0297409818, 1.74534845  , 917.438     , 25.5800056  , 829.980835  , 3.65        , 7           , 255         , 0           , 0
-0.110361718, 0.09898096  , -9.851176   , 0.00011127  , 0.013204962 , -0.000121724792, -0.009052345, 0.0298730116, 1.74534607  , 917.438     , 25.5800056  , 829.982544  , 3.66        , 7           , 255         , 0           , 0
-0.11947006 , 0.09462237  , -9.849146   , -0.000195357483, 0.013247095 , -1.11281406E-05, -0.009054339, 0.0300054643, 1.74534464  , 917.438     , 25.5800056  , 829.984253  , 3.67        , 7           , 255         , 0           , 0
-0.121220946, 0.09454787  , -9.850785   , -0.000490867067, 0.0137409763, -9.188126E-05, -0.009059312, 0.0301428549, 1.74534249  , 917.438     , 25.5800056  , 829.985962  , 3.68        , 7           , 255         , 0           , 0
-0.118594624, 0.0945106149, -9.843819   , -0.000455171568, 0.0135496259, -0.000135183567, -0.009063941, 0.0302783325, 1.74534     , 917.438     , 25.5800056  , 829.9877    , 3.69        , 7           , 255         , 0           , 0
-0.119190671, 0.08692965  , -9.847972   , -0.00015732157, 0.01281407  , -6.02821819E-05, -0.009065566, 0.0304064546, 1.7453382   , 917.438     , 25.5800056  , 829.9894    , 3.7         , 7           , 255         , 0           , 0
-0.124536455, 0.08923933  , -9.844564   , 9.486987E-05, 0.01309614  , -0.000118224416, -0.00906836 , 0.0302639827, 1.74533582  , 917.438     , 25.5800056  , 830.0142    , 3.71        , 7           , 255         , 0           , 0
-0.125654042, 0.08855015  , -9.845831   , 5.858927E-05, 0.0129106427, 0.0005588138, -0.009067639, 0.0303931311, 1.74534023  , 917.438     , 25.5800056  , 830.0161    , 3.72        , 7           , 255         , 0           , 0
-0.120103359, 0.09039417  , -9.841211   , 0.000230628764, 0.0127116852, 0.000493860571, -0.009065215, 0.0305202845, 1.74534416  , 917.4631    , 25.5816326  , 830.018     , 3.73        , 7           , 255         , 0           , 0
-0.1191534  , 0.08707866  , -9.842832   , -0.000219365116, 0.0129123982, 0.0003458131, -0.009067339, 0.03064943  , 1.74534631  , 917.4631    , 25.5816326  , 830.0199    , 3.74        , 7           , 255         , 0           , 0
-0.119339682, 0.07972121  , -9.850505   , -0.000188936247, 0.0130306017, 0.000706861261, -0.009069046, 0.03077979  , 1.74535215  , 917.4631    , 25.5816326  , 830.0218    , 3.75        , 7           , 255         , 0           , 0
-0.122468926, 0.0825896859, -9.848326   , 8.316641E-05, 0.01264205  , 0.000290807337, -0.009068159, 0.0309062246, 1.74535394  , 917.4631    , 25.5816326  , 830.0237    , 3.76        , 7           , 255         , 0           , 0
-0.118929885, 0.0841170549, -9.859894   , -0.000140952645, 0.0126789156, -0.0006121055, -0.009069796, 0.031032946 , 1.74534678  , 917.4631    , 25.5816326  , 830.0256    , 3.77        , 7           , 255         , 0           , 0
-0.106059015, 0.0982359052, -9.857193   , 6.15154859E-05, 0.0122300927, -0.000644875, -0.009069416, 0.0311551839, 1.74533916  , 917.4631    , 25.5816326  , 830.027466  , 3.78        , 7           , 255         , 0           , 0
-0.117663287, 0.100564219 , -9.849482   , -0.000121057034, 0.0125618819, 2.45561823E-05, -0.00907065347, 0.031280797 , 1.74533844  , 917.4631    , 25.5816326  , 830.029358  , 3.79        , 7           , 255         , 0           , 0
-0.122729681, 0.08869916  , -9.856746   , 0.000187326223, 0.0130534237, 0.0005950944, -0.009068629, 0.0314113759, 1.74534321  , 917.4631    , 25.5816326  , 830.0313    , 3.8         , 7           , 255         , 0           , 0
-0.118985772, 0.0995956361, -9.84801    , 0.0001896678, 0.0126853315, 0.000404904364, -0.009066377, 0.0312641263, 1.74534607  , 917.4631    , 25.5816326  , 830.01416   , 3.81        , 7           , 255         , 0           , 0
-0.119879842, 0.101123    , -9.847078   , 1.41176861E-05, 0.0126701184, 0.000123438658, -0.009066232, 0.03139083  , 1.74534619  , 917.4631    , 25.5816326  , 830.016     , 3.82        , 7           , 255         , 0           , 0
-0.12097881 , 0.09415671  , -9.836517   , -0.000373263145, 0.0130896829, 0.000301914755, -0.00906990748, 0.03152174  , 1.745348    , 917.4643    , 25.5831261  , 830.0178    , 3.83        , 7           , 255         , 0           , 0
-0.123176716, 0.09575859  , -9.84408    , 9.721168E-05, 0.0128368912, 0.0009502801, -0.009068672, 0.0316501856, 1.74535632  , 917.4643    , 25.5831261  , 830.019653  , 3.84        , 7           , 255         , 0           , 0
-0.118836761, 0.102240585 , -9.847078   , -0.000112863723, 0.0130826617, 0.0005775287, -0.009069655, 0.0317810476, 1.74536073  , 917.4643    , 25.5831261  , 830.0215    , 3.85        , 7           , 255         , 0           , 0
-0.127926469, 0.0948272645, -9.848178   , 1.99691858E-05, 0.0126549043, 0.0004973605, -0.009069333, 0.0319076329, 1.74536455  , 917.4643    , 25.5831261  , 830.0233    , 3.86        , 7           , 255         , 0           , 0
-0.122245409, 0.09467825  , -9.844881   , 6.151595E-05, 0.0131645855, 0.000468102051, -0.009068606, 0.03203931  , 1.745368    , 917.4643    , 25.5831261  , 830.025146  , 3.87        , 7           , 255         , 0           , 0
-0.117793679, 0.09322539  , -9.851306   , -0.00032235356, 0.0133535936, -0.0003950193, -0.0090719955, 0.0321728028, 1.74536288  , 917.4643    , 25.5831261  , 830.027     , 3.88        , 7           , 255         , 0           , 0
-0.120587647, 0.09862706  , -9.846985   , 0.0001785492, 0.012980842 , -0.000145153143, -0.009070293, 0.0323025919, 1.74536026  , 917.4643    , 25.5831261  , 830.0288    , 3.89        , 7           , 255         , 0           , 0
-0.121276833, 0.0986084342, -9.849351   , 0.000249354867, 0.0129170595, 0.0003580905, -0.009067722, 0.032431785 , 1.74536264  , 917.4643    , 25.5831261  , 830.0307    , 3.9         , 7           , 255         , 0           , 0
-0.117905438, 0.09635463  , -9.846464   , 0.000296143349, 0.0130842738, -0.000272146543, -0.009070287, 0.0322693475, 1.74535871  , 917.4643    , 25.5831261  , 830.011841  , 3.91        , 7           , 255         , 0           , 0
-0.126883388, 0.0895746052, -9.856876   , 0.0001621407, 0.013229982 , -0.0007970416, -0.009068965, 0.03240157  , 1.74534965  , 917.4643    , 25.5831261  , 830.0136    , 3.92        , 7           , 255         , 0           , 0
-0.128448009, 0.09616837  , -9.850916   , 0.0002347012, 0.0128209516, -0.000375721022, -0.009066776, 0.0325297378, 1.74534464  , 917.489441  , 25.5856361  , 830.0154    , 3.93        , 7           , 255         , 0           , 0
-0.1335144  , 0.09538606  , -9.845048   , 0.000333594158, 0.0127255693, 0.000225830823, -0.009063405, 0.0326570049, 1.74534583  , 917.489441  , 25.5856361  , 830.017151  , 3.94        , 7           , 255         , 0           , 0
-0.133030117, 0.09680167  , -9.8435955  , 0.000258692773, 0.0130819343, 0.000525436364, -0.009060685, 0.03278786  , 1.74535     , 917.489441  , 25.5856361  , 830.0189    , 3.95        , 7           , 255         , 0           , 0
-0.133123249, 0.106971718 , -9.837448   , -0.00024220976, 0.0129239392, -0.000235280953, -0.00906322151, 0.0329170674, 1.74534655  , 917.489441  , 25.5856361  , 830.0207    , 3.96        , 7           , 255         , 0           , 0
-0.128187239, 0.09819865  , -9.841602   , -0.0001948115, 0.0134646352, 0.000358663732, -0.009065088, 0.0330517329, 1.74534893  , 917.489441  , 25.5856361  , 830.022461  , 3.97        , 7           , 255         , 0           , 0
-0.123512007, 0.0974535942, -9.843316   , 0.00030492153, 0.0136325769, -0.0006671343, -0.009062302, 0.0331879929, 1.745341    , 917.489441  , 25.5856361  , 830.024231  , 3.98        , 7           , 255         , 0           , 0
-0.121910118, 0.0958703458, -9.845924   , -0.000406641979, 0.0135155432, -0.0008614098, -0.00906669348, 0.033323057 , 1.74533117  , 917.489441  , 25.5856361  , 830.026     , 3.99        , 7           , 255         , 0           , 0
-0.125598162, 0.08882955  , -9.846054   , -0.00042770803, 0.0133949993, -0.000199585687, -0.009071076, 0.0334569775, 1.745328    , 917.489441  , 25.5856361  , 830.0278    , 4           , 7           , 0           , 9.456237    , 400
-0.125933439, 0.08620322  , -9.841696   , -0.000119931996, 0.0132320914, 0.000476854621, -0.009076859, 0.0332845226, 1.74533141  , 917.489441  , 25.5856361  , 829.973755  , 4.01        , 7           , 1           , 0           , 0
-0.126603991, 0.08277595  , -9.8457365  , -0.000196003821, 0.0135194091, 2.803118E-05, -0.009078848, 0.0334197059, 1.74533033  , 917.489441  , 25.5856361  , 829.9752    , 4.02        , 7           , 2           , 0           , 0
-0.1280196  , 0.09091571  , -9.848922   , 0.000323039945, 0.0140320156, 0.000368013745, -0.009075533, 0.0335600451, 1.745333    , 917.4655    , 25.58584    , 829.9767    , 4.03        , 7           , 3           , 0           , 0
-0.121835612, 0.09674579  , -9.84922    , -0.0003604358, 0.01378566  , -0.00070927944, -0.009079419, 0.03369783  , 1.74532449  , 917.4655    , 25.58584    , 829.978149  , 4.04        , 7           , 4           , 0           , 0
-0.117551543, 0.08903444  , -9.847154   , -0.0001439238, 0.0134971729, 0.000503186835, -0.00908073 , 0.0338328369, 1.74532819  , 917.4655    , 25.58584    , 829.9796    , 4.05        , 7           , 5           , 0           , 0
-0.124201179, 0.081826    , -9.847097   , -7.66294543E-05, 0.0133696068, 0.0006506492, -0.009081315, 0.0339665748, 1.74533343  , 917.4655    , 25.58584    , 829.9811    , 4.06        , 7           , 6           , 0           , 0
-0.120680787, 0.07746741  , -9.848122   , -0.000126954168, 0.01289562  , 8.947379E-05, -0.009082593, 0.034095522 , 1.74533308  , 917.4655    , 25.58584    , 829.982544  , 4.07        , 7           , 7           , 0           , 0
-0.106636427, 0.0978633761, -9.846781   , -0.0003171335, 0.0125954291, -0.0008637636, -0.009086098, 0.03422139  , 1.7453233   , 917.4655    , 25.58584    , 829.9841    , 4.08        , 7           , 8           , 5           , 5
-0.111814596, 0.09551644  , -9.846519   , 0.0001960583, 0.0131788421, -0.000268063275, -0.009084267, 0.034353137 , 1.74531949  , 917.4655    , 25.58584    , 829.9856    , 4.09        , 7           , 9           , 5           , 0.1
-0.121016048, 0.09369105  , -9.848382   , 0.0007900032, 0.0131507535, -1.1760043E-05, -0.00907641 , 0.0344846323, 1.745318    , 917.4655    , 25.58584    , 829.9871    , 4.1         , 7           , 10          , 0.1         , 0.1
-0.119227909, 0.09700656  , -9.846891   , 0.0006150389, 0.0132862618, 0.000285492046, -0.009070059, 0.0343169235, 1.7453196   , 917.4655    , 25.58584    , 829.972534  , 4.11        , 7           , 11          , 0.009540424 , 0.00954033248
-0.116191804, 0.09847805  , -9.837542   , 0.000157437753, 0.0133558968, -0.000304356683, -0.009068629, 0.03445044  , 1.74531531  , 917.4655    , 25.58584    , 829.973938  , 4.12        , 7           , 12          , 0.03466934  , 0
-0.115986921, 0.09801239  , -9.840448   , 0.000639030244, 0.0131938048, 0.000172554282, -0.00906222 , 0.0345823839, 1.74531579  , 917.4318    , 25.5860424  , 829.975342  , 4.13        , 7           , 13          , 0           , 0
-0.121332705, 0.09631738  , -9.842999   , 0.000141638331, 0.0134360651, 0.0005195588, -0.009060664, 0.034716785 , 1.74531984  , 917.4318    , 25.5860424  , 829.976746  , 4.14        , 7           , 14          , 0.00360577274, 2.10260987E-05
-0.12293458 , 0.0891089439, -9.843615   , 0.000371024 , 0.0127438121, 0.00040954724, -0.009056854, 0.03484424  , 1.74532259  , 917.4318    , 25.5860424  , 829.9782    , 4.15        , 7           , 15          , 0           , 0.00214178185
-0.126380473, 0.09883195  , -9.851754   , -0.00015328615, 0.0135419788, 8.419412E-05, -0.009058397, 0.0349796526, 1.74532223  , 917.4318    , 25.5860424  , 829.9797    , 4.16        , 7           , 16          , 0           , 4.203895E-45
-0.11404977 , 0.0973977149, -9.844154   , -0.000308355084, 0.0131575251, -0.000605717767, -0.009061732, 0.03511116  , 1.745315    , 917.4318    , 25.5860424  , 829.98114   , 4.17        , 7           , 20          , 0           , 0
-0.123810031, 0.0933744   , -9.848923   , 0.000186110847, 0.0129240425, -0.000321326777, -0.009060026, 0.0352403633, 1.74531054  , 917.4318    , 25.5860424  , 829.9826    , 4.18        , 7           , 21          , 0           , 0
-0.118799508, 0.09179115  , -9.852816   , -1.63568184E-05, 0.0129843149, -0.000116518, -0.009060269, 0.035370186 , 1.74530828  , 917.4318    , 25.5860424  , 829.9841    , 4.19        , 7           , 22          , 0           , 0
-0.106599189, 0.09808689  , -9.849556   , 8.663256E-05, 0.0128239784, 0.000459286384, -0.00905928 , 0.03549845  , 1.74531174  , 917.4318    , 25.5860424  , 829.985535  , 4.2         , 7           , 40          , 0           , 0
-0.1270324  , 0.0889971852, -9.848363   , 0.000207740115, 0.01273646  , 0.0005365149, -0.00906151347, 0.0353168137, 1.74531591  , 917.4318    , 25.5860424  , 830.019     , 4.21        , 7           , 41          , 0           , 0
-0.126883388, 0.100266196 , -9.847041   , 0.000329454662, 0.0122718364, 2.25706026E-06, -0.009058258, 0.0354395248, 1.74531484  , 917.4318    , 25.5860424  , 830.0207    , 4.22        , 7           , 42          , 1           , 0
-0.11546538 , 0.0932998955, -9.841658   , 0.0002691825, 0.0126469294, -0.000224787858, -0.009055686, 0.0355659723, 1.7453115   , 917.480835  , 25.58706    , 830.0224    , 4.23        , 7           , 255         , 0           , 0
-0.119265176, 0.09577721  , -9.849947   , 0.000315410784, 0.0133415228, -0.000228298712, -0.009052654, 0.0356993526, 1.74530792  , 917.480835  , 25.58706    , 830.0241    , 4.24        , 7           , 255         , 0           , 0
-0.12036413 , 0.102054335 , -9.853598   , -0.0001638413, 0.0129670147, -2.29049474E-05, -0.009054341, 0.03582901  , 1.74530661  , 917.480835  , 25.58706    , 830.0258    , 4.25        , 7           , 255         , 0           , 0
-0.108033419, 0.0892579556, -9.851419   , 0.0001995475, 0.0127540147, -0.000750853, -0.009052654, 0.0359564722, 1.74529815  , 917.480835  , 25.58706    , 830.0275    , 4.26        , 7           , 255         , 0           , 0
-0.118706368, 0.08942559  , -9.846464   , 0.000439466676, 0.0129044019, -0.000117116841, -0.0090483455, 0.0360854939, 1.74529564  , 917.480835  , 25.58706    , 830.029236  , 4.27        , 7           , 255         , 0           , 0
-0.116191804, 0.0962615   , -9.836703   , 0.000356372679, 0.0136428839, -3.81192658E-05, -0.009044838, 0.0362219028, 1.745294    , 917.480835  , 25.58706    , 830.030945  , 4.28        , 7           , 255         , 0           , 0
-0.110995032, 0.09357929  , -9.844843   , 0.000449999 , 0.01301617  , -0.000246439, -0.009040474, 0.03635203  , 1.74529028  , 917.480835  , 25.58706    , 830.032654  , 4.29        , 7           , 255         , 0           , 0
-0.122115016, 0.09059906  , -9.844358   , 0.000265086535, 0.0131279361, -0.0006057316, -0.009038082, 0.0364832431, 1.74528313  , 917.480835  , 25.58706    , 830.034363  , 4.3         , 7           , 255         , 0           , 0
-0.119581819, 0.09957701  , -9.849798   , -0.000599221559, 0.0132808676, -0.00075028243, -0.00904755853, 0.03630477  , 1.74527431  , 917.480835  , 25.58706    , 829.991333  , 4.31        , 7           , 255         , 0           , 0
-0.119656324, 0.0966154039, -9.846519   , 8.3668856E-05, 0.0128384819, -2.87711155E-05, -0.009046775, 0.0364331342, 1.74527287  , 917.480835  , 25.58706    , 829.9928    , 4.32        , 7           , 255         , 0           , 0
-0.117719173, 0.09134412  , -9.85356    , 8.249865E-05, 0.0131187765, 0.0003463209, -0.009045868, 0.0365643427, 1.74527514  , 917.4635    , 25.5881462  , 829.994263  , 4.33        , 7           , 255         , 0           , 0
-0.123083591, 0.0903569162, -9.852239   , -0.0003832949, 0.0130801555, -0.0009474837, -0.009050087, 0.0366950445, 1.74526453  , 917.4635    , 25.5881462  , 829.9957    , 4.34        , 7           , 255         , 0           , 0
-0.120513141, 0.0922568142, -9.8524065  , 0.000272677746, 0.0126646869, 0.000200614333, -0.009047329, 0.0368217   , 1.74526548  , 917.4635    , 25.5881462  , 829.9972    , 4.35        , 7           , 255         , 0           , 0
-0.128541142, 0.09573996  , -9.845626   , -0.000125820981, 0.0127460249, 0.0001643342, -0.009048567, 0.0369491652, 1.74526608  , 917.4635    , 25.5881462  , 829.998657  , 4.36        , 7           , 255         , 0           , 0
-0.121053316, 0.09370968  , -9.843893   , 0.000273848185, 0.0128490143, 5.753478E-06, -0.00904587 , 0.0370776467, 1.745265    , 917.4635    , 25.5881462  , 830.0001    , 4.37        , 7           , 255         , 0           , 0
-0.119842589, 0.0947713852, -9.841677   , 0.000221183058, 0.0130327577, 6.192969E-05, -0.009043678, 0.03720796  , 1.74526441  , 917.4635    , 25.5881462  , 830.0016    , 4.38        , 7           , 255         , 0           , 0
-0.126380473, 0.09458512  , -9.840205   , -0.000148057239, 0.0129163079, -2.05787364E-05, -0.009045209, 0.0373371132, 1.74526286  , 917.4635    , 25.5881462  , 830.0031    , 4.39        , 7           , 255         , 0           , 0
-0.121966004, 0.09821728  , -9.841416   , -0.0005137869, 0.0126892636, -0.0002926815, -0.0090505  , 0.037463963 , 1.74525881  , 917.4635    , 25.5881462  , 830.004639  , 4.4         , 7           , 255         , 0           , 0
-0.124666832, 0.0938214362, -9.850077   , 0.000203023665, 0.0125735356, -7.267343E-05, -0.009052217, 0.0372731574, 1.74525678  , 917.4635    , 25.5881462  , 829.990234  , 4.41        , 7           , 255         , 0           , 0
-0.128000975, 0.09600073  , -9.853933   , 0.0001304627, 0.012908252 , -0.0007263054, -0.009051228, 0.03740216  , 1.74524844  , 917.4635    , 25.5881462  , 829.991638  , 4.42        , 7           , 255         , 0           , 0
-0.117272139, 0.09289011  , -9.854026   , 3.74214724E-05, 0.0130773652, -0.0002540754, -0.009050992, 0.0375328958, 1.74524462  , 917.4301    , 25.5897751  , 829.993042  , 4.43        , 7           , 255         , 0           , 0
-0.124536455, 0.0879541039, -9.85412    , -0.000552427256, 0.0129954414, 0.00042822957, -0.009056397, 0.03766288  , 1.74524772  , 917.4301    , 25.5897751  , 829.994446  , 4.44        , 7           , 255         , 0           , 0
-0.132359564, 0.09316951  , -9.848513   , -0.000160365365, 0.0130135817, -7.3258765E-05, -0.009058076, 0.0377929956, 1.7452457   , 917.4301    , 25.5897751  , 829.9959    , 4.45        , 7           , 255         , 0           , 0
-0.118203461, 0.09628013  , -9.853058   , 0.000213556457, 0.0131791849, -0.000411485555, -0.009056142, 0.0379247367, 1.74524045  , 917.4301    , 25.5897751  , 829.9974    , 4.46        , 7           , 255         , 0           , 0
-0.122413039, 0.08780509  , -9.844005   , 0.000197757268, 0.0130843865, 0.000142082572, -0.009054155, 0.03805559  , 1.74524069  , 917.4301    , 25.5897751  , 829.99884   , 4.47        , 7           , 255         , 0           , 0
-0.120513141, 0.09577721  , -9.85277748 , 0.0006237591, 0.0134085706, -0.00026811962, -0.009048067, 0.03818964  , 1.74523687  , 917.4301    , 25.5897751  , 830.0003    , 4.48        , 7           , 255         , 0           , 0
-0.119060278, 0.0973418355, -9.845589   , 0.0003469747, 0.0131124752, -0.0006203902, -0.009044879, 0.0383206941, 1.74522936  , 917.4301    , 25.5897751  , 830.0018    , 4.49        , 7           , 255         , 0           , 0
-0.114105642, 0.09069219  , -9.8463335  , 0.000418365235, 0.0129790558, 0.000247412827, -0.009040643, 0.0384504944, 1.74523079  , 917.4301    , 25.5897751  , 830.003235  , 4.5         , 7           , 255         , 0           , 0
-0.121109188, 0.09801239  , -9.843781   , 0.000181944342, 0.013019    , -0.000255845836, -0.009041404, 0.0382750928, 1.7452271   , 917.4301    , 25.5897751  , 830.0364    , 4.51        , 7           , 255         , 0           , 0
-0.122841455, 0.09033829  , -9.846949   , 0.00047335797, 0.0129095744, 0.0006230753, -0.009036477, 0.03840423  , 1.74523211  , 917.4301    , 25.5897751  , 830.038     , 4.52        , 7           , 255         , 0           , 0
-0.114552677, 0.08581206  , -9.846018   , 0.0005014457, 0.0129171805, 0.000374964438, -0.00903136 , 0.0385334268, 1.74523473  , 917.500732  , 25.5897751  , 830.039734  , 4.53        , 7           , 255         , 0           , 0
-0.122971833, 0.0893138349, -9.8373     , 0.00072263903, 0.01303831  , 0.000379060861, -0.009024031, 0.0386638269, 1.74523735  , 917.500732  , 25.5897751  , 830.041443  , 4.54        , 7           , 255         , 0           , 0
-0.1135841  , 0.08761883  , -9.848569   , 0.000131034991, 0.0132583333, 0.00021170266, -0.009022684, 0.0387964062, 1.7452383   , 917.500732  , 25.5897751  , 830.043152  , 4.55        , 7           , 255         , 0           , 0
-0.114701688, 0.081807375 , -9.849892   , -1.40862539E-05, 0.01356496  , -0.0003523985, -0.009023011, 0.0389320143, 1.74523354  , 917.500732  , 25.5897751  , 830.044861  , 4.56        , 7           , 255         , 0           , 0
-0.118277967, 0.105295323 , -9.850488   , -0.000275656115, 0.0129294693, 0.00011807587, -0.00902576651, 0.0390613154, 1.74523354  , 917.500732  , 25.5897751  , 830.0466    , 4.57        , 7           , 255         , 0           , 0
-0.12097881 , 0.10250137  , -9.843315   , 7.719966E-05, 0.0131500782, -0.000280422857, -0.009025149, 0.03919278  , 1.7452296   , 917.500732  , 25.5897751  , 830.0483    , 4.58        , 7           , 255         , 0           , 0
-0.112615526, 0.0977143645, -9.851735   , -9.07434151E-05, 0.0133069018, 9.34989657E-05, -0.009026067, 0.0393258519, 1.74522924  , 917.500732  , 25.5897751  , 830.05      , 4.59        , 7           , 255         , 0           , 0
-0.11334195 , 0.08769333  , -9.850431   , -0.000650163041, 0.0131500782, -0.000210202881, -0.009032699, 0.03945732  , 1.74522579  , 917.500732  , 25.5897751  , 830.0517    , 4.6         , 7           , 255         , 0           , 0
-0.11565163 , 0.09043142  , -9.847545   , 0.00028199493, 0.0133004822, 2.852967E-05, -0.009032343, 0.03926747  , 1.745225    , 917.500732  , 25.5897751  , 829.9777    , 4.61        , 7           , 255         , 0           , 0
-0.119283795, 0.09737909  , -9.848959   , -7.20315147E-05, 0.0134023018, -0.000113666058, -0.009033154, 0.0394014679, 1.74522257  , 917.500732  , 25.5897751  , 829.979     , 4.62        , 7           , 255         , 0           , 0
-0.115614392, 0.0972487   , -9.851102   , 5.143881E-05, 0.0127469143, -0.0001639903, -0.009032746, 0.0395289138, 1.74521971  , 917.4744    , 25.5904522  , 829.9803    , 4.63        , 7           , 255         , 0           , 0
-0.111330293, 0.09043142  , -9.849239   , 0.00049675093, 0.0127422344, 0.000115719391, -0.009027775, 0.0396563374, 1.74521971  , 917.4744    , 25.5904522  , 829.981567  , 4.64        , 7           , 255         , 0           , 0
-0.120848417, 0.09998679  , -9.849538   , 0.000379717676, 0.0128440522, 0.000925591 , -0.009023659, 0.0397848375, 1.74522781  , 917.4744    , 25.5904522  , 829.982849  , 4.65        , 7           , 255         , 0           , 0
-0.116489828, 0.0968202949, -9.846017   , -0.00036520022, 0.0131594576, 5.018059E-05, -0.009027337, 0.03991643  , 1.7452271   , 917.4744    , 25.5904522  , 829.984131  , 4.66        , 7           , 255         , 0           , 0
-0.1142174  , 0.08512288  , -9.849518   , -0.000158051029, 0.0128288371, -0.0005607337, -0.00902919 , 0.0400446579, 1.74522018  , 917.4744    , 25.5904522  , 829.9854    , 4.67        , 7           , 255         , 0           , 0
-0.11369586 , 0.08849427  , -9.845607   , 4.62541357E-06, 0.01255381  , -0.000350073562, -0.00902933 , 0.04017016  , 1.74521565  , 917.4744    , 25.5904522  , 829.9867    , 4.68        , 7           , 255         , 0           , 0
-0.121966004, 0.09467825  , -9.846166   , -0.000376903685, 0.0130465208, -0.0003787469, -0.009033297, 0.0403005779, 1.74521077  , 917.4744    , 25.5904522  , 829.988     , 4.69        , 7           , 255         , 0           , 0
-0.121761106, 0.09616837  , -9.854063   , 0.0007618319, 0.0126837175, 0.0002900993, -0.009025607, 0.0404274352, 1.74521255  , 917.4744    , 25.5904522  , 829.989258  , 4.7         , 7           , 255         , 0           , 0
-0.1116842  , 0.0959076   , -9.841677   , 0.0005605174, 0.0130751953, 0.000180656789, -0.009022971, 0.04024003  , 1.745213    , 917.4744    , 25.5904522  , 829.9615    , 4.71        , 7           , 255         , 0           , 0
-0.125467777, 0.09432435  , -9.844098   , -7.204851E-05, 0.0125292344, -0.000368230161, -0.009023884, 0.04036528  , 1.74520826  , 917.4744    , 25.5904522  , 829.962646  , 4.72        , 7           , 255         , 0           , 0
-0.118687749, 0.08832663  , -9.855386   , -0.000923466869, 0.012844054 , 0.000390146859, -0.009033008, 0.04049375  , 1.74521089  , 917.446838  , 25.5929623  , 829.9638    , 4.73        , 7           , 255         , 0           , 0
-0.122617938, 0.08776784  , -9.85434151 , 0.000463379547, 0.0135158263, -0.0005414395, -0.009028645, 0.04062885  , 1.74520421  , 917.446838  , 25.5929623  , 829.964966  , 4.74        , 7           , 255         , 0           , 0
-0.118389726, 0.09441748  , -9.85063648 , -1.587253E-05, 0.0130980173, -0.000295669539, -0.00902897 , 0.0407597944, 1.74520016  , 917.446838  , 25.5929623  , 829.9661    , 4.75        , 7           , 255         , 0           , 0
-0.115390874, 0.09113923  , -9.851008   , -0.000276271719, 0.012751013 , -0.000279869768, -0.009031899, 0.0408872738, 1.7451961   , 917.446838  , 25.5929623  , 829.9673    , 4.76        , 7           , 255         , 0           , 0
-0.117346644, 0.09706244  , -9.843652   , 0.000181913842, 0.0130242854, -0.000109001063, -0.009030169, 0.0410175   , 1.745194    , 917.446838  , 25.5929623  , 829.968445  , 4.77        , 7           , 255         , 0           , 0
-0.124163926, 0.0962428749, -9.841714   , -0.000140512828, 0.0128803337, 0.000145546859, -0.009031559, 0.0411463045, 1.7451942   , 917.446838  , 25.5929623  , 829.9696    , 4.78        , 7           , 255         , 0           , 0
-0.122785568, 0.0891462   , -9.846148   , -0.00045123673, 0.0131606292, -0.000614000368, -0.009036371, 0.04127785  , 1.74518692  , 917.446838  , 25.5929623  , 829.970764  , 4.79        , 7           , 255         , 0           , 0
-0.122152269, 0.09723008  , -9.849314   , -0.0007327022, 0.0126608964, -0.000241833972, -0.009043846, 0.0414044149, 1.74518323  , 917.446838  , 25.5929623  , 829.9719    , 4.8         , 7           , 255         , 0           , 0
-0.124592327, 0.0891089439, -9.855386   , 0.000246266834, 0.013019504 , -0.0007240288, -0.009044398, 0.0412058122, 1.74517488  , 917.446838  , 25.5929623  , 829.9856    , 4.81        , 7           , 255         , 0           , 0
-0.119581819, 0.09024516  , -9.85304    , 0.0006324772, 0.0130470069, -0.000344840344, -0.009038267, 0.0413362421, 1.74517024  , 917.446838  , 25.5929623  , 829.9869    , 4.82        , 7           , 255         , 0           , 0
-0.122729681, 0.103097416 , -9.849034   , 0.0003416494, 0.0128884269, -9.20479652E-05, -0.009034934, 0.0414651074, 1.74516809  , 917.4691    , 25.5956764  , 829.988159  , 4.83        , 7           , 255         , 0           , 0
-0.119265176, 0.08996576  , -9.84557    , 0.000208230922, 0.0128503907, -6.044912E-05, -0.00903292652, 0.0415936   , 1.74516642  , 917.4691    , 25.5956764  , 829.989441  , 4.84        , 7           , 255         , 0           , 0
-0.125989318, 0.0956095755, -9.844267   , -0.000443645054, 0.0129966829, 0.000369063579, -0.009037255, 0.04172359  , 1.745169    , 917.4691    , 25.5956764  , 829.9907    , 4.85        , 7           , 255         , 0           , 0
-0.121798374, 0.0941380858, -9.84339    , -0.000156328315, 0.0132231414, 0.0001162712, -0.009038825, 0.0418558232, 1.74516892  , 917.4691    , 25.5956764  , 829.992     , 4.86        , 7           , 255         , 0           , 0
-0.126454979, 0.08923933  , -9.841453   , 0.000472141663, 0.0130434958, 0.000216920162, -0.009034061, 0.04198627  , 1.74516988  , 917.4691    , 25.5956764  , 829.9933    , 4.87        , 7           , 255         , 0           , 0
-0.118464231, 0.09080395  , -9.848271   , 0.0002503628, 0.0133764567, -0.000121306628, -0.00903166 , 0.0421200171, 1.74516749  , 917.4691    , 25.5956764  , 829.994568  , 4.88        , 7           , 255         , 0           , 0
-0.115055583, 0.101123    , -9.851475   , 0.000149714528, 0.01326703  , -0.000310900738, -0.009030347, 0.04225265  , 1.7451632   , 917.4691    , 25.5956764  , 829.9959    , 4.89        , 7           , 255         , 0           , 0
-0.122226775, 0.0923872   , -9.848364   , -0.000104248291, 0.0134010334, 0.000144359423, -0.009031382, 0.0423866622, 1.7451632   , 917.4691    , 25.5956764  , 829.997253  , 4.9         , 7           , 255         , 0           , 0
-0.119414188, 0.09408221  , -9.845551   , 0.000291307922, 0.0135869468, 0.000842446 , -0.009031037, 0.0421896651, 1.74517047  , 917.4691    , 25.5956764  , 829.9757    , 4.91        , 7           , 255         , 0           , 0
-0.111944973, 0.08381903  , -9.843484   , 0.000610808842, 0.0129426792, -0.000419759774, -0.0090251565, 0.042319037 , 1.74516511  , 917.4691    , 25.5956764  , 829.9769    , 4.92        , 7           , 255         , 0           , 0
-0.117942691, 0.09063631  , -9.845682   , 0.000254442217, 0.0129473591, -0.0005420598, -0.009022892, 0.04244846  , 1.74515855  , 917.435     , 25.5935726  , 829.978149  , 4.93        , 7           , 255         , 0           , 0
-0.117886804, 0.0889413059, -9.846557   , -7.12764449E-06, 0.01293156  , -5.75413E-05, -0.00902304053, 0.0425777622, 1.74515676  , 917.435     , 25.5935726  , 829.9794    , 4.94        , 7           , 255         , 0           , 0
-0.120066106, 0.0930205   , -9.850189   , 0.000157304574, 0.0130819483, 0.000263130525, -0.009021407, 0.0427085944, 1.7451582   , 917.435     , 25.5935726  , 829.9806    , 4.95        , 7           , 255         , 0           , 0
-0.114534043, 0.09410083  , -9.84881    , -4.340778E-05, 0.0131416367, -0.0006813294, -0.009022188, 0.0428399444, 1.74515021  , 917.435     , 25.5935726  , 829.9818    , 4.96        , 7           , 255         , 0           , 0
-0.116080046, 0.09937212  , -9.847171   , -0.000352376373, 0.0137349945, 8.875062E-05, -0.00902572647, 0.0429772921, 1.74515     , 917.435     , 25.5935726  , 829.983032  , 4.97        , 7           , 255         , 0           , 0
-0.113733113, 0.09790063  , -9.8411     , 4.84634656E-05, 0.0135500813, 0.000563321169, -0.009025053, 0.04311283  , 1.74515438  , 917.435     , 25.5935726  , 829.984253  , 4.98        , 7           , 255         , 0           , 0
-0.116918229, 0.0941939652, -9.844639   , 0.0005306415, 0.0126857907, 0.0007692999, -0.009019467, 0.04323975  , 1.74516082  , 917.435     , 25.5935726  , 829.9855    , 4.99        , 7           , 255         , 0           , 0
-0.118706368, 0.09568408  , -9.84231    , 0.0003831787, 0.0127168046, -0.000103769358, -0.009015732, 0.0433668979, 1.74515843  , 917.435     , 25.5935726  , 829.9867    , 5           , 7           , 0           , -1          , 500
-0.108890235, 0.09344891  , -9.84665    , -0.000423783669, 0.013313964 , -0.0006526753, -0.009023113, 0.04315301  , 1.74515092  , 917.435     , 25.5935726  , 830.0148    , 5.01        , 7           , 1           , 0           , 0
-0.115949653, 0.08769333  , -9.847097   , -0.000408569118, 0.0130067514, 0.000500689261, -0.009027037, 0.0432831123, 1.74515462  , 917.435     , 25.5935726  , 830.0162    , 5.02        , 7           , 2           , 0           , 0
-0.118352473, 0.08286908  , -9.855273   , 0.000311771641, 0.0130482968, 0.0008377456, -0.009023608, 0.04341366  , 1.74516189  , 917.470032  , 25.5982552  , 830.0176    , 5.03        , 7           , 3           , 0           , 0
-0.120177865, 0.0935606658, -9.844247   , -2.52849422E-05, 0.0127481055, 0.000584953465, -0.009023663, 0.04354118  , 1.74516642  , 917.470032  , 25.5982552  , 830.019     , 5.04        , 7           , 4           , 0           , 0
-0.113751747, 0.09087846  , -9.846762   , -0.000384577317, 0.0126462877, -0.000109640183, -0.009027604, 0.0436676331, 1.74516428  , 917.470032  , 25.5982552  , 830.0204    , 5.05        , 7           , 5           , 0           , 0
-0.121146441, 0.0909343362, -9.84352    , 0.0003702885, 0.01290025  , -0.000116662122, -0.009024003, 0.04379661  , 1.74516189  , 917.470032  , 25.5982552  , 830.021851  , 5.06        , 7           , 6           , 0           , 0
-0.120867036, 0.0897794962, -9.847209   , 0.000382576836, 0.0130939409, 0.000158366282, -0.00902016 , 0.0439275429, 1.74516225  , 917.470032  , 25.5982552  , 830.0233    , 5.07        , 7           , 7           , 0           , 0
-0.128466636, 0.08979812  , -9.854026   , -0.0009047908, 0.0129622789, 0.000112723326, -0.009029214, 0.04405718  , 1.74516213  , 917.470032  , 25.5982552  , 830.0248    , 5.08        , 7           , 8           , 5           , 5
-0.1208298  , 0.08990988  , -9.848513   , -0.000931708841, 0.0134233888, -0.0003050859, -0.009038723, 0.0441913754, 1.74515784  , 917.470032  , 25.5982552  , 830.026245  , 5.09        , 7           , 9           , 5           , 0.1
-0.122785568, 0.09505078  , -9.841118   , -0.000371703645, 0.0129927052, 7.39330426E-06, -0.00904248748, 0.04432129  , 1.74515676  , 917.470032  , 25.5982552  , 830.0277    , 5.1         , 7           , 10          , 0.1         , 0.1
-0.114198782, 0.08430332  , -9.852834   , -0.000226003118, 0.0131351678, 0.0005937116, -0.009045479, 0.04410958  , 1.74516153  , 917.470032  , 25.5982552  , 830.0005    , 5.11        , 7           , 11          , 0.009293131 , 0.009293008
-0.116396688, 0.0886805356, -9.846836   , -0.000944588566, 0.01254181  , 0.00043103518, -0.009054783, 0.0442350246, 1.74516475  , 917.470032  , 25.5982552  , 830.0018    , 5.12        , 7           , 12          , 0.0346852   , 0
-0.118240714, 0.0837259   , -9.847898   , -0.00023126998, 0.0127150184, 0.000542802271, -0.009056908, 0.0443622135, 1.74516892  , 917.465     , 25.59778    , 830.003052  , 5.13        , 7           , 13          , 0           , 0
-0.118426979, 0.08191913  , -9.849333   , -7.561548E-05, 0.01322938  , 0.0003549636, -0.009057563, 0.04449453  , 1.74517131  , 917.465     , 25.59778    , 830.004333  , 5.14        , 7           , 14          , 0.0036059292, 3.87010659E-05
-0.111982226, 0.0933744   , -9.853541   , -0.0003582514, 0.0131170275, 0.000239685643, -0.009061092, 0.0446257144, 1.74517238  , 917.465     , 25.59778    , 830.0056    , 5.15        , 7           , 15          , 0           , 0.002141945
-0.116080046, 0.0939331949, -9.847154   , 0.0002561747, 0.013102985 , 0.000330971554, -0.009058435, 0.04475676  , 1.74517465  , 917.465     , 25.59778    , 830.006958  , 5.16        , 7           , 16          , 0           , 4.203895E-45
-0.117830932, 0.0945664942, -9.846389   , 4.20031138E-05, 0.0132001219, 0.000209256774, -0.009057979, 0.0448887721, 1.74517548  , 917.465     , 25.59778    , 830.0083    , 5.17        , 7           , 20          , 0           , 0
-0.116415322, 0.08946285  , -9.848551   , -0.0004495373, 0.0130825033, -0.000378836179, -0.009062694, 0.0450195521, 1.74517059  , 917.465     , 25.59778    , 830.009644  , 5.18        , 7           , 21          , 0           , 0
