Acc X       , Acc Y       , Acc Z       , Gyro X      , Gyro Y      , Gyro Z      , Euler X     , Euler Y     , Euler Z     , Pres X      , Pres Y      , Pres Z      , Time        , Status      , LowRate X   , LowRate Y   , LowRate Z    
-0.172352716, 0.07377804  , -9.786299   , 0           , 0           , 0           , -0.00753876846, -0.017609315, 1.847319    , 917.4574    , 29.5845146  , 829.944641  , 0           , 2           , 0           , 5.47623158  , 0
-0.170973271, 0.0580985174, -9.790113   , 0.00119791075, -6.74976E-05, 0.0004626656, -0.0075268806, -0.0176100153, 1.84732342  , 917.4574    , 29.5845146  , 829.944641  , 0.01        , 7           , 1           , 0           , 0
-0.1634784  , 0.0479570255, -9.790265   , 0.00130581914, 8.643395E-05, 0.000441001175, -0.00751389842, -0.0176091176, 1.847328    , 917.4574    , 29.5845146  , 829.944641  , 0.02        , 7           , 2           , 0           , 0
-0.1735632  , 0.05676627  , -9.785334   , 0.0009310704, -0.000203968957, -0.0003698564, -0.007504523, -0.0176111851, 1.84732425  , 917.446167  , 29.1526337  , 829.944641  , 0.03        , 7           , 3           , 0           , 0
-0.177240089, 0.05664838  , -9.783933   , 0.0013219536, 0.0001951058, -0.000126952757, -0.007491282, -0.0176092386, 1.84732318  , 917.446167  , 29.1526337  , 829.944641  , 0.04        , 7           , 4           , 0           , 0
-0.168077782, 0.07211453  , -9.789386   , 0.00105642655, -0.000459996285, 0.000158005423, -0.007480747, -0.0176138282, 1.84732485  , 917.446167  , 29.1526337  , 829.944641  , 0.05        , 7           , 5           , 0           , 0
-0.154490232, 0.0774783939, -9.788535   , 0.0005800484, 4.44706529E-06, 0.000424168451, -0.00747501943, -0.01761375 , 1.84732914  , 917.446167  , 29.1526337  , 829.944641  , 0.06        , 7           , 6           , 0           , 0
-0.157112837, 0.0821225941, -9.788427   , 0.000145866652, -0.000234577572, -0.0004264033, -0.00747348554, -0.0176161248, 1.84732461  , 917.446167  , 29.1526337  , 829.944641  , 0.07        , 7           , 7           , 0           , 0
-0.174371913, 0.0826935   , -9.784666   , -9.054039E-05, -0.0002256101, -0.0005660917, -0.007474292, -0.0176184233, 1.847319    , 917.446167  , 29.1526337  , 829.944641  , 0.08        , 7           , 8           , 5           , 5
-0.18392539 , 0.07255775  , -9.78615    , 0.000326727284, 0.0004186649, -0.000287302857, -0.007470975, -0.01761426 , 1.84731615  , 917.446167  , 29.1526337  , 829.944641  , 0.09        , 7           , 9           , 5           , 0.1
-0.187173814, 0.07342161  , -9.791713   , 0.0006153254, 0.000339791179, 4.434632E-05, -0.00746483 , -0.01761086 , 1.84731662  , 917.446167  , 29.1526337  , 829.944641  , 0.1         , 7           , 10          , 0.1         , 0.1
-0.1839593  , 0.08581625  , -9.79758549 , -0.000189788, 0.000356315169, 0.000253130565, -0.007434622, -0.0175989419, 1.84731865  , 917.446167  , 29.1526337  , 830.045166  , 0.11        , 7           , 11          , 0.0109544508, 0.0109544508
-0.180209428, 0.0940019041, -9.790609   , -6.113603E-05, 0.0006182634, -0.0008401004, -0.00743508525, -0.0175928231, 1.8473103   , 917.446167  , 29.1526337  , 830.045166  , 0.12        , 7           , 12          , 0.0346410163, 0
-0.173648953, 0.100734994 , -9.789869   , 0.000374299823, 2.665678E-06, 9.704914E-05, -0.0074313595, -0.01759279 , 1.84731126  , 917.4536    , 29.193203   , 830.045166  , 0.13        , 7           , 13          , 0           , 0
-0.171112984, 0.100151852 , -9.794245   , 0.000228343531, -0.000128664775, 0.0008735981, -0.00742922956, -0.01759401 , 1.84732     , 917.4536    , 29.193203   , 830.045166  , 0.14        , 7           , 14          , 0.00101811578, 0.00243572355
-0.173209578, 0.09119078  , -9.794238   , -7.033965E-05, 0.000246227253, 9.480302E-05, -0.00742994761, -0.0175915416, 1.84732091  , 917.4536    , 29.193203   , 830.045166  , 0.15        , 7           , 15          , 0           , 0.0003591184
-0.1794657  , 0.08848398  , -9.791479   , 0.000246655545, -0.0003486534, 0.0004025905, -0.007427553, -0.0175949987, 1.84732485  , 917.4536    , 29.193203   , 830.045166  , 0.16        , 7           , 16          , 0           , 1.401298E-45
-0.178699568, 0.0838335   , -9.79818    , 0.000531986239, 0.000304933637, 0.0002874303, -0.007422283, -0.0175919253, 1.84732771  , 917.4536    , 29.193203   , 830.045166  , 0.17        , 7           , 20          , 0           , 0
-0.180543989, 0.08272062  , -9.800091   , -0.000376525451, -0.0001866112, 0.000369440648, -0.00742611475, -0.0175937656, 1.8473314   , 917.4536    , 29.193203   , 830.045166  , 0.18        , 7           , 21          , 0           , 0
-0.1773659  , 0.0779884458, -9.79355049 , -0.000113809016, -7.099635E-05, 2.1402142E-05, -0.00742725469, -0.01759447 , 1.84733164  , 917.4536    , 29.193203   , 830.045166  , 0.19        , 7           , 22          , 0           , 0
-0.17155771 , 0.07766779  , -9.797579   , 0.000293123536, -0.000198175665, 0.000465901627, -0.007424404, -0.01759642 , 1.84733629  , 917.4536    , 29.193203   , 830.0452    , 0.2         , 7           , 40          , 0           , 0
-0.163154989, 0.06647317  , -9.791584   , -0.0002365763, -0.000312812626, -4.3653592E-05, -0.00747821527, -0.0176149588, 1.84733689  , 917.4536    , 29.193203   , 830.012268  , 0.21        , 7           , 41          , 0           , 0
-0.1621857  , 0.08232089  , -9.787725   , -0.0008963965, -0.000198603608, 5.43711649E-05, -0.00748718949, -0.0176169388, 1.84733748  , 917.4536    , 29.193203   , 830.0123    , 0.22        , 7           , 42          , 1           , 0
-0.161401585, 0.070891656 , -9.788328   , -0.0005621516, 0.000352124916, -1.173449E-05, -0.007492809, -0.017613424, 1.84733737  , 917.464355  , 29.2145729  , 830.0124    , 0.23        , 7           , 255         , 0           , 0
-0.171252027, 0.0599005222, -9.789775   , 0.00017308793, 0.0004956331, 0.000515770458, -0.00749117043, -0.0176084284, 1.84734249  , 917.464355  , 29.2145729  , 830.012451  , 0.24        , 7           , 255         , 0           , 0
-0.168090969, 0.06296826  , -9.788792   , -0.00059726974, 8.530356E-05, -2.24467658E-05, -0.007497137, -0.0176075753, 1.84734225  , 917.464355  , 29.2145729  , 830.0125    , 0.25        , 7           , 255         , 0           , 0
-0.168505937, 0.04935353  , -9.793594   , -0.0003617251, 0.00034242752, -0.000404893566, -0.007500683, -0.01760418 , 1.8473382   , 917.464355  , 29.2145729  , 830.0126    , 0.26        , 7           , 255         , 0           , 0
-0.171719164, 0.05757705  , -9.79869652 , -0.000332596363, 0.000159501564, 0.000167051156, -0.007504038, -0.0176025722, 1.84733987  , 917.464355  , 29.2145729  , 830.012634  , 0.27        , 7           , 255         , 0           , 0
-0.1611147  , 0.06157095  , -9.801725   , 0.00050441327, 0.000189362327, 0.0005104793, -0.007499083, -0.01760064 , 1.84734488  , 917.464355  , 29.2145729  , 830.0127    , 0.28        , 7           , 255         , 0           , 0
-0.16139318 , 0.06575361  , -9.793337   , 0.00031756633, -0.000322356122, -0.000112785609, -0.00749588665, -0.0176038742, 1.84734368  , 917.464355  , 29.2145729  , 830.012756  , 0.29        , 7           , 255         , 0           , 0
-0.161839083, 0.0572963059, -9.802252   , -0.000171658467, 1.27563253E-05, -0.000313425262, -0.00749754673, -0.01760377 , 1.84734058  , 917.464355  , 29.2145729  , 830.0128    , 0.3         , 7           , 255         , 0           , 0
-0.166451186, 0.0598261543, -9.787687   , -5.82091161E-05, 0.000230308855, -0.000457433925, -0.00746262027, -0.0175752714, 1.84733534  , 917.464355  , 29.2145729  , 829.9689    , 0.31        , 7           , 255         , 0           , 0
-0.179931492, 0.061080765 , -9.789137   , -0.000163127726, 7.434492E-05, -0.000648929039, -0.00746413926, -0.0175745822, 1.8473289   , 917.464355  , 29.2145729  , 829.968933  , 0.32        , 7           , 255         , 0           , 0
-0.172748163, 0.06951312  , -9.791796   , 0.000554252532, 1.5510479E-05, -0.000495170068, -0.00745850848, -0.01757446 , 1.84732389  , 917.4725    , 29.2341785  , 829.969     , 0.33        , 7           , 255         , 0           , 0
-0.163038865, 0.06968116  , -9.796687   , -0.000221253547, 0.000308153918, 0.0005734447, -0.007460822, -0.0175713338, 1.84732962  , 917.4725    , 29.2341785  , 829.969055  , 0.34        , 7           , 255         , 0           , 0
-0.171111748, 0.07547839  , -9.790486   , 0.000139600015, -0.000216587679, 0.000355379831, -0.007459489, -0.0175734758, 1.84733319  , 917.4725    , 29.2341785  , 829.9691    , 0.35        , 7           , 255         , 0           , 0
-0.173889473, 0.07652335  , -9.793599   , -0.000428058673, -0.000615835539, 0.000100373436, -0.00746378675, -0.0175796244, 1.84733427  , 917.4725    , 29.2341785  , 829.9692    , 0.36        , 7           , 255         , 0           , 0
-0.173663959, 0.07566418  , -9.800291   , -0.000148528721, 8.078152E-05, -0.000211504652, -0.007465234, -0.0175788328, 1.84733224  , 917.4725    , 29.2341785  , 829.969238  , 0.37        , 7           , 255         , 0           , 0
-0.1746489  , 0.07066749  , -9.793535   , -0.0001607514, 3.92780639E-05, -0.000176974077, -0.00746681 , -0.0175784528, 1.84733045  , 917.4725    , 29.2341785  , 829.9693    , 0.38        , 7           , 255         , 0           , 0
-0.175495431, 0.0807486251, -9.788345   , 0.000975442 , 0.000159347663, -0.000396556017, -0.0074569853, -0.0175768882, 1.84732652  , 917.4725    , 29.2341785  , 829.96936   , 0.39        , 7           , 255         , 0           , 0
-0.1809737  , 0.0738085955, -9.787455   , 0.000265776762, 5.43766655E-05, -0.000552209443, -0.00745423 , -0.0175763816, 1.84732091  , 917.4725    , 29.2341785  , 829.9694    , 0.4         , 7           , 255         , 0           , 0
-0.183120117, 0.07736052  , -9.79794    , -0.0003013329, 7.853843E-05, -3.21477419E-05, -0.007450603, -0.01757978 , 1.84732056  , 917.4725    , 29.2341785  , 829.928467  , 0.41        , 7           , 255         , 0           , 0
-0.174691841, 0.07739599  , -9.802235   , -6.507285E-05, -0.000106035965, 0.000480423041, -0.00745133869, -0.0175808072, 1.84732533  , 917.4725    , 29.2341785  , 829.9285    , 0.42        , 7           , 255         , 0           , 0
-0.171686262, 0.08494732  , -9.803212   , -8.30774661E-05, -0.000243776245, 0.000296459126, -0.007452223, -0.0175832231, 1.84732831  , 917.467957  , 29.2463226  , 829.9286    , 0.43        , 7           , 255         , 0           , 0
-0.174650714, 0.0844186544, -9.79189    , 0.000116183772, 6.777374E-05, -0.000494060747, -0.007450973, -0.01758258 , 1.84732342  , 917.467957  , 29.2463226  , 829.92865   , 0.44        , 7           , 255         , 0           , 0
-0.161454529, 0.0763890147, -9.786235   , 0.0001406679, -7.32725E-05, 0.0003420231, -0.007449628, -0.017583292, 1.84732687  , 917.467957  , 29.2463226  , 829.9287    , 0.45        , 7           , 255         , 0           , 0
-0.171141222, 0.0835517   , -9.793497   , 0.0002931041, -0.0004504039, 0.000403630373, -0.00744676776, -0.0175877642, 1.84733081  , 917.467957  , 29.2463226  , 829.9288    , 0.46        , 7           , 255         , 0           , 0
-0.174380422, 0.07656667  , -9.79670048 , -0.000517725362, 7.73516949E-05, 0.000548408949, -0.00745204324, -0.0175869521, 1.84733653  , 917.467957  , 29.2463226  , 829.928833  , 0.47        , 7           , 255         , 0           , 0
-0.1739781  , 0.07860058  , -9.791494   , -0.0007019556, 0.000264193164, -5.55691659E-05, -0.00745905051, -0.01758431 , 1.84733582  , 917.467957  , 29.2463226  , 829.9289    , 0.48        , 7           , 255         , 0           , 0
-0.167533487, 0.07473038  , -9.786818   , -0.0003460832, 0.00050242315, 0.000241706031, -0.00746255368, -0.0175792687, 1.84733832  , 917.467957  , 29.2463226  , 829.928955  , 0.49        , 7           , 255         , 0           , 0
-0.171766445, 0.07594587  , -9.792082   , 8.247921E-05, 0.000277735759, -7.51615444E-05, -0.007461716, -0.0175765  , 1.8473376   , 917.467957  , 29.2463226  , 829.929     , 0.5         , 7           , 255         , 0           , 0
-0.173257828, 0.07260375  , -9.794426   , 8.584361E-05, -4.56750859E-05, -0.00043672882, -0.007479609, -0.0175776277, 1.84733355  , 917.467957  , 29.2463226  , 829.9129    , 0.51        , 7           , 255         , 0           , 0
-0.177542061, 0.06647856  , -9.791604   , -0.000136706512, 4.396704E-05, -0.000185195066, -0.00748094358, -0.0175772011, 1.84733176  , 917.467957  , 29.2463226  , 829.912964  , 0.52        , 7           , 255         , 0           , 0
-0.169470876, 0.0707720444, -9.796762   , -1.95200555E-05, -0.0002346139, -0.000344238535, -0.007481078, -0.0175795741, 1.84732819  , 917.4748    , 29.2520218  , 829.913     , 0.53        , 7           , 255         , 0           , 0
-0.171098337, 0.0768924057, -9.799866   , -0.000228872872, -6.60910737E-05, 0.000269237265, -0.007483415, -0.0175802149, 1.84733093  , 917.4748    , 29.2520218  , 829.9131    , 0.54        , 7           , 255         , 0           , 0
-0.1676192  , 0.07817491  , -9.798349   , -0.0001628573, 0.0006514918, -0.00041716636, -0.00748496875, -0.0175737329, 1.84732676  , 917.4748    , 29.2520218  , 829.913147  , 0.55        , 7           , 255         , 0           , 0
-0.164813623, 0.07701052  , -9.791502   , 0.000106822117, 0.000356011325, -0.000182289383, -0.00748386839, -0.0175701883, 1.847325    , 917.4748    , 29.2520218  , 829.9132    , 0.56        , 7           , 255         , 0           , 0
-0.1700829  , 0.07651168  , -9.795206   , 8.923607E-05, -7.171021E-05, 0.0006764526, -0.007483094, -0.0175708514, 1.84733176  , 917.4748    , 29.2520218  , 829.913269  , 0.57        , 7           , 255         , 0           , 0
-0.164955735, 0.0775967   , -9.796257   , -5.26511576E-06, -9.87506937E-05, -0.000251038349, -0.007483103, -0.0175718572, 1.84732914  , 917.4748    , 29.2520218  , 829.9134    , 0.58        , 7           , 255         , 0           , 0
-0.165048122, 0.07661138  , -9.796203   , -0.000418640848, 8.96547E-05 , 0.0004944355, -0.007487376, -0.0175709222, 1.84733415  , 917.4748    , 29.2520218  , 829.9135    , 0.59        , 7           , 255         , 0           , 0
-0.172317341, 0.0725924745, -9.797457   , -0.0006054009, -0.000106318854, -0.000262094982, -0.00749338232, -0.0175720062, 1.84733152  , 917.4748    , 29.2520218  , 829.913635  , 0.6         , 7           , 255         , 0           , 0
-0.1678669  , 0.07935305  , -9.793069   , -0.000233611267, 2.30600126E-05, -0.000898352766, -0.00749892 , -0.0175646953, 1.84732258  , 917.4748    , 29.2520218  , 829.8916    , 0.61        , 7           , 255         , 0           , 0
-0.166357726, 0.06344644  , -9.794388   , -2.66289571E-05, -8.733012E-06, 0.000147257058, -0.007499211, -0.0175647717, 1.847324    , 917.4748    , 29.2520218  , 829.8917    , 0.62        , 7           , 255         , 0           , 0
-0.16294086 , 0.07541569  , -9.801172   , -3.416883E-05, -4.79272567E-05, -0.0002919577, -0.00749950064, -0.0175652746, 1.847321    , 917.4861    , 29.25962    , 829.891846  , 0.63        , 7           , 255         , 0           , 0
-0.166217521, 0.07177795  , -9.796377   , 0.000268474 , -0.000515412656, -0.0005292378, -0.007496723, -0.0175704677, 1.84731579  , 917.4861    , 29.25962    , 829.891968  , 0.64        , 7           , 255         , 0           , 0
-0.170942158, 0.07885565  , -9.796499   , 0.000370396534, -0.000459830277, -0.000148673047, -0.00749299536, -0.017575074, 1.84731436  , 917.4861    , 29.25962    , 829.8921    , 0.65        , 7           , 255         , 0           , 0
-0.167879015, 0.07213565  , -9.799234   , -0.000293935067, -0.000163560733, -0.000406538224, -0.00749586429, -0.0175767411, 1.8473103   , 917.4861    , 29.25962    , 829.8922    , 0.66        , 7           , 255         , 0           , 0
-0.180824369, 0.0617442727, -9.804352   , -5.262671E-06, -0.000184739474, 0.000200969051, -0.00749595137, -0.017578572, 1.84731221  , 917.4861    , 29.25962    , 829.892334  , 0.67        , 7           , 255         , 0           , 0
-0.179907039, 0.0735035539, -9.79214    , 0.000368215842, 0.0002389797, 6.503481E-05, -0.007492281, -0.0175761785, 1.84731281  , 917.4861    , 29.25962    , 829.892456  , 0.68        , 7           , 255         , 0           , 0
-0.180881366, 0.0736394   , -9.79525852 , -0.000281105167, 0.0001257984, -0.000146908074, -0.00749506569, -0.0175749324, 1.84731126  , 917.4861    , 29.25962    , 829.8926    , 0.69        , 7           , 255         , 0           , 0
-0.176224992, 0.06899302  , -9.784726   , -9.410223E-05, 6.496976E-05, 0.000184281671, -0.007496038, -0.0175742675, 1.84731317  , 917.4861    , 29.25962    , 829.8927    , 0.7         , 7           , 255         , 0           , 0
-0.164087638, 0.0706743   , -9.792168   , 5.20860776E-05, 0.0004296354, -0.000217891968, -0.0074913376, -0.0175695457, 1.84731078  , 917.4861    , 29.25962    , 829.8612    , 0.71        , 7           , 255         , 0           , 0
-0.173971936, 0.07054733  , -9.797921   , -0.000204453827, 0.000146177132, -0.000720268639, -0.00749325659, -0.0175681412, 1.84730363  , 917.4861    , 29.25962    , 829.8613    , 0.72        , 7           , 255         , 0           , 0
-0.174865514, 0.07563875  , -9.797593   , 0.000358289341, 0.000498490641, -0.0005619161, -0.007489575, -0.0175631959, 1.84729815  , 917.480957  , 29.2624683  , 829.86145   , 0.73        , 7           , 255         , 0           , 0
-0.166697949, 0.0721280947, -9.795168   , -0.000489320664, -3.778306E-05, 0.0006150444, -0.007494577, -0.0175635274, 1.84730422  , 917.480957  , 29.2624683  , 829.8616    , 0.74        , 7           , 255         , 0           , 0
-0.1624659  , 0.08335976  , -9.795639   , 2.83399131E-05, -0.000184306176, 0.0009551717, -0.007494463, -0.0175653  , 1.84731376  , 917.480957  , 29.2624683  , 829.8617    , 0.75        , 7           , 255         , 0           , 0
-0.159702033, 0.08979869  , -9.789314   , -0.000123322883, -0.000390574336, -9.12724063E-05, -0.00749568036, -0.0175692122, 1.84731293  , 917.480957  , 29.2624683  , 829.8618    , 0.76        , 7           , 255         , 0           , 0
-0.1673536  , 0.08649718  , -9.787203   , -0.000529965735, 5.54097351E-05, -0.00011916674, -0.00750095956, -0.0175686646, 1.84731174  , 917.480957  , 29.2624683  , 829.861938  , 0.77        , 7           , 255         , 0           , 0
-0.177019283, 0.0867247   , -9.802228   , 0.000249343459, 0.000100909732, -0.00030269337, -0.00749841332, -0.017567683, 1.84730887  , 917.480957  , 29.2624683  , 829.862061  , 0.78        , 7           , 255         , 0           , 0
-0.175877988, 0.0782651752, -9.80067    , -0.000213924563, 0.000128295273, -0.0005200007, -0.007500461, -0.0175664332, 1.84730363  , 917.480957  , 29.2624683  , 829.8622    , 0.79        , 7           , 255         , 0           , 0
-0.177362964, 0.0841918141, -9.791288   , -0.000164726167, 2.02897936E-05, -0.000826989068, -0.007501961, -0.0175662916, 1.8472954   , 917.480957  , 29.2624683  , 829.8623    , 0.8         , 7           , 255         , 0           , 0
-0.180381611, 0.08189144  , -9.794685   , -0.0003495643, -0.000274118967, -0.00036323024, -0.007523007, -0.017563181, 1.84729207  , 917.480957  , 29.2624683  , 829.8443    , 0.81        , 7           , 255         , 0           , 0
-0.188370019, 0.08265814  , -9.800313   , 0.0002370862, -0.000189278275, 0.000140383 , -0.00752066169, -0.0175650641, 1.84729338  , 917.480957  , 29.2624683  , 829.8444    , 0.82        , 7           , 255         , 0           , 0
-0.171084091, 0.0894406   , -9.791925   , 0.000271482277, 0.000121946679, 0.000106626219, -0.00751796458, -0.0175638366, 1.84729445  , 917.4447    , 29.263216   , 829.844543  , 0.83        , 7           , 255         , 0           , 0
-0.180528775, 0.0741419047, -9.795408   , -5.46588562E-05, 0.0002748198, -0.000428708416, -0.007518436, -0.01756112 , 1.84729016  , 917.4447    , 29.263216   , 829.844666  , 0.84        , 7           , 255         , 0           , 0
-0.165692657, 0.0704157   , -9.802365   , -0.0008420158, 0.000166230835, 0.000278879976, -0.00752690574, -0.0175594352, 1.847293    , 917.4447    , 29.263216   , 829.8448    , 0.85        , 7           , 255         , 0           , 0
-0.172672659, 0.06103947  , -9.792797   , -0.000287988572, 0.0006785928, -0.000195068424, -0.0075297514, -0.0175526664, 1.84729111  , 917.4447    , 29.263216   , 829.8449    , 0.86        , 7           , 255         , 0           , 0
-0.182069272, 0.06837852  , -9.795472   , 0.000107075088, 0.000231792685, -0.000335811754, -0.0075286217, -0.0175503734, 1.84728777  , 917.4447    , 29.263216   , 829.845032  , 0.87        , 7           , 255         , 0           , 0
-0.167694777, 0.07236017  , -9.799848   , 0.0002747064, -0.0004698399, -0.0001368635, -0.00752585 , -0.0175550766, 1.84728646  , 917.4447    , 29.263216   , 829.845154  , 0.88        , 7           , 255         , 0           , 0
-0.170968622, 0.06810687  , -9.794032   , -0.000185928657, -0.0004182821, 0.000232606049, -0.007527751, -0.0175592452, 1.84728885  , 917.4447    , 29.263216   , 829.8453    , 0.89        , 7           , 255         , 0           , 0
-0.170584127, 0.0582273975, -9.798104   , -0.00039144652, -0.0001363717, 0.0007600852, -0.00753179938, -0.01756055 , 1.84729648  , 917.4447    , 29.263216   , 829.8454    , 0.9         , 7           , 255         , 0           , 0
-0.162569985, 0.06750406  , -9.795374   , 0.000174558721, -6.01632055E-05, 5.2715186E-05, -0.00752750225, -0.0175684039, 1.847297    , 917.4447    , 29.263216   , 829.8729    , 0.91        , 7           , 255         , 0           , 0
-0.171298921, 0.06620507  , -9.800148   , -0.000113269081, 0.000131164677, -0.000182223928, -0.00752860354, -0.0175671019, 1.84729528  , 917.4447    , 29.263216   , 829.8731    , 0.92        , 7           , 255         , 0           , 0
-0.16077359 , 0.06350062  , -9.791224   , -0.000211031584, -0.000248280121, -0.000376831129, -0.007530648, -0.0175696146, 1.84729159  , 917.4884    , 29.2642326  , 829.8733    , 0.93        , 7           , 255         , 0           , 0
-0.1693736  , 0.0620381   , -9.788977   , 0.000354407472, -0.000698115, -0.000716865, -0.007526978, -0.01757665 , 1.84728456  , 917.4884    , 29.2642326  , 829.8735    , 0.94        , 7           , 255         , 0           , 0
-0.174834952, 0.06295654  , -9.794944   , -0.000319723622, 0.000119123142, 0.0001441674, -0.0075302  , -0.0175754428, 1.847286    , 917.4884    , 29.2642326  , 829.873657  , 0.95        , 7           , 255         , 0           , 0
-0.168386832, 0.0575437136, -9.781573   , -0.000262415735, 0.0002489637, 7.686377E-05, -0.00753283734, -0.0175729487, 1.8472867   , 917.4884    , 29.2642326  , 829.87384   , 0.96        , 7           , 255         , 0           , 0
-0.169659048, 0.06503759  , -9.783619   , -0.000350345334, 0.00017667748, -0.000112827285, -0.007536321, -0.0175711866, 1.84728563  , 917.4884    , 29.2642326  , 829.874     , 0.97        , 7           , 255         , 0           , 0
-0.173126623, 0.06487341  , -9.795315   , -0.0004842013, -0.000148797641, -0.0001714954, -0.007541132, -0.01757269 , 1.847284    , 917.4884    , 29.2642326  , 829.8742    , 0.98        , 7           , 255         , 0           , 0
-0.169632941, 0.07743779  , -9.793477   , -0.000841667235, -0.000309388852, -0.00015131812, -0.00754952524, -0.017575793, 1.84728241  , 917.4884    , 29.2642326  , 829.8744    , 0.99        , 7           , 255         , 0           , 0
-0.175690591, 0.07304551  , -9.793434   , -0.00112761662, 0.000251595862, 0.000440299 , -0.007560879, -0.0175732449, 1.847287    , 917.4884    , 29.2642326  , 829.8746    , 1           , 7           , 0           , 6.47623634  , 100
-0.1764923  , 0.07722491  , -9.801228   , -0.000418324431, 0.000178437913, -7.000344E-05, -0.007539967, -0.0175630543, 1.84728587  , 917.4884    , 29.2642326  , 829.8494    , 1.01        , 7           , 1           , 0           , 0
-0.173598856, 0.0808536   , -9.810667   , -0.000786885154, 4.07206826E-05, 0.000447955274, -0.00754791545, -0.0175626129, 1.8472904   , 917.4884    , 29.2642326  , 829.849548  , 1.02        , 7           , 2           , 0           , 0
-0.169604719, 0.0781996   , -9.819563   , 8.69761E-05 , -8.632103E-05, 0.000233737752, -0.007547088, -0.01756346 , 1.8472929   , 917.4777    , 29.2676258  , 829.8497    , 1.03        , 7           , 3           , 0           , 0
-0.169482738, 0.08413906  , -9.806767   , 0.00116476754, -0.00054606644, 1.90333812E-05, -0.00753544457, -0.0175689142, 1.84729314  , 917.4777    , 29.2676258  , 829.8498    , 1.04        , 7           , 4           , 0           , 0
-0.172417268, 0.0824461058, -9.798589   , 0.0009960384, 0.00037388294, -0.000103614962, -0.007525466, -0.0175651833, 1.84729207  , 917.4777    , 29.2676258  , 829.8499    , 1.05        , 7           , 5           , 0           , 0
-0.174104512, 0.0836166   , -9.781599   , 0.000880779931, 7.08389562E-05, -0.0004685492, -0.00751657644, -0.0175645072, 1.84728742  , 917.4777    , 29.2676258  , 829.850037  , 1.06        , 7           , 6           , 0           , 0
-0.178044185, 0.08272029  , -9.781367   , 0.000166494516, 0.000151105225, -0.000788602047, -0.00751477247, -0.0175630562, 1.84727955  , 917.4777    , 29.2676258  , 829.850159  , 1.07        , 7           , 7           , 0           , 0
-0.175942525, 0.0736673   , -9.797502   , 0.000305157271, 0.000848548 , -0.000374193216, -0.0075116544, -0.0175546  , 1.84727573  , 917.4777    , 29.2676258  , 829.8503    , 1.08        , 7           , 8           , 5           , 5
-0.172020048, 0.07669657  , -9.804324   , 0.0003446634, 0.0004969945, 8.575962E-05, -0.007508222, -0.01754962 , 1.84727669  , 917.4777    , 29.2676258  , 829.8504    , 1.09        , 7           , 9           , 5           , 0.1
-0.18319644 , 0.07314436  , -9.799473   , 0.000160641386, 0.000180397881, -0.000306632341, -0.00750656053, -0.0175478384, 1.84727359  , 917.4777    , 29.2676258  , 829.8505    , 1.1         , 7           , 10          , 0.1         , 0.1
-0.179063424, 0.06913432  , -9.782472   , 0.0007235076, 6.99260272E-06, 2.99106759E-05, -0.00750996359, -0.0175522529, 1.847274    , 917.4777    , 29.2676258  , 829.8405    , 1.11        , 7           , 11          , 0.009260701 , 0.009260701
-0.1680524  , 0.07472856  , -9.786184   , 0.000547445146, 0.000119243748, 9.168006E-05, -0.007504503, -0.0175510533, 1.8472749   , 917.4777    , 29.2676258  , 829.840637  , 1.12        , 7           , 12          , 0.0346428268, 0
-0.17576    , 0.06520276  , -9.785256   , -0.00034310203, 0.000309651252, 0.000455876783, -0.007508014, -0.0175479185, 1.84727955  , 917.4714    , 29.2728481  , 829.840759  , 1.13        , 7           , 13          , 0           , 0
-0.175041   , 0.0581267774, -9.796421   , -0.000128314714, -8.322555E-05, -0.000379134726, -0.007509231, -0.0175487828, 1.84727573  , 917.4714    , 29.2728481  , 829.8409    , 1.14        , 7           , 14          , 0.001018118 , 0.00243571424
-0.175448731, 0.05572589  , -9.803876   , -0.0003652249, 0.000348296948, -0.000396686839, -0.00751281343, -0.01754533 , 1.8472718   , 917.4714    , 29.2728481  , 829.841     , 1.15        , 7           , 15          , 0           , 0.0003591183
-0.183186844, 0.0538866632, -9.798918   , -0.00040557934, -0.000217817258, -0.000216727072, -0.007516832, -0.0175475236, 1.84726954  , 917.4714    , 29.2728481  , 829.8411    , 1.16        , 7           , 16          , 0           , 1.401298E-45
-0.173449665, 0.0466010943, -9.786284   , 0.000280093751, -0.0001414991, -3.41327977E-05, -0.00751402369, -0.0175489411, 1.8472693   , 917.4714    , 29.2728481  , 829.841248  , 1.17        , 7           , 20          , 0           , 0
-0.166501164, 0.06647297  , -9.784199   , 0.000246546348, 0.000159806572, -1.65079837E-06, -0.00751155941, -0.0175473411, 1.8472693   , 917.4714    , 29.2728481  , 829.8414    , 1.18        , 7           , 21          , 0           , 0
-0.16588816 , 0.06463439  , -9.784668   , -0.000220664951, -0.000218878966, -0.0007058989, -0.00751364371, -0.0175495856, 1.84726214  , 917.4714    , 29.2728481  , 829.8415    , 1.19        , 7           , 22          , 0           , 0
-0.159691721, 0.06960621  , -9.8037     , -0.0002431111, 0.000158818671, 2.28970021E-05, -0.00751607958, -0.0175479986, 1.8472625   , 917.4714    , 29.2728481  , 829.8416    , 1.2         , 7           , 40          , 0           , 0
-0.168655142, 0.0630265251, -9.798953   , -0.000142966339, 0.000477365218, -0.000270929071, -0.007481418, -0.0175444875, 1.84725916  , 917.4714    , 29.2728481  , 829.8392    , 1.21        , 7           , 41          , 0           , 0
-0.165347457, 0.062717095 , -9.791865   , -0.0004575865, 9.06381756E-05, -7.178687E-05, -0.007485983, -0.0175435916, 1.84725857  , 917.4714    , 29.2728481  , 829.8393    , 1.22        , 7           , 42          , 1           , 0
-0.1578325  , 0.0646702647, -9.789316   , -0.000409302243, -0.000185461016, -7.615684E-05, -0.007490061, -0.0175454486, 1.84725785  , 917.4932    , 29.2723064  , 829.8394    , 1.23        , 7           , 255         , 0           , 0
-0.174949124, 0.08146493  , -9.792806   , -0.0006848129, 6.14924356E-05, 0.000163261924, -0.00749693951, -0.01754482 , 1.8472594   , 917.4932    , 29.2723064  , 829.839539  , 1.24        , 7           , 255         , 0           , 0
-0.161374286, 0.08601957  , -9.804758   , -3.39915277E-05, 2.18595378E-05, 0.00117558357, -0.007497486, -0.0175445136, 1.84727132  , 917.4932    , 29.2723064  , 829.839661  , 1.25        , 7           , 255         , 0           , 0
-0.171721116, 0.08488695  , -9.809807   , 2.40075169E-05, 0.000117478427, 0.000440094649, -0.00749732228, -0.0175433066, 1.84727561  , 917.4932    , 29.2723064  , 829.8398    , 1.26        , 7           , 255         , 0           , 0
-0.176292673, 0.08601783  , -9.801655   , 0.0003072644, 0.0004276689, -0.000105742394, -0.00749423169, -0.0175390374, 1.84727454  , 917.4932    , 29.2723064  , 829.8399    , 1.27        , 7           , 255         , 0           , 0
-0.175151378, 0.08441458  , -9.79893    , 0.0004971776, -1.23777427E-05, 0.000135550072, -0.0074892845, -0.0175391529, 1.847276    , 917.4932    , 29.2723064  , 829.84      , 1.28        , 7           , 255         , 0           , 0
-0.1738751  , 0.0796697   , -9.787237   , -5.043135E-05, -0.0001593437, -3.26123845E-05, -0.00748978229, -0.01754075 , 1.8472755   , 917.4932    , 29.2723064  , 829.840149  , 1.29        , 7           , 255         , 0           , 0
-0.172538668, 0.0825153738, -9.787513   , -0.0005033959, -0.000426163431, -0.0006518775, -0.007494704, -0.01754506 , 1.847269    , 917.4932    , 29.2723064  , 829.8403    , 1.3         , 7           , 255         , 0           , 0
-0.172670633, 0.07530503  , -9.797041   , -0.0004995547, -0.0002702882, -1.8150633E-05, -0.00750888232, -0.0175430011, 1.847269    , 917.4932    , 29.2723064  , 829.815369  , 1.31        , 7           , 255         , 0           , 0
-0.174387246, 0.07219011  , -9.792696   , -8.84842E-05, 0.000134159345, -0.000153555855, -0.0075097424, -0.0175416712, 1.84726763  , 917.4932    , 29.2723064  , 829.8154    , 1.32        , 7           , 255         , 0           , 0
-0.172203541, 0.06631556  , -9.782568   , -0.0006185362, -0.000130446162, -0.000369848683, -0.007515862, -0.017543003, 1.84726393  , 917.4725    , 29.2742729  , 829.8155    , 1.33        , 7           , 255         , 0           , 0
-0.163075611, 0.06572826  , -9.7821455  , -0.000172313943, -5.84004447E-05, -0.000606861548, -0.00751747936, -0.0175436344, 1.84725773  , 917.4725    , 29.2742729  , 829.815552  , 1.34        , 7           , 255         , 0           , 0
-0.175583124, 0.07104498  , -9.787902   , -0.0004929032, 6.51073642E-05, -0.0003393822, -0.00752235 , -0.0175430086, 1.8472544   , 917.4725    , 29.2742729  , 829.8156    , 1.35        , 7           , 255         , 0           , 0
-0.161178216, 0.06297627  , -9.789571   , -0.0006668398, 0.000188976061, 0.00010419832, -0.007529036, -0.01754111 , 1.84725547  , 917.4725    , 29.2742729  , 829.8157    , 1.36        , 7           , 255         , 0           , 0
-0.164775029, 0.0621263   , -9.793503   , -0.00102447625, 9.790575E-05, -0.000397329743, -0.00753921224, -0.0175401624, 1.84725153  , 917.4725    , 29.2742729  , 829.815735  , 1.37        , 7           , 255         , 0           , 0
-0.1702904  , 0.06713091  , -9.798049   , -0.00153125729, -0.000172615517, -0.000233019629, -0.00755448267, -0.017541904, 1.84724915  , 917.4725    , 29.2742729  , 829.8158    , 1.38        , 7           , 255         , 0           , 0
-0.154672578, 0.06381591  , -9.796999   , -0.00101001 , 6.91609457E-05, -2.024864E-05, -0.007564582, -0.0175412148, 1.847249    , 917.4725    , 29.2742729  , 829.815857  , 1.39        , 7           , 255         , 0           , 0
-0.163279891, 0.0596840866, -9.798176   , -0.0004291525, -0.000192091335, 0.000676342752, -0.007568992, -0.0175430849, 1.847256    , 917.4725    , 29.2742729  , 829.8159    , 1.4         , 7           , 255         , 0           , 0
-0.160759777, 0.06334835  , -9.81577    , -9.142194E-05, -6.831763E-05, -0.000211100414, -0.00754929846, -0.0175303146, 1.84725344  , 917.4725    , 29.2742729  , 829.815063  , 1.41        , 7           , 255         , 0           , 0
-0.160545632, 0.06998948  , -9.818228   , -0.000139001815, -0.000248024473, -0.000255694438, -0.00755064376, -0.0175328143, 1.84725094  , 917.4725    , 29.2742729  , 829.8151    , 1.42        , 7           , 255         , 0           , 0
-0.166451663, 0.06625029  , -9.801832   , 0.0003789873, 0.000158663373, 0.0007998735, -0.00754699437, -0.0175311659, 1.84725881  , 917.482     , 29.2728481  , 829.8152    , 1.43        , 7           , 255         , 0           , 0
-0.1728519  , 0.07416747  , -9.79537    , 0.000319029321, 0.000171729364, 0.000542876 , -0.0075439  , -0.01752941 , 1.84726429  , 917.482     , 29.2728481  , 829.815247  , 1.44        , 7           , 255         , 0           , 0
-0.168510839, 0.084812    , -9.781907   , -6.85007544E-05, -0.000662260456, -0.00032754062, -0.00754452636, -0.0175360534, 1.84726107  , 917.482     , 29.2728481  , 829.8153    , 1.45        , 7           , 255         , 0           , 0
-0.177904233, 0.0805168748, -9.785293   , -0.000248258817, -0.000212444691, -0.000263744325, -0.00754696224, -0.0175381973, 1.84725833  , 917.482     , 29.2728481  , 829.815369  , 1.46        , 7           , 255         , 0           , 0
-0.17937845 , 0.0913132057, -9.793293   , -0.0002984188, -4.67305072E-05, -0.0005622091, -0.00754984748, -0.0175387077, 1.84725261  , 917.482     , 29.2728481  , 829.8154    , 1.47        , 7           , 255         , 0           , 0
-0.169232041, 0.0850605145, -9.802938   , -0.0004548236, 0.000197439222, 0.00104384241, -0.007554578, -0.0175366551, 1.84726334  , 917.482     , 29.2728481  , 829.8155    , 1.48        , 7           , 255         , 0           , 0
-0.178180441, 0.0926769   , -9.804722   , -0.00027184136, 7.40096439E-05, 0.0009293534, -0.007557459, -0.017535843, 1.84727263  , 917.482     , 29.2728481  , 829.815552  , 1.49        , 7           , 255         , 0           , 0
-0.179006428, 0.08779903  , -9.80133    , -0.000341791019, 0.000309129246, 0.0004810542, -0.00756096374, -0.0175327118, 1.8472774   , 917.482     , 29.2728481  , 829.8156    , 1.5         , 7           , 255         , 0           , 0
-0.171904474, 0.09414032  , -9.799662   , -0.000264236878, 0.00041891518, -0.000173047971, -0.0075735515, -0.0175275281, 1.84727585  , 917.482     , 29.2728481  , 829.805     , 1.51        , 7           , 255         , 0           , 0
-0.178282   , 0.0894563645, -9.79371    , 0.000674722367, -0.000111589441, -0.0002699516, -0.007566756, -0.0175286625, 1.84727311  , 917.482     , 29.2728481  , 829.805054  , 1.52        , 7           , 255         , 0           , 0
-0.1741091  , 0.0808469   , -9.798996   , 0.000412113033, 0.0001970625, -0.00072676444, -0.007562507, -0.01752675 , 1.84726584  , 917.4222    , 29.2723732  , 829.8051    , 1.53        , 7           , 255         , 0           , 0
-0.172568083, 0.0785087   , -9.800119   , -0.000191483123, 0.0003759514, 2.886643E-05, -0.00756442826, -0.0175229888, 1.8472662   , 917.4222    , 29.2723732  , 829.8052    , 1.54        , 7           , 255         , 0           , 0
-0.176484019, 0.0775708   , -9.797808   , 5.21952752E-05, 0.000205872348, -9.599404E-06, -0.007563901, -0.0175209288, 1.84726608  , 917.4222    , 29.2723732  , 829.805237  , 1.55        , 7           , 255         , 0           , 0
-0.17328468 , 0.07738604  , -9.796942   , 8.925796E-06, -0.000270698452, 0.000197371352, -0.007563847, -0.0175236166, 1.8472681   , 917.4222    , 29.2723732  , 829.8053    , 1.56        , 7           , 255         , 0           , 0
-0.170270681, 0.0882720351, -9.801461   , 8.7909284E-05, 9.69741959E-05, -0.000542611058, -0.007562873, -0.0175226871, 1.84726274  , 917.4222    , 29.2723732  , 829.805359  , 1.57        , 7           , 255         , 0           , 0
-0.160237253, 0.0756737   , -9.790216   , -0.000751856132, 0.000315050362, -0.000528045464, -0.00757030025, -0.0175195765, 1.84725761  , 917.4222    , 29.2723732  , 829.8054    , 1.58        , 7           , 255         , 0           , 0
-0.1588149  , 0.06881045  , -9.787483   , -4.54671681E-05, 0.000283239875, 0.000165660458, -0.00757078361, -0.0175167341, 1.84725916  , 917.4222    , 29.2723732  , 829.8055    , 1.59        , 7           , 255         , 0           , 0
-0.163022235, 0.0594475642, -9.791728   , 9.101839E-05, 0.000157093164, 0.000241537346, -0.00756991655, -0.0175151471, 1.84726167  , 917.4222    , 29.2723732  , 829.805542  , 1.6         , 7           , 255         , 0           , 0
-0.165760845, 0.06400005  , -9.800984   , -2.4842564E-05, 0.0004123086, -0.000471967156, -0.00758067472, -0.0175072532, 1.847257    , 917.4222    , 29.2723732  , 829.860168  , 1.61        , 7           , 255         , 0           , 0
-0.18071945 , 0.06528552  , -9.791357   , -0.000551789941, 7.6735625E-05, 6.65057742E-05, -0.00758620445, -0.01750648 , 1.84725761  , 917.4222    , 29.2723732  , 829.860535  , 1.62        , 7           , 255         , 0           , 0
-0.170336962, 0.06349974  , -9.794953   , 0.000267348019, 0.000428889878, 0.000375657779, -0.00758359628, -0.0175021682, 1.84726143  , 917.5157    , 29.2746124  , 829.8609    , 1.63        , 7           , 255         , 0           , 0
-0.154533744, 0.0753841847, -9.791456   , -0.00014808838, -6.73881732E-06, -6.576252E-05, -0.00758506451, -0.0175022371, 1.84726083  , 917.5157    , 29.2746124  , 829.861267  , 1.64        , 7           , 255         , 0           , 0
-0.161670953, 0.06461905  , -9.793116   , -0.0007443012, 3.79877165E-05, 9.36243159E-05, -0.00759252347, -0.01750185 , 1.84726167  , 917.5157    , 29.2746124  , 829.861633  , 1.65        , 7           , 255         , 0           , 0
-0.1748259  , 0.05845226  , -9.792055   , -3.98730626E-05, 4.31886874E-05, 1.32122368E-05, -0.00759292534, -0.0175014175, 1.84726191  , 917.5157    , 29.2746124  , 829.862     , 1.66        , 7           , 255         , 0           , 0
-0.177526414, 0.0696955547, -9.792247   , -0.000235691492, -0.0005979227, -0.000234196239, -0.0075952406, -0.0175074134, 1.84725964  , 917.5157    , 29.2746124  , 829.862366  , 1.67        , 7           , 255         , 0           , 0
-0.165150255, 0.05785801  , -9.788122   , 0.0005206723, 0.000137450639, -0.0007591381, -0.0075899  , -0.0175060965, 1.84725189  , 917.5157    , 29.2746124  , 829.862732  , 1.68        , 7           , 255         , 0           , 0
-0.160151362, 0.0662780851, -9.794695   , 0.0004916352, -2.0994572E-05, -0.0006637799, -0.0075848666, -0.0175063573, 1.84724545  , 917.5157    , 29.2746124  , 829.8631    , 1.69        , 7           , 255         , 0           , 0
-0.170157284, 0.06750009  , -9.796785   , 0.000421781326, -4.17483971E-05, 0.0005115591, -0.00758073758, -0.0175067335, 1.84725046  , 917.5157    , 29.2746124  , 829.863464  , 1.7         , 7           , 255         , 0           , 0
-0.175988272, 0.068347156 , -9.786829   , -0.000110094668, 2.85867136E-05, -0.00038141 , -0.007559622, -0.0174983162, 1.84724617  , 917.5157    , 29.2746124  , 829.8097    , 1.71        , 7           , 255         , 0           , 0
-0.166393086, 0.0561452433, -9.787379   , -0.0005963276, 0.000189927174, -0.0005962441, -0.007565481, -0.0174964573, 1.84724045  , 917.5157    , 29.2746124  , 829.809753  , 1.72        , 7           , 255         , 0           , 0
-0.1775599  , 0.0618885048, -9.792096   , 0.000165069941, -0.000328565016, -0.000781952345, -0.00756369345, -0.0174998082, 1.84723258  , 917.4695    , 29.2773952  , 829.8098    , 1.73        , 7           , 255         , 0           , 0
-0.169536963, 0.06972434  , -9.793586   , 3.19150276E-05, 0.000180566451, 0.000316576159, -0.00756343 , -0.0174979735, 1.8472358   , 917.4695    , 29.2773952  , 829.8099    , 1.74        , 7           , 255         , 0           , 0
-0.172012016, 0.07868035  , -9.793189   , -0.000162874581, -0.000137870666, 0.0003130262, -0.00756511325, -0.01749933 , 1.847239    , 917.4695    , 29.2773952  , 829.809937  , 1.75        , 7           , 255         , 0           , 0
-0.172113031, 0.0872156844, -9.794992   , -0.000388993125, -0.000149800908, 0.0002910135, -0.00756905368, -0.0175008066, 1.84724176  , 917.4695    , 29.2773952  , 829.81      , 1.76        , 7           , 255         , 0           , 0
-0.1654589  , 0.07981103  , -9.788875   , 0.0002821018, -0.0005533035, 0.000413515547, -0.00756630534, -0.017506307, 1.847246    , 917.4695    , 29.2773952  , 829.810059  , 1.77        , 7           , 255         , 0           , 0
-0.168610573, 0.0799682438, -9.785503   , 0.00031628774, -0.000216439832, 0.000301310152, -0.007563194, -0.0175084472, 1.84724891  , 917.4695    , 29.2773952  , 829.8101    , 1.78        , 7           , 255         , 0           , 0
-0.174702808, 0.07758039  , -9.784062   , -6.965303E-05, 9.85288061E-05, -0.000162388911, -0.007563862, -0.0175074749, 1.84724736  , 917.4695    , 29.2773952  , 829.8102    , 1.79        , 7           , 255         , 0           , 0
-0.183654189, 0.081148766 , -9.787748   , -0.000822497648, -7.305038E-05, -0.0002231817, -0.00757204834, -0.0175082218, 1.8472451   , 917.4695    , 29.2773952  , 829.810242  , 1.8         , 7           , 255         , 0           , 0
-0.181454509, 0.0721312   , -9.794275   , -0.000177171081, -0.0007433995, -0.000129555614, -0.00757379225, -0.0175197944, 1.84724391  , 917.4695    , 29.2773952  , 829.81366   , 1.81        , 7           , 255         , 0           , 0
-0.182350844, 0.0732885   , -9.788215   , -0.000299283, -0.000492446241, -6.71508E-05, -0.00757677434, -0.0175247248, 1.84724331  , 917.4695    , 29.2773952  , 829.8138    , 1.82        , 7           , 255         , 0           , 0
-0.175477713, 0.08496457  , -9.795491   , -0.000390596048, -0.000128105981, -0.000109510962, -0.007580661, -0.0175260138, 1.84724236  , 917.4713    , 29.2749519  , 829.8139    , 1.83        , 7           , 255         , 0           , 0
-0.168306634, 0.08096365  , -9.790203   , -4.98437439E-05, -0.000222261064, -0.000759965042, -0.00758102629, -0.0175282974, 1.84723473  , 917.4713    , 29.2749519  , 829.814     , 1.84        , 7           , 255         , 0           , 0
-0.164060786, 0.082110256 , -9.794373   , -0.000103205733, -3.40868719E-05, 1.08779641E-05, -0.00758206053, -0.0175286364, 1.84723473  , 917.4713    , 29.2749519  , 829.814148  , 1.85        , 7           , 255         , 0           , 0
-0.172890633, 0.07877673  , -9.795195   , -0.000448240142, -0.000108869048, 0.000323318382, -0.00758660072, -0.0175297018, 1.84723806  , 917.4713    , 29.2749519  , 829.8143    , 1.86        , 7           , 255         , 0           , 0
-0.169983432, 0.07557453  , -9.800243   , 0.0003776868, 0.000262717716, -0.000168608225, -0.00758279348, -0.0175270867, 1.84723639  , 917.4713    , 29.2749519  , 829.8144    , 1.87        , 7           , 255         , 0           , 0
-0.169980317, 0.0765937939, -9.798811   , 0.0005547955, 0.000375115778, -0.0002343008, -0.00757720461, -0.01752335 , 1.847234    , 917.4713    , 29.2749519  , 829.8145    , 1.88        , 7           , 255         , 0           , 0
-0.170632645, 0.07377562  , -9.784954   , -0.000117818941, 4.39872965E-05, -0.00111688988, -0.00757818576, -0.0175229944, 1.84722292  , 917.4713    , 29.2749519  , 829.814636  , 1.89        , 7           , 255         , 0           , 0
-0.175353363, 0.0772241652, -9.791643   , -0.0004846243, -5.07053919E-05, -0.000358222, -0.007582969, -0.017523529, 1.84721947  , 917.4713    , 29.2749519  , 829.814758  , 1.9         , 7           , 255         , 0           , 0
-0.178575486, 0.0731044263, -9.787425   , -0.000324511668, -0.000177342212, -0.000219127614, -0.007593814, -0.0175284874, 1.84721732  , 917.4713    , 29.2749519  , 829.8154    , 1.91        , 7           , 255         , 0           , 0
-0.178636312, 0.06605068  , -9.783167   , -0.000377745833, -0.000231707934, -0.000150597843, -0.007597565, -0.0175308138, 1.84721589  , 917.4713    , 29.2749519  , 829.815552  , 1.92        , 7           , 255         , 0           , 0
-0.175950289, 0.0601524822, -9.787923   , -0.000205085264, 0.000167898135, 0.0006459288, -0.007599729, -0.0175290871, 1.84722233  , 917.485962  , 29.2770557  , 829.8157    , 1.93        , 7           , 255         , 0           , 0
-0.178573519, 0.06078384  , -9.78877    , -0.000307488255, -6.72270544E-05, 0.0012068511, -0.00760301528, -0.0175296646, 1.84723449  , 917.485962  , 29.2770557  , 829.8158    , 1.94        , 7           , 255         , 0           , 0
-0.170427054, 0.06905021  , -9.800368   , 5.36752632E-05, 8.7270746E-05, 0.0005524714, -0.007602575, -0.0175287481, 1.84724     , 917.485962  , 29.2770557  , 829.8159    , 1.95        , 7           , 255         , 0           , 0
-0.1621429  , 0.07354093  , -9.802032   , 0.000271000667, 0.000282617519, -8.3564315E-05, -0.00759985065, -0.0175259318, 1.84723926  , 917.485962  , 29.2770557  , 829.81604   , 1.96        , 7           , 255         , 0           , 0
-0.1704838  , 0.07681768  , -9.799422   , 3.40279657E-05, 0.000117235817, 0.000216973829, -0.00759954844, -0.0175247379, 1.8472414   , 917.485962  , 29.2770557  , 829.816162  , 1.97        , 7           , 255         , 0           , 0
-0.166265219, 0.0723841339, -9.793013   , 0.000209447 , -9.015412E-05, -0.000121268095, -0.007597433, -0.01752565 , 1.84724021  , 917.485962  , 29.2770557  , 829.8163    , 1.98        , 7           , 255         , 0           , 0
-0.171157956, 0.07635942  , -9.793996   , 0.0006565879, -0.0004123568, -0.000308817718, -0.007590812, -0.0175297968, 1.84723711  , 917.485962  , 29.2770557  , 829.8164    , 1.99        , 7           , 255         , 0           , 0
-0.177246615, 0.08355347  , -9.796976   , 0.000655064 , -0.0002120682, 0.000296255865, -0.00758431433, -0.017531896, 1.84724009  , 917.485962  , 29.2770557  , 829.8165    , 2           , 7           , 0           , 7.47623634  , 200
-0.180064529, 0.07407096  , -9.78807    , 0.000218063709, -0.000377567718, 0.000202326482, -0.007574681, -0.0175385214, 1.84724188  , 917.485962  , 29.2770557  , 829.7993    , 2.01        , 7           , 1           , 0           , 0
-0.176071212, 0.0779420361, -9.788648   , -0.0002585461, -0.00046536373, 0.00049440586, -0.00757735362, -0.0175431389, 1.84724689  , 917.485962  , 29.2770557  , 829.7993    , 2.02        , 7           , 2           , 0           , 0
-0.178679362, 0.08056196  , -9.798094   , -6.34435E-05, -0.00028609694, -0.0003430608, -0.00757792639, -0.0175460242, 1.84724355  , 917.4748    , 29.2771912  , 829.7993    , 2.03        , 7           , 3           , 0           , 0
-0.167031661, 0.0781656951, -9.793761   , 7.285294E-05, -2.257363E-05, 0.000207450968, -0.007577235, -0.0175462347, 1.84724557  , 917.4748    , 29.2771912  , 829.7993    , 2.04        , 7           , 4           , 0           , 0
-0.17972894 , 0.07587016  , -9.794887   , 2.2972119E-05, 0.000143900281, 0.000488720136, -0.00757709332, -0.0175447576, 1.84725046  , 917.4748    , 29.2771912  , 829.7993    , 2.05        , 7           , 5           , 0           , 0
-0.1670737  , 0.06579778  , -9.790349   , 0.000382727361, 0.0008369626, 8.832695E-05, -0.007573279, -0.0175363831, 1.8472513   , 917.4748    , 29.2771912  , 829.7994    , 2.06        , 7           , 6           , 0           , 0
-0.170214921, 0.06839349  , -9.797377   , 0.000182114425, 0.00041296077, 0.000784479664, -0.00757159432, -0.0175321959, 1.847259    , 917.4748    , 29.2771912  , 829.799438  , 2.07        , 7           , 7           , 0           , 0
-0.175373092, 0.0570678   , -9.788061   , -9.555067E-05, -9.28835943E-05, 0.00024095978, -0.007572592, -0.0175331049, 1.84726143  , 917.4748    , 29.2771912  , 829.7995    , 2.08        , 7           , 8           , 5           , 5
-0.171429664, 0.06802897  , -9.79256248 , -0.0004012551, -9.8333694E-05, -0.000139341, -0.007576581, -0.0175340977, 1.84726024  , 917.4748    , 29.2771912  , 829.799561  , 2.09        , 7           , 9           , 5           , 0.1
-0.169704929, 0.0607715249, -9.787882   , -0.0002910408, -9.682332E-05, 0.0004923899, -0.007579577, -0.0175350234, 1.84726512  , 917.4748    , 29.2771912  , 829.7996    , 2.1         , 7           , 10          , 0.1         , 0.1
-0.168468922, 0.077856265 , -9.788722   , 0.000352280564, -0.000247691059, 0.000119712349, -0.007567423, -0.0175416917, 1.8472662   , 917.4748    , 29.2771912  , 829.7978    , 2.11        , 7           , 11          , 0.008217079 , 0.0082170805
-0.170764238, 0.06585886  , -9.794446   , 0.000291532837, -0.000151883811, 0.00050165935, -0.00756459543, -0.01754317 , 1.8472712   , 917.4748    , 29.2771912  , 829.7978    , 2.12        , 7           , 12          , 0.03464815  , 0
-0.176016688, 0.06281859  , -9.791763   , -0.000264036236, -0.000432451721, 0.000175291119, -0.007567268, -0.01754748 , 1.84727311  , 917.493042  , 29.278616   , 829.7978    , 2.13        , 7           , 13          , 0           , 0
-0.167774439, 0.0595306866, -9.789171   , -0.0003500008, -5.87387476E-05, -0.000308016548, -0.00757071329, -0.0175480917, 1.84727     , 917.493042  , 29.278616   , 829.797852  , 2.14        , 7           , 14          , 0.00101801031, 0.00243569515
-0.165699989, 0.06977941  , -9.782856   , 9.06788046E-05, 0.0002771474, 0.000344109576, -0.00756986765, -0.01754529 , 1.84727335  , 917.493042  , 29.278616   , 829.7979    , 2.15        , 7           , 15          , 0           , 0.0003591201
-0.175158486, 0.069025144 , -9.781886   , 0.000216427958, 0.000175788533, 0.0005927667, -0.007567808, -0.0175434873, 1.84727943  , 917.493042  , 29.278616   , 829.798     , 2.16        , 7           , 16          , 0           , 1.401298E-45
-0.173264265, 0.0614077821, -9.791439   , -1.11340778E-05, -0.000154937152, 0.000162348355, -0.00756794866, -0.01754503 , 1.847281    , 917.493042  , 29.278616   , 829.798035  , 2.17        , 7           , 20          , 0           , 0
-0.1678349  , 0.07499111  , -9.795921   , -0.000259440742, -0.000165066682, 0.000190722145, -0.00757057639, -0.0175466631, 1.84728289  , 917.493042  , 29.278616   , 829.7981    , 2.18        , 7           , 21          , 0           , 0
-0.166753665, 0.0687091649, -9.7957325  , -0.000123066711, 6.098766E-05, -0.0001723154, -0.00757177547, -0.0175460633, 1.84728122  , 917.493042  , 29.278616   , 829.798157  , 2.19        , 7           , 22          , 0           , 0
-0.173243836, 0.0752647147, -9.795814   , -2.83049885E-05, -0.000171691179, 0.000336274068, -0.00757211866, -0.0175477583, 1.84728467  , 917.493042  , 29.278616   , 829.7982    , 2.2         , 7           , 40          , 0           , 0
-0.183817714, 0.07917325  , -9.794088   , 0.0005371311, 0.000211221864, 0.0006199633, -0.00755209336, -0.0175421275, 1.84729052  , 917.493042  , 29.278616   , 829.77356   , 2.21        , 7           , 41          , 0           , 0
-0.176046968, 0.08304427  , -9.793005   , 0.00052901404, -0.000424896134, -0.000408824533, -0.00754673174, -0.0175464023, 1.8472867   , 917.493042  , 29.278616   , 829.773438  , 2.22        , 7           , 42          , 1           , 0
-0.161219239, 0.08315543  , -9.795158   , 0.000117682386, -0.0005655284, 0.000146071165, -0.00754558 , -0.017552048, 1.84728813  , 917.4885    , 29.2805157  , 829.7733    , 2.23        , 7           , 255         , 0           , 0
-0.1725962  , 0.08281156  , -9.795708   , 8.698949E-05, -0.000201061368, 0.000159275165, -0.00754474 , -0.01755405 , 1.8472898   , 917.4885    , 29.2805157  , 829.7732    , 2.24        , 7           , 255         , 0           , 0
-0.179800659, 0.09221869  , -9.790987   , 0.000109040295, -0.000650638, -0.00050809 , -0.00754356058, -0.0175605919, 1.84728467  , 917.4885    , 29.2805157  , 829.7731    , 2.25        , 7           , 255         , 0           , 0
-0.167914674, 0.0953253955, -9.787071   , 0.000268411124, -0.0001231085, -0.000301136635, -0.007540823, -0.0175618455, 1.84728169  , 917.4885    , 29.2805157  , 829.772949  , 2.26        , 7           , 255         , 0           , 0
-0.172651738, 0.09327213  , -9.79379    , 9.71151749E-05, -1.90101564E-05, -0.000213613035, -0.007539814, -0.01756205 , 1.84727955  , 917.4885    , 29.2805157  , 829.7728    , 2.27        , 7           , 255         , 0           , 0
-0.178854331, 0.09006566  , -9.792035   , -0.000379844278, -0.000101137441, -5.972787E-05, -0.00754360342, -0.0175630674, 1.847279    , 917.4885    , 29.2805157  , 829.7727    , 2.28        , 7           , 255         , 0           , 0
-0.182651624, 0.09237076  , -9.793805   , 0.0006681179, -0.000182811869, -0.000148199615, -0.007536896, -0.0175649058, 1.8472774   , 917.4885    , 29.2805157  , 829.7726    , 2.29        , 7           , 255         , 0           , 0
-0.181323484, 0.08441227  , -9.79178    , 0.000454283785, -0.0007694182, -0.000309463532, -0.0075322995, -0.0175726227, 1.84727442  , 917.4885    , 29.2805157  , 829.772461  , 2.3         , 7           , 255         , 0           , 0
-0.176168948, 0.07724002  , -9.790712   , 0.000186375109, -0.0003899166, -0.000249723264, -0.00756035233, -0.0175846685, 1.84727228  , 917.4885    , 29.2805157  , 829.7567    , 2.31        , 7           , 255         , 0           , 0
-0.176031038, 0.07693615  , -9.787609   , 0.0006943764, 4.626857E-05, 0.000107270607, -0.00755342748, -0.0175841954, 1.84727335  , 917.4885    , 29.2805157  , 829.756531  , 2.32        , 7           , 255         , 0           , 0
-0.1771371  , 0.07763068  , -9.791285   , 0.000104174949, -3.99816781E-05, 0.000763127464, -0.0075525213, -0.0175845381, 1.8472811   , 917.4816    , 29.2811928  , 829.756348  , 2.33        , 7           , 255         , 0           , 0
-0.163522184, 0.0787269   , -9.802669   , -3.768888E-05, -9.73616261E-05, 0.000377335033, -0.007552964, -0.0175854843, 1.84728479  , 917.4816    , 29.2811928  , 829.756165  , 2.34        , 7           , 255         , 0           , 0
-0.166561216, 0.0755945   , -9.799417   , -0.000155746, 0.000203893287, 0.000428063358, -0.00755459676, -0.0175834112, 1.84728909  , 917.4816    , 29.2811928  , 829.756     , 2.35        , 7           , 255         , 0           , 0
-0.171428233, 0.07361789  , -9.798535   , -0.0001549084, 6.73669856E-05, 0.000265160779, -0.007556192, -0.0175827183, 1.84729171  , 917.4816    , 29.2811928  , 829.7558    , 2.36        , 7           , 255         , 0           , 0
-0.170583233, 0.06809291  , -9.79604    , -0.000248874072, -0.000139298616, 0.000215911918, -0.007558719, -0.0175840948, 1.847294    , 917.4816    , 29.2811928  , 829.7556    , 2.37        , 7           , 255         , 0           , 0
-0.1611714  , 0.06811209  , -9.800987   , -0.000264777453, -0.0001949605, -0.0002836224, -0.00756131671, -0.0175860655, 1.84729111  , 917.4816    , 29.2811928  , 829.755432  , 2.38        , 7           , 255         , 0           , 0
-0.166679814, 0.06839122  , -9.803518   , -0.000289222924, -0.0003622633, -0.000700667035, -0.007564086, -0.0175897423, 1.84728408  , 917.4816    , 29.2811928  , 829.755249  , 2.39        , 7           , 255         , 0           , 0
-0.170993   , 0.0699327141, -9.796054   , -0.0005166871, -0.00028441404, -6.967524E-05, -0.007569242, -0.0175925922, 1.84728336  , 917.4816    , 29.2811928  , 829.755066  , 2.4         , 7           , 255         , 0           , 0
-0.161722332, 0.06985493  , -9.790428   , -0.000218280649, 5.15736174E-05, 0.0007465729, -0.00757057 , -0.01758816 , 1.84729087  , 917.4816    , 29.2811928  , 829.7503    , 2.41        , 7           , 255         , 0           , 0
-0.174371824, 0.0619203746, -9.78822    , 0.0001298202, 0.000164714176, -0.00020823245, -0.00756923575, -0.0175865274, 1.84728885  , 917.4816    , 29.2811928  , 829.7501    , 2.42        , 7           , 255         , 0           , 0
-0.178358465, 0.07342311  , -9.797347   , 0.000860662665, -0.000170343323, -0.000129661508, -0.007560606, -0.0175882429, 1.84728742  , 917.4601    , 29.276783   , 829.749939  , 2.43        , 7           , 255         , 0           , 0
-0.168014124, 0.06456152  , -9.795032   , 0.0007097003, -0.000327002956, 0.000518629036, -0.00755360071, -0.01759147 , 1.84729266  , 917.4601    , 29.276783   , 829.749756  , 2.44        , 7           , 255         , 0           , 0
-0.167617336, 0.06451919  , -9.792432   , 2.283242E-05, -0.0002164056, -0.000335487945, -0.007553314, -0.01759366 , 1.84728932  , 917.4601    , 29.276783   , 829.7496    , 2.45        , 7           , 255         , 0           , 0
-0.166167229, 0.0632542446, -9.800075   , 9.634893E-05, -0.000289428281, -0.000304004672, -0.007552298, -0.0175965782, 1.84728646  , 917.4601    , 29.276783   , 829.7494    , 2.46        , 7           , 255         , 0           , 0
-0.164042413, 0.074696824 , -9.795745   , 0.0003501037, -0.0002853393, -3.43241554E-05, -0.007548791, -0.0175994337, 1.847286    , 917.4601    , 29.276783   , 829.7492    , 2.47        , 7           , 255         , 0           , 0
-0.163754314, 0.0879184455, -9.789698   , -0.000289430842, 1.45626254E-05, 0.000230717647, -0.00755172735, -0.01759927 , 1.84728825  , 917.4601    , 29.276783   , 829.749     , 2.48        , 7           , 255         , 0           , 0
-0.1753531  , 0.07722393  , -9.791531   , 0.000315461075, 0.000332876341, -0.000138033633, -0.00754854875, -0.0175959542, 1.84728694  , 917.4601    , 29.276783   , 829.74884   , 2.49        , 7           , 255         , 0           , 0
-0.171491891, 0.0737015158, -9.794187   , 0.000179270166, -0.000175731489, 0.000238835113, -0.007546797, -0.0175976921, 1.84728932  , 917.4601    , 29.276783   , 829.748657  , 2.5         , 7           , 255         , 0           , 0
-0.171914726, 0.07046409  , -9.792855   , -9.669142E-05, -0.00063067954, -0.000325728062, -0.00754185161, -0.0175974332, 1.847286    , 917.4601    , 29.276783   , 829.773865  , 2.51        , 7           , 255         , 0           , 0
-0.170417979, 0.06831776  , -9.796821   , -0.000442878925, -0.000300495652, 8.014156E-05, -0.007546295, -0.017600432, 1.84728682  , 917.4601    , 29.276783   , 829.773865  , 2.52        , 7           , 255         , 0           , 0
-0.177257672, 0.06807195  , -9.789073   , -3.5077217E-05, -0.000347996363, -0.000282825029, -0.0075465953, -0.01760393 , 1.84728408  , 917.493469  , 29.27753    , 829.773865  , 2.53        , 7           , 255         , 0           , 0
-0.179235771, 0.068615675 , -9.792134   , -0.000181603129, 0.000312423566, 0.0001986261, -0.007548447, -0.0176007915, 1.847286    , 917.493469  , 29.27753    , 829.773865  , 2.54        , 7           , 255         , 0           , 0
-0.167627051, 0.07924332  , -9.793813   , -0.000366176828, -1.75861642E-05, 0.000285822054, -0.007552158, -0.0176009461, 1.84728885  , 917.493469  , 29.27753    , 829.773865  , 2.55        , 7           , 255         , 0           , 0
-0.173639208, 0.0806782   , -9.789392   , -8.15058E-05, -3.495044E-05, 0.000235134066, -0.007553016, -0.0176012758, 1.84729123  , 917.493469  , 29.27753    , 829.773865  , 2.56        , 7           , 255         , 0           , 0
-0.1734632  , 0.0731617361, -9.794683   , 1.62654324E-05, 0.000140571967, 0.0006245817, -0.00755296275, -0.017599823, 1.84729755  , 917.493469  , 29.27753    , 829.773865  , 2.57        , 7           , 255         , 0           , 0
-0.1686614  , 0.07109844  , -9.792563   , 0.0003537282, 0.0005971773, -0.000285436225, -0.007549375, -0.0175938718, 1.84729469  , 917.493469  , 29.27753    , 829.773865  , 2.58        , 7           , 255         , 0           , 0
-0.1697416  , 0.0763018057, -9.792513   , -0.000365225715, -1.83151569E-05, -0.000271660858, -0.007552979, -0.0175940786, 1.847292    , 917.493469  , 29.27753    , 829.773865  , 2.59        , 7           , 255         , 0           , 0
-0.165112272, 0.07439145  , -9.792455   , -0.000327636721, -0.000254446873, -0.0010202718, -0.007556077, -0.0175966974, 1.84728193  , 917.493469  , 29.27753    , 829.773865  , 2.6         , 7           , 255         , 0           , 0
-0.167632252, 0.0763492361, -9.79642    , -1.52030261E-05, -0.0003828581, -0.0005633719, -0.00755421 , -0.0175991431, 1.84727621  , 917.493469  , 29.27753    , 829.7505    , 2.61        , 7           , 255         , 0           , 0
-0.174352676, 0.077819705 , -9.80030251 , -4.54061665E-05, 4.01353464E-05, 0.000359883939, -0.007554726, -0.0175987147, 1.84727979  , 917.493469  , 29.27753    , 829.7503    , 2.62        , 7           , 255         , 0           , 0
-0.163911611, 0.08214714  , -9.794168   , 0.00045565702, -7.611117E-05, -0.000292520854, -0.00755011849, -0.0175994989, 1.84727681  , 917.452148  , 29.2820072  , 829.7501    , 2.63        , 7           , 255         , 0           , 0
-0.170840636, 0.0825272948, -9.792386   , 0.00061964  , -0.000153936446, 0.000924092252, -0.00754408538, -0.0176009685, 1.847286    , 917.452148  , 29.2820072  , 829.749939  , 2.64        , 7           , 255         , 0           , 0
-0.174325392, 0.08071081  , -9.796283   , 4.79666051E-06, -0.000274196733, 0.000644177664, -0.00754415 , -0.01760366 , 1.84729242  , 917.452148  , 29.2820072  , 829.7498    , 2.65        , 7           , 255         , 0           , 0
-0.181496888, 0.082153134 , -9.787121   , 0.000183323282, -0.000307997456, 0.000176653615, -0.00754234847, -0.0176067259, 1.84729421  , 917.452148  , 29.2820072  , 829.7497    , 2.66        , 7           , 255         , 0           , 0
-0.1682831  , 0.07603301  , -9.796587   , 5.46301E-05 , 0.000303923851, -0.00020218431, -0.00754176453, -0.0176037028, 1.84729218  , 917.452148  , 29.2820072  , 829.7496    , 2.67        , 7           , 255         , 0           , 0
-0.15976508 , 0.08237009  , -9.801073   , -0.000421897159, 0.000106460415, 0.000333999516, -0.007546042, -0.0176026113, 1.84729552  , 917.452148  , 29.2820072  , 829.749451  , 2.68        , 7           , 255         , 0           , 0
-0.162295982, 0.08345057  , -9.79456    , -0.000121785037, -0.000116481213, 0.000543719856, -0.00754735665, -0.0176037364, 1.847301    , 917.452148  , 29.2820072  , 829.7493    , 2.69        , 7           , 255         , 0           , 0
-0.17465663 , 0.0728852153, -9.79628    , 0.0003140273, -0.00104005879, 0.000395528623, -0.007544287, -0.0176141076, 1.847305    , 917.452148  , 29.2820072  , 829.7492    , 2.7         , 7           , 255         , 0           , 0
-0.168343619, 0.07607678  , -9.790976   , 5.53382561E-05, -7.604319E-05, 1.65266683E-05, -0.007553628, -0.0176102277, 1.8473053   , 917.452148  , 29.2820072  , 829.786     , 2.71        , 7           , 255         , 0           , 0
-0.1696101  , 0.07139547  , -9.792803   , 0.000712091336, -1.58348121E-06, 0.000140006887, -0.0075465315, -0.0176102314, 1.84730673  , 917.452148  , 29.2820072  , 829.786133  , 2.72        , 7           , 255         , 0           , 0
-0.174371511, 0.06827208  , -9.794525   , -0.000102166494, -0.000197668793, 0.000170614338, -0.007547583, -0.0176121946, 1.8473084   , 917.4957    , 29.2795658  , 829.786255  , 2.73        , 7           , 255         , 0           , 0
-0.17307964 , 0.06726189  , -9.790926   , -0.000197362853, -0.000227050157, 0.000136146322, -0.00754957972, -0.0176144559, 1.84730983  , 917.4957    , 29.2795658  , 829.7864    , 2.74        , 7           , 255         , 0           , 0
-0.174481049, 0.0656344146, -9.786652   , -0.000245659379, 0.000339635415, 0.0008990838, -0.007552195, -0.0176109914, 1.84731877  , 917.4957    , 29.2795658  , 829.7865    , 2.75        , 7           , 255         , 0           , 0
-0.163121819, 0.07448484  , -9.791809   , 5.84267545E-05, 0.000307620969, -7.628306E-05, -0.00755159743, -0.01760792 , 1.84731793  , 917.4957    , 29.2795658  , 829.7866    , 2.76        , 7           , 255         , 0           , 0
-0.1745709  , 0.07227835  , -9.799311   , 0.000128411339, 0.0003440217, -2.53851758E-05, -0.00755030848, -0.0176044814, 1.8473177   , 917.4957    , 29.2795658  , 829.786743  , 2.77        , 7           , 255         , 0           , 0
-0.17192699 , 0.06778304  , -9.790761   , 0.000526668155, 8.89683142E-05, -0.0007258045, -0.00754491426, -0.017603647, 1.84731042  , 917.4957    , 29.2795658  , 829.786865  , 2.78        , 7           , 255         , 0           , 0
-0.168832853, 0.06517466  , -9.79527    , 0.0005529248, -1.60671771E-05, 0.0003562533, -0.007539447, -0.0176037811, 1.84731388  , 917.4957    , 29.2795658  , 829.787     , 2.79        , 7           , 255         , 0           , 0
-0.167904109, 0.0602362566, -9.788872   , 0.000181013835, -0.000258197542, 0.00021885871, -0.007537676, -0.0176063459, 1.84731615  , 917.4957    , 29.2795658  , 829.7871    , 2.8         , 7           , 255         , 0           , 0
-0.172518477, 0.06098174  , -9.783061   , 0.0004917948, 4.627509E-06, 0.0005519234, -0.007522123, -0.0176023357, 1.84732151  , 917.4957    , 29.2795658  , 829.7583    , 2.81        , 7           , 255         , 0           , 0
-0.168766364, 0.07016109  , -9.797601   , 0.000286153518, -1.37607567E-05, 0.000498846755, -0.00751934759, -0.0176024344, 1.84732628  , 917.4957    , 29.2795658  , 829.75824   , 2.82        , 7           , 255         , 0           , 0
-0.1665047  , 0.0646153539, -9.793475   , -0.0002945353, -6.954023E-05, 0.000739534153, -0.007522422, -0.0176030733, 1.84733367  , 917.510132  , 29.281126   , 829.7582    , 2.83        , 7           , 255         , 0           , 0
-0.1633208  , 0.0655241162, -9.79114    , 0.0004224747, 0.0004882284, 0.0008750408, -0.007518352, -0.0175981279, 1.84734249  , 917.510132  , 29.281126   , 829.7581    , 2.84        , 7           , 255         , 0           , 0
-0.16007337 , 0.06616096  , -9.800772   , 0.00041499082, -8.89413059E-08, 0.000129794091, -0.00751422625, -0.0175981149, 1.84734392  , 917.510132  , 29.281126   , 829.758057  , 2.85        , 7           , 255         , 0           , 0
-0.164698184, 0.06691544  , -9.799197   , -8.433231E-05, -0.000213653315, 1.93165033E-06, -0.00751507049, -0.0176002514, 1.84734392  , 917.510132  , 29.281126   , 829.758     , 2.86        , 7           , 255         , 0           , 0
-0.172543481, 0.06577845  , -9.79236    , -0.000263740076, 0.000433250563, 1.25942752E-05, -0.00751771126, -0.0175959188, 1.84734416  , 917.510132  , 29.281126   , 829.757935  , 2.87        , 7           , 255         , 0           , 0
-0.174510762, 0.07643926  , -9.789287   , 8.214277E-05, -0.00015221 , -0.0001000959, -0.00751687028, -0.01759745 , 1.84734309  , 917.510132  , 29.281126   , 829.7579    , 2.88        , 7           , 255         , 0           , 0
-0.168261766, 0.07320641  , -9.795961   , -0.00054856675, -0.000347367255, 6.792377E-05, -0.00752236927, -0.0176009163, 1.8473438   , 917.510132  , 29.281126   , 829.7578    , 2.89        , 7           , 255         , 0           , 0
-0.168181092, 0.07377704  , -9.79330349 , 0.000150824315, -4.448346E-05, -8.544684E-05, -0.007520845, -0.0176013671, 1.847343    , 917.510132  , 29.281126   , 829.757751  , 2.9         , 7           , 255         , 0           , 0
-0.180739373, 0.0836814   , -9.788716   , 0.000463483622, -0.000180371339, 0.000445230718, -0.00750640128, -0.0175947938, 1.84734726  , 917.510132  , 29.281126   , 829.7127    , 2.91        , 7           , 255         , 0           , 0
-0.187621   , 0.0817808   , -9.798235   , -7.484079E-05, -0.0002782012, 0.0007116045, -0.00750727672, -0.01759752 , 1.84735453  , 917.510132  , 29.281126   , 829.712341  , 2.92        , 7           , 255         , 0           , 0
-0.177843556, 0.07220463  , -9.792277   , 0.0006256604, -2.51487363E-05, -0.000414470967, -0.00750094652, -0.0175978038, 1.84735024  , 917.484131  , 29.2820759  , 829.712     , 2.93        , 7           , 255         , 0           , 0
-0.1757123  , 0.06788279  , -9.795601   , 0.000685164 , 6.629783E-05, -0.000316670979, -0.0074940403, -0.0175971687, 1.847347    , 917.484131  , 29.2820759  , 829.7116    , 2.94        , 7           , 255         , 0           , 0
-0.174983129, 0.0747546   , -9.792689   , -0.000174117915, 0.000269653741, -0.000360654463, -0.007495719, -0.0175944939, 1.84734356  , 917.484131  , 29.2820759  , 829.7113    , 2.95        , 7           , 255         , 0           , 0
-0.164693385, 0.0833391   , -9.786881   , -0.000237259257, 2.454454E-05, -0.000302219181, -0.00749803847, -0.0175942723, 1.84734058  , 917.484131  , 29.2820759  , 829.711     , 2.96        , 7           , 255         , 0           , 0
-0.18150191 , 0.0729626641, -9.783218   , -0.0003918109, 0.000343275955, -0.000283058762, -0.00750190625, -0.01759086 , 1.84733772  , 917.484131  , 29.2820759  , 829.7107    , 2.97        , 7           , 255         , 0           , 0
-0.181631222, 0.07214173  , -9.79056    , -0.000235894579, 0.000157484319, -0.0001984665, -0.007504229, -0.0175893  , 1.84733593  , 917.484131  , 29.2820759  , 829.7104    , 2.98        , 7           , 255         , 0           , 0
-0.169396669, 0.07703386  , -9.795728   , -0.000156444847, -0.000204031123, -0.000671409769, -0.007505676, -0.01759139 , 1.84732914  , 917.484131  , 29.2820759  , 829.7101    , 2.99        , 7           , 255         , 0           , 0
-0.178347021, 0.07971205  , -9.791611   , 0.000128593063, 0.000115897739, -3.669245E-05, -0.007504384, -0.0175902378, 1.8473289   , 917.484131  , 29.2820759  , 829.7098    , 3           , 7           , 0           , 8.476236    , 300
-0.1759373  , 0.08046327  , -9.794199   , 0.000248191878, 0.000164472964, 0.000378982833, -0.00750861643, -0.0175989475, 1.84733272  , 917.484131  , 29.2820759  , 829.707642  , 3.01        , 7           , 1           , 0           , 0
-0.177636892, 0.0651769042, -9.800135   , -0.000232609571, -0.0002870825, 0.000328210328, -0.007511001, -0.0176017936, 1.84733593  , 917.484131  , 29.2820759  , 829.707336  , 3.02        , 7           , 2           , 0           , 0
-0.177298576, 0.07216285  , -9.789884   , -0.0004911461, 0.000169635983, 0.0003557922, -0.007515976, -0.01760007 , 1.84733963  , 917.5203    , 29.2830257  , 829.707031  , 3.03        , 7           , 3           , 0           , 0
-0.160644025, 0.07227121  , -9.789925   , 0.000192822888, -7.47335143E-05, 2.57447246E-05, -0.007514052, -0.0176008157, 1.84733987  , 917.5203    , 29.2830257  , 829.7067    , 3.04        , 7           , 4           , 0           , 0
-0.1591804  , 0.06553198  , -9.793045   , 0.0005240716, 0.000218781875, 0.000115791976, -0.0075088325, -0.0175986253, 1.84734106  , 917.5203    , 29.2830257  , 829.7064    , 3.05        , 7           , 5           , 0           , 0
-0.163089424, 0.06348674  , -9.80318451 , -0.0005657366, 0.0004843676, -5.32046543E-05, -0.007514479, -0.0175937843, 1.84734046  , 917.5203    , 29.2830257  , 829.7061    , 3.06        , 7           , 6           , 0           , 0
-0.17670539 , 0.08046773  , -9.796631   , -4.880887E-05, 0.0002315403, -2.76218634E-05, -0.00751496246, -0.0175914671, 1.84734023  , 917.5203    , 29.2830257  , 829.7058    , 3.07        , 7           , 7           , 0           , 0
-0.171992034, 0.07390398  , -9.79346    , -0.000498743029, -6.298139E-05, 8.741717E-05, -0.007519966, -0.01759209 , 1.84734118  , 917.5203    , 29.2830257  , 829.7055    , 3.08        , 7           , 8           , 5           , 5
-0.1704201  , 0.07018022  , -9.789831   , -0.0005057348, 6.065471E-06, -0.0003446858, -0.007524964, -0.0175920576, 1.84733772  , 917.5203    , 29.2830257  , 829.7052    , 3.09        , 7           , 9           , 5           , 0.1
-0.170772314, 0.06727793  , -9.797472   , 0.000340051716, 0.000556128565, -0.00037270668, -0.007521497, -0.0175865218, 1.847334    , 917.5203    , 29.2830257  , 829.7049    , 3.1         , 7           , 10          , 0.1         , 0.1
-0.1690121  , 0.0676585957, -9.792161   , -0.000150147476, -3.03050037E-05, -0.0002268174, -0.0075188037, -0.0175834224, 1.84733176  , 917.5203    , 29.2830257  , 829.6525    , 3.11        , 7           , 11          , 0.00743720634, 0.00743720867
-0.163364142, 0.07218121  , -9.792482   , -0.0004800327, -0.000580007443, 0.000173070381, -0.007523635, -0.0175892077, 1.84733355  , 917.5203    , 29.2830257  , 829.651855  , 3.12        , 7           , 12          , 0.034656994 , 0
-0.170707136, 0.07234237  , -9.792778   , 5.762477E-05, 1.81519426E-05, 0.000448176725, -0.007523137, -0.0175889935, 1.84733808  , 917.484253  , 29.2812614  , 829.6512    , 3.13        , 7           , 13          , 0           , 0
-0.180893779, 0.07240777  , -9.792975   , -0.00011285604, 0.0006074412, -0.000208202371, -0.007524228, -0.0175829343, 1.847336    , 917.484253  , 29.2812614  , 829.6505    , 3.14        , 7           , 14          , 0.00101799157, 0.00243562669
-0.177421   , 0.07741184  , -9.793384   , 0.000216654036, 0.0005761543, -0.0006454399, -0.00752194831, -0.0175772235, 1.84732962  , 917.484253  , 29.2812614  , 829.649841  , 3.15        , 7           , 15          , 0           , 0.000359120051
-0.169700772, 0.07388066  , -9.79898548 , 0.000472128741, -0.000432444736, -0.000370703725, -0.00751716271, -0.0175815746, 1.8473258   , 917.484253  , 29.2812614  , 829.649231  , 3.16        , 7           , 16          , 0           , 1.401298E-45
-0.162567779, 0.07703398  , -9.792828   , 0.000101549667, 0.000146260718, -3.89811175E-05, -0.00751614 , -0.0175801143, 1.84732533  , 917.484253  , 29.2812614  , 829.6486    , 3.17        , 7           , 20          , 0           , 0
-0.174851343, 0.0798046142, -9.798663   , 0.000480923918, 0.000409960747, 3.51786439E-05, -0.007511337, -0.0175760128, 1.84732556  , 917.484253  , 29.2812614  , 829.648     , 3.18        , 7           , 21          , 0           , 0
-0.178425387, 0.07871209  , -9.793416   , 0.000198577414, -4.112092E-05, 0.000211982086, -0.007509388, -0.0175764076, 1.84732771  , 917.484253  , 29.2812614  , 829.6474    , 3.19        , 7           , 22          , 0           , 0
-0.164352566, 0.075397566 , -9.793254   , 6.39456557E-05, -0.00047880318, -0.00064786 , -0.00750863552, -0.0175812431, 1.84732127  , 917.484253  , 29.2812614  , 829.6468    , 3.2         , 7           , 40          , 0           , 0
-0.175094292, 0.07213691  , -9.785466   , -0.000263937225, -0.000235508662, -0.0013869066, -0.007512757, -0.0175818671, 1.84730756  , 917.484253  , 29.2812614  , 829.6538    , 3.21        , 7           , 41          , 0           , 0
-0.166647911, 0.07302749  , -9.789797   , -0.0003355191, 0.000268089585, -8.817852E-05, -0.00751609728, -0.01757919 , 1.84730673  , 917.484253  , 29.2812614  , 829.6532    , 3.22        , 7           , 42          , 1           , 0
-0.1682491  , 0.0678629   , -9.791754   , 8.58407E-05 , 0.00015806919, 0.0004933466, -0.007515324, -0.0175775737, 1.84731162  , 917.5017    , 29.28228    , 829.6526    , 3.23        , 7           , 255         , 0           , 0
-0.17474924 , 0.07634342  , -9.788023   , -3.0878E-05 , 0.0002074698, 0.000322521984, -0.007515691, -0.0175754763, 1.84731483  , 917.5017    , 29.28228    , 829.652039  , 3.24        , 7           , 255         , 0           , 0
-0.172247529, 0.08201935  , -9.790135   , -0.000411214249, 0.000596344937, 1.75880268E-06, -0.007519803, -0.0175695121, 1.84731483  , 917.5017    , 29.28228    , 829.6515    , 3.25        , 7           , 255         , 0           , 0
-0.1696378  , 0.08075187  , -9.787338   , -0.000213224557, 0.000299910083, 0.0004498687, -0.0075220135, -0.0175664779, 1.84731936  , 917.5017    , 29.28228    , 829.65094   , 3.26        , 7           , 255         , 0           , 0
-0.172236517, 0.07433355  , -9.794537   , 0.0001861446, 0.000481659081, -0.000417686271, -0.007520079, -0.0175616965, 1.84731531  , 917.5017    , 29.28228    , 829.6504    , 3.27        , 7           , 255         , 0           , 0
-0.16468963 , 0.0704569742, -9.795122   , 0.0004216684, -0.000160617055, -6.065672E-05, -0.00751585048, -0.0175633039, 1.8473146   , 917.5017    , 29.28228    , 829.649841  , 3.28        , 7           , 255         , 0           , 0
-0.162382409, 0.07194352  , -9.793917   , 0.000373801216, -0.000276074279, 0.000261964829, -0.007512158, -0.0175660476, 1.84731722  , 917.5017    , 29.28228    , 829.6493    , 3.29        , 7           , 255         , 0           , 0
-0.1666635  , 0.0764783   , -9.795511   , 0.000126193161, 7.489277E-05, -5.78032632E-05, -0.007510888, -0.0175653  , 1.84731662  , 917.5017    , 29.28228    , 829.648743  , 3.3         , 7           , 255         , 0           , 0
-0.175789922, 0.07301377  , -9.796034   , -7.357873E-05, -0.000274675665, -0.00017731858, -0.00751351332, -0.0175622  , 1.847315    , 917.5017    , 29.28228    , 829.6307    , 3.31        , 7           , 255         , 0           , 0
-0.181685165, 0.07793465  , -9.796344   , 0.0007425961, 0.000311233336, -6.415151E-05, -0.00750607671, -0.01755909 , 1.84731436  , 917.5017    , 29.28228    , 829.63      , 3.32        , 7           , 255         , 0           , 0
-0.177009761, 0.0788755   , -9.799718   , 0.0007079451, 0.000131572131, 0.000363811036, -0.00749905966, -0.0175577477, 1.84731781  , 917.417     , 29.2799053  , 829.629333  , 3.33        , 7           , 255         , 0           , 0
-0.171142057, 0.07998494  , -9.794454   , 0.000762583339, 0.000155293616, -0.000321955857, -0.007491376, -0.01755622 , 1.8473146   , 917.417     , 29.2799053  , 829.628662  , 3.34        , 7           , 255         , 0           , 0
-0.174579844, 0.08076391  , -9.786397   , 0.000228417688, -0.000222231261, -9.504185E-05, -0.00748907635, -0.01755845 , 1.84731364  , 917.417     , 29.2799053  , 829.628     , 3.35        , 7           , 255         , 0           , 0
-0.169177815, 0.08119971  , -9.796703   , 8.847425E-05, -0.000436637318, -0.000216273678, -0.00748815527, -0.0175628345, 1.8473115   , 917.417     , 29.2799053  , 829.6273    , 3.36        , 7           , 255         , 0           , 0
-0.169407263, 0.08090772  , -9.799342   , -4.612928E-05, 0.000859966269, 1.56479655E-06, -0.007488615, -0.0175542347, 1.84731138  , 917.417     , 29.2799053  , 829.626648  , 3.37        , 7           , 255         , 0           , 0
-0.171680242, 0.0775310844, -9.794531   , 0.000264736358, 0.0008943381, 0.0005727849, -0.007486067, -0.0175452456, 1.847317    , 917.417     , 29.2799053  , 829.626     , 3.38        , 7           , 255         , 0           , 0
-0.171554863, 0.0812328   , -9.795805   , -0.000211964943, 0.000407918356, -0.000191853411, -0.00748815341, -0.0175411869, 1.84731507  , 917.417     , 29.2799053  , 829.6253    , 3.39        , 7           , 255         , 0           , 0
-0.1721934  , 0.07852509  , -9.798931   , -1.84406526E-05, 1.763436E-05, -0.00037332144, -0.007488271, -0.0175410341, 1.84731138  , 917.417     , 29.2799053  , 829.624634  , 3.4         , 7           , 255         , 0           , 0
-0.175135255, 0.07468308  , -9.794084   , 0.000363479019, -0.0002489856, 0.00038907156, -0.00749309734, -0.017545592, 1.84731543  , 917.417     , 29.2799053  , 829.731     , 3.41        , 7           , 255         , 0           , 0
-0.176778466, 0.0798559561, -9.788678   , 0.000425463077, -0.000384274172, -0.0002107471, -0.007488805, -0.0175494514, 1.84731328  , 917.417     , 29.2799053  , 829.731     , 3.42        , 7           , 255         , 0           , 0
-0.168667   , 0.07406016  , -9.78679848 , 8.4471656E-05, 0.000176128233, -2.60545639E-05, -0.007487955, -0.0175476912, 1.84731293  , 917.489258  , 29.2843151  , 829.731     , 3.43        , 7           , 255         , 0           , 0
-0.165069968, 0.07228748  , -9.7907505  , 3.36249359E-05, 0.0007897725, -3.6055455E-05, -0.007487612, -0.0175397974, 1.84731269  , 917.489258  , 29.2843151  , 829.731     , 3.44        , 7           , 255         , 0           , 0
-0.177696258, 0.0719669759, -9.785349   , -0.000157716509, -0.000384814339, 0.000219132024, -0.007489227, -0.0175436288, 1.84731483  , 917.489258  , 29.2843151  , 829.731     , 3.45        , 7           , 255         , 0           , 0
-0.170289814, 0.0756217   , -9.79634    , -0.000499061658, 3.69611662E-05, -0.0004688127, -0.00749413529, -0.0175432917, 1.84731019  , 917.489258  , 29.2843151  , 829.731     , 3.46        , 7           , 255         , 0           , 0
-0.163311213, 0.063825056 , -9.787558   , 7.602305E-05, 7.270067E-05, -0.000372795825, -0.00749330828, -0.0175425913, 1.84730649  , 917.489258  , 29.2843151  , 829.731     , 3.47        , 7           , 255         , 0           , 0
-0.171315849, 0.066503495 , -9.791898   , 0.0002769546, 0.000278705265, 0.0008855772, -0.00749069266, -0.01753974 , 1.84731531  , 917.489258  , 29.2843151  , 829.731     , 3.48        , 7           , 255         , 0           , 0
-0.169869572, 0.0771148056, -9.799033   , -0.000352807925, -0.000230848789, 0.000428523839, -0.00749429734, -0.0175420139, 1.8473196   , 917.489258  , 29.2843151  , 829.731     , 3.49        , 7           , 255         , 0           , 0
-0.170778   , 0.0786938742, -9.790276   , -0.000341016916, 0.000135518843, 0.0005242507, -0.007497801, -0.01754062 , 1.84732485  , 917.489258  , 29.2843151  , 829.731     , 3.5         , 7           , 255         , 0           , 0
-0.1747719  , 0.07742458  , -9.789488   , 0.000260533765, -1.62548386E-05, 0.000364188134, -0.00749553973, -0.0175389517, 1.84732854  , 917.489258  , 29.2843151  , 829.7193    , 3.51        , 7           , 255         , 0           , 0
-0.168755725, 0.07240277  , -9.785371   , -0.00019984704, -0.000467582839, 2.703999E-05, -0.007497543, -0.0175436251, 1.84732878  , 917.489258  , 29.2843151  , 829.719238  , 3.52        , 7           , 255         , 0           , 0
-0.162057832, 0.0713950247, -9.798061   , 0.000439268537, -0.000160520431, 0.000424778817, -0.007493224, -0.0175451953, 1.84733307  , 917.481     , 29.283432   , 829.7192    , 3.53        , 7           , 255         , 0           , 0
-0.164838016, 0.0633773655, -9.796213   , -0.0002375351, 0.0002029622, 0.000124818 , -0.00749562075, -0.01754316 , 1.84733438  , 917.481     , 29.283432   , 829.7191    , 3.54        , 7           , 255         , 0           , 0
-0.167850763, 0.07034618  , -9.78809    , -0.00040239963, 0.000295041129, -3.53793439E-05, -0.00749963848, -0.0175402071, 1.847334    , 917.481     , 29.283432   , 829.719055  , 3.55        , 7           , 255         , 0           , 0
-0.175023571, 0.0673809052, -9.795287   , 0.000471284846, -1.695822E-05, 0.000577695668, -0.00749502843, -0.0175403338, 1.84733987  , 917.481     , 29.283432   , 829.719     , 3.56        , 7           , 255         , 0           , 0
-0.1745457  , 0.0658623949, -9.797744   , 0.0006699151, -0.00039063883, 0.0005625426, -0.007488429, -0.0175441988, 1.84734559  , 917.481     , 29.283432   , 829.718933  , 3.57        , 7           , 255         , 0           , 0
-0.166582823, 0.07604557  , -9.793024   , 0.000816089567, 0.000198429218, -3.094197E-05, -0.007480263, -0.0175422151, 1.84734523  , 917.481     , 29.283432   , 829.7189    , 3.58        , 7           , 255         , 0           , 0
-0.175472453, 0.07721199  , -9.794708   , 0.000568295363, -8.085975E-06, -0.000307815644, -0.007474525, -0.01754232 , 1.84734213  , 917.481     , 29.283432   , 829.7189    , 3.59        , 7           , 255         , 0           , 0
-0.172767416, 0.0728581846, -9.791491   , 0.000185825862, 0.000185751123, -0.00034940397, -0.00747260544, -0.0175404884, 1.84733868  , 917.481     , 29.283432   , 829.7189    , 3.6         , 7           , 255         , 0           , 0
-0.171965659, 0.07447329  , -9.790209   , 0.000315580866, 6.155227E-05, 0.000312656775, -0.00746602146, -0.0175371747, 1.84734178  , 917.481     , 29.283432   , 829.720642  , 3.61        , 7           , 255         , 0           , 0
-0.170635074, 0.07004042  , -9.794104   , 2.818182E-06, -0.0001624953, -0.000352405041, -0.00746593159, -0.0175388269, 1.8473382   , 917.481     , 29.283432   , 829.720642  , 3.62        , 7           , 255         , 0           , 0
-0.1757817  , 0.0762211159, -9.792145   , 0.000400764053, -0.000144646736, 5.12274564E-05, -0.00746193342, -0.0175402649, 1.84733868  , 917.459     , 29.28133    , 829.720642  , 3.63        , 7           , 255         , 0           , 0
-0.1766474  , 0.0784405842, -9.796079   , 0.000344219268, -5.16846776E-05, 0.000937945559, -0.007458656, -0.0175407138, 1.84734809  , 917.459     , 29.28133    , 829.720642  , 3.64        , 7           , 255         , 0           , 0
-0.174906731, 0.07653406  , -9.799078   , -0.000105711748, -0.000216041459, 0.0003790737, -0.007459779, -0.0175428428, 1.847352    , 917.459     , 29.28133    , 829.720642  , 3.65        , 7           , 255         , 0           , 0
-0.180122331, 0.07013102  , -9.797109   , 0.000454434077, -9.53197E-05, 0.000155442191, -0.00745526142, -0.0175437834, 1.84735346  , 917.459     , 29.28133    , 829.720642  , 3.66        , 7           , 255         , 0           , 0
-0.174987048, 0.07672751  , -9.79393    , -1.90082937E-05, -0.0005744882, 0.0004577502, -0.00745553151, -0.0175494961, 1.84735811  , 917.459     , 29.28133    , 829.720642  , 3.67        , 7           , 255         , 0           , 0
-0.167997569, 0.08102567  , -9.79301    , 8.7803E-05  , -7.14696944E-06, -0.0006170627, -0.0074545457, -0.0175496116, 1.847352    , 917.459     , 29.28133    , 829.720642  , 3.68        , 7           , 255         , 0           , 0
-0.171708673, 0.08112814  , -9.790361   , -0.000257753534, 0.000380131183, 5.236655E-05, -0.007457134, -0.0175458044, 1.84735262  , 917.459     , 29.28133    , 829.720642  , 3.69        , 7           , 255         , 0           , 0
-0.173820615, 0.07803317  , -9.795565   , -0.000272144855, 0.00018074573, 0.000593895558, -0.00745995948, -0.0175439529, 1.84735858  , 917.459     , 29.28133    , 829.720642  , 3.7         , 7           , 255         , 0           , 0
-0.165292472, 0.07837863  , -9.796998   , 0.000171061838, -0.0006019211, 0.0003925192, -0.007463375, -0.0175531246, 1.84736252  , 917.459     , 29.28133    , 829.7535    , 3.71        , 7           , 255         , 0           , 0
-0.172503322, 0.07727468  , -9.796685   , 7.227308E-05, -0.000127210049, 0.0002021   , -0.00746268732, -0.0175543819, 1.84736466  , 917.459     , 29.28133    , 829.753662  , 3.72        , 7           , 255         , 0           , 0
-0.172916979, 0.07952664  , -9.798223   , -0.0006820492, -0.000544759561, -0.0004995201, -0.00746942125, -0.0175598636, 1.84735966  , 917.480347  , 29.281805   , 829.753845  , 3.73        , 7           , 255         , 0           , 0
-0.165872455, 0.0770064   , -9.798765   , -0.0005282965, -0.000168696512, -0.0006914664, -0.00747458357, -0.0175616033, 1.84735286  , 917.480347  , 29.281805   , 829.7541    , 3.74        , 7           , 255         , 0           , 0
-0.1667681  , 0.06976467  , -9.793872   , -7.64709E-05, 0.0001991014, 0.000197250833, -0.00747538451, -0.0175595954, 1.84735489  , 917.480347  , 29.281805   , 829.754333  , 3.75        , 7           , 255         , 0           , 0
-0.170524567, 0.0662881359, -9.795171   , -0.000469926279, -0.000218512025, 9.54624556E-05, -0.0074801  , -0.0175617747, 1.84735584  , 917.480347  , 29.281805   , 829.7546    , 3.76        , 7           , 255         , 0           , 0
-0.169086188, 0.06897752  , -9.791823   , -7.628504E-05, 0.0002017892, -0.000430499349, -0.007480787, -0.0175597928, 1.84735143  , 917.480347  , 29.281805   , 829.7548    , 3.77        , 7           , 255         , 0           , 0
-0.174163923, 0.06946132  , -9.78553    , -6.89511653E-05, 0.0004922601, 0.000681756064, -0.00748159736, -0.0175548159, 1.84735835  , 917.480347  , 29.281805   , 829.755066  , 3.78        , 7           , 255         , 0           , 0
-0.1754018  , 0.07216391  , -9.789554   , -0.000335471064, 0.0001772223, 0.0006419814, -0.00748506468, -0.0175529979, 1.84736478  , 917.480347  , 29.281805   , 829.7553    , 3.79        , 7           , 255         , 0           , 0
-0.173829287, 0.0752189755, -9.79204    , 0.000376232667, -8.229446E-05, -0.000105048413, -0.00748128537, -0.0175538268, 1.84736383  , 917.480347  , 29.281805   , 829.755554  , 3.8         , 7           , 255         , 0           , 0
-0.171383023, 0.06939324  , -9.796018   , 3.31429765E-05, -0.000405950472, 0.000463096483, -0.00748134451, -0.0175556764, 1.84736836  , 917.480347  , 29.281805   , 829.753     , 3.81        , 7           , 255         , 0           , 0
-0.165565833, 0.07753498  , -9.802463   , 0.000284637441, -2.263859E-05, 0.000379382225, -0.007478564, -0.0175558757, 1.84737217  , 917.480347  , 29.281805   , 829.7532    , 3.82        , 7           , 255         , 0           , 0
-0.172979712, 0.0780487061, -9.793765   , -8.263881E-05, 6.17136247E-05, -0.000182898249, -0.007479361, -0.0175552722, 1.84737027  , 917.4618    , 29.28194    , 829.7534    , 3.83        , 7           , 255         , 0           , 0
-0.175461784, 0.074450314 , -9.798393   , 0.0002576001, -0.000147687271, -0.000828172255, -0.007476639, -0.01755681 , 1.847362    , 917.4618    , 29.28194    , 829.753662  , 3.84        , 7           , 255         , 0           , 0
-0.18000114 , 0.0785398   , -9.79174    , 0.0008123948, 0.0003946724, -0.000287271134, -0.00746846432, -0.0175528862, 1.84735918  , 917.4618    , 29.28194    , 829.7539    , 3.85        , 7           , 255         , 0           , 0
-0.175341427, 0.07507457  , -9.794713   , 0.000110020279, -0.000349784037, -0.0004797432, -0.00746728 , -0.01755642 , 1.84735441  , 917.4618    , 29.28194    , 829.75415   , 3.86        , 7           , 255         , 0           , 0
-0.1641293  , 0.0710869   , -9.793913   , -8.115935E-05, 5.360227E-06, -0.000775560969, -0.00746795628, -0.0175564252, 1.84734666  , 917.4618    , 29.28194    , 829.7544    , 3.87        , 7           , 255         , 0           , 0
-0.172691286, 0.069305256 , -9.798912   , -0.0002639909, 7.508788E-05, 0.00032443268, -0.007470654, -0.01755565 , 1.84734988  , 917.4618    , 29.28194    , 829.754639  , 3.88        , 7           , 255         , 0           , 0
-0.175758481, 0.06720559  , -9.79183    , -0.000364915759, 0.000422363635, 0.000660360442, -0.007474419, -0.0175513774, 1.84735644  , 917.4618    , 29.28194    , 829.7549    , 3.89        , 7           , 255         , 0           , 0
-0.168229327, 0.07356872  , -9.782767   , -0.000160172582, -0.000336579978, -4.199968E-05, -0.007476013, -0.0175547469, 1.84735608  , 917.4618    , 29.28194    , 829.7551    , 3.9         , 7           , 255         , 0           , 0
-0.175043061, 0.0768257156, -9.778954   , -0.0006263505, 0.000138212461, 8.010512E-05, -0.007482653, -0.0175536573, 1.84735692  , 917.4618    , 29.28194    , 829.779358  , 3.91        , 7           , 255         , 0           , 0
-0.180663526, 0.07870059  , -9.788969   , -0.000885723333, 0.0001678858, -0.000315444224, -0.00749145541, -0.0175520014, 1.84735382  , 917.4618    , 29.28194    , 829.7797    , 3.92        , 7           , 255         , 0           , 0
-0.1718745  , 0.07804238  , -9.790312   , -0.000113412272, -0.0007055751, 0.0004981571, -0.00749267731, -0.017559018, 1.84735882  , 917.471558  , 29.2810574  , 829.7801    , 3.93        , 7           , 255         , 0           , 0
-0.177751735, 0.08411578  , -9.790655   , 0.000197836431, -0.000443140045, 9.92346E-05 , -0.007490717, -0.0175634455, 1.8473599   , 917.471558  , 29.2810574  , 829.780457  , 3.94        , 7           , 255         , 0           , 0
-0.169069678, 0.07843681  , -9.791024   , 0.000193383312, -3.89523339E-05, 4.74405824E-05, -0.00748879043, -0.01756383 , 1.84736037  , 917.471558  , 29.2810574  , 829.7808    , 3.95        , 7           , 255         , 0           , 0
-0.166595355, 0.0729002357, -9.791116   , -0.000277063344, -1.69095583E-05, -0.000223737283, -0.00749152247, -0.0175640173, 1.84735811  , 917.471558  , 29.2810574  , 829.7812    , 3.96        , 7           , 255         , 0           , 0
-0.172304839, 0.08081291  , -9.790975   , -0.000462138036, -0.000354481861, -0.000103753613, -0.007496127, -0.0175675657, 1.84735715  , 917.471558  , 29.2810574  , 829.781555  , 3.97        , 7           , 255         , 0           , 0
-0.163929388, 0.077188    , -9.787174   , -0.0009248808, 0.0002654253, 0.000481077615, -0.00750546064, -0.017564876, 1.847362    , 917.471558  , 29.2810574  , 829.7819    , 3.98        , 7           , 255         , 0           , 0
-0.169810444, 0.07694732  , -9.790171   , -0.000308389368, -8.693244E-05, 0.000382327271, -0.00750861131, -0.0175657123, 1.847366    , 917.471558  , 29.2810574  , 829.7823    , 3.99        , 7           , 255         , 0           , 0
-0.175259441, 0.07727914  , -9.791234   , -0.000158592826, -0.000151474029, -0.000308884337, -0.00751014333, -0.0175672527, 1.84736288  , 917.471558  , 29.2810574  , 829.782654  , 4           , 7           , 0           , 9.476236    , 400
-0.176029608, 0.07072902  , -9.788105   , -0.000155455666, -4.77512367E-05, -0.000177047186, -0.00752236927, -0.0175683517, 1.84736133  , 917.471558  , 29.2810574  , 829.7892    , 4.01        , 7           , 1           , 0           , 0
-0.171121746, 0.0763416961, -9.794386   , 0.0001711162, -0.000104455044, 8.196451E-05, -0.007520671, -0.0175693911, 1.847362    , 917.471558  , 29.2810574  , 829.7896    , 4.02        , 7           , 2           , 0           , 0
-0.1734324  , 0.0863408744, -9.79499149 , 0.000102719874, 0.000285384245, 0.000285546732, -0.007519695, -0.017566517, 1.8473649   , 917.4818    , 29.2821426  , 829.790039  , 4.03        , 7           , 3           , 0           , 0
-0.170002848, 0.07286505  , -9.793523   , -0.0004210609, -0.000147878891, -0.0005094484, -0.00752381654, -0.0175680332, 1.84735978  , 917.4818    , 29.2821426  , 829.790466  , 4.04        , 7           , 4           , 0           , 0
-0.17007187 , 0.0747396   , -9.78350449 , -0.000237737782, 0.00017977762, -0.000159209565, -0.007526165, -0.0175662469, 1.84735823  , 917.4818    , 29.2821426  , 829.7909    , 4.05        , 7           , 5           , 0           , 0
-0.169408917, 0.07570918  , -9.793388   , -0.000176308677, -0.0004829776, 0.0003139423, -0.00752798328, -0.0175710488, 1.84736145  , 917.4818    , 29.2821426  , 829.7913    , 4.06        , 7           , 6           , 0           , 0
-0.18019712 , 0.0752967149, -9.796391   , -0.000166590267, 0.000284306472, -0.0008010117, -0.00752950646, -0.0175682716, 1.84735346  , 917.4818    , 29.2821426  , 829.791748  , 4.07        , 7           , 7           , 0           , 0
-0.175910071, 0.0642562062, -9.785982   , 0.0002174956, 1.6131904E-05, 0.000103675266, -0.007527348, -0.0175680984, 1.84735441  , 917.4818    , 29.2821426  , 829.7922    , 4.08        , 7           , 8           , 5           , 5
-0.173788652, 0.07252443  , -9.783573   , 0.000633505755, -0.000368412817, 0.00013336449, -0.00752103748, -0.0175717715, 1.84735572  , 917.4818    , 29.2821426  , 829.7926    , 4.09        , 7           , 9           , 5           , 0.1
-0.167269677, 0.07298098  , -9.785669   , 0.0001227397, -4.403433E-05, 0.000238417852, -0.007519852, -0.0175721962, 1.84735811  , 917.4818    , 29.2821426  , 829.793     , 4.1         , 7           , 10          , 0.1         , 0.1
-0.172605112, 0.072475    , -9.786047   , 0.000513919629, -0.000240291236, -0.000224783536, -0.007515691, -0.0175760724, 1.847356    , 917.4818    , 29.2821426  , 829.783     , 4.11        , 7           , 11          , 0.00685820356, 0.006858206
-0.170608222, 0.076220654 , -9.789687   , 0.000823863549, -0.0005434748, -9.18495061E-05, -0.007507436, -0.01758151 , 1.847355    , 917.4818    , 29.2821426  , 829.7834    , 4.12        , 7           , 12          , 0.0346693471, 0
-0.175710917, 0.06953783  , -9.787217   , 0.000421218341, -0.000148765277, -0.000409655564, -0.007503153, -0.0175830275, 1.847351    , 917.498962  , 29.2829571  , 829.783752  , 4.13        , 7           , 13          , 0           , 0
-0.179271981, 0.06881919  , -9.791705   , -0.0004956787, -0.000123646576, 0.000183405413, -0.00750814332, -0.0175842512, 1.84735286  , 917.498962  , 29.2829571  , 829.7841    , 4.14        , 7           , 14          , 0.0010181563, 0.00243559317
-0.1765267  , 0.06979282  , -9.793848   , -0.000306235976, -0.0003026633, 5.773944E-05, -0.00751121528, -0.0175872743, 1.84735346  , 917.498962  , 29.2829571  , 829.7845    , 4.15        , 7           , 15          , 0           , 0.000359116879
-0.167098328, 0.0730839744, -9.799067   , -0.000306621951, -0.000404104358, -0.000117431409, -0.00751426164, -0.0175913218, 1.84735227  , 917.498962  , 29.2829571  , 829.784851  , 4.16        , 7           , 16          , 0           , 1.401298E-45
-0.160690859, 0.07307844  , -9.793695   , -0.000209437392, 2.91257165E-05, -0.0008444992, -0.007516207, -0.01759109 , 1.8473438   , 917.498962  , 29.2829571  , 829.7852    , 4.17        , 7           , 20          , 0           , 0
-0.174045771, 0.07922393  , -9.796213   , 0.000365888467, 0.0001888026, 7.612523E-05, -0.00751256058, -0.0175892022, 1.84734464  , 917.498962  , 29.2829571  , 829.7856    , 4.18        , 7           , 21          , 0           , 0
-0.173725054, 0.077455    , -9.7946     , -0.000113439281, 0.000210828148, 0.0002441493, -0.007513738, -0.0175870731, 1.847347    , 917.498962  , 29.2829571  , 829.78595   , 4.19        , 7           , 22          , 0           , 0
-0.174301237, 0.06275983  , -9.789613   , -0.000140547927, -0.000269414624, -0.000129805558, -0.00751512032, -0.0175897777, 1.84734571  , 917.498962  , 29.2829571  , 829.7863    , 4.2         , 7           , 40          , 0           , 0
-0.171107918, 0.07311281  , -9.796885   , -0.000407375745, 0.000155926216, -0.000377466582, -0.00751696853, -0.0175886285, 1.847342    , 917.498962  , 29.2829571  , 829.7531    , 4.21        , 7           , 41          , 0           , 0
-0.163245365, 0.07746798  , -9.796168   , 0.0002864421, -0.000655195559, 0.000291044154, -0.00751415454, -0.0175951552, 1.84734488  , 917.498962  , 29.2829571  , 829.7533    , 4.22        , 7           , 42          , 1           , 0
-0.166946456, 0.0736945346, -9.797672   , 0.0005154988, 3.81851569E-05, 0.000222824368, -0.007509039, -0.0175947566, 1.847347    , 917.470154  , 29.28289    , 829.7535    , 4.23        , 7           , 255         , 0           , 0
-0.167290717, 0.07137997  , -9.801988   , 0.000137335621, 0.00033777114, 0.000515686348, -0.00750775542, -0.01759134 , 1.84735227  , 917.470154  , 29.28289    , 829.753662  , 4.24        , 7           , 255         , 0           , 0
-0.166281521, 0.0694464147, -9.792592   , 0.000210053287, -0.000374425668, -0.000139644282, -0.00750563061, -0.0175950974, 1.847351    , 917.470154  , 29.28289    , 829.753845  , 4.25        , 7           , 255         , 0           , 0
-0.164298579, 0.07460275  , -9.786585   , 0.000126816914, 9.43180639E-05, 1.65837118E-05, -0.00750436448, -0.01759415 , 1.84735107  , 917.470154  , 29.28289    , 829.754     , 4.26        , 7           , 255         , 0           , 0
-0.1735763  , 0.07645174  , -9.794751   , -0.000584777, -0.000236070715, -0.0007213212, -0.00751008838, -0.017596567, 1.84734392  , 917.470154  , 29.28289    , 829.7542    , 4.27        , 7           , 255         , 0           , 0
-0.177255452, 0.07607568  , -9.794315   , -3.11041949E-05, -0.00036783074, -0.00030099618, -0.00751034543, -0.0176002644, 1.84734106  , 917.470154  , 29.28289    , 829.7544    , 4.28        , 7           , 255         , 0           , 0
-0.1670632  , 0.0725680739, -9.792454   , 7.631304E-05, 0.0002613298, -0.000184671779, -0.00750955055, -0.01759767 , 1.84733939  , 917.470154  , 29.28289    , 829.7546    , 4.29        , 7           , 255         , 0           , 0
-0.163533568, 0.07291012  , -9.785698   , 6.235286E-05, -0.0002910383, -0.000247749966, -0.007508883, -0.0176005941, 1.84733677  , 917.470154  , 29.28289    , 829.754761  , 4.3         , 7           , 255         , 0           , 0
-0.16944246 , 0.07110062  , -9.785185   , 0.0002708059, 9.308499E-05, -0.000166279438, -0.0075065163, -0.0175934155, 1.8473351   , 917.470154  , 29.28289    , 829.7669    , 4.31        , 7           , 255         , 0           , 0
-0.167735219, 0.07246101  , -9.786098   , 8.76761042E-05, -5.826936E-05, 0.0005341681, -0.007505733, -0.0175939556, 1.84734046  , 917.470154  , 29.28289    , 829.7672    , 4.32        , 7           , 255         , 0           , 0
-0.168810949, 0.0750381052, -9.792221   , -2.55177729E-05, -2.70341989E-05, -0.000108074339, -0.007505968, -0.017594235, 1.84733939  , 917.513245  , 29.2831612  , 829.7675    , 4.33        , 7           , 255         , 0           , 0
-0.165795892, 0.0765028745, -9.797948   , 2.60691158E-05, -0.0002631459, 4.217925E-05, -0.007505715, -0.0175968651, 1.84733987  , 917.513245  , 29.2831612  , 829.7678    , 4.34        , 7           , 255         , 0           , 0
-0.170853585, 0.0884098858, -9.796611   , 0.0008997752, -0.0001052781, -0.000174155779, -0.00749668432, -0.0175979286, 1.84733808  , 917.513245  , 29.2831612  , 829.7681    , 4.35        , 7           , 255         , 0           , 0
-0.1678522  , 0.08429882  , -9.793783   , 0.0009313085, -0.000218841247, 0.000200497219, -0.00748740556, -0.0176001024, 1.84734011  , 917.513245  , 29.2831612  , 829.768433  , 4.36        , 7           , 255         , 0           , 0
-0.17356123 , 0.08218018  , -9.787661   , 0.000105850864, 7.863925E-05, 8.335203E-05, -0.007486363, -0.01759931 , 1.84734106  , 917.513245  , 29.2831612  , 829.768738  , 4.37        , 7           , 255         , 0           , 0
-0.1812295  , 0.08538022  , -9.783659   , -0.000257357373, -0.0005120366, -0.0004033384, -0.00748886541, -0.01760446 , 1.84733689  , 917.513245  , 29.2831612  , 829.769043  , 4.38        , 7           , 255         , 0           , 0
-0.181545511, 0.07417331  , -9.7931385  , -0.000193218468, -0.000301823718, -0.000305449881, -0.00749074528, -0.0176074989, 1.84733391  , 917.513245  , 29.2831612  , 829.769348  , 4.39        , 7           , 255         , 0           , 0
-0.1813663  , 0.08497193  , -9.80149651 , -0.000327919144, 0.000203573145, 0.000175866007, -0.007494056, -0.01760545 , 1.84733582  , 917.513245  , 29.2831612  , 829.769653  , 4.4         , 7           , 255         , 0           , 0
-0.161190718, 0.08853527  , -9.790205   , 0.000451285159, -0.000434677349, 0.00100955646, -0.007499711, -0.0176105276, 1.84734607  , 917.513245  , 29.2831612  , 829.7185    , 4.41        , 7           , 255         , 0           , 0
-0.167714566, 0.0814868063, -9.791225   , -0.000109576911, 0.0004448539, 0.000220907328, -0.007500845, -0.017606061, 1.84734833  , 917.513245  , 29.2831612  , 829.7185    , 4.42        , 7           , 255         , 0           , 0
-0.172822237, 0.07846607  , -9.797667   , 0.000626093941, 0.000171314692, 0.000364521868, -0.00749464845, -0.0176043212, 1.84735191  , 917.466248  , 29.28384    , 829.7185    , 4.43        , 7           , 255         , 0           , 0
-0.171868116, 0.066960305 , -9.797173   , -6.037252E-05, -9.736302E-05, -0.000174847315, -0.00749522168, -0.01760531 , 1.84735012  , 917.466248  , 29.28384    , 829.7185    , 4.44        , 7           , 255         , 0           , 0
-0.171994   , 0.0690933   , -9.795087   , 0.000120444573, 0.000181081 , 0.000570628443, -0.007494116, -0.017603457, 1.84735584  , 917.466248  , 29.28384    , 829.7185    , 4.45        , 7           , 255         , 0           , 0
-0.168545783, 0.0792307258, -9.797026   , -0.00023642584, 0.0004546817, 0.000216955552, -0.00749651948, -0.0175988935, 1.847358    , 917.466248  , 29.28384    , 829.7185    , 4.46        , 7           , 255         , 0           , 0
-0.1640791  , 0.06839755  , -9.796631   , 0.000199011411, 0.000190730672, 0.000291808916, -0.007494582, -0.01759697 , 1.84736109  , 917.466248  , 29.28384    , 829.7185    , 4.47        , 7           , 255         , 0           , 0
-0.16987972 , 0.0617068522, -9.790759   , -0.000172341883, 0.000113889342, -5.68539253E-05, -0.007496295, -0.0175958276, 1.84736049  , 917.466248  , 29.28384    , 829.7185    , 4.48        , 7           , 255         , 0           , 0
-0.173754171, 0.0612298064, -9.786626   , -4.462537E-05, -8.890568E-05, 1.83865777E-05, -0.00749674439, -0.0175967179, 1.84736061  , 917.466248  , 29.28384    , 829.7185    , 4.49        , 7           , 255         , 0           , 0
-0.174468577, 0.06610162  , -9.796573   , 0.00011470262, 0.000114402734, 0.000140173943, -0.00749562168, -0.0175955631, 1.847362    , 917.466248  , 29.28384    , 829.7185    , 4.5         , 7           , 255         , 0           , 0
-0.17174156 , 0.06819238  , -9.790872   , 0.000218984089, 5.17515E-05 , -0.000442651974, -0.00749152526, -0.0175910816, 1.84735751  , 917.466248  , 29.28384    , 829.7416    , 4.51        , 7           , 255         , 0           , 0
-0.165091589, 0.06500391  , -9.80076    , 0.000268608565, -0.000292978017, 0.000307161885, -0.007488894, -0.01759399 , 1.84736061  , 917.466248  , 29.28384    , 829.7417    , 4.52        , 7           , 255         , 0           , 0
-0.170489073, 0.06710716  , -9.795709   , 0.000531697064, 0.00018595974, 0.000417926 , -0.00748365 , -0.0175920967, 1.84736478  , 917.467834  , 29.2833652  , 829.7418    , 4.53        , 7           , 255         , 0           , 0
-0.174792573, 0.0755471438, -9.798188   , 0.000108950306, -3.50461341E-05, -8.363271E-05, -0.00748254545, -0.0175924525, 1.847364    , 917.467834  , 29.2833652  , 829.741943  , 4.54        , 7           , 255         , 0           , 0
-0.162852481, 0.0809964538, -9.794527   , 0.000277230749, 7.117423E-05, -0.0003929257, -0.007479705, -0.01759177 , 1.84736013  , 917.467834  , 29.2833652  , 829.742065  , 4.55        , 7           , 255         , 0           , 0
-0.1703568  , 0.0765815154, -9.793199   , 0.000664766645, -0.0003041264, 0.0004601411, -0.00747313956, -0.017594777, 1.84736466  , 917.467834  , 29.2833652  , 829.7422    , 4.56        , 7           , 255         , 0           , 0
-0.170361   , 0.0816018656, -9.79402351 , 0.000380566227, -0.000403890153, -2.85917777E-05, -0.00746932859, -0.01759882 , 1.84736443  , 917.467834  , 29.2833652  , 829.7423    , 4.57        , 7           , 255         , 0           , 0
-0.174672514, 0.07429499  , -9.794939   , 0.000308660557, -0.000598378945, -0.000176234375, -0.00746621052, -0.0176048148, 1.84736264  , 917.467834  , 29.2833652  , 829.742432  , 4.58        , 7           , 255         , 0           , 0
-0.177804276, 0.08013415  , -9.797577   , 0.0006063845, 0.000158467563, -0.001415659, -0.00745989755, -0.0176033378, 1.84734857  , 917.467834  , 29.2833652  , 829.742554  , 4.59        , 7           , 255         , 0           , 0
-0.167866662, 0.08085787  , -9.792712   , 0.000533681363, -0.0002037196, -0.000511714, -0.00745446933, -0.0176054128, 1.84734333  , 917.467834  , 29.2833652  , 829.7427    , 4.6         , 7           , 255         , 0           , 0
-0.171861768, 0.0791622549, -9.792482   , 0.000198944123, -9.744498E-05, 0.000440321979, -0.0074548237, -0.0176041089, 1.84734774  , 917.467834  , 29.2833652  , 829.7598    , 4.61        , 7           , 255         , 0           , 0
-0.173603609, 0.07488248  , -9.79103851 , 0.000105225248, 3.07229348E-05, 9.151493E-05, -0.007453786, -0.0176037923, 1.84734869  , 917.467834  , 29.2833652  , 829.7601    , 4.62        , 7           , 255         , 0           , 0
-0.169028759, 0.0764243454, -9.797382   , 0.0006172076, -3.23567074E-05, -0.000176127738, -0.007447583, -0.01760413 , 1.84734678  , 917.497131  , 29.2807178  , 829.7603    , 4.63        , 7           , 255         , 0           , 0
-0.1758047  , 0.07644786  , -9.793891   , 0.0006750148, -9.01026651E-05, -8.371376E-05, -0.00744081754, -0.0176050328, 1.847346    , 917.497131  , 29.2807178  , 829.760559  , 4.64        , 7           , 255         , 0           , 0
-0.171181768, 0.07298224  , -9.796698   , 0.000378434546, 0.000306036556, -0.000721953, -0.007436906, -0.0176020321, 1.8473388   , 917.497131  , 29.2807178  , 829.7608    , 4.65        , 7           , 255         , 0           , 0
-0.163892016, 0.07122094  , -9.79566    , -1.461769E-05, 0.000194192166, 0.0008061951, -0.007437194, -0.017600026, 1.847347    , 917.497131  , 29.2807178  , 829.761047  , 4.66        , 7           , 255         , 0           , 0
-0.173073381, 0.06569574  , -9.788662   , -0.0004886267, 0.000133977272, 0.000267927418, -0.00744212838, -0.0175986663, 1.84734952  , 917.497131  , 29.2807178  , 829.7613    , 4.67        , 7           , 255         , 0           , 0
-0.1762757  , 0.064471    , -9.790998   , -0.000232046179, -4.549022E-05, -0.00024723 , -0.00744440453, -0.01759914 , 1.84734714  , 917.497131  , 29.2807178  , 829.761536  , 4.68        , 7           , 255         , 0           , 0
-0.177757   , 0.07579625  , -9.79424    , -0.0003575032, -0.000223088777, 3.03376873E-05, -0.00744798547, -0.0176013671, 1.84734738  , 917.497131  , 29.2807178  , 829.7618    , 4.69        , 7           , 255         , 0           , 0
-0.172332957, 0.06664671  , -9.789758   , 4.743354E-05, 6.568269E-05, 0.000468725746, -0.007447594, -0.017600676, 1.847352    , 917.497131  , 29.2807178  , 829.7621    , 4.7         , 7           , 255         , 0           , 0
-0.170611829, 0.06966482  , -9.792284   , -1.974951E-05, -0.000184694072, 8.26988253E-05, -0.007447114, -0.01760262 , 1.84735286  , 917.497131  , 29.2807178  , 829.735     , 4.71        , 7           , 255         , 0           , 0
-0.173943833, 0.08192645  , -9.799625   , 0.0001651803, -0.000334636774, 0.0002709367, -0.00744551141, -0.0176059473, 1.8473556   , 917.497131  , 29.2807178  , 829.7351    , 4.72        , 7           , 255         , 0           , 0
-0.170507044, 0.07002376  , -9.794958   , 0.001162787 , -0.000140960561, 6.327726E-05, -0.007433895, -0.0176073518, 1.8473562   , 917.478     , 29.2848568  , 829.7352    , 4.73        , 7           , 255         , 0           , 0
-0.165493816, 0.0687484741, -9.804934   , 0.000453526853, -0.000401659869, 0.000270566263, -0.007429407, -0.017611349, 1.847359    , 917.478     , 29.2848568  , 829.735352  , 4.74        , 7           , 255         , 0           , 0
-0.168164611, 0.07192081  , -9.794477   , -0.000129706576, -0.000706865452, -8.741263E-05, -0.00743069 , -0.0176184233, 1.84735811  , 917.478     , 29.2848568  , 829.7355    , 4.75        , 7           , 255         , 0           , 0
-0.169254482, 0.07784372  , -9.783165   , -0.000146925566, -8.578086E-05, 0.000201205956, -0.00743219536, -0.0176192634, 1.84736013  , 917.478     , 29.2848568  , 829.7356    , 4.76        , 7           , 255         , 0           , 0
-0.163904265, 0.07738421  , -9.792024   , 9.296904E-05, -0.000322961481, 0.0007471099, -0.007431397, -0.01762244 , 1.84736753  , 917.478     , 29.2848568  , 829.7357    , 4.77        , 7           , 255         , 0           , 0
-0.166628808, 0.0770378858, -9.796421   , -9.34693962E-05, -0.00026035984, 0.000875608646, -0.007432487, -0.0176249761, 1.84737635  , 917.478     , 29.2848568  , 829.73584   , 4.78        , 7           , 255         , 0           , 0
-0.170140475, 0.07554957  , -9.788575   , -1.36015005E-05, -3.15289944E-05, -9.12472E-06, -0.00743262051, -0.0176252928, 1.84737635  , 917.478     , 29.2848568  , 829.735962  , 4.79        , 7           , 255         , 0           , 0
-0.174799755, 0.0723786   , -9.79410648 , -1.19500328E-06, 0.0003415409, -0.0006032178, -0.00743252644, -0.0176219214, 1.84737027  , 917.478     , 29.2848568  , 829.7361    , 4.8         , 7           , 255         , 0           , 0
-0.1717407  , 0.0654788762, -9.790988   , -0.00010759366, -0.000187804224, 0.000417165342, -0.007435683, -0.0176194012, 1.84737456  , 917.478     , 29.2848568  , 829.7397    , 4.81        , 7           , 255         , 0           , 0
-0.177024961, 0.07018203  , -9.784797   , -0.000673107163, 0.000129123684, 0.00023123523, -0.007442456, -0.0176180936, 1.84737682  , 917.478     , 29.2848568  , 829.7398    , 4.82        , 7           , 255         , 0           , 0
-0.178546235, 0.0839623138, -9.788759   , -0.000765544362, -0.0001344264, 7.711921E-05, -0.00745012565, -0.01761943 , 1.84737754  , 917.485352  , 29.285265   , 829.7399    , 4.83        , 7           , 255         , 0           , 0
-0.1700794  , 0.09562802  , -9.790465   , 0.00029566  , -0.0004198749, -0.00015909638, -0.00744714029, -0.0176236443, 1.84737587  , 917.485352  , 29.285265   , 829.740051  , 4.84        , 7           , 255         , 0           , 0
-0.166298836, 0.0805192962, -9.790153   , -5.524652E-05, 7.969397E-05, 3.961331E-05, -0.00744770234, -0.0176228434, 1.84737635  , 917.485352  , 29.285265   , 829.7402    , 4.85        , 7           , 255         , 0           , 0
-0.167502   , 0.0824250653, -9.795311   , 0.000451294472, -0.0002652586, -0.0005836984, -0.007443087, -0.0176255386, 1.84737051  , 917.485352  , 29.285265   , 829.740356  , 4.86        , 7           , 255         , 0           , 0
-0.168313712, 0.0747452751, -9.794155   , 0.000748403952, -0.0007115045, -0.0006815853, -0.00743548246, -0.0176327024, 1.84736371  , 917.485352  , 29.285265   , 829.74054   , 4.87        , 7           , 255         , 0           , 0
-0.17747964 , 0.08280261  , -9.793614   , -0.000163572957, -0.000338073121, 7.33675E-05 , -0.0074371323, -0.0176360812, 1.84736443  , 917.485352  , 29.285265   , 829.7407    , 4.88        , 7           , 255         , 0           , 0
-0.180055529, 0.0778299347, -9.798839   , -0.0005838  , 0.0003212036, 0.000761246833, -0.00744310347, -0.01763281 , 1.847372    , 917.485352  , 29.285265   , 829.7409    , 4.89        , 7           , 255         , 0           , 0
-0.183567718, 0.08076162  , -9.797951   , -0.0007802322, -0.000141158933, 0.0003066811, -0.007450962, -0.0176342018, 1.84737527  , 917.485352  , 29.285265   , 829.7411    , 4.9         , 7           , 255         , 0           , 0
-0.180961385, 0.0834944844, -9.788327   , -0.00103700964, -6.361981E-05, 0.000289458752, -0.00747101242, -0.0176369771, 1.84737849  , 917.485352  , 29.285265   , 829.733643  , 4.91        , 7           , 255         , 0           , 0
-0.169178948, 0.07614937  , -9.790508   , -0.0008545007, -0.000247266144, 0.000207715988, -0.00747959549, -0.01763943 , 1.84738064  , 917.485352  , 29.285265   , 829.733765  , 4.92        , 7           , 255         , 0           , 0
-0.1664302  , 0.0843850151, -9.789996   , -3.020931E-05, 0.000500694849, 0.000313389261, -0.007479952, -0.017634403, 1.84738386  , 917.47      , 29.2823467  , 829.7339    , 4.93        , 7           , 255         , 0           , 0
-0.1704499  , 0.08196734  , -9.799857   , 0.000278796884, 0.0005332297, 0.000376903656, -0.007477231, -0.0176290423, 1.84738755  , 917.47      , 29.2823467  , 829.734     , 4.94        , 7           , 255         , 0           , 0
-0.161874026, 0.07084213  , -9.791467   , 0.0003229014, -1.41626224E-05, 5.3763797E-05, -0.00747401174, -0.0176291782, 1.84738815  , 917.47      , 29.2823467  , 829.734131  , 4.95        , 7           , 255         , 0           , 0
-0.171497822, 0.07506301  , -9.796358   , 6.712496E-05, 0.0004735107, 0.0004860095, -0.00747342734, -0.017624408, 1.847393    , 917.47      , 29.2823467  , 829.734253  , 4.96        , 7           , 255         , 0           , 0
-0.177907243, 0.07440388  , -9.795097   , 0.000367464148, -5.86595852E-05, -0.0004493418, -0.00746967224, -0.0176250245, 1.84738851  , 917.47      , 29.2823467  , 829.7344    , 4.97        , 7           , 255         , 0           , 0
-0.174983054, 0.0754234344, -9.79254    , -0.0001461578, -0.000214103144, -0.000413177535, -0.00747106038, -0.0176271964, 1.84738445  , 917.47      , 29.2823467  , 829.7345    , 4.98        , 7           , 255         , 0           , 0
-0.174967647, 0.06422468  , -9.788233   , 0.000439287047, 0.000356155448, 0.000414065056, -0.007466742, -0.0176236089, 1.84738851  , 917.47      , 29.2823467  , 829.7346    , 4.99        , 7           , 255         , 0           , 0
-0.172275975, 0.07180594  , -9.803423   , 5.79224434E-06, 0.000246818876, -0.000135412163, -0.00746665942, -0.0176211465, 1.84738731  , 917.47      , 29.2823467  , 829.734741  , 5           , 7           , 0           , -1          , 500
-0.170045272, 0.07084425  , -9.795999   , -0.0003183714, 9.293994E-05, 6.685269E-05, -0.00747335842, -0.0176193621, 1.84738791  , 917.47      , 29.2823467  , 829.7502    , 5.01        , 7           , 1           , 0           , 0
-0.174651891, 0.06559757  , -9.795626   , 0.000422147918, -3.391062E-05, 0.000535579748, -0.007469231, -0.01761966 , 1.84739316  , 917.47      , 29.2823467  , 829.7504    , 5.02        , 7           , 2           , 0           , 0
-0.163676679, 0.07457485  , -9.790674   , -6.24160748E-06, -0.000146569917, -0.000320169143, -0.007469238, -0.01762115 , 1.84739     , 917.4561    , 29.2815323  , 829.7507    , 5.03        , 7           , 3           , 0           , 0
-0.1757401  , 0.07497245  , -9.790568   , -0.000103075989, 0.000135157956, -5.964306E-06, -0.00747026643, -0.017619798, 1.84739     , 917.4561    , 29.2815323  , 829.7509    , 5.04        , 7           , 4           , 0           , 0
-0.175410673, 0.07023915  , -9.793478   , 2.007722E-05, 0.000292017823, -3.58414254E-05, -0.00747005967, -0.0176168848, 1.84738982  , 917.4561    , 29.2815323  , 829.75116   , 5.05        , 7           , 5           , 0           , 0
-0.161267072, 0.0624338463, -9.788012   , -0.000269554148, 0.000613206765, -0.0007286072, -0.0074726264, -0.017610807, 1.84738255  , 917.4561    , 29.2815323  , 829.7514    , 5.06        , 7           , 6           , 0           , 0
-0.172406241, 0.07086092  , -9.796123   , -0.000485877681, 0.000485932454, -0.0003812146, -0.007477416, -0.0176059715, 1.84737873  , 917.4561    , 29.2815323  , 829.751648  , 5.07        , 7           , 7           , 0           , 0
-0.174327478, 0.07270439  , -9.798511   , -0.000460151816, -0.000478170579, 7.47569138E-05, -0.00748203229, -0.01761075 , 1.84737945  , 917.4561    , 29.2815323  , 829.7519    , 5.08        , 7           , 8           , 5           , 5
-0.171873808, 0.07214916  , -9.79857349 , 6.358698E-05, -0.000199199887, -0.000350152579, -0.00748133659, -0.01761277 , 1.847376    , 917.4561    , 29.2815323  , 829.752136  , 5.09        , 7           , 9           , 5           , 0.1
-0.1686056  , 0.07678412  , -9.791568   , -0.000114002032, 0.000601027859, -0.00075279735, -0.007482343, -0.0176068153, 1.8473686   , 917.4561    , 29.2815323  , 829.7524    , 5.1         , 7           , 10          , 0.1         , 0.1
-0.170657471, 0.0747099742, -9.787312   , -0.0001262495, 1.56522729E-05, 0.000317797763, -0.00748094963, -0.0176042877, 1.84737158  , 917.4561    , 29.2815323  , 829.784851  , 5.11        , 7           , 11          , 0.00641745562, 0.00641745841
