Acc X       , Acc Y       , Acc Z       , Gyro X      , Gyro Y      , Gyro Z      , Euler X     , Euler Y     , Euler Z     , Pres X      , Pres Y      , Pres Z      , Time        , Status      , LowRate X   , LowRate Y   , LowRate Z    
-0.120474651, 0.09238068  , -9.846325   , 0           , 0.0128317922, 0           , -0.009381974, -0.012234346, 1.79375184  , 917.44104   , 26.3444481  , 830.0926    , 0           , 2           , 0           , 5.43723154  , 0
-0.113043927, 0.09143725  , -9.848159   , -0.0004991931, 0.0122399423, -0.000475426321, -0.009387039, -0.01211205 , 1.79374588  , 917.44104   , 26.3444481  , 830.0926    , 0.01        , 7           , 1           , 0           , 0
-0.121109188, 0.0841729343, -9.850916   , -1.81859359E-05, 0.01334825  , -0.0003326455, -0.009387165, -0.0119786086, 1.79374135  , 917.44104   , 26.3444481  , 830.0926    , 0.02        , 7           , 2           , 0           , 0
-0.1118891  , 0.0843778253, -9.850803   , 0.0002147106, 0.0128058   , 7.33672641E-06, -0.009385004, -0.0118505582, 1.79374015  , 917.393555  , 25.9313583  , 830.0926    , 0.03        , 7           , 3           , 0           , 0
-0.120475888, 0.08543953  , -9.846389   , 0.000387334963, 0.0129210781, 0.000181716634, -0.009381138, -0.0117213391, 1.79374075  , 917.393555  , 25.9313583  , 830.0926    , 0.04        , 7           , 4           , 0           , 0
-0.1279451  , 0.0915117562, -9.850283   , -0.00017149956, 0.0132200988, -9.62379854E-05, -0.009382826, -0.0115891555, 1.7937386   , 917.393555  , 25.9313583  , 830.092651  , 0.05        , 7           , 5           , 0           , 0
-0.123009086, 0.101160266 , -9.849779   , -3.34002543E-05, 0.0136115747, -0.0001161336, -0.009383132, -0.0114530586, 1.79373622  , 917.393555  , 25.9313583  , 830.0927    , 0.06        , 7           , 6           , 0           , 0
-0.118799508, 0.0985525548, -9.85574    , -0.000182032352, 0.0128602209, -0.000224389485, -0.00938491151, -0.0113244867, 1.79373276  , 917.393555  , 25.9313583  , 830.0928    , 0.07        , 7           , 7           , 0           , 0
-0.109057881, 0.09223819  , -9.848997   , -0.000237623462, 0.0127976071, -8.394942E-05, -0.009387264, -0.0111965267, 1.7937305   , 917.393555  , 25.9313583  , 830.092834  , 0.08        , 7           , 8           , 5           , 5
-0.119525932, 0.10037794  , -9.851698   , -0.000454135472, 0.0131773818, 0.000383013859, -0.009391833, -0.011064725, 1.79373312  , 917.393555  , 25.9313583  , 830.0929    , 0.09        , 7           , 9           , 5           , 0.1
-0.1225248  , 0.08603558  , -9.854305   , 8.187769E-05, 0.0127326548, 0.000522283837, -0.00939106 , -0.0109373545, 1.793737    , 917.393555  , 25.9313583  , 830.092957  , 0.1         , 7           , 10          , 0.1         , 0.1
-0.113639973, 0.0835396349, -9.850525   , -9.601307E-05, 0.0125553487, -1.4314428E-05, -0.009391267, -0.0108152134, 1.79373586  , 917.393555  , 25.9313583  , 830.5214    , 0.11        , 7           , 11          , 0.0109544508, 0.0109544508
-0.120103359, 0.0921450555, -9.848736   , -0.000254008221, 0.0131820617, 0.0005105806, -0.009393847, -0.010683354, 1.79373968  , 917.393555  , 25.9313583  , 830.5215    , 0.12        , 7           , 12          , 0.0346410163, 0
-0.121761106, 0.09289011  , -9.844266   , -0.0003616789, 0.0130691249, -5.8202073E-05, -0.009397442, -0.0105526764, 1.79373789  , 917.4398    , 25.9759312  , 830.5216    , 0.13        , 7           , 13          , 0           , 0
-0.121071935, 0.0959076   , -9.851884   , -0.0005553693, 0.0127578154, -0.000372436829, -0.009402945, -0.0104251411, 1.79373288  , 917.4398    , 25.9759312  , 830.5217    , 0.14        , 7           , 14          , 0.003517486 , 1.60806979E-10
-0.121071935, 0.09521842  , -9.849071   , -0.000391522655, 0.0130164595, -0.000101504149, -0.009406836, -0.0102949943, 1.79373062  , 917.4398    , 25.9759312  , 830.521851  , 0.15        , 7           , 15          , 0           , 0.002161293
-0.127349049, 0.08996576  , -9.851698   , 0.00028551626, 0.0131545588, -0.00029929087, -0.0094039375, -0.0101634841, 1.79372644  , 917.4398    , 25.9759312  , 830.522     , 0.16        , 7           , 16          , 0           , 4.203895E-45
-0.1296401  , 0.09845942  , -9.84946251 , 0.000755990157, 0.0130533259, 0.0005942595, -0.009396426, -0.0100329062, 1.79373121  , 917.4398    , 25.9759312  , 830.5221    , 0.17        , 7           , 20          , 0           , 0
-0.127833337, 0.10037794  , -9.853281   , 0.0003130189, 0.0136185978, 0.000116177835, -0.009393293, -0.009896717, 1.79373109  , 917.4398    , 25.9759312  , 830.5222    , 0.18        , 7           , 21          , 0           , 0
-0.116936862, 0.09704381  , -9.850207   , 0.000252746744, 0.0125799254, -0.000689012348, -0.0093906885, -0.009770991, 1.793723    , 917.4398    , 25.9759312  , 830.522339  , 0.19        , 7           , 22          , 0           , 0
-0.122468926, 0.0976584852, -9.855182   , -0.000230601523, 0.0126835005, -0.0004133986, -0.009392941, -0.009644203, 1.79371762  , 917.4398    , 25.9759312  , 830.522461  , 0.2         , 7           , 40          , 0           , 0
-0.11725352 , 0.104364015 , -9.849184   , -0.0004114185, 0.0126513122, -0.000369510963, -0.009398382, -0.009534451, 1.79371285  , 917.4398    , 25.9759312  , 830.3133    , 0.21        , 7           , 41          , 0           , 0
-0.117793679, 0.0973977149, -9.852927   , -0.000127027277, 0.012732652 , 0.0003086978, -0.00939967 , -0.009407104, 1.79371476  , 917.4398    , 25.9759312  , 830.3135    , 0.22        , 7           , 42          , 1           , 0
-0.118501484, 0.0919960439, -9.851325   , -0.000506800832, 0.0127806356, 0.0004982918, -0.009404773, -0.009279259, 1.79371858  , 917.4342    , 25.9999466  , 830.31366   , 0.23        , 7           , 255         , 0           , 0
-0.121556222, 0.08979812  , -9.852387   , 0.000421274453, 0.012419    , 0.00015596929, -0.009400565, -0.009155063, 1.79371893  , 917.4342    , 25.9999466  , 830.313843  , 0.24        , 7           , 255         , 0           , 0
-0.120233752, 0.09374693  , -9.849369   , 0.000168482307, 0.0127250431, 0.000203952892, -0.009398885, -0.009027801, 1.79371965  , 917.4342    , 25.9999466  , 830.314     , 0.25        , 7           , 255         , 0           , 0
-0.1302734  , 0.08078292  , -9.854175   , -0.000574680045, 0.0128976675, -4.123221E-05, -0.009404616, -0.00889883749, 1.793718    , 917.4342    , 25.9999466  , 830.3142    , 0.26        , 7           , 255         , 0           , 0
-0.122021891, 0.083334744 , -9.855815   , -8.899113E-05, 0.0135425208, -0.0007100783, -0.009405432, -0.00876348652, 1.79370952  , 917.4342    , 25.9999466  , 830.3144    , 0.27        , 7           , 255         , 0           , 0
-0.1260452  , 0.09195879  , -9.849556   , -0.000294970348, 0.0130749736, -0.000258329324, -0.009408347, -0.00863277 , 1.79370582  , 917.4342    , 25.9999466  , 830.3146    , 0.28        , 7           , 255         , 0           , 0
-0.124275684, 0.08780509  , -9.847917   , -0.0004775424, 0.0128824534, -6.122049E-06, -0.00941311 , -0.008503954, 1.79370451  , 917.4342    , 25.9999466  , 830.3148    , 0.29        , 7           , 255         , 0           , 0
-0.121183693, 0.100024045 , -9.847432   , -0.000485734548, 0.0126548233, -0.000162361888, -0.009417943, -0.00837743 , 1.79370165  , 917.4342    , 25.9999466  , 830.315063  , 0.3         , 7           , 255         , 0           , 0
-0.117179014, 0.0930950046, -9.846705   , -0.000280340435, 0.0130778933, -7.69272447E-05, -0.009420344, -0.008273018, 1.79369974  , 917.4342    , 25.9999466  , 830.2618    , 0.31        , 7           , 255         , 0           , 0
-0.118557356, 0.09063631  , -9.847824   , -0.00077422196, 0.0132534439, 1.02624763E-05, -0.00942807551, -0.008140491, 1.79369855  , 917.4342    , 25.9999466  , 830.262     , 0.32        , 7           , 255         , 0           , 0
-0.123381615, 0.0939331949, -9.845085   , 4.150113E-05, 0.0132862115, -0.000117888907, -0.00942764 , -0.008007648, 1.793696    , 917.413635  , 26.0183315  , 830.262268  , 0.33        , 7           , 255         , 0           , 0
-0.120550394, 0.0859797   , -9.845607   , 0.0004452665, 0.0133839361, 0.000143680722, -0.009423187, -0.007873804, 1.79369617  , 917.413635  , 26.0183315  , 830.2625    , 0.34        , 7           , 255         , 0           , 0
-0.130236149, 0.09333715  , -9.84963    , -0.000547762262, 0.0130486339, -0.00039233244, -0.009428624, -0.007743365, 1.793691    , 917.413635  , 26.0183315  , 830.262756  , 0.35        , 7           , 255         , 0           , 0
-0.120308258, 0.09242445  , -9.846371   , -0.0007051723, 0.0125904493, -0.0004274426, -0.009435634, -0.00761750946, 1.79368556  , 917.413635  , 26.0183315  , 830.263     , 0.36        , 7           , 255         , 0           , 0
-0.115167357, 0.09201467  , -9.850748   , -5.85624948E-05, 0.0125430506, -0.0005696382, -0.009436168, -0.007492142, 1.79367876  , 917.413635  , 26.0183315  , 830.263245  , 0.37        , 7           , 255         , 0           , 0
-0.122766949, 0.09620562  , -9.841174   , 0.0002650353, 0.01294272  , -0.000200397568, -0.009433495, -0.007362743, 1.79367554  , 917.413635  , 26.0183315  , 830.26355   , 0.38        , 7           , 255         , 0           , 0
-0.130888075, 0.09486452  , -9.843167   , 0.0003141889, 0.013032251 , 0.00034497818, -0.0094303675, -0.007232397, 1.79367769  , 917.413635  , 26.0183315  , 830.263855  , 0.39        , 7           , 255         , 0           , 0
-0.115986921, 0.09888783  , -9.843893   , 0.000307167182, 0.01316918  , 0.000566756353, -0.009427328, -0.00710065849, 1.7936821   , 917.413635  , 26.0183315  , 830.26416   , 0.4         , 7           , 255         , 0           , 0
-0.125989318, 0.09352341  , -9.842813   , 0.000148001593, 0.0129415356, 2.48914585E-05, -0.009426117, -0.007009929, 1.79368138  , 917.413635  , 26.0183315  , 830.284     , 0.41        , 7           , 255         , 0           , 0
-0.114198782, 0.08940697  , -9.844545   , -0.000333006028, 0.01258985  , 0.000205122866, -0.009429453, -0.00688402029, 1.7936821   , 917.413635  , 26.0183315  , 830.2843    , 0.42        , 7           , 255         , 0           , 0
-0.118147589, 0.08467585  , -9.852219   , -0.0005214296, 0.01299069  , 0.000378917437, -0.009434682, -0.006754085, 1.79368472  , 917.443054  , 26.02851    , 830.2846    , 0.43        , 7           , 255         , 0           , 0
-0.12345612 , 0.09166077  , -9.853598   , -0.000208950136, 0.0130146807, 0.000282950234, -0.009436784, -0.006623921, 1.79368627  , 917.443054  , 26.02851    , 830.2849    , 0.44        , 7           , 255         , 0           , 0
-0.116154552, 0.09307638  , -9.855069   , 0.0003680247, 0.0130702714, 0.0006504352, -0.009433138, -0.00649316469, 1.79369175  , 917.443054  , 26.02851    , 830.2852    , 0.45        , 7           , 255         , 0           , 0
-0.105295323, 0.09061769  , -9.853206   , 0.000346958172, 0.0129105216, 0.000330933835, -0.00942968 , -0.00636403542, 1.79369378  , 917.443054  , 26.02851    , 830.2856    , 0.46        , 7           , 255         , 0           , 0
-0.121314071, 0.09402633  , -9.850543   , -0.000561221037, 0.0128812632, 0.000119688688, -0.00943529047, -0.00623521954, 1.79369378  , 917.443054  , 26.02851    , 830.28595   , 0.47        , 7           , 255         , 0           , 0
-0.1180172  , 0.08819625  , -9.84434    , -0.0006489961, 0.0133874333, 0.000172353815, -0.009441784, -0.00610133773, 1.79369426  , 917.443054  , 26.02851    , 830.2863    , 0.48        , 7           , 255         , 0           , 0
-0.109877445, 0.08750707  , -9.851604   , 1.75095629E-05, 0.0129702082, -0.000135444338, -0.009441592, -0.005971657, 1.79369164  , 917.443054  , 26.02851    , 830.2867    , 0.49        , 7           , 255         , 0           , 0
-0.121034682, 0.0955536962, -9.856485   , -0.00040907762, 0.0127478437, -2.250704E-05, -0.009445673, -0.005844189, 1.79369032  , 917.443054  , 26.02851    , 830.287048  , 0.5         , 7           , 255         , 0           , 0
-0.11280179 , 0.0926665962, -9.844881   , 0.000501443632, 0.0129292272, 0.000129636144, -0.00943896 , -0.00575745059, 1.79369032  , 917.443054  , 26.02851    , 830.2444    , 0.51        , 7           , 255         , 0           , 0
-0.114906572, 0.0938214362, -9.846072   , -0.000352900941, 0.012566424 , 0.0003315187, -0.009442502, -0.00563176349, 1.79369235  , 917.443054  , 26.02851    , 830.244751  , 0.52        , 7           , 255         , 0           , 0
-0.116582967, 0.100713231 , -9.855591   , -0.0005395694, 0.0126904789, 0.0003303485, -0.00944791 , -0.005504838, 1.7936945   , 917.4368    , 26.03665    , 830.2451    , 0.53        , 7           , 255         , 0           , 0
-0.120289624, 0.09458512  , -9.854958   , -0.000512651633, 0.0128063429, -0.0003068986, -0.009453013, -0.00537681254, 1.7936902   , 917.4368    , 26.03665    , 830.2455    , 0.54        , 7           , 255         , 0           , 0
-0.118725   , 0.09384006  , -9.850897   , -3.74955125E-05, 0.0121784573, 0.000451478176, -0.009453406, -0.005254993, 1.79369366  , 917.4368    , 26.03665    , 830.24585   , 0.55        , 7           , 255         , 0           , 0
-0.12116506 , 0.09113923  , -9.848717   , -0.0006606986, 0.0123750726, -0.000182257732, -0.00945999753, -0.00513126841, 1.79369056  , 917.4368    , 26.03665    , 830.2463    , 0.56        , 7           , 255         , 0           , 0
-0.118929885, 0.08864328  , -9.844545   , -0.0001065454, 0.0130216843, 0.000366043532, -0.009461074, -0.00500102574, 1.793693    , 917.4368    , 26.03665    , 830.2467    , 0.57        , 7           , 255         , 0           , 0
-0.118464231, 0.08769333  , -9.850319   , -0.000221238, 0.0129696028, -0.000124326441, -0.009463273, -0.00487135 , 1.79369044  , 917.4368    , 26.03665    , 830.247131  , 0.58        , 7           , 255         , 0           , 0
-0.117663287, 0.102426864 , -9.84719    , -0.000270977383, 0.0127817653, -0.00038472563, -0.009465956, -0.004743577, 1.79368544  , 917.4368    , 26.03665    , 830.247559  , 0.59        , 7           , 255         , 0           , 0
-0.120401382, 0.0978633761, -9.842646   , 7.36864749E-05, 0.0129356645, 0.000671501039, -0.009465245, -0.00461416552, 1.79369092  , 917.4368    , 26.03665    , 830.248     , 0.6         , 7           , 255         , 0           , 0
-0.1274422  , 0.0932998955, -9.848848   , 0.0005740032, 0.0128232818, 0.000210389029, -0.009460519, -0.00453980034, 1.79369175  , 917.4368    , 26.03665    , 830.228455  , 0.61        , 7           , 255         , 0           , 0
-0.121574856, 0.0834278762, -9.848551   , 0.00039143092, 0.0132381646, -0.0006825762, -0.00945656747, -0.004407493, 1.79368353  , 917.4368    , 26.03665    , 830.2289    , 0.62        , 7           , 255         , 0           , 0
-0.121053316, 0.09415671  , -9.854994   , 0.000338766258, 0.0133329611, -0.000103845727, -0.009453169, -0.004274182, 1.79368114  , 917.4488    , 26.04452    , 830.2293    , 0.63        , 7           , 255         , 0           , 0
-0.1173839  , 0.0914      , -9.848122   , 0.000545915449, 0.0128250374, -0.0005117073, -0.009447684, -0.00414598826, 1.793675    , 917.4488    , 26.04452    , 830.229736  , 0.64        , 7           , 255         , 0           , 0
-0.12230128 , 0.09354204  , -9.847823   , 6.9003785E-05, 0.0128338141, -7.293187E-06, -0.009446987, -0.00401766 , 1.79367363  , 917.4488    , 26.04452    , 830.2302    , 0.65        , 7           , 255         , 0           , 0
-0.1244992  , 0.08713454  , -9.842702   , -0.000623833854, 0.01300995  , 0.0005281349, -0.009453243, -0.00388751924, 1.79367781  , 917.4488    , 26.04452    , 830.2307    , 0.66        , 7           , 255         , 0           , 0
-0.126641244, 0.0924617052, -9.8486805  , -0.000370456371, 0.01313459  , -0.000116719631, -0.009456936, -0.00375619438, 1.7936753   , 917.4488    , 26.04452    , 830.2312    , 0.67        , 7           , 255         , 0           , 0
-0.124517821, 0.0997073948, -9.856187   , -0.000194906257, 0.0125312833, 0.000368969282, -0.009458896, -0.00363085535, 1.79367781  , 917.4488    , 26.04452    , 830.2317    , 0.68        , 7           , 255         , 0           , 0
-0.123251222, 0.0960379839, -9.84231    , -6.32435549E-05, 0.0129520176, -0.000123741571, -0.009459519, -0.00350135588, 1.79367542  , 917.4488    , 26.04452    , 830.2322    , 0.69        , 7           , 255         , 0           , 0
-0.115633011, 0.099428    , -9.846855   , 0.000504953554, 0.0124511151, 0.000275342725, -0.009454477, -0.00337682758, 1.79367709  , 917.4488    , 26.04452    , 830.232666  , 0.7         , 7           , 255         , 0           , 0
-0.116396688, 0.09750947  , -9.85561    , -0.000287947943, 0.0124820834, -0.0003162619, -0.009457353, -0.00331901968, 1.7936728   , 917.4488    , 26.04452    , 830.2015    , 0.71        , 7           , 255         , 0           , 0
-0.120718025, 0.08871779  , -9.863432   , 0.0001614606, 0.0129039893, 6.05857931E-05, -0.009455737, -0.00318998378, 1.79367208  , 917.4488    , 26.04452    , 830.201965  , 0.72        , 7           , 255         , 0           , 0
-0.119302414, 0.09287149  , -9.851717   , 0.000606187852, 0.0127729131, -0.0007732775, -0.009449647, -0.00306233647, 1.79366314  , 917.422363  , 26.04893    , 830.202454  , 0.73        , 7           , 255         , 0           , 0
-0.123903155, 0.085067004 , -9.849779   , -4.72716056E-06, 0.0128150443, -0.000162948156, -0.009449685, -0.00293421047, 1.7936604   , 917.422363  , 26.04893    , 830.202942  , 0.74        , 7           , 255         , 0           , 0
-0.121966004, 0.0879541039, -9.852964   , 1.04873907E-05, 0.012475647 , 0.0004239746, -0.009449589, -0.00280942232, 1.79366338  , 917.422363  , 26.04893    , 830.2034    , 0.75        , 7           , 255         , 0           , 0
-0.117793679, 0.08871779  , -9.850133   , -0.0005676579, 0.0129876686, 0.000233795028, -0.00945526548, -0.00267953263, 1.79366446  , 917.422363  , 26.04893    , 830.204     , 0.76        , 7           , 255         , 0           , 0
-0.123362996, 0.09154901  , -9.85153    , -0.000211291248, 0.0123685608, -5.11812977E-05, -0.009457376, -0.00255586067, 1.79366279  , 917.422363  , 26.04893    , 830.2045    , 0.77        , 7           , 255         , 0           , 0
-0.125709921, 0.0977143645, -9.838808   , 0.000200081384, 0.0129566547, -0.000179918017, -0.009455365, -0.00242631929, 1.79365969  , 917.422363  , 26.04893    , 830.2051    , 0.78        , 7           , 255         , 0           , 0
-0.121537589, 0.0872649252, -9.844006   , -0.000221824041, 0.01248384  , 0.000381842721, -0.009457589, -0.002301454, 1.79366231  , 917.422363  , 26.04893    , 830.2056    , 0.79        , 7           , 255         , 0           , 0
-0.126510859, 0.085067004 , -9.851977   , -0.000328909839, 0.012901064 , 2.02092342E-05, -0.009460876, -0.00217244937, 1.79366136  , 917.422363  , 26.04893    , 830.2062    , 0.8         , 7           , 255         , 0           , 0
-0.118445612, 0.09261072  , -9.856187   , 7.368717E-05, 0.0130748013, -0.000260086264, -0.009457911, -0.002114655, 1.79365754  , 917.422363  , 26.04893    , 830.2148    , 0.81        , 7           , 255         , 0           , 0
-0.115130089, 0.09685755  , -9.860676   , 0.00101346592, 0.01259672  , 0.0002934821, -0.00944778 , -0.00198866916, 1.79365921  , 917.422363  , 26.04893    , 830.215332  , 0.82        , 7           , 255         , 0           , 0
-0.124555089, 0.09296462  , -9.857192   , 0.00046867528, 0.0127166789, 0.0004070045, -0.009443099, -0.001861472, 1.79366207  , 917.4921    , 26.0530682  , 830.215942  , 0.83        , 7           , 255         , 0           , 0
-0.1190789  , 0.09952113  , -9.853895   , 0.00030892482, 0.0132573731, 0.0006949068, -0.009440019, -0.00172884145, 1.79366779  , 917.4921    , 26.0530682  , 830.216553  , 0.84        , 7           , 255         , 0           , 0
-0.124908984, 0.09115785  , -9.84711552 , 0.00016672886, 0.0131701836, -0.0005871947, -0.00943834 , -0.00159720355, 1.79366064  , 917.4921    , 26.0530682  , 830.217163  , 0.85        , 7           , 255         , 0           , 0
-0.130664557, 0.09115785  , -9.848177   , -0.000395031879, 0.0128524387, 0.000656285556, -0.009442298, -0.0014686262, 1.793666    , 917.4921    , 26.0530682  , 830.2178    , 0.86        , 7           , 255         , 0           , 0
-0.112038113, 0.08933246  , -9.845235   , 0.0003545673, 0.0126710366, 0.0003373695, -0.009438754, -0.00134189159, 1.79366815  , 917.4921    , 26.0530682  , 830.2184    , 0.87        , 7           , 255         , 0           , 0
-0.118166208, 0.09920448  , -9.850767   , -3.57390381E-05, 0.0129273394, 6.175577E-05, -0.009439109, -0.00121262006, 1.79366767  , 917.4921    , 26.0530682  , 830.219     , 0.88        , 7           , 255         , 0           , 0
-0.122748315, 0.0957213342, -9.844917   , -0.000155698741, 0.0128383944, 7.33532943E-06, -0.009440664, -0.00108424271, 1.7936666   , 917.4921    , 26.0530682  , 830.2196    , 0.89        , 7           , 255         , 0           , 0
-0.114031136, 0.0952929258, -9.848848   , -0.000672401162, 0.0126528954, 0.000149530824, -0.009447387, -0.0009577085, 1.79366684  , 917.4921    , 26.0530682  , 830.2202    , 0.9         , 7           , 255         , 0           , 0
-0.117402531, 0.09732321  , -9.844416   , -0.0002961394, 0.0125182364, 0.000172937056, -0.009451422, -0.000912404736, 1.79366744  , 917.4921    , 26.0530682  , 830.145935  , 0.91        , 7           , 255         , 0           , 0
-0.119265176, 0.0993907452, -9.84896    , -2.11107545E-05, 0.0126791568, 0.000273585785, -0.009451633, -0.000785596261, 1.7936691   , 917.4921    , 26.0530682  , 830.1465    , 0.92        , 7           , 255         , 0           , 0
-0.11546538 , 0.09953976  , -9.847097   , -1.64296944E-05, 0.0128523652, 0.00020161015, -0.009451796, -0.0006570621, 1.79366994  , 917.4822    , 26.05551    , 830.147034  , 0.93        , 7           , 255         , 0           , 0
-0.119321048, 0.101272009 , -9.855759   , -0.00026922184, 0.0126850093, -0.000194548164, -0.009454487, -0.0005302392, 1.79366672  , 917.4822    , 26.05551    , 830.1476    , 0.94        , 7           , 255         , 0           , 0
-0.120196484, 0.10125339  , -9.850766   , 0.0005160731, 0.0131367566, -0.0003425954, -0.009449324, -0.000398912467, 1.79366207  , 917.4822    , 26.05551    , 830.148132  , 0.95        , 7           , 255         , 0           , 0
-0.11725352 , 0.0982359052, -9.846222   , -0.0006466545, 0.0128026269, 0.0005199411, -0.00945579 , -0.000270845834, 1.79366612  , 917.4822    , 26.05551    , 830.1487    , 0.96        , 7           , 255         , 0           , 0
-0.108480453, 0.09447336  , -9.845998   , -3.3399323E-05, 0.0125363758, -0.000470747, -0.009456123, -0.00014553545, 1.79366016  , 917.4822    , 26.05551    , 830.149231  , 0.97        , 7           , 255         , 0           , 0
-0.1208298  , 0.09458512  , -9.852387   , 0.0006758233, 0.0127523029, -0.000306900241, -0.009449364, -1.80504285E-05, 1.79365587  , 917.4822    , 26.05551    , 830.149841  , 0.98        , 7           , 255         , 0           , 0
-0.111274421, 0.09579584  , -9.846427   , -0.000619736966, 0.0130952112, -0.000189866638, -0.009455562, 0.000112875365, 1.79365277  , 917.4822    , 26.05551    , 830.150452  , 0.99        , 7           , 255         , 0           , 0
-0.117123127, 0.089854    , -9.845868   , -0.0008538037, 0.0130630257, 0.000439187977, -0.009464099, 0.0002435376, 1.793656    , 917.4822    , 26.05551    , 830.151062  , 1           , 7           , 0           , 6.43723631  , 100
-0.122468926, 0.0886246562, -9.846203   , -9.660097E-05, 0.0125023471, 3.951788E-05, -0.009468321, 0.00027915556, 1.79365516  , 917.4822    , 26.05551    , 830.100037  , 1.01        , 7           , 1           , 0           , 0
-0.125989318, 0.08702278  , -9.847395   , 0.00025859545, 0.0128487665, -1.44378282E-06, -0.009465735, 0.000407634769, 1.793654    , 917.4822    , 26.05551    , 830.1005    , 1.02        , 7           , 2           , 0           , 0
-0.123884536, 0.09493902  , -9.841063   , -6.558723E-05, 0.0129880365, 0.0006685727, -0.009466387, 0.000537569169, 1.79365945  , 917.45636   , 26.05897    , 830.101     , 1.03        , 7           , 3           , 0           , 0
-0.119972967, 0.08825213  , -9.849985   , -0.000830400735, 0.0129459053, -0.000243118033, -0.009474693, 0.000666996057, 1.79365587  , 917.45636   , 26.05897    , 830.101563  , 1.04        , 7           , 4           , 0           , 0
-0.12310221 , 0.08568168  , -9.853057   , -0.000403813785, 0.0128025385, -8.629309E-05, -0.009478731, 0.000795004 , 1.79365373  , 917.45636   , 26.05897    , 830.1021    , 1.05        , 7           , 5           , 0           , 0
-0.115372241, 0.09415671  , -9.846258   , 0.0004399973, 0.0125942184, -0.000489473343, -0.00947434 , 0.000920890947, 1.79364753  , 917.45636   , 26.05897    , 830.102661  , 1.06        , 7           , 6           , 0           , 0
-0.118128955, 0.09279698  , -9.84922    , 0.0006805011, 0.0126445424, -0.00045436318, -0.009467539, 0.00104728458, 1.79364181  , 917.45636   , 26.05897    , 830.1032    , 1.07        , 7           , 7           , 0           , 0
-0.112243   , 0.0922009349, -9.842943   , -0.000272735953, 0.0126814079, -0.0005772484, -0.009470272, 0.00117403478, 1.79363477  , 917.45636   , 26.05897    , 830.10376   , 1.08        , 7           , 8           , 5           , 5
-0.1173839  , 0.0918842852, -9.846594   , -0.000323060667, 0.0121904537, 5.47321979E-05, -0.0094735045, 0.00129593664, 1.79363418  , 917.45636   , 26.05897    , 830.1043    , 1.09        , 7           , 9           , 5           , 0.1
-0.116024159, 0.09611249  , -9.847172   , -0.000103622675, 0.0124344686, 0.000237889588, -0.00947454 , 0.0014202958, 1.79363549  , 917.45636   , 26.05897    , 830.104858  , 1.1         , 7           , 10          , 0.1         , 0.1
-0.11626631 , 0.0932440162, -9.848513   , 0.000119912904, 0.01296159  , -0.000357811921, -0.009471604, 0.00144752441, 1.79363072  , 917.45636   , 26.05897    , 830.088257  , 1.11        , 7           , 11          , 0.010532896 , 0.0105328746
-0.11626631 , 0.09732321  , -9.84963    , -4.63332981E-08, 0.01327524  , -0.000312168733, -0.009471609, 0.00158023811, 1.79362643  , 917.45636   , 26.05897    , 830.0888    , 1.12        , 7           , 12          , 0.0346428268, 0
-0.116620205, 0.0872649252, -9.85235    , -0.000292629935, 0.0127117243, -6.815395E-05, -0.009474538, 0.00170734047, 1.79362452  , 917.484131  , 26.0590382  , 830.089355  , 1.13        , 7           , 13          , 0           , 0
-0.121928751, 0.09300187  , -9.851176   , 0.000317114173, 0.0128761558, -0.0004093066, -0.009471376, 0.00183605507, 1.79361939  , 917.484131  , 26.0590382  , 830.0899    , 1.14        , 7           , 14          , 0.00351748662, 4.48980444E-07
-0.117924072, 0.09270385  , -9.842702   , 4.04962339E-06, 0.0126379933, -5.820603E-05, -0.00947134 , 0.00196242076, 1.79361761  , 917.484131  , 26.0590382  , 830.090454  , 1.15        , 7           , 15          , 0           , 0.00216129725
-0.121463083, 0.09253621  , -9.850078   , -0.000304333167, 0.0129744643, -0.000168217579, -0.009474388, 0.002092141 , 1.79361463  , 917.484131  , 26.0590382  , 830.091     , 1.16        , 7           , 16          , 0           , 4.203895E-45
-0.117886804, 0.09348616  , -9.843074   , 5.203369E-05, 0.0127719967, 6.116764E-05, -0.009473869, 0.00221985718, 1.793614    , 917.484131  , 26.0590382  , 830.091553  , 1.17        , 7           , 20          , 0           , 0
-0.115092851, 0.09074807  , -9.855945   , 0.000156778377, 0.0125478767, 0.000195756089, -0.009472299, 0.002345346 , 1.79361486  , 917.484131  , 26.0590382  , 830.0921    , 1.18        , 7           , 21          , 0           , 0
-0.123642385, 0.09588897  , -9.849611   , 6.198161E-05, 0.0127310343, 0.000446792925, -0.009471671, 0.00247268868, 1.79361808  , 917.484131  , 26.0590382  , 830.0927    , 1.19        , 7           , 22          , 0           , 0
-0.11716038 , 0.09737909  , -9.84881    , -0.0006343676, 0.0128468974, 0.00021799258, -0.00947801 , 0.00260116882, 1.793619    , 917.484131  , 26.0590382  , 830.0933    , 1.2         , 7           , 40          , 0           , 0
-0.11725352 , 0.0965595245, -9.848401   , 4.15004324E-05, 0.0127121806, 0.0003759868, -0.009477642, 0.00262181833, 1.79362166  , 917.484131  , 26.0590382  , 830.0496    , 1.21        , 7           , 41          , 0           , 0
-0.118222095, 0.0987947   , -9.845625   , -0.000129368622, 0.0125933895, 0.000287626637, -0.009478931, 0.00274777156, 1.79362333  , 917.484131  , 26.0590382  , 830.0501    , 1.22        , 7           , 42          , 1           , 0
-0.119302414, 0.09253621  , -9.856038   , -0.000265712384, 0.0125167342, 0.000471369131, -0.00948158 , 0.00287297461, 1.79362679  , 917.460632  , 26.0603256  , 830.0506    , 1.23        , 7           , 255         , 0           , 0
-0.121593475, 0.08484349  , -9.858198   , 0.000386163825, 0.0131721208, 0.000479561277, -0.009477705, 0.00300473045, 1.79363036  , 917.460632  , 26.0603256  , 830.0511    , 1.24        , 7           , 255         , 0           , 0
-0.12435019 , 0.08711591  , -9.847637   , 7.778057E-05, 0.013155736 , 0.000895029865, -0.009476904, 0.00313636358, 1.79363811  , 917.460632  , 26.0603256  , 830.0516    , 1.25        , 7           , 255         , 0           , 0
-0.123530626, 0.08907169  , -9.844507   , 2.68712174E-05, 0.013148129 , 0.0006685704, -0.009476618, 0.00326789962, 1.79364359  , 917.460632  , 26.0603256  , 830.052063  , 1.26        , 7           , 255         , 0           , 0
-0.1221709  , 0.09395182  , -9.850692   , -0.000193736749, 0.0129064554, 0.0006504301, -0.009478536, 0.00339701679, 1.79364872  , 917.460632  , 26.0603256  , 830.052551  , 1.27        , 7           , 255         , 0           , 0
-0.119041659, 0.089854    , -9.847209   , -0.0003733833, 0.013035777 , 0.000502382871, -0.009482256, 0.00352741219, 1.79365265  , 917.460632  , 26.0603256  , 830.05304   , 1.28        , 7           , 255         , 0           , 0
-0.116433956, 0.09389594  , -9.854715   , -8.079945E-05, 0.0126981344, -7.882947E-06, -0.009483067, 0.00365438312, 1.79365122  , 917.460632  , 26.0603256  , 830.0536    , 1.29        , 7           , 255         , 0           , 0
-0.117607415, 0.08866191  , -9.857584   , 0.000177844428, 0.0133119756, -0.0005228303, -0.009481312, 0.00378744281, 1.79364491  , 917.460632  , 26.0603256  , 830.054138  , 1.3         , 7           , 255         , 0           , 0
-0.130739063, 0.08450821  , -9.856615   , 0.000297805527, 0.012931468 , 0.000464345561, -0.009476947, 0.00380400964, 1.79364824  , 917.460632  , 26.0603256  , 830.0394    , 1.31        , 7           , 255         , 0           , 0
-0.136718154, 0.08508563  , -9.847879   , 0.000663535669, 0.0129595548, -0.00019455282, -0.009470323, 0.003933578 , 1.793645    , 917.460632  , 26.0603256  , 830.0399    , 1.32        , 7           , 255         , 0           , 0
-0.115521252, 0.0937283039, -9.841845   , 0.00011289306, 0.0131362751, 0.000160643831, -0.009469191, 0.00406494457, 1.79364538  , 917.43      , 26.0654831  , 830.0404    , 1.33        , 7           , 255         , 0           , 0
-0.123251222, 0.0976026058, -9.838473   , 0.000296050217, 0.0132322432, -7.16676E-05, -0.009466239, 0.00419725  , 1.79364336  , 917.43      , 26.0654831  , 830.0409    , 1.34        , 7           , 255         , 0           , 0
-0.124033548, 0.0965595245, -9.854976   , 0.0005704933, 0.0133709284, 0.000114415539, -0.009460536, 0.00433096057, 1.79364312  , 917.43      , 26.0654831  , 830.0414    , 1.35        , 7           , 255         , 0           , 0
-0.116154552, 0.09680167  , -9.85369    , 5.22192568E-06, 0.0133241154, -0.000240780762, -0.00946049951, 0.00446417  , 1.79363942  , 917.43      , 26.0654831  , 830.0419    , 1.36        , 7           , 255         , 0           , 0
-0.12345612 , 0.08456409  , -9.85058    , 3.27248126E-05, 0.0128249675, 0.000871621771, -0.009460138, 0.00459249457, 1.793647    , 917.43      , 26.0654831  , 830.0424    , 1.37        , 7           , 255         , 0           , 0
-0.120773911, 0.0940077   , -9.844098   , -0.000257518142, 0.012846618 , 0.000123193022, -0.009462713, 0.00472096447, 1.793647    , 917.43      , 26.0654831  , 830.042969  , 1.38        , 7           , 255         , 0           , 0
-0.126268715, 0.09212643  , -9.841192   , 0.000528361648, 0.0128050717, -0.000498254551, -0.00945746 , 0.00484895939, 1.79364085  , 917.43      , 26.0654831  , 830.0435    , 1.39        , 7           , 255         , 0           , 0
-0.124666832, 0.0970251858, -9.839554   , 0.000351056 , 0.0127354376, -0.000428619562, -0.00945397653, 0.0049762656, 1.79363537  , 917.43      , 26.0654831  , 830.044067  , 1.4         , 7           , 255         , 0           , 0
-0.12088567 , 0.09195879  , -9.847414   , 0.000302487751, 0.0124643147, 0.0003970496, -0.009450163, 0.00496957731, 1.79363823  , 917.43      , 26.0654831  , 830.062     , 1.41        , 7           , 255         , 0           , 0
-0.122338533, 0.10108576  , -9.845403   , -0.000388595043, 0.0121611981, 0.000839435961, -0.009454013, 0.00509125972, 1.79364538  , 917.43      , 26.0654831  , 830.0626    , 1.42        , 7           , 255         , 0           , 0
-0.113416456, 0.09866431  , -9.851642   , -0.000159209128, 0.0125163943, -0.000109120039, -0.009455615, 0.00521640526, 1.79364324  , 917.425232  , 26.0676537  , 830.063232  , 1.43        , 7           , 255         , 0           , 0
-0.112392008, 0.09391457  , -9.849424   , 0.000251578167, 0.012111458 , -0.000352549716, -0.009453124, 0.00533747766, 1.79363859  , 917.425232  , 26.0676537  , 830.0639    , 1.44        , 7           , 255         , 0           , 0
-0.109393142, 0.09864569  , -9.843576   , 0.000332916155, 0.0123221185, -0.000209768885, -0.009449812, 0.00546067  , 1.79363537  , 917.425232  , 26.0676537  , 830.0646    , 1.45        , 7           , 255         , 0           , 0
-0.112205744, 0.09376556  , -9.847321   , 0.000352812232, 0.0127551416, -0.000178169925, -0.009446301, 0.00558819529, 1.79363239  , 917.425232  , 26.0676537  , 830.065247  , 1.46        , 7           , 255         , 0           , 0
-0.112578273, 0.0936538   , -9.851903   , 6.022863E-05, 0.0128516937, -0.000706576044, -0.009445745, 0.005716637 , 1.793624    , 917.425232  , 26.0676537  , 830.0659    , 1.47        , 7           , 255         , 0           , 0
-0.11369586 , 0.0892579556, -9.846725   , -7.650582E-06, 0.0131079983, 0.000142501667, -0.009445818, 0.00584772043, 1.79362416  , 917.425232  , 26.0676537  , 830.0666    , 1.48        , 7           , 255         , 0           , 0
-0.120382763, 0.08892268  , -9.851326   , 1.51710119E-05, 0.013275356 , 7.111137E-05, -0.009445669, 0.00598047068, 1.79362381  , 917.425232  , 26.0676537  , 830.067261  , 1.49        , 7           , 255         , 0           , 0
-0.115986921, 0.09063631  , -9.854268   , -6.031571E-05, 0.0128663238, 1.08391978E-05, -0.009446277, 0.006109126 , 1.79362261  , 917.425232  , 26.0676537  , 830.067932  , 1.5         , 7           , 255         , 0           , 0
-0.124070786, 0.09397045  , -9.850786   , -0.000163891353, 0.0129638482, -0.000279990956, -0.00944867451, 0.006110128 , 1.79361868  , 917.425232  , 26.0676537  , 830.0889    , 1.51        , 7           , 255         , 0           , 0
-0.131297857, 0.09616837  , -9.854269   , 0.000187208876, 0.012721004 , 0.000320390565, -0.00944678951, 0.00623735925, 1.79362059  , 917.425232  , 26.0676537  , 830.0897    , 1.52        , 7           , 255         , 0           , 0
-0.115204595, 0.08620322  , -9.853653   , -0.0003493894, 0.0124518257, -2.25172844E-05, -0.009450292, 0.00636186637, 1.79361928  , 917.4707    , 26.06806    , 830.0905    , 1.53        , 7           , 255         , 0           , 0
-0.113118432, 0.09357929  , -9.84555149 , 0.000253333 , 0.01318153  , 0.000213305 , -0.0094477525, 0.00649369229, 1.79362011  , 917.4707    , 26.06806    , 830.0913    , 1.54        , 7           , 255         , 0           , 0
-0.120922923, 0.09346753  , -9.847637   , 1.7510727E-05, 0.0130791264, 0.000484237447, -0.009447553, 0.00662451936, 1.79362369  , 917.4707    , 26.06806    , 830.0921    , 1.55        , 7           , 255         , 0           , 0
-0.118408345, 0.0961869955, -9.85357952 , 0.000205349177, 0.0131862108, 0.000371885253, -0.009445483, 0.00675640628, 1.79362607  , 917.4707    , 26.06806    , 830.092957  , 1.56        , 7           , 255         , 0           , 0
-0.111814596, 0.09937212  , -9.851661   , -0.0001656469, 0.0133465473, -0.000350796268, -0.009447172, 0.00688982941, 1.7936213   , 917.4707    , 26.06806    , 830.0938    , 1.57        , 7           , 255         , 0           , 0
-0.120140612, 0.09344891  , -9.848551   , -0.000516162254, 0.0133049991, -0.000432719477, -0.009452373, 0.007022829 , 1.7936157   , 917.4707    , 26.06806    , 830.094666  , 1.58        , 7           , 255         , 0           , 0
-0.114440918, 0.08933246  , -9.844788   , -0.000338271027, 0.01292347  , -0.000200993614, -0.009455776, 0.007152035 , 1.79361236  , 917.4707    , 26.06806    , 830.0955    , 1.59        , 7           , 255         , 0           , 0
-0.119600438, 0.09920448  , -9.845663   , -9.893789E-05, 0.013568324 , 2.42958777E-05, -0.009456772, 0.00728771044, 1.79361141  , 917.4707    , 26.06806    , 830.0964    , 1.6         , 7           , 255         , 0           , 0
-0.124908984, 0.09620562  , -9.852499   , -0.000471105333, 0.0132983346, -0.000474853674, -0.0094623  , 0.00728307  , 1.79360533  , 917.4707    , 26.06806    , 830.065552  , 1.61        , 7           , 255         , 0           , 0
-0.128354877, 0.0961311162, -9.853169   , -0.0004125887, 0.0127833858, 0.0008868305, -0.009466369, 0.00741097843, 1.793613    , 917.4707    , 26.06806    , 830.0663    , 1.62        , 7           , 255         , 0           , 0
-0.122617938, 0.08875504  , -9.848661   , 9.00703E-05 , 0.0131245395, 0.000367786968, -0.00946544949, 0.00754224975, 1.79361534  , 917.4489    , 26.0698242  , 830.067     , 1.63        , 7           , 255         , 0           , 0
-0.132005662, 0.0991858542, -9.845719   , -0.0003300798, 0.0131204426, -0.00017641834, -0.009468773, 0.00767342839, 1.79361236  , 917.4489    , 26.0698242  , 830.067749  , 1.64        , 7           , 255         , 0           , 0
-0.121481717, 0.09585172  , -9.852182   , -0.0006536776, 0.0130367652, 0.0003303364, -0.0094752945, 0.007803818 , 1.79361451  , 917.4489    , 26.0698242  , 830.0685    , 1.65        , 7           , 255         , 0           , 0
-0.119097531, 0.09236857  , -9.849034   , -0.000175595749, 0.0132866316, 0.000577277038, -0.009477013, 0.007936731 , 1.793619    , 917.4489    , 26.0698242  , 830.0692    , 1.66        , 7           , 255         , 0           , 0
-0.118371107, 0.09475276  , -9.853226   , 0.0004575553, 0.0133287627, 0.0005661587, -0.009472403, 0.008070063 , 1.79362345  , 917.4489    , 26.0698242  , 830.069946  , 1.67        , 7           , 255         , 0           , 0
-0.10853634 , 0.0957213342, -9.852461   , 0.000173748937, 0.012998729 , -5.47037926E-05, -0.009470681, 0.008200036 , 1.79362166  , 917.4489    , 26.0698242  , 830.0707    , 1.68        , 7           , 255         , 0           , 0
-0.116433956, 0.0987947   , -9.846352   , -0.0005676581, 0.0130865043, 0.0008587425, -0.009476295, 0.008330972 , 1.79362893  , 917.4489    , 26.0698242  , 830.0714    , 1.69        , 7           , 255         , 0           , 0
-0.125225633, 0.09262934  , -9.844545   , 0.000208273763, 0.0129033448, 0.000202184776, -0.009474206, 0.008460014 , 1.79362977  , 917.4489    , 26.0698242  , 830.072144  , 1.7         , 7           , 255         , 0           , 0
-0.123493373, 0.08478761  , -9.841472   , 0.0001474144, 0.01279951  , 0.00033443002, -0.009473998, 0.008441138 , 1.79363191  , 917.4489    , 26.0698242  , 830.067566  , 1.71        , 7           , 255         , 0           , 0
-0.11742115 , 0.08713454  , -9.845514   , 0.000412494643, 0.0127251931, 0.00109456247, -0.009469789, 0.008568485 , 1.79364181  , 917.4489    , 26.0698242  , 830.0683    , 1.72        , 7           , 255         , 0           , 0
-0.119321048, 0.09665266  , -9.850133   , -0.000187886646, 0.0123471757, 0.0005445052, -0.009471631, 0.008691999 , 1.793646    , 917.4281    , 26.071249   , 830.069031  , 1.73        , 7           , 255         , 0           , 0
-0.119395554, 0.09642914  , -9.845849   , -7.07013533E-06, 0.0123600494, 0.0003718806, -0.00947168 , 0.008815627 , 1.79364848  , 917.4281    , 26.071249   , 830.069763  , 1.74        , 7           , 255         , 0           , 0
-0.121984623, 0.0928342342, -9.851493   , 0.000382066 , 0.0133846765, 0.000268891221, -0.009467846, 0.008949488 , 1.79365     , 917.4281    , 26.071249   , 830.070557  , 1.75        , 7           , 255         , 0           , 0
-0.123735525, 0.0887922943, -9.85602    , 0.00033700862, 0.01307805  , -9.85937659E-05, -0.009464495, 0.009080251 , 1.793648    , 917.4281    , 26.071249   , 830.07135   , 1.76        , 7           , 255         , 0           , 0
-0.124927618, 0.09467825  , -9.843447   , 0.000107622705, 0.0130628357, 3.65800224E-05, -0.009463427, 0.009210873 , 1.793647    , 917.4281    , 26.071249   , 830.072144  , 1.77        , 7           , 255         , 0           , 0
-0.119544566, 0.0939890742, -9.848345   , 0.000251573743, 0.0131441737, 0.000293468358, -0.009460893, 0.009342332 , 1.79364872  , 917.4281    , 26.071249   , 830.072937  , 1.78        , 7           , 255         , 0           , 0
-0.134557486, 0.08812174  , -9.85438    , -0.000443019671, 0.0129317576, -0.000216797576, -0.009465355, 0.0094716195, 1.79364526  , 917.4281    , 26.071249   , 830.0737    , 1.79        , 7           , 255         , 0           , 0
-0.124387443, 0.0873208046, -9.850786   , -0.0004313162, 0.0131324707, -0.000668546534, -0.009469744, 0.009602873 , 1.79363728  , 917.4281    , 26.071249   , 830.0745    , 1.8         , 7           , 255         , 0           , 0
-0.113863491, 0.08832663  , -9.840671   , -5.03691845E-05, 0.0133375647, 0.000176432077, -0.009468603, 0.009578845 , 1.79363775  , 917.4281    , 26.071249   , 830.093262  , 1.81        , 7           , 255         , 0           , 0
-0.118762255, 0.09922311  , -9.853337   , 0.000212371117, 0.0129671544, 0.000358419027, -0.009466456, 0.009708541 , 1.79364014  , 917.4281    , 26.071249   , 830.0942    , 1.82        , 7           , 255         , 0           , 0
-0.118240714, 0.0982917845, -9.845588   , -0.0004190246, 0.0123404395, 0.000552109443, -0.009470604, 0.009831989 , 1.79364443  , 917.448853  , 26.0723343  , 830.0951    , 1.83        , 7           , 255         , 0           , 0
-0.116582967, 0.09069219  , -9.845644   , -0.000258103246, 0.0138033582, 7.695379E-05, -0.009473192, 0.00997002  , 1.79364371  , 917.448853  , 26.0723343  , 830.096     , 1.84        , 7           , 255         , 0           , 0
-0.106729567, 0.09249896  , -9.84976    , -0.000159210293, 0.0136237117, 6.99316151E-05, -0.009474789, 0.0101062553, 1.79364324  , 917.448853  , 26.0723343  , 830.0969    , 1.85        , 7           , 255         , 0           , 0
-0.107474625, 0.0901334   , -9.846818   , -3.573997E-05, 0.0128700165, -0.000168816652, -0.009475174, 0.01023493  , 1.79364026  , 917.448853  , 26.0723343  , 830.0979    , 1.86        , 7           , 255         , 0           , 0
-0.118594624, 0.09138137  , -9.855982   , 1.0488322E-05, 0.0133258607, -0.000171742169, -0.0094751  , 0.0103681609, 1.79363728  , 917.448853  , 26.0723343  , 830.0989    , 1.87        , 7           , 255         , 0           , 0
-0.117681921, 0.09454787  , -9.848345   , -7.787184E-05, 0.0125446636, -0.0002940424, -0.009475921, 0.0104935719, 1.79363322  , 917.448853  , 26.0723343  , 830.099854  , 1.88        , 7           , 255         , 0           , 0
-0.1167506  , 0.0921450555, -9.849146   , 9.59225E-05 , 0.0128062321, -0.0002466438, -0.009475   , 0.0106216008, 1.79362965  , 917.448853  , 26.0723343  , 830.1008    , 1.89        , 7           , 255         , 0           , 0
-0.123586513, 0.10125339  , -9.859167   , -5.73911238E-05, 0.0133919865, 0.000443268334, -0.00947554 , 0.0107555538, 1.79363275  , 917.448853  , 26.0723343  , 830.1018    , 1.9         , 7           , 255         , 0           , 0
-0.124927618, 0.101383783 , -9.848364   , 0.000333499862, 0.0129001271, 0.000268300762, -0.009472578, 0.0107264761, 1.7936343   , 917.448853  , 26.0723343  , 830.0935    , 1.91        , 7           , 255         , 0           , 0
-0.108927488, 0.103898346 , -9.859018   , 0.000160290161, 0.0129405037, 0.000394696835, -0.009470944, 0.0108559113, 1.79363716  , 917.448853  , 26.0723343  , 830.0944    , 1.92        , 7           , 255         , 0           , 0
-0.11164695 , 0.0945106149, -9.853039   , 0.000120498938, 0.0132734636, 0.000701324549, -0.009469676, 0.010988703 , 1.793643    , 917.439636  , 26.0730133  , 830.095337  , 1.93        , 7           , 255         , 0           , 0
-0.124126673, 0.09763986  , -9.853281   , -0.000212461222, 0.0125695076, -0.000219729031, -0.009471838, 0.0111143691, 1.79363966  , 917.439636  , 26.0730133  , 830.0963    , 1.94        , 7           , 255         , 0           , 0
-0.121220946, 0.09553507  , -9.842832   , 7.602596E-05, 0.0128995413, -0.0006632856, -0.009471166, 0.0112432912, 1.79363191  , 917.439636  , 26.0730133  , 830.0973    , 1.95        , 7           , 255         , 0           , 0
-0.109951951, 0.0952743   , -9.842627   , -0.000123515958, 0.0129364068, -0.000597747043, -0.009472481, 0.0113725895, 1.79362464  , 917.439636  , 26.0730133  , 830.098267  , 1.96        , 7           , 255         , 0           , 0
-0.111348927, 0.102072954 , -9.845271   , -0.000380404061, 0.013322033 , 0.000154193025, -0.009476282, 0.0115058152, 1.793625    , 917.439636  , 26.0730133  , 830.099243  , 1.97        , 7           , 255         , 0           , 0
-0.11254102 , 0.0950880349, -9.845514   , -6.307382E-07, 0.0128340032, 0.0003800674, -0.00947625749, 0.0116341813, 1.7936275   , 917.439636  , 26.0730133  , 830.1002    , 1.98        , 7           , 255         , 0           , 0
-0.110156834, 0.09693205  , -9.854994   , -4.72716056E-06, 0.0128135215, 0.000591313 , -0.009476248, 0.011762362 , 1.79363227  , 917.439636  , 26.0730133  , 830.1012    , 1.99        , 7           , 255         , 0           , 0
-0.11706724 , 0.08884817  , -9.854305   , 0.000559374 , 0.0127550066, 0.0002472347, -0.009470639, 0.0118899271, 1.79363358  , 917.439636  , 26.0730133  , 830.1022    , 2           , 7           , 0           , 7.43723631  , 200
-0.11920929 , 0.0870041549, -9.856522   , 0.000444090459, 0.0129659027, -4.47670463E-05, -0.009468992, 0.0118559683, 1.79363191  , 917.439636  , 26.0730133  , 830.1046    , 2.01        , 7           , 1           , 0           , 0
-0.117663287, 0.0949949   , -9.8435955  , 0.000379137 , 0.0129196746, -0.0004848129, -0.009465273, 0.01198511  , 1.79362583  , 917.439636  , 26.0730133  , 830.105652  , 2.02        , 7           , 2           , 0           , 0
-0.121295452, 0.0900961459, -9.852089   , -0.000179697992, 0.0127757238, -0.000384749379, -0.009467129, 0.0121128215, 1.79362071  , 917.4525    , 26.0725384  , 830.1067    , 2.03        , 7           , 3           , 0           , 0
-0.11885538 , 0.09223819  , -9.848531   , -2.81394459E-05, 0.0132105025, -0.000304581365, -0.009467463, 0.0122448886, 1.79361641  , 917.4525    , 26.0725384  , 830.1077    , 2.04        , 7           , 4           , 0           , 0
-0.114366412, 0.09119511  , -9.845961   , 1.28219835E-05, 0.0128921717, -0.0002683011, -0.009467381, 0.0123737715, 1.7936126   , 917.4525    , 26.0725384  , 830.108765  , 2.05        , 7           , 5           , 0           , 0
-0.120773911, 0.08998439  , -9.847842   , 0.000528939534, 0.0126335276, -0.00022675423, -0.009462135, 0.0125000784, 1.79360914  , 917.4525    , 26.0725384  , 830.1098    , 2.06        , 7           , 6           , 0           , 0
-0.118762255, 0.097882    , -9.83974    , 0.000308331568, 0.01276051  , -0.000600090832, -0.009459143, 0.0126276165, 1.793602    , 917.4525    , 26.0725384  , 830.11084   , 2.07        , 7           , 7           , 0           , 0
-0.12036413 , 0.09553507  , -9.847209   , -5.447236E-05, 0.0127423694, -0.0006117943, -0.009459777, 0.0127549712, 1.7935946   , 917.4525    , 26.0725384  , 830.1119    , 2.08        , 7           , 8           , 5           , 5
-0.128876418, 0.0987947   , -9.851362   , -9.426335E-05, 0.0132514639, 0.0005679028, -0.009460662, 0.01288753  , 1.793599    , 917.4525    , 26.0725384  , 830.1129    , 2.09        , 7           , 9           , 5           , 0.1
-0.128149986, 0.09378418  , -9.849798   , 6.607245E-05, 0.01286701  , 0.000191640342, -0.009459993, 0.013016209 , 1.79359961  , 917.4525    , 26.0725384  , 830.114     , 2.1         , 7           , 10          , 0.1         , 0.1
-0.120103359, 0.08439645  , -9.849687   , 0.000416002469, 0.0127560124, -7.871096E-05, -0.009455789, 0.0129650449, 1.7935977   , 917.4525    , 26.0725384  , 830.0994    , 2.11        , 7           , 11          , 0.0101646921, 0.0101646492
-0.123381615, 0.07588416  , -9.850543   , -6.968621E-05, 0.0127560124, -0.000141323777, -0.009456519, 0.0130925812, 1.79359508  , 917.4525    , 26.0725384  , 830.1004    , 2.12        , 7           , 12          , 0.03464815  , 0
-0.119712211, 0.07757917  , -9.84408    , -1.40951015E-05, 0.01247162  , -0.000222662, -0.009456704, 0.0132172666, 1.7935915   , 917.436157  , 26.07627    , 830.1014    , 2.13        , 7           , 13          , 0           , 0
-0.125449151, 0.0791810453, -9.840504   , -0.000341788866, 0.0140182162, 0.000108542619, -0.009460126, 0.0133574484, 1.79359126  , 917.436157  , 26.07627    , 830.102356  , 2.14        , 7           , 14          , 0.00351749151, 2.97442716E-06
-0.116396688, 0.08998439  , -9.850656   , -0.0005904848, 0.0134096444, 0.0004034671, -0.009465991, 0.0134915719, 1.793594    , 917.436157  , 26.07627    , 830.103333  , 2.15        , 7           , 15          , 0           , 0.002161321
-0.121854246, 0.09045005  , -9.848047   , -0.000397379976, 0.01301641  , 4.827045E-05, -0.009469974, 0.013621727 , 1.79359329  , 917.436157  , 26.07627    , 830.1044    , 2.16        , 7           , 16          , 0           , 4.203895E-45
-0.130012631, 0.09639189  , -9.858553   , -0.000445948681, 0.0127782486, 5.00259921E-05, -0.009474442, 0.0137495073, 1.79359257  , 917.436157  , 26.07627    , 830.1054    , 2.17        , 7           , 20          , 0           , 0
-0.127367675, 0.09354204  , -9.846128   , -0.00105042662, 0.0128572462, 0.000143067446, -0.009484943, 0.0138780838, 1.79359293  , 917.436157  , 26.07627    , 830.106445  , 2.18        , 7           , 21          , 0           , 0
-0.11947006 , 0.09808689  , -9.847432   , -0.0007619392, 0.0129099116, -0.0005392374, -0.00949265249, 0.0140071232, 1.79358637  , 917.436157  , 26.07627    , 830.1075    , 2.19        , 7           , 22          , 0           , 0
-0.119581819, 0.09989366  , -9.849686   , -4.042778E-05, 0.0132621806, -0.000106213614, -0.009493087, 0.0141397221, 1.79358411  , 917.436157  , 26.07627    , 830.1085    , 2.2         , 7           , 40          , 0           , 0
-0.113490961, 0.09723008  , -9.852666   , 0.000213542953, 0.0129802758, 0.00038941903, -0.009487503, 0.0140835373, 1.79358673  , 917.436157  , 26.07627    , 830.1147    , 2.21        , 7           , 41          , 0           , 0
-0.115372241, 0.101290643 , -9.850022   , 0.000521926 , 0.01321844  , 2.01785E-05 , -0.009482297, 0.0142157124, 1.79358578  , 917.436157  , 26.07627    , 830.1158    , 2.22        , 7           , 42          , 1           , 0
-0.126454979, 0.0870041549, -9.8514     , 0.0001087978, 0.0134115443, 0.000722378958, -0.009481123, 0.0143498862, 1.79359174  , 917.4654    , 26.078373   , 830.1169    , 2.23        , 7           , 255         , 0           , 0
-0.116936862, 0.08990988  , -9.84922    , 9.709434E-05, 0.0128521249, -0.000185800251, -0.009480197, 0.01447838  , 1.79358864  , 917.4654    , 26.078373   , 830.118     , 2.24        , 7           , 255         , 0           , 0
-0.116378069, 0.09417534  , -9.8514185  , -0.000127024949, 0.01271461  , -0.00018638582, -0.009481513, 0.0146055017, 1.79358554  , 917.4654    , 26.078373   , 830.1191    , 2.25        , 7           , 255         , 0           , 0
-0.118240714, 0.0881031156, -9.85631752 , 0.000359249534, 0.01274855  , -0.000363691128, -0.009477989, 0.0147329429, 1.79358077  , 917.4654    , 26.078373   , 830.1202    , 2.26        , 7           , 255         , 0           , 0
-0.117644668, 0.09138137  , -9.849109   , 0.000202424359, 0.0129744243, -0.00024548755, -0.009476017, 0.0148626538, 1.79357719  , 917.4654    , 26.078373   , 830.1213    , 2.27        , 7           , 255         , 0           , 0
-0.122115016, 0.09074807  , -9.838491   , 0.000455216737, 0.0127608385, -0.000107973348, -0.009471499, 0.0149902422, 1.79357493  , 917.4654    , 26.078373   , 830.1224    , 2.28        , 7           , 255         , 0           , 0
-0.122338533, 0.08882955  , -9.854696   , 0.000182528747, 0.0126906186, -0.000189311337, -0.009469719, 0.0151171191, 1.793572    , 917.4654    , 26.078373   , 830.123535  , 2.29        , 7           , 255         , 0           , 0
-0.1225248  , 0.0883638859, -9.855926   , 0.000189550919, 0.0128579764, 0.00048012007, -0.009467768, 0.01524573  , 1.79357553  , 917.4654    , 26.078373   , 830.1247    , 2.3         , 7           , 255         , 0           , 0
-0.115130089, 0.105686486 , -9.848811   , 0.000132207526, 0.0131465923, 8.746842E-05, -0.009465257, 0.0151930358, 1.79357529  , 917.4654    , 26.078373   , 830.091248  , 2.31        , 7           , 255         , 0           , 0
-0.122375786, 0.1014024   , -9.84456348 , 8.246815E-05, 0.0133947041, -0.0009687585, -0.009464601, 0.0153268827, 1.79356432  , 917.4654    , 26.078373   , 830.092163  , 2.32        , 7           , 255         , 0           , 0
-0.1216866  , 0.0899471343, -9.853226   , -0.000376302749, 0.0132103767, 0.000114971073, -0.009468364, 0.0154589852, 1.7935642   , 917.447266  , 26.0761337  , 830.0931    , 2.33        , 7           , 255         , 0           , 0
-0.110436223, 0.09741634  , -9.851735   , -0.000620903, 0.0128440615, -0.000277676038, -0.009474634, 0.0155873867, 1.79356027  , 917.447266  , 26.0761337  , 830.094055  , 2.34        , 7           , 255         , 0           , 0
-0.114887953, 0.09374693  , -9.8476     , 7.778709E-05, 0.0126357414, 0.000114971073, -0.00947385747, 0.01571375  , 1.79356015  , 917.447266  , 26.0761337  , 830.095032  , 2.35        , 7           , 255         , 0           , 0
-0.117514275, 0.09452924  , -9.851121   , 0.000173754292, 0.0130172707, 0.000433302252, -0.00947207 , 0.0158439539, 1.79356325  , 917.447266  , 26.0761337  , 830.096     , 2.36        , 7           , 255         , 0           , 0
-0.116582967, 0.09352341  , -9.85086    , 5.906145E-05, 0.0128504988, -0.000105637126, -0.009471516, 0.0159724411, 1.793561    , 917.447266  , 26.0761337  , 830.097     , 2.37        , 7           , 255         , 0           , 0
-0.120867036, 0.09305775  , -9.848456   , -0.000597496051, 0.0133121945, 0.000458464259, -0.009477436, 0.01610559  , 1.7935642   , 917.447266  , 26.0761337  , 830.097961  , 2.38        , 7           , 255         , 0           , 0
-0.125300139, 0.09756535  , -9.844303   , 0.0003364305, 0.0134087484, 0.000106193824, -0.009474076, 0.01623968  , 1.793564    , 917.447266  , 26.0761337  , 830.098938  , 2.39        , 7           , 255         , 0           , 0
-0.11475756 , 0.09275973  , -9.845271   , -0.0002294262, 0.0127773518, 0.000141888624, -0.009476368, 0.01636746  , 1.79356408  , 917.447266  , 26.0761337  , 830.0999    , 2.4         , 7           , 255         , 0           , 0
-0.122077763, 0.0904873   , -9.847414   , -0.000196076231, 0.0131098023, -0.0005609016, -0.009480352, 0.0163024552, 1.79355717  , 917.447266  , 26.0761337  , 830.0927    , 2.41        , 7           , 255         , 0           , 0
-0.118650496, 0.08882955  , -9.846594   , 0.000280249864, 0.01245266  , -0.000645751, -0.009477674, 0.0164269134, 1.79354954  , 917.447266  , 26.0761337  , 830.0937    , 2.42        , 7           , 255         , 0           , 0
-0.113938   , 0.09108335  , -9.843912   , 0.0004768658, 0.0122934943, -0.000396469724, -0.009472989, 0.0165498015, 1.79354453  , 917.476     , 26.0775585  , 830.094666  , 2.43        , 7           , 255         , 0           , 0
-0.110883258, 0.09601936  , -9.848736   , -0.00123474817, 0.0125222942, 0.0005509162, -0.009485265, 0.0166750681, 1.79354882  , 917.476     , 26.0775585  , 830.095642  , 2.44        , 7           , 255         , 0           , 0
-0.116843723, 0.0973418355, -9.85274    , -0.0004962669, 0.0129804816, 0.0005842706, -0.009490151, 0.01680492  , 1.79355347  , 917.476     , 26.0775585  , 830.0966    , 2.45        , 7           , 255         , 0           , 0
-0.118147589, 0.09404495  , -9.85099    , -4.86138742E-05, 0.0133889271, -5.941349E-05, -0.00949067 , 0.0169387925, 1.79355156  , 917.476     , 26.0775585  , 830.0976    , 2.46        , 7           , 255         , 0           , 0
-0.12088567 , 0.0887364149, -9.848047   , 0.000474525383, 0.0132982265, -0.000337367877, -0.009486001, 0.017071737 , 1.79354692  , 917.476     , 26.0775585  , 830.0986    , 2.47        , 7           , 255         , 0           , 0
-0.114254653, 0.09704381  , -9.848457   , 0.0002152964, 0.0125860777, -1.96220353E-05, -0.009483872, 0.0171975866, 1.7935456   , 917.476     , 26.0775585  , 830.099548  , 2.48        , 7           , 255         , 0           , 0
-0.117830932, 0.094641    , -9.853468   , 0.000180771109, 0.0134181865, 0.000208593439, -0.009482048, 0.0173317771, 1.79354656  , 917.476     , 26.0775585  , 830.1005    , 2.49        , 7           , 255         , 0           , 0
-0.118035816, 0.0936724246, -9.852797   , -6.148778E-05, 0.0136774145, -0.00047020067, -0.009482768, 0.0174684972, 1.79354048  , 917.476     , 26.0775585  , 830.1015    , 2.5         , 7           , 255         , 0           , 0
-0.118389726, 0.08901581  , -9.841528   , -3.63246072E-05, 0.0132333143, 0.00022204686, -0.009482924, 0.0174009278, 1.79354155  , 917.476     , 26.0775585  , 830.055359  , 2.51        , 7           , 255         , 0           , 0
-0.111628316, 0.09177253  , -9.849649   , 0.000279080123, 0.01284769  , -0.000660385471, -0.009480269, 0.0175293367, 1.79353368  , 917.476     , 26.0775585  , 830.0561    , 2.52        , 7           , 255         , 0           , 0
-0.115409493, 0.0968761742, -9.849705   , 0.0006670458, 0.0124082295, 0.00021678023, -0.009473581, 0.01765343  , 1.79353476  , 917.4344    , 26.0783043  , 830.0568    , 2.53        , 7           , 255         , 0           , 0
-0.117532909, 0.09467825  , -9.845737   , -0.000222408213, 0.0124521153, -0.000161237782, -0.009475855, 0.01777793  , 1.79353178  , 917.4344    , 26.0783043  , 830.057556  , 2.54        , 7           , 255         , 0           , 0
-0.123698257, 0.08421019  , -9.849611   , -0.000362848165, 0.0128968442, -4.71302774E-05, -0.009479514, 0.0179068819, 1.79353023  , 917.4344    , 26.0783043  , 830.0583    , 2.55        , 7           , 255         , 0           , 0
-0.117663287, 0.09011477  , -9.850934   , 0.000524850562, 0.012495419 , 2.023764E-06, -0.009474288, 0.01803183  , 1.793529    , 917.4344    , 26.0783043  , 830.059     , 2.56        , 7           , 255         , 0           , 0
-0.11546538 , 0.09339303  , -9.842757   , -0.000126441009, 0.0127113452, 0.000120227458, -0.00947555248, 0.0181589425, 1.793529    , 917.4344    , 26.0783043  , 830.059753  , 2.57        , 7           , 255         , 0           , 0
-0.104531646, 0.09318814  , -9.848028   , -0.000138144009, 0.01328715  , -0.000354342978, -0.009477021, 0.0182917733, 1.79352427  , 917.4344    , 26.0783043  , 830.0605    , 2.58        , 7           , 255         , 0           , 0
-0.115539886, 0.102315091 , -9.848457   , 0.000127521809, 0.01314554  , -0.0005123381, -0.009475863, 0.01842317  , 1.79351783  , 917.4344    , 26.0783043  , 830.0612    , 2.59        , 7           , 255         , 0           , 0
-0.116508462, 0.09668991  , -9.844508   , 0.000245725736, 0.0130636152, -0.00033093628, -0.009473489, 0.01855376  , 1.7935133   , 917.4344    , 26.0783043  , 830.062     , 2.6         , 7           , 255         , 0           , 0
-0.11494384 , 0.08756295  , -9.848233   , -6.324216E-05, 0.0125322687, 0.000218530186, -0.009474021, 0.0184671469, 1.79351437  , 917.4344    , 26.0783043  , 830.077332  , 2.61        , 7           , 255         , 0           , 0
-0.113770366, 0.08599833  , -9.848625   , 0.000287272967, 0.0131519586, 0.0002992833, -0.009471116, 0.0185986888, 1.79351616  , 917.4344    , 26.0783043  , 830.0782    , 2.62        , 7           , 255         , 0           , 0
-0.12697652 , 0.0951439142, -9.850822   , 0.000779983355, 0.013208136 , 0.0002612474, -0.009463292, 0.0187307857, 1.79351735  , 917.4409    , 26.0804081  , 830.079041  , 2.63        , 7           , 255         , 0           , 0
-0.117719173, 0.09011477  , -9.856298   , 0.0002568441, 0.012686166 , -0.000294661615, -0.009460798, 0.0188576058, 1.7935133   , 917.4409    , 26.0804081  , 830.079956  , 2.64        , 7           , 255         , 0           , 0
-0.110808752, 0.09665266  , -9.850097   , -0.000571167562, 0.0128365541, 0.0003279564, -0.009466471, 0.01898599  , 1.79351521  , 917.4409    , 26.0804081  , 830.0809    , 2.65        , 7           , 255         , 0           , 0
-0.118073083, 0.0977702439, -9.853877   , -9.5426105E-05, 0.0128043713, 0.000286994735, -0.009467394, 0.0191140547, 1.79351687  , 917.4409    , 26.0804081  , 830.0818    , 2.66        , 7           , 255         , 0           , 0
-0.124573708, 0.08722767  , -9.851139   , -4.744297E-05, 0.01273415  , 7.869909E-06, -0.009467889, 0.0192413833, 1.79351568  , 917.4409    , 26.0804081  , 830.0827    , 2.67        , 7           , 255         , 0           , 0
-0.12550503 , 0.083372    , -9.850133   , -1.05774961E-05, 0.0126943588, 0.000466056168, -0.009467927, 0.0193683617, 1.79351914  , 917.4409    , 26.0804081  , 830.0836    , 2.68        , 7           , 255         , 0           , 0
-0.116918229, 0.08303672  , -9.848997   , 0.00041893567, 0.012430449 , -0.0002379003, -0.0094638085, 0.0194926355, 1.79351556  , 917.4409    , 26.0804081  , 830.084534  , 2.69        , 7           , 255         , 0           , 0
-0.124778606, 0.101067126 , -9.850059   , -0.000412001973, 0.0129407151, 0.0003665774, -0.009467877, 0.0196220633, 1.793518    , 917.4409    , 26.0804081  , 830.085449  , 2.7         , 7           , 255         , 0           , 0
-0.115185976, 0.09318814  , -9.841975   , 0.0002521677, 0.012939509 , -0.000291156583, -0.009463767, 0.0195419565, 1.79351389  , 917.4409    , 26.0804081  , 830.088867  , 2.71        , 7           , 255         , 0           , 0
-0.118445612, 0.0859051943, -9.842738   , 0.00041952543, 0.0126832062, 3.59518453E-05, -0.009459585, 0.0196687821, 1.79351318  , 917.4409    , 26.0804081  , 830.089844  , 2.72        , 7           , 255         , 0           , 0
-0.111535192, 0.0990182161, -9.8457365  , 0.000399629585, 0.0127499159, 0.000291669974, -0.009455554, 0.019796297 , 1.793515    , 917.4505    , 26.0824432  , 830.0908    , 2.73        , 7           , 255         , 0           , 0
-0.11254102 , 0.09363517  , -9.848737   , 0.000277915038, 0.012796144 , 0.0002126724, -0.009452754, 0.01992427  , 1.79351592  , 917.4505    , 26.0824432  , 830.0918    , 2.74        , 7           , 255         , 0           , 0
-0.115726136, 0.0885874   , -9.851642   , 5.227048E-06, 0.012939509 , 0.000416310737, -0.009452642, 0.020053694 , 1.79351878  , 917.4505    , 26.0824432  , 830.0928    , 2.75        , 7           , 255         , 0           , 0
-0.124666832, 0.101644538 , -9.849146   , -0.000246979762, 0.0132285813, 2.5418587E-05, -0.009455131, 0.0201859754, 1.79351783  , 917.4505    , 26.0824432  , 830.09375   , 2.76        , 7           , 255         , 0           , 0
-0.1247041  , 0.0943988562, -9.844303   , -0.0009778538, 0.0127715655, -0.0005357566, -0.009465041, 0.020313628 , 1.79351127  , 917.4505    , 26.0824432  , 830.0947    , 2.77        , 7           , 255         , 0           , 0
-0.123213984, 0.0877864659, -9.845831   , 0.0003674454, 0.0128897689, -5.767471E-05, -0.009461403, 0.0204425082, 1.79350948  , 917.4505    , 26.0824432  , 830.0957    , 2.78        , 7           , 255         , 0           , 0
-0.120159246, 0.09575859  , -9.862223   , 0.000190725084, 0.0123514161, 0.000269433483, -0.009459465, 0.02056604  , 1.79351115  , 917.4505    , 26.0824432  , 830.096741  , 2.79        , 7           , 255         , 0           , 0
-0.115204595, 0.10356307  , -9.859261   , -0.00010536937, 0.0120009007, 0.000399340643, -0.009460459, 0.02068608  , 1.793514    , 917.4505    , 26.0824432  , 830.0978    , 2.8         , 7           , 255         , 0           , 0
-0.115707517, 0.09316951  , -9.856932   , 0.0005599633, 0.01245958  , 0.0004215706, -0.009455664, 0.0205911938, 1.793517    , 917.4505    , 26.0824432  , 830.08606   , 2.81        , 7           , 255         , 0           , 0
-0.114887953, 0.0863336   , -9.857248   , 0.00043649273, 0.0128551535, -5.24146E-05, -0.009451336, 0.020719735 , 1.79351544  , 917.4505    , 26.0824432  , 830.087036  , 2.82        , 7           , 255         , 0           , 0
-0.122655176, 0.08050352  , -9.83556652 , 0.000151516171, 0.0130242668, 0.0007644787, -0.009449688, 0.02085004  , 1.79352176  , 917.442749  , 26.0830536  , 830.088     , 2.83        , 7           , 255         , 0           , 0
-0.1247041  , 0.0835955143, -9.841043   , -0.000276826322, 0.0135971447, 0.0005479669, -0.009452367, 0.0209860522, 1.79352593  , 917.442749  , 26.0830536  , 830.089     , 2.84        , 7           , 255         , 0           , 0
-0.121314071, 0.09475276  , -9.844694   , -0.000275071, 0.0131963063, 0.0002395839, -0.009455092, 0.0211180281, 1.79352713  , 917.442749  , 26.0830536  , 830.089966  , 2.85        , 7           , 255         , 0           , 0
-0.122208141, 0.103972852 , -9.852145   , 2.45347619E-05, 0.0135520883, -0.0006042273, -0.009455001, 0.02125348  , 1.79351974  , 917.442749  , 26.0830536  , 830.090942  , 2.86        , 7           , 255         , 0           , 0
-0.125672668, 0.0900961459, -9.849909   , -4.5100227E-05, 0.0132782282, -0.000917876954, -0.009455672, 0.0213861633, 1.79350924  , 917.442749  , 26.0830536  , 830.0919    , 2.87        , 7           , 255         , 0           , 0
-0.1275912  , 0.08346513  , -9.846873   , 7.83700962E-05, 0.0129400017, -0.000285311136, -0.009454976, 0.0215155259, 1.79350507  , 917.442749  , 26.0830536  , 830.0929    , 2.88        , 7           , 255         , 0           , 0
-0.121109188, 0.09609386  , -9.849593   , -0.000364016276, 0.01296926  , 0.000231391517, -0.009458591, 0.0216452237, 1.79350615  , 917.442749  , 26.0830536  , 830.0939    , 2.89        , 7           , 255         , 0           , 0
-0.121667981, 0.09870157  , -9.847787   , 0.000299563166, 0.0127030089, -0.000174714485, -0.0094556585, 0.0217722338, 1.79350328  , 917.442749  , 26.0830536  , 830.094849  , 2.9         , 7           , 255         , 0           , 0
-0.1097098  , 0.09262934  , -9.855591   , -2.11033039E-05, 0.0126156649, 0.000228458783, -0.00945441 , 0.02166732  , 1.79350436  , 917.442749  , 26.0830536  , 830.094543  , 2.91        , 7           , 255         , 0           , 0
-0.112093985, 0.0993348658, -9.85572052 , -2.40292866E-05, 0.0125770429, 7.338938E-05, -0.009454658, 0.0217930879, 1.793504    , 917.442749  , 26.0830536  , 830.0955    , 2.92        , 7           , 255         , 0           , 0
-0.117290758, 0.0981614   , -9.863897   , -1.46664679E-05, 0.0132517414, 0.0006123283, -0.009454699, 0.0219256543, 1.79350877  , 917.445557  , 26.0840721  , 830.096558  , 2.93        , 7           , 255         , 0           , 0
-0.109598041, 0.0837259   , -9.860639   , 2.74654012E-05, 0.0128953746, 0.000276442617, -0.009454391, 0.0220546238, 1.79351032  , 917.445557  , 26.0840721  , 830.0976    , 2.94        , 7           , 255         , 0           , 0
-0.11404977 , 0.08536503  , -9.854734   , -2.344395E-05, 0.0129755428, -8.811685E-05, -0.00945467 , 0.0221843589, 1.79350817  , 917.445557  , 26.0840721  , 830.098633  , 2.95        , 7           , 255         , 0           , 0
-0.1193583  , 0.09091571  , -9.850729   , 0.000208282145, 0.0121990247, 0.0008305956, -0.00945243053, 0.0223064162, 1.79351532  , 917.445557  , 26.0840721  , 830.0997    , 2.96        , 7           , 255         , 0           , 0
-0.11049211 , 0.08629635  , -9.851456   , 2.98060477E-05, 0.0123119624, 0.000104988227, -0.009452133, 0.02242954  , 1.79351509  , 917.445557  , 26.0840721  , 830.1007    , 2.97        , 7           , 255         , 0           , 0
-0.1092814  , 0.08765608  , -9.849854   , 0.000270894961, 0.0126794474, -0.0002507933, -0.009449508, 0.0225563031, 1.79351151  , 917.445557  , 26.0840721  , 830.101746  , 2.98        , 7           , 255         , 0           , 0
-0.127255917, 0.09873882  , -9.848717   , 0.00143245212, 0.0125700207, 0.0005596634, -0.009435084, 0.0226820447, 1.793516    , 917.445557  , 26.0840721  , 830.1028    , 2.99        , 7           , 255         , 0           , 0
-0.120997429, 0.0915676355, -9.848233   , -0.000171491178, 0.01323126  , 0.00122324307, -0.00943655 , 0.0228144713, 1.793527    , 917.445557  , 26.0840721  , 830.1038    , 3           , 7           , 0           , 8.437237    , 300
-0.115446746, 0.0849925   , -9.848978   , 4.38538846E-05, 0.0123481136, 0.0001582317, -0.009434991, 0.0227232669, 1.79352736  , 917.445557  , 26.0840721  , 830.098145  , 3.01        , 7           , 1           , 0           , 0
-0.124555089, 0.08799136  , -9.848215   , 0.000198337948, 0.0129514206, 0.000638654 , -0.009432889, 0.02285283  , 1.79353261  , 917.445557  , 26.0840721  , 830.0992    , 3.02        , 7           , 2           , 0           , 0
-0.117495656, 0.0862591   , -9.849501   , -0.000245803734, 0.01314511  , 0.00070477766, -0.009435214, 0.02298434  , 1.79353833  , 917.4469    , 26.084343   , 830.1002    , 3.03        , 7           , 3           , 0           , 0
-0.120233752, 0.08970499  , -9.842552   , -0.0005857863, 0.0133756669, -0.000494814944, -0.009441216, 0.0231180415, 1.79353237  , 917.4469    , 26.084343   , 830.101257  , 3.04        , 7           , 4           , 0           , 0
-0.124536455, 0.0984407961, -9.849091   , -0.000274477061, 0.01289466  , -0.000645788154, -0.009444139, 0.0232469216, 1.7935245   , 917.4469    , 26.084343   , 830.1023    , 3.05        , 7           , 5           , 0           , 0
-0.118650496, 0.09531155  , -9.852945   , 0.0005886443, 0.0123890759, -0.000203986885, -0.009438325, 0.0233707838, 1.7935214   , 917.4469    , 26.084343   , 830.103333  , 3.06        , 7           , 6           , 0           , 0
-0.119861223, 0.09149313  , -9.847171   , 0.0009169234, 0.0125265894, 6.75306655E-05, -0.009429168, 0.0234960411, 1.79352093  , 917.4469    , 26.084343   , 830.1044    , 3.07        , 7           , 7           , 0           , 0
-0.12079253 , 0.09363517  , -9.848903   , -0.0004599751, 0.012524249 , 0.000202704454, -0.009433747, 0.0236212984, 1.79352176  , 917.4469    , 26.084343   , 830.105469  , 3.08        , 7           , 8           , 5           , 5
-0.116638839, 0.09313226  , -9.847208   , -0.000407310436, 0.0126436232, -0.0003596414, -0.009437936, 0.0237476919, 1.79351687  , 917.4469    , 26.084343   , 830.106567  , 3.09        , 7           , 9           , 5           , 0.1
-0.104270875, 0.0989250839, -9.848886   , -3.10475E-05, 0.0125921275, -7.173908E-05, -0.009438292, 0.0238735955, 1.79351485  , 917.4469    , 26.084343   , 830.107666  , 3.1         , 7           , 10          , 0.1         , 0.1
-0.110752881, 0.08566305  , -9.85376549 , 0.000138653209, 0.0125497542, 9.006355E-06, -0.009436225, 0.0237590633, 1.79351389  , 917.4469    , 26.084343   , 830.099731  , 3.11        , 7           , 11          , 0.009846602 , 0.00984653551
-0.115521252, 0.0914186239, -9.852945   , 0.000724405749, 0.0123900035, -1.26450323E-05, -0.009429012, 0.0238829516, 1.79351258  , 917.4469    , 26.084343   , 830.100769  , 3.12        , 7           , 12          , 0.03465699  , 0
-0.122766949, 0.0863336   , -9.843466   , 0.000102373073, 0.0126293367, -0.000144307269, -0.009428053, 0.02400922  , 1.79351     , 917.454956  , 26.086853   , 830.1018    , 3.13        , 7           , 13          , 0           , 0
-0.117439769, 0.09346753  , -9.84244    , -0.00023760926, 0.0131144393, -5.53620048E-05, -0.009430471, 0.0241403524, 1.79350817  , 917.454956  , 26.086853   , 830.102844  , 3.14        , 7           , 14          , 0.00351747149, 9.1056645E-06
-0.114068389, 0.08687377  , -9.847339   , -8.019898E-05, 0.0130471447, 1.01765618E-05, -0.009431299, 0.024270812 , 1.7935071   , 917.454956  , 26.086853   , 830.1039    , 3.15        , 7           , 15          , 0           , 0.002161379
-0.117439769, 0.0828132   , -9.85587    , 0.000104128383, 0.0128318043, -0.000459127477, -0.009430399, 0.02439908  , 1.79350126  , 917.454956  , 26.086853   , 830.1049    , 3.16        , 7           , 16          , 0           , 4.203895E-45
-0.112783171, 0.08754432  , -9.848364   , 0.000456983922, 0.01241341  , -0.000180587871, -0.009425904, 0.0245231874, 1.79349828  , 917.454956  , 26.086853   , 830.106     , 3.17        , 7           , 20          , 0           , 0
-0.123586513, 0.0891089439, -9.844843   , 6.60927E-05 , 0.0127890874, -0.000110367779, -0.009425297, 0.0246510543, 1.793496    , 917.454956  , 26.086853   , 830.1071    , 3.18        , 7           , 21          , 0           , 0
-0.116638839, 0.09261072  , -9.84124851 , -0.000610946, 0.0128364852, 9.092945E-05, -0.009431415, 0.0247794166, 1.79349566  , 917.454956  , 26.086853   , 830.1082    , 3.19        , 7           , 22          , 0           , 0
-0.112466514, 0.08735806  , -9.841658   , -0.000228246441, 0.0128505295, 0.0003320186, -0.009433645, 0.0249079466, 1.79349768  , 917.454956  , 26.086853   , 830.1093    , 3.2         , 7           , 40          , 0           , 0
-0.114198782, 0.09421259  , -9.854101   , 5.32302074E-05, 0.0131726535, -5.94665762E-05, -0.009429968, 0.0247911345, 1.79349589  , 917.454956  , 26.086853   , 830.0895    , 3.21        , 7           , 41          , 0           , 0
-0.118538737, 0.08948147  , -9.850897   , -0.0008309572, 0.0129099134, -0.000521163456, -0.009438438, 0.0249201749, 1.79348946  , 917.454956  , 26.086853   , 830.090454  , 3.22        , 7           , 42          , 1           , 0
-0.122133635, 0.08231029  , -9.857547   , -5.50255645E-05, 0.0131012639, -0.000181181356, -0.009439064, 0.0250511579, 1.79348636  , 917.4618    , 26.0886841  , 830.091431  , 3.23        , 7           , 255         , 0           , 0
-0.12177974 , 0.0840611756, -9.862874   , 0.000554719 , 0.0128865065, -0.000457965536, -0.009433663, 0.0251799673, 1.7934804   , 917.4618    , 26.0886841  , 830.0924    , 3.24        , 7           , 255         , 0           , 0
-0.108405948, 0.08990988  , -9.852312   , 0.0004441226, 0.0129046459, 0.000352491159, -0.009429163, 0.0253090356, 1.79348278  , 917.4618    , 26.0886841  , 830.0934    , 3.25        , 7           , 255         , 0           , 0
-0.117681921, 0.08279458  , -9.848084   , -0.0006132752, 0.0134336371, -7.972121E-06, -0.009435331, 0.02544336  , 1.79348147  , 917.4618    , 26.0886841  , 830.09436   , 3.26        , 7           , 255         , 0           , 0
-0.122208141, 0.07869676  , -9.84935    , -0.0006255633, 0.0128707066, -0.00024028332, -0.00944167748, 0.0255720355, 1.79347789  , 917.4618    , 26.0886841  , 830.0954    , 3.27        , 7           , 255         , 0           , 0
-0.114310525, 0.078342855 , -9.83974    , -0.000321861822, 0.0123510789, 0.000102039659, -0.0094449  , 0.0256955437, 1.79347765  , 917.4618    , 26.0886841  , 830.096436  , 3.28        , 7           , 255         , 0           , 0
-0.123959042, 0.07102266  , -9.844229   , -2.8107781E-05, 0.0128203826, -0.000368435169, -0.009445307, 0.0258237068, 1.79347289  , 917.4618    , 26.0886841  , 830.0975    , 3.29        , 7           , 255         , 0           , 0
-0.126510859, 0.06657094  , -9.842441   , -0.0004681535, 0.0127688888, 0.000302751781, -0.009449941, 0.0259514134, 1.79347479  , 917.4618    , 26.0886841  , 830.0985    , 3.3         , 7           , 255         , 0           , 0
-0.122543432, 0.07769093  , -9.847172   , -0.000685223145, 0.0130687542, 0.000322639 , -0.009449292, 0.0258367043, 1.793477    , 917.4618    , 26.0886841  , 830.0706    , 3.31        , 7           , 255         , 0           , 0
-0.124312937, 0.07675961  , -9.857267   , 0.000201890711, 0.0132255806, 0.0005005298, -0.009447171, 0.0259689968, 1.79348087  , 917.4618    , 26.0886841  , 830.0715    , 3.32        , 7           , 255         , 0           , 0
-0.1263246  , 0.08651987  , -9.861291   , -1.93028245E-05, 0.0129487971, 0.000313276425, -0.009447318, 0.026098514 , 1.79348278  , 917.4591    , 26.0877342  , 830.0723    , 3.33        , 7           , 255         , 0           , 0
-0.121425845, 0.09069219  , -9.860359   , 0.000465215882, 0.01266382  , 0.000385837164, -0.009442596, 0.0262251757, 1.7934854   , 917.4591    , 26.0877342  , 830.0732    , 3.34        , 7           , 255         , 0           , 0
-0.117514275, 0.08769333  , -9.851288   , 4.389556E-05, 0.0131459981, -6.18156046E-05, -0.009442206, 0.026356617 , 1.7934835   , 917.4591    , 26.0877342  , 830.074036  , 3.35        , 7           , 255         , 0           , 0
-0.113751747, 0.09326264  , -9.84124851 , 0.00048394152, 0.0131617971, 0.000117245596, -0.009437367, 0.0264882352, 1.7934835   , 917.4591    , 26.0877342  , 830.0749    , 3.36        , 7           , 255         , 0           , 0
-0.1237914  , 0.0977702439, -9.845421   , 6.55467156E-05, 0.0126351472, 0.00107808993, -0.009436453, 0.0266146772, 1.793493    , 917.4591    , 26.0877342  , 830.0758    , 3.37        , 7           , 255         , 0           , 0
-0.134911388, 0.104606152 , -9.84598    , -4.03688755E-05, 0.0127878748, 0.000346045475, -0.009436796, 0.0267425776, 1.79349542  , 917.4591    , 26.0877342  , 830.0767    , 3.38        , 7           , 255         , 0           , 0
-0.126548111, 0.107698143 , -9.858179   , -0.000162668759, 0.0130997682, -0.000286519877, -0.009438533, 0.0268735383, 1.79349124  , 917.4591    , 26.0877342  , 830.077637  , 3.39        , 7           , 255         , 0           , 0
-0.121407211, 0.116433956 , -9.859316   , -0.000139262062, 0.0132565945, 0.000192732085, -0.009439907, 0.027006112 , 1.79349184  , 917.4591    , 26.0877342  , 830.078552  , 3.4         , 7           , 255         , 0           , 0
-0.118110321, 0.116825104 , -9.85434151 , 0.0002106661, 0.012951958 , -0.000240300549, -0.00943846 , 0.026891334 , 1.79348814  , 917.4591    , 26.0877342  , 830.057251  , 3.41        , 7           , 255         , 0           , 0
-0.123847269, 0.119414188 , -9.847973   , -6.143679E-05, 0.0128033264, -0.000221575145, -0.009439168, 0.0270193368, 1.79348469  , 917.4591    , 26.0877342  , 830.058044  , 3.42        , 7           , 255         , 0           , 0
-0.122189522, 0.1180917   , -9.855572   , -0.000534252031, 0.0127910376, -0.00010454189, -0.009444569, 0.027147226 , 1.79348242  , 917.455261  , 26.0907879  , 830.058838  , 3.43        , 7           , 255         , 0           , 0
-0.127255917, 0.124145307 , -9.85032    , -0.0001948548, 0.0127553428, -0.0005211807, -0.009446693, 0.02727472  , 1.793476    , 917.455261  , 26.0907879  , 830.059631  , 3.44        , 7           , 255         , 0           , 0
-0.127647072, 0.108610846 , -9.849648   , -0.000135753071, 0.0130923986, -0.000109808287, -0.009448116, 0.0274056252, 1.7934736   , 917.455261  , 26.0907879  , 830.0604    , 3.45        , 7           , 255         , 0           , 0
-0.123959042, 0.107493259 , -9.84991    , -0.000486268429, 0.0128126889, -0.0001946576, -0.009453063, 0.0275337212, 1.79347038  , 917.455261  , 26.0907879  , 830.0612    , 3.46        , 7           , 255         , 0           , 0
-0.127293169, 0.108797096 , -9.848421   , -0.000863115769, 0.0128905158, 0.000231344253, -0.009461662, 0.0276626386, 1.79347146  , 917.455261  , 26.0907879  , 830.062     , 3.47        , 7           , 255         , 0           , 0
-0.118613243, 0.0950880349, -9.85631752 , -0.000304866349, 0.0130116446, 0.000209108 , -0.009464686, 0.0277927648, 1.79347217  , 917.455261  , 26.0907879  , 830.062866  , 3.48        , 7           , 255         , 0           , 0
-0.112112619, 0.09698793  , -9.848942   , -0.000445891637, 0.0129923355, 0.000300979242, -0.009469094, 0.0279227067, 1.79347408  , 917.455261  , 26.0907879  , 830.0637    , 3.49        , 7           , 255         , 0           , 0
-0.121202327, 0.09573996  , -9.845831   , -0.0004429659, 0.0130268587, -0.000269558979, -0.009473631, 0.02805294  , 1.79347014  , 917.455261  , 26.0907879  , 830.0646    , 3.5         , 7           , 255         , 0           , 0
-0.121127822, 0.09674579  , -9.8404665  , -4.567858E-05, 0.0125161717, -0.00064934243, -0.009484767, 0.0279227067, 1.793462    , 917.455261  , 26.0907879  , 830.050659  , 3.51        , 7           , 255         , 0           , 0
-0.122059129, 0.08774921  , -9.850021   , -0.000403215876, 0.013191455 , -0.000175356865, -0.009488881, 0.0280545969, 1.79345918  , 917.455261  , 26.0907879  , 830.0514    , 3.52        , 7           , 255         , 0           , 0
-0.113323331, 0.08614734  , -9.850375   , -8.429983E-05, 0.0131440563, 0.000250059646, -0.009489687, 0.0281860474, 1.79346037  , 917.434937  , 26.0907879  , 830.0522    , 3.53        , 7           , 255         , 0           , 0
-0.110548   , 0.09695068  , -9.85259151 , 0.00086191576, 0.0129766976, 0.000131855952, -0.009481064, 0.0283158142, 1.79346061  , 917.434937  , 26.0907879  , 830.053     , 3.54        , 7           , 255         , 0           , 0
-0.1254119  , 0.09518117  , -9.84909    , -0.0001638825, 0.0131569309, -0.0002005191, -0.009482794, 0.0284473523, 1.79345727  , 917.434937  , 26.0907879  , 830.0538    , 3.55        , 7           , 255         , 0           , 0
-0.124666832, 0.09320676  , -9.841677   , 0.00028201472, 0.01293164  , -0.000296486542, -0.009480092, 0.0285766348, 1.79345322  , 917.434937  , 26.0907879  , 830.054565  , 3.56        , 7           , 255         , 0           , 0
-0.123251222, 0.104289509 , -9.847264   , -3.982731E-05, 0.0126408124, 0.000457208836, -0.009480393, 0.0287030749, 1.79345655  , 917.434937  , 26.0907879  , 830.055359  , 3.57        , 7           , 255         , 0           , 0
-0.12399628 , 0.0979192555, -9.850971   , 4.06033359E-06, 0.01298255  , 0.000307405833, -0.0094802985, 0.028832918 , 1.79345846  , 917.434937  , 26.0907879  , 830.056152  , 3.58        , 7           , 255         , 0           , 0
-0.12036413 , 0.09169802  , -9.849277   , -0.000267456984, 0.0134618022, -0.000569759752, -0.009483174, 0.02896747  , 1.79345155  , 917.434937  , 26.0907879  , 830.056946  , 3.59        , 7           , 255         , 0           , 0
-0.120922923, 0.09946525  , -9.850729   , 0.0002738228, 0.0130036166, -3.7842663E-05, -0.009480482, 0.0290974919, 1.79345     , 917.434937  , 26.0907879  , 830.057739  , 3.6         , 7           , 255         , 0           , 0
-0.119395554, 0.09972602  , -9.851977   , 7.95424E-05 , 0.0130815143, 0.0002547307, -0.00948069 , 0.0289589763, 1.79345131  , 917.434937  , 26.0907879  , 830.0741    , 3.61        , 7           , 255         , 0           , 0
-0.127349049, 0.101178885 , -9.84814    , 4.96990979E-05, 0.0128474487, 0.0003430911, -0.009480128, 0.0290874727, 1.79345369  , 917.434937  , 26.0907879  , 830.075     , 3.62        , 7           , 255         , 0           , 0
-0.128410757, 0.09663403  , -9.851176   , -0.0002580993, 0.0128298933, 4.99219168E-05, -0.009482731, 0.0292157661, 1.79345274  , 917.476746  , 26.0892944  , 830.0759    , 3.63        , 7           , 255         , 0           , 0
-0.126585364, 0.09747222  , -9.85792    , -0.0003634293, 0.0135830045, 3.061164E-05, -0.009486397, 0.02935159  , 1.79345167  , 917.476746  , 26.0892944  , 830.076843  , 3.64        , 7           , 255         , 0           , 0
-0.115912415, 0.09201467  , -9.851438   , 0.000233441126, 0.01361987  , 5.63589856E-05, -0.009484085, 0.0294877831, 1.793451    , 917.476746  , 26.0892944  , 830.077759  , 3.65        , 7           , 255         , 0           , 0
-0.1144223  , 0.0858493149, -9.85168    , 9.417161E-05, 0.0132073266, 0.000922991661, -0.009482911, 0.029619934 , 1.79345894  , 917.476746  , 26.0892944  , 830.078735  , 3.66        , 7           , 255         , 0           , 0
-0.116135933, 0.08685514  , -9.847357   , -9.249663E-05, 0.0128263831, 0.000236590626, -0.009483799, 0.02974821  , 1.79346013  , 917.476746  , 26.0892944  , 830.0797    , 3.67        , 7           , 255         , 0           , 0
-0.112894915, 0.09184703  , -9.846539   , 0.000123430043, 0.0132131781, 0.000222546514, -0.009482536, 0.0298803523, 1.79346108  , 917.476746  , 26.0892944  , 830.0807    , 3.68        , 7           , 255         , 0           , 0
-0.108145177, 0.08493662  , -9.853989   , -7.377146E-05, 0.0135168806, 0.000111949863, -0.00948328152, 0.03001552  , 1.79346085  , 917.476746  , 26.0892944  , 830.081665  , 3.69        , 7           , 255         , 0           , 0
-0.117234886, 0.07417053  , -9.852163   , -0.000469344435, 0.01320089  , 4.34853137E-05, -0.009487998, 0.0301475227, 1.79346     , 917.476746  , 26.0892944  , 830.082642  , 3.7         , 7           , 255         , 0           , 0
-0.114645816, 0.07033348  , -9.852312   , 8.715573E-05, 0.0128533673, 0.0007924889, -0.009485406, 0.0300137922, 1.79346681  , 917.476746  , 26.0892944  , 830.035767  , 3.71        , 7           , 255         , 0           , 0
-0.1157634  , 0.0602938235, -9.854586   , -0.0001989908, 0.013433855 , 0.0006110871, -0.009487247, 0.0301481821, 1.79347157  , 917.476746  , 26.0892944  , 830.036438  , 3.72        , 7           , 255         , 0           , 0
-0.116527081, 0.0547245145, -9.849687   , 0.000100614736, 0.0132050542, 0.000188596314, -0.009486223, 0.030280238 , 1.79347217  , 917.46106   , 26.089159   , 830.0371    , 3.73        , 7           , 255         , 0           , 0
-0.121053316, 0.06482005  , -9.850226   , 0.000193070853, 0.0127948523, 0.0008767529, -0.009484062, 0.03040826  , 1.79347968  , 917.46106   , 26.089159   , 830.0378    , 3.74        , 7           , 255         , 0           , 0
-0.11164695 , 0.06735325  , -9.846315   , -0.000437739072, 0.013124886 , 0.0009276625, -0.009488194, 0.0305395853, 1.79348767  , 917.46106   , 26.089159   , 830.0385    , 3.75        , 7           , 255         , 0           , 0
-0.117551543, 0.07400289  , -9.849816   , -0.000269796466, 0.0128451763, 0.0006982768, -0.009490716, 0.0306680929, 1.79349351  , 917.46106   , 26.089159   , 830.039246  , 3.76        , 7           , 255         , 0           , 0
-0.114534043, 0.0872463   , -9.851976   , -0.000294373138, 0.0126427077, 0.000851005549, -0.009493432, 0.03079459  , 1.79350066  , 917.46106   , 26.089159   , 830.04      , 3.77        , 7           , 255         , 0           , 0
-0.114608549, 0.09318814  , -9.85045052 , 0.000241640257, 0.0130271623, -0.000111009227, -0.009491087, 0.0309248324, 1.7934984   , 917.46106   , 26.089159   , 830.0407    , 3.78        , 7           , 255         , 0           , 0
-0.115837909, 0.09100884  , -9.85318851 , 0.000657108845, 0.0131588243, 0.0005332597, -0.009484389, 0.0310564656, 1.79350257  , 917.46106   , 26.089159   , 830.041443  , 3.79        , 7           , 255         , 0           , 0
-0.125281513, 0.08855015  , -9.853337   , -0.00014164485, 0.0130534954, 0.0003401544, -0.009485737, 0.031187024 , 1.79350471  , 917.46106   , 26.089159   , 830.0422    , 3.8         , 7           , 255         , 0           , 0
-0.121816993, 0.100433826 , -9.849239   , -7.664063E-05, 0.0124560548, 0.00114474888, -0.00947446749, 0.0310446136, 1.79351521  , 917.46106   , 26.089159   , 830.0232    , 3.81        , 7           , 255         , 0           , 0
-0.116843723, 0.101327896 , -9.847918   , 6.32146839E-05, 0.0128990253, 0.000928237336, -0.009473583, 0.0311736818, 1.79352331  , 917.46106   , 26.089159   , 830.0238    , 3.82        , 7           , 255         , 0           , 0
-0.123921774, 0.09801239  , -9.847078   , 0.0003838865, 0.0131875128, 3.76123935E-05, -0.009469768, 0.03130555  , 1.79352248  , 917.4707    , 26.0907879  , 830.0244    , 3.83        , 7           , 255         , 0           , 0
-0.117551543, 0.09968877  , -9.849146   , 0.0004494246, 0.0128931748, 9.78848E-05 , -0.009465284, 0.0314344876, 1.79352212  , 917.4707    , 26.0907879  , 830.0251    , 3.84        , 7           , 255         , 0           , 0
-0.114627182, 0.103358172 , -9.850674   , 0.000344680157, 0.0127925249, 6.335997E-05, -0.009461854, 0.0315624066, 1.79352164  , 917.4707    , 26.0907879  , 830.025757  , 3.85        , 7           , 255         , 0           , 0
-0.113230206, 0.105164945 , -9.850134   , -0.000230539357, 0.0128001319, 0.000501650153, -0.009464036, 0.03169044  , 1.79352546  , 917.4707    , 26.0907879  , 830.0264    , 3.86        , 7           , 255         , 0           , 0
-0.118166208, 0.109057881 , -9.858088   , 0.000422507059, 0.0132425195, -0.0006868243, -0.009460069, 0.0318227932, 1.79351735  , 917.4707    , 26.0907879  , 830.0271    , 3.87        , 7           , 255         , 0           , 0
-0.11725352 , 0.102669    , -9.846949   , 0.000136945629, 0.0126871942, -0.000252630329, -0.009458817, 0.03194963  , 1.79351366  , 917.4707    , 26.0907879  , 830.0278    , 3.88        , 7           , 255         , 0           , 0
-0.118929885, 0.112149857 , -9.851492   , -0.000372149982, 0.0123267323, 3.234623E-05, -0.009462569, 0.03207289  , 1.7935127   , 917.4707    , 26.0907879  , 830.028442  , 3.89        , 7           , 255         , 0           , 0
-0.119954348, 0.108834364 , -9.84801    , -0.000483331736, 0.0125292009, -3.67036555E-05, -0.009467449, 0.0321981646, 1.79351115  , 917.4707    , 26.0907879  , 830.0291    , 3.9         , 7           , 255         , 0           , 0
-0.127628446, 0.110529363 , -9.847637   , -0.00028557633, 0.0132196341, -0.000140290242, -0.009477408, 0.0320533551, 1.79350829  , 917.4707    , 26.0907879  , 829.9983    , 3.91        , 7           , 255         , 0           , 0
-0.126622617, 0.116974115 , -9.84398651 , -0.0001978015, 0.013104355 , 0.000347739318, -0.009479316, 0.0321844257, 1.79351056  , 917.4707    , 26.0907879  , 829.9988    , 3.92        , 7           , 255         , 0           , 0
-0.114440918, 0.1101382   , -9.851307   , 0.000430668239, 0.0129352417, 0.0009089147, -0.009474754, 0.0323138535, 1.7935183   , 917.440063  , 26.0930271  , 829.999268  , 3.93        , 7           , 255         , 0           , 0
-0.120177865, 0.10188669  , -9.854137   , -0.000271532452, 0.012685962 , 0.00049227546, -0.00947735 , 0.03244075  , 1.793522    , 917.440063  , 26.0930271  , 829.999756  , 3.94        , 7           , 255         , 0           , 0
-0.123605132, 0.100545585 , -9.855516   , 0.0001380844, 0.0127450628, 0.000298585277, -0.00947591 , 0.03256822  , 1.79352379  , 917.440063  , 26.0930271  , 830.000244  , 3.95        , 7           , 255         , 0           , 0
-0.120587647, 0.09607524  , -9.859129   , 0.000308368355, 0.01292588  , 0.000465357676, -0.009472714, 0.0326975137, 1.79352725  , 917.440063  , 26.0930271  , 830.0008    , 3.96        , 7           , 255         , 0           , 0
-0.121388577, 0.09378418  , -9.847246   , 0.0007642135, 0.0129920039, 0.000464772573, -0.009464959, 0.032827463 , 1.79353058  , 917.440063  , 26.0930271  , 830.001343  , 3.97        , 7           , 255         , 0           , 0
-0.115204595, 0.09030104  , -9.85415649 , -0.000437719747, 0.012879652 , -0.0005247451, -0.009469545, 0.0329561941, 1.79352427  , 917.440063  , 26.0930271  , 830.0019    , 3.98        , 7           , 255         , 0           , 0
-0.110510729, 0.0840798   , -9.849611   , -0.000306057278, 0.0132880984, -0.000206999248, -0.009472717, 0.033089038 , 1.79352081  , 917.440063  , 26.0930271  , 830.002441  , 3.99        , 7           , 255         , 0           , 0
-0.110883258, 0.08370727  , -9.847153   , 0.000255118124, 0.0133922575, -5.48560638E-05, -0.009470227, 0.0332229547, 1.7935189   , 917.440063  , 26.0930271  , 830.003     , 4           , 7           , 0           , 9.437237    , 400
-0.126808882, 0.0901334   , -9.837094   , -0.00016036653, 0.0131071759, -0.00116727082, -0.009475702, 0.03307567  , 1.79350615  , 917.440063  , 26.0930271  , 830.0198    , 4.01        , 7           , 1           , 0           , 0
-0.120103359, 0.0906735659, -9.845625   , -0.000398529461, 0.0129620545, 0.000264048344, -0.009479639, 0.03320531  , 1.79350746  , 917.440063  , 26.0930271  , 830.020447  , 4.02        , 7           , 2           , 0           , 0
-0.118613243, 0.0852160156, -9.848848   , -0.0003376722, 0.0130328592, 0.000561898341, -0.009482871, 0.033335682 , 1.79351175  , 917.4431    , 26.0920773  , 830.0211    , 4.03        , 7           , 3           , 0           , 0
-0.126510859, 0.0828132   , -9.847023   , -0.000567642739, 0.0132505409, 0.000399221666, -0.009488456, 0.0334682129, 1.79351449  , 917.4431    , 26.0920773  , 830.0218    , 4.04        , 7           , 4           , 0           , 0
-0.11689961 , 0.0832229853, -9.85153    , 0.0001802009, 0.0133552877, -7.76893E-05, -0.009486717, 0.0336017422, 1.79351246  , 917.4431    , 26.0920773  , 830.022461  , 4.05        , 7           , 5           , 0           , 0
-0.110827386, 0.0877864659, -9.844098   , 0.00041836407, 0.01250504  , 9.25941858E-05, -0.009482544, 0.0337267928, 1.79351223  , 917.4431    , 26.0920773  , 830.023132  , 4.06        , 7           , 6           , 0           , 0
-0.126026586, 0.0817514956, -9.852331   , 0.000618490856, 0.0127806524, 0.000486411853, -0.009476233, 0.0338546336, 1.7935158   , 917.4431    , 26.0920773  , 830.0238    , 4.07        , 7           , 7           , 0           , 0
-0.121220946, 0.073798    , -9.854324   , 2.31014565E-06, 0.0128163481, -0.000419427175, -0.009476392, 0.03398274  , 1.79351044  , 917.4431    , 26.0920773  , 830.0245    , 4.08        , 7           , 8           , 5           , 5
-0.122543432, 0.0795535743, -9.854454   , -0.000170899555, 0.012693461 , -5.77934552E-05, -0.00947816 , 0.03410966  , 1.79350877  , 917.4431    , 26.0920773  , 830.0252    , 4.09        , 7           , 9           , 5           , 0.1
-0.127404928, 0.08609146  , -9.850562   , -7.78576359E-05, 0.0127613423, 0.000349482521, -0.009478858, 0.03423729  , 1.79351091  , 917.4431    , 26.0920773  , 830.02594   , 4.1         , 7           , 10          , 0.1         , 0.1
-0.109896064, 0.0852718949, -9.84557    , 0.000145704951, 0.0128143718, -0.000342197833, -0.00947146 , 0.0340703838, 1.79350662  , 917.4431    , 26.0920773  , 830.035339  , 4.11        , 7           , 11          , 0.009572229 , 0.009572138
-0.124126673, 0.08860603  , -9.85492    , -0.0003101402, 0.01315494  , 0.000426126644, -0.009474454, 0.0342019647, 1.79350972  , 917.4431    , 26.0920773  , 830.036133  , 4.12        , 7           , 12          , 0.03466934  , 0
-0.124517821, 0.09287149  , -9.850058   , 5.441904E-05, 0.0133404369, 0.0002681315, -0.009473859, 0.0343353823, 1.79351115  , 917.4353    , 26.093502   , 830.0369    , 4.13        , 7           , 13          , 0           , 0
-0.11574477 , 0.08666888  , -9.847227   , 4.09598E-05 , 0.0133059127, 0.0002675464, -0.009473398, 0.0344684534, 1.79351258  , 917.4353    , 26.093502   , 830.0377    , 4.14        , 7           , 14          , 0.003517442 , 2.010074E-05
-0.116135933, 0.0936538   , -9.850506   , -0.000340569066, 0.01280852  , 0.000350055052, -0.009476721, 0.03459656  , 1.793515    , 917.4353    , 26.093502   , 830.0385    , 4.15        , 7           , 15          , 0           , 0.00216148281
-0.112168491, 0.09961426  , -9.850952   , -0.0002996074, 0.0126347253, -0.000363849, -0.009479884, 0.03472286  , 1.7935102   , 917.4353    , 26.093502   , 830.0393    , 4.16        , 7           , 16          , 0           , 4.203895E-45
-0.115148723, 0.100433826 , -9.850431   , 0.000818061642, 0.01305195  , -0.00015084818, -0.009471796, 0.0348533541, 1.79350746  , 917.4353    , 26.093502   , 830.0401    , 4.17        , 7           , 20          , 0           , 0
-0.122152269, 0.0981800258, -9.85505    , 0.000210658414, 0.0133720366, 0.000732169254, -0.009469474, 0.0349871367, 1.79351354  , 917.4353    , 26.093502   , 830.0409    , 4.18        , 7           , 21          , 0           , 0
-0.118277967, 0.09721145  , -9.846855   , -0.0006390044, 0.0128453858, 0.00024765078, -0.009475819, 0.0351155959, 1.79351473  , 917.4353    , 26.093502   , 830.0417    , 4.19        , 7           , 22          , 0           , 0
-0.115241863, 0.104904175 , -9.850394   , -0.000548888464, 0.0129513023, -0.000329909381, -0.009481462, 0.0352450646, 1.79351032  , 917.4353    , 26.093502   , 830.042542  , 4.2         , 7           , 40          , 0           , 0
-0.116135933, 0.102426864 , -9.844936   , -0.000337062171, 0.0128000928, -0.0008647656, -0.009486069, 0.0350828543, 1.79350019  , 917.4353    , 26.093502   , 830.0604    , 4.21        , 7           , 41          , 0           , 0
-0.115931034, 0.0956095755, -9.841528   , -0.000145127065, 0.0131980078, -0.00040599436, -0.009487705, 0.0352147855, 1.79349494  , 917.4353    , 26.093502   , 830.06134   , 4.22        , 7           , 42          , 1           , 0
-0.111460686, 0.103283666 , -9.845458   , -0.0006038984, 0.0131804524, 1.47407409E-05, -0.009493785, 0.0353465825, 1.79349375  , 917.4611    , 26.09635    , 830.0623    , 4.23        , 7           , 255         , 0           , 0
-0.113472342, 0.09475276  , -9.848028   , -0.0006735334, 0.0129779847, -0.000219326, -0.009500637, 0.0354763269, 1.79349041  , 917.4611    , 26.09635    , 830.0633    , 4.24        , 7           , 255         , 0           , 0
-0.126399115, 0.09443611  , -9.849687   , -0.000372172333, 0.0132682277, 0.0006870979, -0.009504157, 0.03560906  , 1.79349613  , 917.4611    , 26.09635    , 830.0643    , 4.25        , 7           , 255         , 0           , 0
-0.113081194, 0.09484589  , -9.851885   , -3.51690687E-06, 0.0132407248, 0.000680075958, -0.009503993, 0.03574152  , 1.79350162  , 917.4611    , 26.09635    , 830.065247  , 4.26        , 7           , 255         , 0           , 0
-0.11600554 , 0.09236857  , -9.847582   , 0.000390885863, 0.0131757725, 4.7510257E-05, -0.00950011 , 0.0358732678, 1.79350078  , 917.4611    , 26.09635    , 830.0662    , 4.27        , 7           , 255         , 0           , 0
-0.121016048, 0.09806827  , -9.851399   , 2.2230437E-05, 0.0125841675, 0.000591715565, -0.009499717, 0.0359991565, 1.79350555  , 917.4611    , 26.09635    , 830.0672    , 4.28        , 7           , 255         , 0           , 0
-0.116210438, 0.09929761  , -9.855088   , 0.000116442796, 0.012605234 , 0.000124167185, -0.009498549, 0.0361252055, 1.79350567  , 917.4611    , 26.09635    , 830.0682    , 4.29        , 7           , 255         , 0           , 0
-0.116713345, 0.09285286  , -9.84924    , 8.776924E-05, 0.0129182981, -0.000363862258, -0.00949784648, 0.0362543426, 1.79350066  , 917.4611    , 26.09635    , 830.069153  , 4.3         , 7           , 255         , 0           , 0
-0.120028853, 0.0938214362, -9.84769249 , 8.249213E-05, 0.0131175118, 0.0005308441, -0.00949894451, 0.0360839367, 1.7935046   , 917.4611    , 26.09635    , 830.046631  , 4.31        , 7           , 255         , 0           , 0
-0.117905438, 0.09242445  , -9.851809   , -2.34229956E-05, 0.0123339724, 0.00100717018, -0.009498857, 0.036207363 , 1.79351354  , 917.4611    , 26.09635    , 830.0475    , 4.32        , 7           , 255         , 0           , 0
-0.115148723, 0.0984966755, -9.86144    , 0.000300173881, 0.0130595788, 0.0009275875, -0.009495561, 0.03633804  , 1.79352164  , 917.4462    , 26.0966225  , 830.04834   , 4.33        , 7           , 255         , 0           , 0
-0.113528229, 0.08421019  , -9.859858   , 0.000105313724, 0.0129899457, 0.00030321395, -0.00949444 , 0.0364679545, 1.79352343  , 917.4462    , 26.0966225  , 830.0492    , 4.34        , 7           , 255         , 0           , 0
-0.117644668, 0.09171665  , -9.854305   , 9.770668E-05, 0.01256921  , -0.000112839742, -0.009493546, 0.0365936235, 1.79352129  , 917.4462    , 26.0966225  , 830.050049  , 4.35        , 7           , 255         , 0           , 0
-0.122841455, 0.0882148743, -9.850786   , 9.931391E-06, 0.0132608768, -0.000372068956, -0.009493627, 0.0367261879, 1.79351628  , 917.4462    , 26.0966225  , 830.050964  , 4.36        , 7           , 255         , 0           , 0
-0.122413039, 0.09475276  , -9.847954   , 0.000522537855, 0.0129718035, -2.09684949E-05, -0.00948845 , 0.03685589  , 1.79351485  , 917.4462    , 26.0966225  , 830.0519    , 4.37        , 7           , 255         , 0           , 0
-0.113528229, 0.08653849  , -9.8514185  , 0.000145104947, 0.0128413122, -0.000438192859, -0.009487203, 0.03698425  , 1.79350913  , 917.4462    , 26.0966225  , 830.0528    , 4.38        , 7           , 255         , 0           , 0
-0.121500351, 0.09434298  , -9.848699   , -7.842877E-05, 0.0129349381, -6.01746142E-05, -0.009488053, 0.03711358  , 1.79350734  , 917.4462    , 26.0966225  , 830.0537    , 4.39        , 7           , 255         , 0           , 0
-0.121742487, 0.09201467  , -9.846222   , -3.27858143E-05, 0.0125452178, 0.0007631555, -0.009488142, 0.0372390971, 1.79351377  , 917.4462    , 26.0966225  , 830.0546    , 4.4         , 7           , 255         , 0           , 0
-0.112261631, 0.09447336  , -9.846017   , -0.000121725257, 0.0129948873, -0.000179563183, -0.009488316, 0.0370761752, 1.79351091  , 917.4462    , 26.0966225  , 830.0554    , 4.41        , 7           , 255         , 0           , 0
-0.11635945 , 0.08990988  , -9.851232   , -0.000461707357, 0.0126765557, -0.000626045745, -0.00949320849, 0.0372028723, 1.7935034   , 917.4462    , 26.0966225  , 830.056335  , 4.42        , 7           , 255         , 0           , 0
-0.110808752, 0.09100884  , -9.85967    , -0.000288498122, 0.0131072393, 0.0005981242, -0.009495916, 0.03733399  , 1.79350817  , 917.44574   , 26.0980473  , 830.057251  , 4.43        , 7           , 255         , 0           , 0
-0.122245409, 0.09359792  , -9.855255   , 6.43581152E-05, 0.01318097  , -0.000640674843, -0.00949556 , 0.03746573  , 1.79350054  , 917.44574   , 26.0980473  , 830.058167  , 4.44        , 7           , 255         , 0           , 0
-0.129994   , 0.09611249  , -9.845105   , 0.000440035015, 0.0130850021, -0.000211162143, -0.009491285, 0.0375965424, 1.79349709  , 917.44574   , 26.0980473  , 830.0591    , 4.45        , 7           , 255         , 0           , 0
-0.122152269, 0.08666888  , -9.850766   , -0.000394413481, 0.0129732359, 0.00103290332, -0.009494887, 0.037726365 , 1.79350626  , 917.44574   , 26.0980473  , 830.060059  , 4.46        , 7           , 255         , 0           , 0
-0.11777506 , 0.09318814  , -9.842925   , -0.0003323853, 0.01291238  , 0.000114775961, -0.009498216, 0.0378555   , 1.79350626  , 917.44574   , 26.0980473  , 830.061035  , 4.47        , 7           , 255         , 0           , 0
-0.112261631, 0.100824974 , -9.8495     , 0.0003756669, 0.0130733   , -0.0001813185, -0.009494576, 0.0379862   , 1.79350317  , 917.44574   , 26.0980473  , 830.062     , 4.48        , 7           , 255         , 0           , 0
-0.126492232, 0.09633601  , -9.848886   , -7.783761E-05, 0.0133021   , 0.000110679539, -0.009495358, 0.03811921  , 1.79350293  , 917.44574   , 26.0980473  , 830.063     , 4.49        , 7           , 255         , 0           , 0
-0.121295452, 0.08797273  , -9.853113   , -0.000257483916, 0.0132710868, 0.000148130581, -0.009497926, 0.03825193  , 1.79350317  , 917.44574   , 26.0980473  , 830.063965  , 4.5         , 7           , 255         , 0           , 0
-0.114981078, 0.09054318  , -9.854976   , -0.000418988755, 0.0126404343, 0.0003652128, -0.00950171053, 0.0380733572, 1.79350567  , 917.44574   , 26.0980473  , 830.0643    , 4.51        , 7           , 255         , 0           , 0
-0.1206249  , 0.09952113  , -9.851438   , -1.63938385E-05, 0.0123349782, 6.91181049E-05, -0.009501889, 0.0381967   , 1.79350519  , 917.44574   , 26.0980473  , 830.065247  , 4.52        , 7           , 255         , 0           , 0
-0.117365263, 0.0929832458, -9.852797   , -0.000167366816, 0.0123665771, -0.00100700452, -0.009503993, 0.03832026  , 1.793494    , 917.4493    , 26.0977745  , 830.0662    , 4.53        , 7           , 255         , 0           , 0
-0.111330293, 0.0924617052, -9.838045   , -0.000244608847, 0.012452011 , -0.0008232619, -0.009506802, 0.0384446941, 1.79348445  , 917.4493    , 26.0977745  , 830.0672    , 4.54        , 7           , 255         , 0           , 0
-0.1169555  , 0.0973418355, -9.843129   , 0.000425992766, 0.01262522  , -0.000758308335, -0.00950288 , 0.0385708623, 1.79347575  , 917.4493    , 26.0977745  , 830.0682    , 4.55        , 7           , 255         , 0           , 0
-0.118352473, 0.09290874  , -9.84732    , 5.03154E-05 , 0.0126983663, 8.845935E-06, -0.009502423, 0.0386978425, 1.79347456  , 917.4493    , 26.0977745  , 830.069153  , 4.56        , 7           , 255         , 0           , 0
-0.125262886, 0.09905547  , -9.85112    , -0.000121138524, 0.0124163162, 0.0003646277, -0.009503539, 0.0388220325, 1.793477    , 917.4493    , 26.0977745  , 830.0702    , 4.57        , 7           , 255         , 0           , 0
-0.126790255, 0.0959262252, -9.857733   , 0.000284967246, 0.0124906329, 0.0003172292, -0.0095006125, 0.03894696  , 1.79347908  , 917.4493    , 26.0977745  , 830.0712    , 4.58        , 7           , 255         , 0           , 0
-0.117849566, 0.0977702439, -9.845104   , 0.000139846 , 0.013020793 , 0.0008988851, -0.009498915, 0.03907725  , 1.79348683  , 917.4493    , 26.0977745  , 830.072266  , 4.59        , 7           , 255         , 0           , 0
-0.122468926, 0.09318814  , -9.841974   , 4.27083578E-05, 0.0128932269, -0.000540041, -0.009498747, 0.03920612  , 1.79348016  , 917.4493    , 26.0977745  , 830.0733    , 4.6         , 7           , 255         , 0           , 0
-0.120867036, 0.0937283039, -9.849127   , -0.000328878639, 0.0129073234, -0.00063017325, -0.009503327, 0.0390174054, 1.79347277  , 917.4493    , 26.0977745  , 830.067261  , 4.61        , 7           , 255         , 0           , 0
-0.112019479, 0.09721145  , -9.849612   , -7.842691E-05, 0.0129500423, 0.000221245224, -0.009504074, 0.0391469225, 1.79347372  , 917.4493    , 26.0977745  , 830.068237  , 4.62        , 7           , 255         , 0           , 0
-0.1118891  , 0.0987574458, -9.848643   , 0.0001369149, 0.0125538828, -5.49538527E-05, -0.009502773, 0.039272435 , 1.793472    , 917.449646  , 26.0979786  , 830.0692    , 4.63        , 7           , 255         , 0           , 0
-0.11600554 , 0.08828938  , -9.835902   , -0.000246954849, 0.012719485 , 0.000152780442, -0.009505231, 0.039399635 , 1.79347229  , 917.449646  , 26.0979786  , 830.0702    , 4.64        , 7           , 255         , 0           , 0
-0.110678375, 0.08998439  , -9.848252   , -0.0008087156, 0.0126281995, 7.729395E-05, -0.009513339, 0.03952592  , 1.79347181  , 917.449646  , 26.0979786  , 830.0712    , 4.65        , 7           , 255         , 0           , 0
-0.121500351, 0.09983778  , -9.852835   , -0.000355796423, 0.0132578388, -0.000415417016, -0.009517112, 0.03965845  , 1.79346645  , 917.449646  , 26.0979786  , 830.072266  , 4.66        , 7           , 255         , 0           , 0
-0.121463083, 0.09827316  , -9.850711   , 0.000471630367, 0.0129968543, -0.0009245124, -0.00951281749, 0.03978832  , 1.79345584  , 917.449646  , 26.0979786  , 830.0733    , 4.67        , 7           , 255         , 0           , 0
-0.115670264, 0.09510666  , -9.855945   , 0.0007425628, 0.0129570616, -0.0006290029, -0.009505696, 0.03991782  , 1.79344833  , 917.449646  , 26.0979786  , 830.074341  , 4.68        , 7           , 255         , 0           , 0
-0.122226775, 0.08864328  , -9.85168    , 0.000365714775, 0.01298281  , -0.00032939727, -0.00950222 , 0.0400476046, 1.7934438   , 917.449646  , 26.0979786  , 830.0754    , 4.69        , 7           , 255         , 0           , 0
-0.1276657  , 0.0845827162, -9.856205   , -0.0003593075, 0.0132198017, 0.000199008733, -0.009505785, 0.0401798151, 1.79344451  , 917.449646  , 26.0979786  , 830.0764    , 4.7         , 7           , 255         , 0           , 0
-0.119898461, 0.09642914  , -9.848774   , 9.59537E-05 , 0.0131894015, 0.0004114085, -0.009504553, 0.03999719  , 1.79344749  , 917.449646  , 26.0979786  , 830.0691    , 4.71        , 7           , 255         , 0           , 0
-0.111516573, 0.09352341  , -9.846613   , 0.0004078478, 0.0128230881, 0.00042896322, -0.009500354, 0.0401254557, 1.79345047  , 917.449646  , 26.0979786  , 830.070068  , 4.72        , 7           , 255         , 0           , 0
-0.119768083, 0.09352341  , -9.859558   , 0.000594516052, 0.0129237361, 0.000429548556, -0.009494286, 0.0402547233, 1.79345345  , 917.4618    , 26.1004887  , 830.0711    , 4.73        , 7           , 255         , 0           , 0
-0.122692443, 0.0943988562, -9.851567   , 0.000550043071, 0.0125773167, 0.000137550058, -0.009488778, 0.0403804928, 1.79345369  , 917.4618    , 26.1004887  , 830.072144  , 4.74        , 7           , 255         , 0           , 0
-0.12489035 , 0.09234995  , -9.853132   , -0.000233495375, 0.0131888175, -0.0001585444, -0.0094912285, 0.0405123644, 1.79345083  , 917.4618    , 26.1004887  , 830.0732    , 4.75        , 7           , 255         , 0           , 0
-0.12036413 , 0.09519979  , -9.850115   , -0.000465807039, 0.0128587838, 0.00063552754, -0.00949568 , 0.04064101  , 1.79345608  , 917.4618    , 26.1004887  , 830.0742    , 4.76        , 7           , 255         , 0           , 0
-0.109542154, 0.0948272645, -9.848177   , 0.000267992727, 0.0131150866, 0.000203673961, -0.009492968, 0.04077217  , 1.79345691  , 917.4618    , 26.1004887  , 830.075256  , 4.77        , 7           , 255         , 0           , 0
-0.113788985, 0.101663172 , -9.848326   , 0.000155640533, 0.0130957747, -0.0007004095, -0.00949175 , 0.0409030467, 1.79344857  , 917.4618    , 26.1004887  , 830.0763    , 4.78        , 7           , 255         , 0           , 0
-0.113993883, 0.0971369445, -9.845663   , -0.0003616477, 0.0130150225, -0.0006143898, -0.00949567 , 0.0410331376, 1.7934413   , 917.4618    , 26.1004887  , 830.077332  , 4.79        , 7           , 255         , 0           , 0
-0.118035816, 0.0934116542, -9.850171   , -0.000136357965, 0.0132198315, -0.000942083541, -0.009497474, 0.04116524  , 1.79343057  , 917.4618    , 26.1004887  , 830.078369  , 4.8         , 7           , 255         , 0           , 0
-0.121500351, 0.1114048   , -9.848122   , 0.000212980667, 0.0130384   , -0.000637228368, -0.009496735, 0.04097838  , 1.79342282  , 917.4618    , 26.1004887  , 830.0538    , 4.81        , 7           , 255         , 0           , 0
-0.127851963, 0.09825453  , -9.848605   , -0.0003598982, 0.0128341764, 9.013433E-05, -0.009500347, 0.0411067232, 1.7934227   , 917.4618    , 26.1004887  , 830.0547    , 4.82        , 7           , 255         , 0           , 0
-0.114496805, 0.09801239  , -9.855777   , 0.0003183107, 0.0127142174, -0.0009678479, -0.009497611, 0.0412337668, 1.79341173  , 917.4305    , 26.0989971  , 830.0556    , 4.83        , 7           , 255         , 0           , 0
-0.122133635, 0.100396574 , -9.858125   , -0.000146897277, 0.0126352189, -0.0006916488, -0.009499414, 0.041360043 , 1.79340374  , 917.4305    , 26.0989971  , 830.0565    , 4.84        , 7           , 255         , 0           , 0
-0.117123127, 0.09737909  , -9.856001   , -0.000551247736, 0.0126715   , -0.000125207, -0.009505026, 0.0414867364, 1.79340136  , 917.4305    , 26.0989971  , 830.057434  , 4.85        , 7           , 255         , 0           , 0
-0.112969421, 0.09352341  , -9.853839   , 6.493321E-05, 0.0130904792, 0.0004166579, -0.009504255, 0.041617658 , 1.79340422  , 917.4305    , 26.0989971  , 830.05835   , 4.86        , 7           , 255         , 0           , 0
-0.114813447, 0.08517876  , -9.85425    , -4.70131636E-06, 0.0125942575, -0.0006091404, -0.009504605, 0.041743543 , 1.79339707  , 917.4305    , 26.0989971  , 830.059265  , 4.87        , 7           , 255         , 0           , 0
-0.11706724 , 0.08832663  , -9.844824   , 5.264487E-05, 0.01270895  , -1.7369166E-06, -0.00950413 , 0.0418706238, 1.79339576  , 917.4305    , 26.0989971  , 830.0602    , 4.88        , 7           , 255         , 0           , 0
-0.111237168, 0.0940077   , -9.84775    , 0.000661218539, 0.0126404855, 0.000906442758, -0.009497188, 0.04199711  , 1.79340363  , 917.4305    , 26.0989971  , 830.061157  , 4.89        , 7           , 255         , 0           , 0
-0.109393142, 0.0880472362, -9.842981   , 0.000466358382, 0.0129617425, -0.000806926866, -0.009492918, 0.042126637 , 1.79339433  , 917.4305    , 26.0989971  , 830.062134  , 4.9         , 7           , 255         , 0           , 0
-0.120121978, 0.09007752  , -9.847264   , 0.00020127045, 0.01258892  , -0.0005231381, -0.009492284, 0.04193492  , 1.79338777  , 917.4305    , 26.0989971  , 830.0843    , 4.91        , 7           , 255         , 0           , 0
-0.114031136, 0.08076429  , -9.848532   , 2.0454172E-05, 0.0128399553, 0.000172040425, -0.009492059, 0.0420633256, 1.79338825  , 917.4305    , 26.0989971  , 830.0854    , 4.92        , 7           , 255         , 0           , 0
-0.107903026, 0.08050352  , -9.849351   , -1.40706543E-05, 0.0127159   , 0.0007314603, -0.009491945, 0.04219055  , 1.79339433  , 917.4342    , 26.1004887  , 830.0865    , 4.93        , 7           , 255         , 0           , 0
-0.114925206, 0.0912509859, -9.847097   , 0.000241647474, 0.0126140807, -0.0004927096, -0.009489789, 0.0423166379, 1.79338825  , 917.4342    , 26.1004887  , 830.0876    , 4.94        , 7           , 255         , 0           , 0
-0.122468926, 0.0887922943, -9.853598   , -0.000201324234, 0.0128785763, -0.000108254608, -0.009491902, 0.0424454026, 1.79338586  , 917.4342    , 26.1004887  , 830.0887    , 4.95        , 7           , 255         , 0           , 0
-0.11494384 , 0.09357929  , -9.848569   , -3.104098E-05, 0.0122618107, 0.00046930532, -0.009492061, 0.0425680578, 1.79338944  , 917.4342    , 26.1004887  , 830.0898    , 4.96        , 7           , 255         , 0           , 0
-0.1193583  , 0.0941380858, -9.8514185  , -0.0004102292, 0.0128715551, 7.548765E-05, -0.00949618 , 0.0426967666, 1.793389    , 917.4342    , 26.1004887  , 830.0909    , 4.97        , 7           , 255         , 0           , 0
-0.115633011, 0.09715557  , -9.852257   , 4.38606367E-05, 0.012577801 , -0.000257472158, -0.009495907, 0.0428225137, 1.79338527  , 917.4342    , 26.1004887  , 830.092041  , 4.98        , 7           , 255         , 0           , 0
-0.1152791  , 0.103339553 , -9.8453455  , -0.0006132822, 0.0128382   , -0.000228213728, -0.009502189, 0.04295087  , 1.79338157  , 917.4342    , 26.1004887  , 830.0932    , 4.99        , 7           , 255         , 0           , 0
-0.119004391, 0.1080148   , -9.8490715  , -0.0005196552, 0.0131664788, 0.0002276313, -0.009507339, 0.0430825427, 1.79338276  , 917.4342    , 26.1004887  , 830.09436   , 5           , 7           , 0           , -1          , 500
-0.115577124, 0.104084611 , -9.850487   , -0.000180840958, 0.012510322 , 0.000262723072, -0.009508634, 0.0428780057, 1.79338419  , 917.4342    , 26.1004887  , 830.1065    , 5.01        , 7           , 1           , 0           , 0
-0.11626631 , 0.110361718 , -9.8490715  , 0.000215317123, 0.0132552385, -3.6297366E-05, -0.009506548, 0.04301054  , 1.79338264  , 917.4342    , 26.1004887  , 830.1077    , 5.02        , 7           , 2           , 0           , 0
-0.119898461, 0.1045689   , -9.848327   , 0.000306603033, 0.0130159063, -0.000600983738, -0.009503794, 0.0431406349, 1.79337549  , 917.4523    , 26.1031342  , 830.108948  , 5.03        , 7           , 3           , 0           , 0
-0.116322182, 0.10099262  , -9.844992   , -4.39120922E-05, 0.0130732516, -0.000134020345, -0.009504349, 0.04327135  , 1.79337287  , 917.4523    , 26.1031342  , 830.110168  , 5.04        , 7           , 4           , 0           , 0
-0.12310221 , 0.09821728  , -9.845961   , 0.000331765274, 0.0129948389, 7.2543975E-05, -0.009501051, 0.04340129  , 1.79337227  , 917.4523    , 26.1031342  , 830.1114    , 5.05        , 7           , 5           , 0           , 0
-0.126510859, 0.09389594  , -9.851493   , -2.811267E-05, 0.0131095313, 0.0002498494, -0.009501277, 0.0435324   , 1.79337358  , 917.4523    , 26.1031342  , 830.1126    , 5.06        , 7           , 6           , 0           , 0
-0.116210438, 0.09926036  , -9.856689   , -0.00051614223, 0.0127104474, 0.000227613142, -0.009506392, 0.0436595157, 1.79337466  , 917.4523    , 26.1031342  , 830.1139    , 5.07        , 7           , 7           , 0           , 0
-0.11174009 , 0.1014024   , -9.85343    , 3.56705859E-05, 0.013090807 , 4.85521741E-05, -0.00950607 , 0.0437904261, 1.793374    , 917.4523    , 26.1031342  , 830.1152    , 5.08        , 7           , 8           , 5           , 5
-0.124629594, 0.0965595245, -9.849686   , -0.000192544423, 0.0125624016, 0.000480990624, -0.009507838, 0.0439160876, 1.79337764  , 917.4523    , 26.1031342  , 830.116455  , 5.09        , 7           , 9           , 5           , 0.1
-0.128187224, 0.09022653  , -9.857025   , 9.82834E-05 , 0.0135197351, -0.000521400943, -0.009507138, 0.0440512225, 1.79337108  , 917.4523    , 26.1031342  , 830.117737  , 5.1         , 7           , 10          , 0.1         , 0.1
-0.129528359, 0.0909902155, -9.84922    , -0.000263958, 0.0130180223, 0.000273822341, -0.009513538, 0.0438527763, 1.79337239  , 917.4523    , 26.1031342  , 830.1008    , 5.11        , 7           , 11          , 0.009332239 , 0.009332117
-0.125020742, 0.09186566  , -9.85017    , -0.000152776483, 0.0124422181, 0.0005143259, -0.009514894, 0.04397724  , 1.79337621  , 917.4523    , 26.1031342  , 830.102     , 5.12        , 7           , 12          , 0.0346852   , 0
-0.1218915  , 0.09011477  , -9.843781   , 3.798795E-05, 0.0129583357, 6.08214177E-05, -0.0095145395, 0.0441068225, 1.79337561  , 917.4521    , 26.1025925  , 830.103149  , 5.13        , 7           , 13          , 0           , 0
-0.11343509 , 0.0825896859, -9.849593   , 6.02242071E-05, 0.0130496211, 0.0002433937, -0.009513882, 0.0442373268, 1.79337692  , 917.4521    , 26.1025925  , 830.1043    , 5.14        , 7           , 14          , 0.003517488 , 3.705796E-05
-0.122357152, 0.0852718949, -9.860731   , 0.000717367046, 0.013544674 , 0.000132797053, -0.009506704, 0.0443727672, 1.7933768   , 917.4521    , 26.1025925  , 830.105469  , 5.15        , 7           , 15          , 0           , 0.0021616437
-0.114031136, 0.0851601362, -9.856038   , -0.000656605465, 0.0129717942, 0.0006214117, -0.009513049, 0.04450253  , 1.79338181  , 917.4521    , 26.1025925  , 830.1067    , 5.16        , 7           , 16          , 0           , 4.203895E-45
-0.116080046, 0.0892020762, -9.85343    , -0.000261617359, 0.0128348656, -0.000104781007, -0.009515765, 0.04463086  , 1.79337955  , 917.4521    , 26.1025925  , 830.1079    , 5.17        , 7           , 20          , 0           , 0
-0.127758831, 0.08704141  , -9.85708    , 0.0005020257, 0.0128840189, -9.89292748E-05, -0.009510845, 0.0447596721, 1.7933774   , 917.4521    , 26.1025925  , 830.109131  , 5.18        , 7           , 21          , 0           , 0
