Acc X       , Acc Y       , Acc Z       , Gyro X      , Gyro Y      , Gyro Z      , Euler X     , Euler Y     , Euler Z     , Pres X      , Pres Y      , Pres Z      , Time        , Status      , LowRate X   , LowRate Y   , LowRate Z    
-0.1677873  , 0.112738624 , -9.783139   , 0           , 0           , 0           , -0.011523257, -0.0171478409, 0           , 922.1472    , 32.6509056  , 787.7151    , 0           , 2           , 0           , 5.46223164  , 0
-0.167690828, 0.115893543 , -9.783185   , 1.57205213E-05, -9.51013062E-05, -0.0005577736, -0.0115233213, -0.0171489976, -5.567071E-06, 922.1472    , 32.6509056  , 787.7151    , 0.01        , 3           , 1           , 0           , 0
-0.16534707 , 0.111862265 , -9.783198   , 0.000589034054, 0.000119145436, 4.08236556E-05, -0.0115174381, -0.0171478  , -5.17253329E-06, 922.1472    , 32.6509056  , 787.7151    , 0.02        , 3           , 2           , 0           , 0
-0.17479606 , 0.119644284 , -9.784422   , 2.11626175E-05, 4.01691068E-07, -6.6628254E-06, -0.0115172258, -0.0171477962, -5.23921972E-06, 922.1171    , 32.2121735  , 787.7151    , 0.03        , 3           , 3           , 0           , 0
-0.168430373, 0.110442773 , -9.79005    , 0.000325688481, -0.0004327412, 0.000514422252, -0.0115140583, -0.0171520654, -4.487743E-08, 922.1171    , 32.2121735  , 787.7151    , 0.04        , 3           , 4           , 0           , 0
-0.1616833  , 0.108402811 , -9.79806    , 0.00110041117, -0.000261369452, 0.000402441423, -0.0115031218, -0.01715463 , 4.00983936E-06, 922.1171    , 32.2121735  , 787.7151    , 0.05        , 3           , 5           , 0           , 0
-0.170818016, 0.113771141 , -9.800405   , 0.00010574123, 0.000278763444, 0.00029504305, -0.011502116, -0.0171518065, 6.928364E-06, 922.1171    , 32.2121735  , 787.7151    , 0.06        , 3           , 6           , 0           , 0
-0.1719368  , 0.1173989   , -9.793668   , -0.00026177938, 0.000417438976, 0.000114609473, -0.0115047535, -0.0171476211, 8.026518E-06, 922.1171    , 32.2121735  , 787.7151    , 0.07        , 3           , 7           , 0           , 0
-0.162395731, 0.119502544 , -9.791067   , 0.000445316022, 0.000394442119, 0.000390211469, -0.0115003679, -0.0171436351, 1.18834714E-05, 922.1171    , 32.2121735  , 787.7151    , 0.08        , 3           , 8           , 5           , 5
-0.167972475, 0.118717387 , -9.791371   , 0.000509981357, 3.0210882E-05, -0.000359118247, -0.0114952056, -0.0171433724, 8.288614E-06, 922.1171    , 32.2121735  , 787.7151    , 0.09        , 3           , 9           , 5           , 0.1
-0.171768   , 0.118233874 , -9.792905   , -5.96939935E-06, -0.000175273162, -0.000560155255, -0.0114951683, -0.0171451885, 2.706887E-06, 922.1171    , 32.2121735  , 787.7151    , 0.1         , 3           , 10          , 0.1         , 0.1
-0.169183388, 0.1174551   , -9.792672   , 0.0001592052, -0.000118243275, -1.04219571E-05, -0.0115058869, -0.0171477646, 2.82737278E-06, 922.1171    , 32.2121735  , 787.984741  , 0.11        , 3           , 11          , 0.0109544508, 0.0109544508
-0.176044166, 0.121222243 , -9.792776   , -0.0002597445, 0.000222406583, -5.126886E-05, -0.0115084741, -0.017145548, 2.289062E-06, 922.1171    , 32.2121735  , 787.984741  , 0.12        , 3           , 12          , 0.174642488 , 0
-0.168708384, 0.113191739 , -9.789244   , 4.434111E-05, 0.000193960455, -8.910415E-05, -0.0115080159, -0.0171436183, 1.37564939E-06, 922.08136   , 32.2498245  , 787.984741  , 0.13        , 3           , 13          , 0           , 0
-0.162667185, 0.11430943  , -9.796522   , 0.000494224 , -0.000271963247, 0.000318775739, -0.0115031293, -0.0171463  , 4.594868E-06, 922.08136   , 32.2498245  , 787.984741  , 0.14        , 3           , 14          , -0.000413545844, -0.000263532158
-0.165258273, 0.112139463 , -9.799883   , -0.0003926638, 5.59528125E-05, -0.000639773, -0.0115069458, -0.0171458144, -1.80965139E-06, 922.08136   , 32.2498245  , 787.984741  , 0.15        , 3           , 15          , 0           , 2.3913633E-06
-0.164381623, 0.114834428 , -9.790664   , -0.000270150573, 0.0002552538, 2.079623E-05, -0.01150965 , -0.01714326 , -1.63105847E-06, 922.08136   , 32.2498245  , 787.984741  , 0.16        , 3           , 16          , 0           , 1.401298E-45
-0.176942512, 0.120799363 , -9.79534    , 0.000217785986, -0.000178203045, 0.0006242473, -0.01150758 , -0.0171449687, 4.63225751E-06, 922.08136   , 32.2498245  , 787.984741  , 0.17        , 3           , 20          , 0           , 0
-0.170305163, 0.107503094 , -9.789513   , -7.54719658E-05, -0.0002149046, 4.89050981E-05, -0.0115083419, -0.0171471126, 5.146067E-06, 922.08136   , 32.2498245  , 787.984741  , 0.18        , 3           , 21          , 0           , 0
-0.168840587, 0.109886073 , -9.790663   , 1.45220256E-05, 0.000524329545, -0.0002030012, -0.01150816 , -0.0171418972, 3.055594E-06, 922.08136   , 32.2498245  , 787.9848    , 0.19        , 3           , 22          , 0           , 0
-0.172848254, 0.114444315 , -9.794434   , -6.775622E-05, 0.0006699617, 0.0002674341, -0.0115088839, -0.0171351656, 5.6529675E-06, 922.08136   , 32.2498245  , 787.984863  , 0.2         , 3           , 40          , 0           , 0
-0.171815112, 0.114364222 , -9.782544   , 0.000260855537, 0.000408864929, 0.000361146522, -0.0115133356, -0.0171368439, 9.337531E-06, 922.08136   , 32.2498245  , 788.1464    , 0.21        , 3           , 41          , 0           , 0
-0.167461291, 0.105329253 , -9.797439   , -0.000387184671, -0.000527602853, 0.0004864388, -0.011517291, -0.0171420649, 1.426295E-05, 922.08136   , 32.2498245  , 788.1465    , 0.22        , 3           , 42          , 0           , 0
-0.1649586  , 0.111399725 , -9.784036   , 0.000335462741, 0.000425334059, 0.000378059456, -0.0115140015, -0.0171377659, 1.79947765E-05, 922.1003    , 32.2764854  , 788.146545  , 0.23        , 3           , 255         , 0           , 0
-0.171159655, 0.1093413   , -9.788967   , 0.000434348272, 0.000569725758, -0.0006678019, -0.0115095433, -0.0171321463, 1.12507978E-05, 922.1003    , 32.2764854  , 788.1466    , 0.24        , 3           , 255         , 0           , 0
-0.174911767, 0.106975853 , -9.788313   , 9.97266E-05 , 0.000110425462, -3.067185E-05, -0.0115085393, -0.0171310455, 1.09313441E-05, 922.1003    , 32.2764854  , 788.146667  , 0.25        , 3           , 255         , 0           , 0
-0.17560266 , 0.11214073  , -9.796215   , -3.237126E-05, 0.000289138727, 0.0007174148, -0.0115089864, -0.0171280745, 1.80726147E-05, 922.1003    , 32.2764854  , 788.1467    , 0.26        , 3           , 255         , 0           , 0
-0.173967332, 0.115545392 , -9.78825951 , 0.0003700603, 0.000222555915, 8.272344E-05, -0.0115053011, -0.0171258375, 1.88742961E-05, 922.1003    , 32.2764854  , 788.1468    , 0.27        , 3           , 255         , 0           , 0
-0.175381467, 0.116102777 , -9.788756   , -0.000261669571, 0.000433853245, -0.0003058323, -0.0115078632, -0.0171215348, 1.57658633E-05, 922.1003    , 32.2764854  , 788.146851  , 0.28        , 3           , 255         , 0           , 0
-0.163082629, 0.1090801   , -9.785011   , 0.0002726003, -0.000123402453, -0.0004526724, -0.0115050608, -0.0171228182, 1.12530752E-05, 922.1003    , 32.2764854  , 788.1469    , 0.29        , 3           , 255         , 0           , 0
-0.161216855, 0.1120435   , -9.796717   , 0.000546844443, -0.0002597745, -0.000236998821, -0.011499553, -0.0171254426, 8.912834E-06, 922.1003    , 32.2764854  , 788.147     , 0.3         , 3           , 255         , 0           , 0
-0.162646055, 0.117707476 , -9.794898   , 0.000328345224, -0.000161692966, -0.000242536757, -0.0114895636, -0.0171373412, 6.391703E-06, 922.1003    , 32.2764854  , 788.1441    , 0.31        , 3           , 255         , 0           , 0
-0.169290781, 0.112527624 , -9.791864   , 2.45645642E-05, -0.000351087045, -0.000362983264, -0.0114892563, -0.0171408951, 2.802019E-06, 922.1003    , 32.2764854  , 788.144165  , 0.32        , 3           , 255         , 0           , 0
-0.162762508, 0.112325847 , -9.790301   , -5.540339E-05, -0.0002976559, -0.0001614096, -0.0114897834, -0.01714389 , 1.22203107E-06, 922.158569  , 32.2935829  , 788.1442    , 0.33        , 3           , 255         , 0           , 0
-0.169613078, 0.110844471 , -9.787166   , 5.17038E-05 , -1.91894651E-05, -0.00024211967, -0.0114892246, -0.0171441082, -1.1971E-06 , 922.158569  , 32.2935829  , 788.1443    , 0.34        , 3           , 255         , 0           , 0
-0.166445255, 0.113272086 , -9.791089   , -0.0002685767, 0.0002250012, -0.0002948632, -0.0114918593, -0.0171418935, -4.1717517E-06, 922.158569  , 32.2935829  , 788.144348  , 0.35        , 3           , 255         , 0           , 0
-0.17009902 , 0.113426462 , -9.795335   , -1.5046011E-05, 0.0004171285, 0.000159427887, -0.0114920381, -0.0171377026, -2.62530375E-06, 922.158569  , 32.2935829  , 788.1444    , 0.36        , 3           , 255         , 0           , 0
-0.171585441, 0.114929579 , -9.794826   , 0.000391554961, -8.21012945E-05, 0.000628230744, -0.01148823 , -0.01713845 , 3.666777E-06, 922.158569  , 32.2935829  , 788.1445    , 0.37        , 3           , 255         , 0           , 0
-0.171111345, 0.110181309 , -9.799371   , 0.000492837047, 4.80228337E-05, 0.000300876185, -0.0114833554, -0.0171379354, 6.67020277E-06, 922.158569  , 32.2935829  , 788.144531  , 0.38        , 3           , 255         , 0           , 0
-0.170509368, 0.111643553 , -9.796211   , 0.000412598019, 0.000239082932, -0.0002792059, -0.0114791812, -0.0171355754, 3.850537E-06, 922.158569  , 32.2935829  , 788.1446    , 0.39        , 3           , 255         , 0           , 0
-0.173087761, 0.114596054 , -9.77849    , 0.0002480825, 0.000400704565, -5.16878E-05, -0.01147669 , -0.01713158 , 3.28762167E-06, 922.158569  , 32.2935829  , 788.144653  , 0.4         , 3           , 255         , 0           , 0
-0.168581337, 0.113603257 , -9.790414   , -0.000154782872, 8.751714E-05, -0.00037180935, -0.0114804795, -0.0171338022, -4.012188E-07, 922.158569  , 32.2935829  , 788.0097    , 0.41        , 3           , 255         , 0           , 0
-0.1693409  , 0.115848623 , -9.788996   , -0.000535369269, 0.000197457819, -0.000148778709, -0.0114858067, -0.0171318464, -1.911762E-06, 922.158569  , 32.2935829  , 788.009766  , 0.42        , 3           , 255         , 0           , 0
-0.1593631  , 0.121305227 , -9.789622   , -6.248147E-05, -0.0001487328, 9.16910358E-05, -0.0114864465, -0.0171333235, -9.77712E-07, 922.133667  , 32.3029442  , 788.0098    , 0.43        , 3           , 255         , 0           , 0
-0.165075779, 0.111123189 , -9.793902   , 0.0003548694, -0.000694452552, -0.000548079, -0.011482805, -0.0171403289, -6.37905623E-06, 922.133667  , 32.3029442  , 788.0099    , 0.44        , 3           , 255         , 0           , 0
-0.170939714, 0.11125797  , -9.789893   , 0.000156083552, -0.000109598041, -0.0005509126, -0.0114811491, -0.0171414874, -1.18759117E-05, 922.133667  , 32.3029442  , 788.009949  , 0.45        , 3           , 255         , 0           , 0
-0.16404514 , 0.117936037 , -9.789358   , -0.000544783543, 0.000508763362, -9.113499E-05, -0.0114865815, -0.01713641 , -1.2845735E-05, 922.133667  , 32.3029442  , 788.01      , 0.46        , 3           , 255         , 0           , 0
-0.167371452, 0.119620442 , -9.796221   , -0.0001315246, 0.000244835741, -0.000430270156, -0.0114878211, -0.01713401 , -1.717681E-05, 922.133667  , 32.3029442  , 788.0101    , 0.47        , 3           , 255         , 0           , 0
-0.169526652, 0.111237787 , -9.797274   , 0.000260194152, 3.27899761E-05, -0.000450193358, -0.0114851436, -0.0171337351, -2.168276E-05, 922.133667  , 32.3029442  , 788.010132  , 0.48        , 3           , 255         , 0           , 0
-0.169857949, 0.112129107 , -9.788259   , 0.0003127683, -9.189561E-05, 0.000351325085, -0.0114820758, -0.0171346124, -1.81587639E-05, 922.133667  , 32.3029442  , 788.0102    , 0.49        , 3           , 255         , 0           , 0
-0.173049286, 0.113326356 , -9.793247   , 1.27611565E-06, 0.000133873385, 0.0005210821, -0.0114821522, -0.0171332136, -1.29630325E-05, 922.133667  , 32.3029442  , 788.010254  , 0.5         , 3           , 255         , 0           , 0
-0.166655481, 0.111161254 , -9.786262   , 0.0005429507, -3.935973E-06, -9.56653457E-05, -0.0114850849, -0.0171327088, -1.37757388E-05, 922.133667  , 32.3029442  , 787.974731  , 0.51        , 3           , 255         , 0           , 0
-0.17109336 , 0.116815105 , -9.798465   , 0.000169471867, 0.000209286925, -0.000529009034, -0.0114832986, -0.0171306822, -1.90901683E-05, 922.133667  , 32.3029442  , 787.9748    , 0.52        , 3           , 255         , 0           , 0
-0.1664109  , 0.102649055 , -9.78654    , -0.0002548031, 0.000152312889, 3.299561E-05, -0.0114858514, -0.0171291512, -1.8777695E-05, 922.13      , 32.3104744  , 787.974854  , 0.53        , 3           , 255         , 0           , 0
-0.168912157, 0.106687769 , -9.790092   , -0.0003349791, 0.00016291588, 0.000142597841, -0.0114892265, -0.0171275064, -1.73703447E-05, 922.13      , 32.3104744  , 787.9749    , 0.54        , 3           , 255         , 0           , 0
-0.1559763  , 0.11550536  , -9.796611   , -0.0002963773, -0.000232443737, -0.000235462736, -0.01149215 , -0.0171298571, -1.96983983E-05, 922.13      , 32.3104744  , 787.975     , 0.55        , 3           , 255         , 0           , 0
-0.166728541, 0.115802623 , -9.792458   , -0.000127172621, 6.968799E-05, -0.0006031624, -0.0114933178, -0.0171292312, -2.573835E-05, 922.13      , 32.3104744  , 787.975037  , 0.56        , 3           , 255         , 0           , 0
-0.164061338, 0.107600614 , -9.797703   , 0.000240993526, 0.00044133456, -0.000292325974, -0.0114908582, -0.01712485 , -2.8712504E-05, 922.13      , 32.3104744  , 787.9751    , 0.57        , 3           , 255         , 0           , 0
-0.1625257  , 0.111287132 , -9.799967   , 0.000274023361, 5.23139024E-05, 0.000152965978, -0.0114881434, -0.0171243083, -2.7188762E-05, 922.13      , 32.3104744  , 787.975159  , 0.58        , 3           , 255         , 0           , 0
-0.168281168, 0.109457694 , -9.790014   , 0.000513667939, -0.000312905642, -0.000129840977, -0.0114829848, -0.0171274543, -2.84513117E-05, 922.13      , 32.3104744  , 787.9752    , 0.59        , 3           , 255         , 0           , 0
-0.17027548 , 0.108066976 , -9.792447   , 0.000301466556, -3.057823E-06, -0.0001545433, -0.011479944, -0.0171275  , -2.999648E-05, 922.13      , 32.3104744  , 787.9753    , 0.6         , 3           , 255         , 0           , 0
-0.168002635, 0.117615066 , -9.788716   , 0.0002576344, 0.000287270057, -1.255309E-05, -0.0114708235, -0.017119227, -3.02669778E-05, 922.13      , 32.3104744  , 787.9573    , 0.61        , 3           , 255         , 0           , 0
-0.175067082, 0.118241191 , -9.789031   , -2.7831702E-06, 0.000239178407, -0.000373028422, -0.0114707882, -0.0171168782, -3.40249062E-05, 922.13      , 32.3104744  , 787.957336  , 0.62        , 3           , 255         , 0           , 0
-0.175604343, 0.1129783   , -9.796751   , 0.000295662816, 0.0004051908, 0.0006591713, -0.0114679448, -0.0171127543, -2.74793019E-05, 922.0974    , 32.315834   , 787.9574    , 0.63        , 3           , 255         , 0           , 0
-0.175985619, 0.112078287 , -9.7932415  , 0.000786002958, -0.000126020022, 0.00032735322, -0.0114601394, -0.0171139743, -2.41911475E-05, 922.0974    , 32.315834   , 787.957458  , 0.64        , 3           , 255         , 0           , 0
-0.175221756, 0.112855256 , -9.799912   , 0.00011441973, -0.000426486338, -0.0003725111, -0.0114589334, -0.0171182789, -2.78675961E-05, 922.0974    , 32.315834   , 787.9575    , 0.65        , 3           , 255         , 0           , 0
-0.16707778 , 0.105935231 , -9.785046   , 0.000107535016, 5.520793E-05, -0.000206987024, -0.0114578232, -0.0171177536, -2.99439052E-05, 922.0974    , 32.315834   , 787.9576    , 0.66        , 3           , 255         , 0           , 0
-0.1662439  , 0.112383083 , -9.792504   , 0.0001619382, -0.000628666952, -0.000666689652, -0.0114560882, -0.0171241127, -3.6539157E-05, 922.0974    , 32.315834   , 787.957642  , 0.67        , 3           , 255         , 0           , 0
-0.166849375, 0.1122988   , -9.796831   , -0.000361888757, -0.000409097382, -0.000172871587, -0.0114596775, -0.0171282217, -3.82210965E-05, 922.0974    , 32.315834   , 787.9577    , 0.68        , 3           , 255         , 0           , 0
-0.170144647, 0.102590367 , -9.77804    , -0.000383988518, 3.52950883E-06, -0.000469416816, -0.0114634372, -0.01712824 , -4.29159336E-05, 922.0974    , 32.315834   , 787.957764  , 0.69        , 3           , 255         , 0           , 0
-0.172257528, 0.1085212   , -9.797123   , 0.000266127638, -0.000324081426, 0.000436104223, -0.0114608509, -0.017131431, -3.85175E-05, 922.0974    , 32.315834   , 787.9578    , 0.7         , 3           , 255         , 0           , 0
-0.173618242, 0.106519088 , -9.791475   , -6.426877E-05, 8.067119E-05, 0.000597239239, -0.011459345, -0.0171428341, -3.25926121E-05, 922.0974    , 32.315834   , 787.9893    , 0.71        , 3           , 255         , 0           , 0
-0.172592953, 0.1132039   , -9.796648   , 5.59932378E-05, 0.0002518749, 0.000354221265, -0.0114588467, -0.0171402749, -2.90790576E-05, 922.0974    , 32.315834   , 787.989441  , 0.72        , 3           , 255         , 0           , 0
-0.1726414  , 0.111397825 , -9.786469   , 0.000264535047, -0.000156973809, -0.0001645792, -0.0114561738, -0.0171418637, -3.07069458E-05, 922.158752  , 32.3207855  , 787.989563  , 0.73        , 3           , 255         , 0           , 0
-0.165371656, 0.111437485 , -9.793232   , 0.000684555154, -0.000299295323, -0.0001235771, -0.0114493081, -0.0171448719, -3.190851E-05, 922.158752  , 32.3207855  , 787.9897    , 0.74        , 3           , 255         , 0           , 0
-0.17310667 , 0.119536176 , -9.785299   , 0.0005674256, -0.000464848621, -3.515429E-05, -0.0114436289, -0.0171495229, -3.22068554E-05, 922.158752  , 32.3207855  , 787.9898    , 0.75        , 3           , 255         , 0           , 0
-0.172359228, 0.11219158  , -9.792507   , -2.70173477E-05, 0.000239092013, 3.10561663E-05, -0.0114439046, -0.01714713 , -3.19236242E-05, 922.158752  , 32.3207855  , 787.9899    , 0.76        , 3           , 255         , 0           , 0
-0.164003253, 0.118635513 , -9.794856   , 6.480905E-05, 0.000574886566, -4.31504122E-05, -0.0114432471, -0.01714139 , -3.242094E-05, 922.158752  , 32.3207855  , 787.990051  , 0.77        , 3           , 255         , 0           , 0
-0.177822083, 0.119619653 , -9.78289    , 0.0006608017, 0.000176894042, -0.000129617038, -0.0114366189, -0.0171396341, -3.37374549E-05, 922.158752  , 32.3207855  , 787.9902    , 0.78        , 3           , 255         , 0           , 0
-0.172946438, 0.115398943 , -9.788876   , 0.000329135684, -0.000305494439, 0.000744656 , -0.0114334542, -0.0171426032, -2.62555423E-05, 922.158752  , 32.3207855  , 787.9903    , 0.79        , 3           , 255         , 0           , 0
-0.164052755, 0.12208607  , -9.791727   , 0.000189668572, 9.059091E-06, 0.000690012 , -0.0114316763, -0.0171424337, -1.93560682E-05, 922.158752  , 32.3207855  , 787.9904    , 0.8         , 3           , 255         , 0           , 0
-0.162301287, 0.1170673   , -9.790887   , 0.000243546587, 0.0003252831, 3.7527343E-07, -0.0114398794, -0.0171498228, -1.92070329E-05, 922.158752  , 32.3207855  , 787.938232  , 0.81        , 3           , 255         , 0           , 0
-0.166330129, 0.1071561   , -9.790693   , -5.73729631E-05, 0.0005785676, 0.000177169481, -0.011440482, -0.0171440244, -1.750143E-05, 922.158752  , 32.3207855  , 787.9383    , 0.82        , 3           , 255         , 0           , 0
-0.178213269, 0.104567207 , -9.793364   , -0.000126616738, 8.523787E-05, 0.0005598337, -0.0114418454, -0.0171431042, -1.1912537E-05, 922.1584    , 32.3231621  , 787.938354  , 0.83        , 3           , 255         , 0           , 0
-0.169369847, 0.107700661 , -9.794604   , 0.000540504931, 0.00016924426, 0.000371775648, -0.0114365034, -0.0171413682, -8.213937E-06, 922.1584    , 32.3231621  , 787.9384    , 0.84        , 3           , 255         , 0           , 0
-0.166648686, 0.109260179 , -9.783832   , 0.0008474941, 0.0002642601, 0.000346917543, -0.0114280879, -0.0171386879, -4.7747767E-06, 922.1584    , 32.3231621  , 787.9385    , 0.85        , 3           , 255         , 0           , 0
-0.169634238, 0.113931045 , -9.78768    , 0.000125193212, 4.35272668E-05, -0.000189448008, -0.0114268046, -0.0171382725, -6.674336E-06, 922.1584    , 32.3231621  , 787.938538  , 0.86        , 3           , 255         , 0           , 0
-0.163176835, 0.112943269 , -9.792379   , -2.684645E-05, 4.341465E-05, -0.000172298445, -0.011427043, -0.0171378572, -8.40238954E-06, 922.1584    , 32.3231621  , 787.9386    , 0.87        , 3           , 255         , 0           , 0
-0.1643405  , 0.112508491 , -9.789461   , 0.0002082117, -8.795055E-05, -0.000127570427, -0.0114249373, -0.0171387512, -9.66812E-06, 922.1584    , 32.3231621  , 787.93866   , 0.88        , 3           , 255         , 0           , 0
-0.175495714, 0.105604425 , -9.799202   , 0.0006251323, -0.0003719781, -0.000181542433, -0.0114186564, -0.0171424914, -1.14411605E-05, 922.1584    , 32.3231621  , 787.9387    , 0.89        , 3           , 255         , 0           , 0
-0.165037334, 0.113091663 , -9.793044   , -0.000155382557, -0.00026094215, 0.000255670515, -0.0114202546, -0.0171450712, -8.854519E-06, 922.1584    , 32.3231621  , 787.9388    , 0.9         , 3           , 255         , 0           , 0
-0.161206514, 0.111254238 , -9.792666   , -0.0003060117, -0.000105578336, 0.00016343547, -0.0114183156, -0.017146768, -7.294223E-06, 922.1584    , 32.3231621  , 787.897339  , 0.91        , 3           , 255         , 0           , 0
-0.1635674  , 0.107236266 , -9.800976   , -0.000321475731, 0.000250075682, -0.00030883943, -0.0114214765, -0.0171443038, -1.04113378E-05, 922.1584    , 32.3231621  , 787.8974    , 0.92        , 3           , 255         , 0           , 0
-0.16684112 , 0.113422535 , -9.800824   , -0.000416930066, 8.688455E-05, 0.00022812438, -0.0114256851, -0.01714341 , -8.139893E-06, 922.129456  , 32.3256721  , 787.897461  , 0.93        , 3           , 255         , 0           , 0
-0.175740391, 0.113763668 , -9.799017   , -0.0003567427, 0.000190393039, 0.0006011614, -0.0114293545, -0.0171414372, -2.14969918E-06, 922.129456  , 32.3256721  , 787.8975    , 0.94        , 3           , 255         , 0           , 0
-0.17266877 , 0.105549894 , -9.798559   , 6.82265963E-05, -0.000138498814, 0.000235024956, -0.0114287119, -0.017142795, 2.165061E-07, 922.129456  , 32.3256721  , 787.8976    , 0.95        , 3           , 255         , 0           , 0
-0.16291444 , 0.111083589 , -9.791826   , -0.000375061645, 0.000528223754, -7.666699E-05, -0.0114324493, -0.01713752 , -6.105862E-07, 922.129456  , 32.3256721  , 787.897644  , 0.96        , 3           , 255         , 0           , 0
-0.172240809, 0.1098632   , -9.790114   , 9.01976E-05 , 0.000166200538, -0.000305845548, -0.0114314947, -0.0171358939, -3.6882152E-06, 922.129456  , 32.3256721  , 787.8977    , 0.97        , 3           , 255         , 0           , 0
-0.16710186 , 0.111400053 , -9.79385948 , 0.00043632905, -0.000388699176, -0.0003125202, -0.0114270793, -0.0171398167, -6.769177E-06, 922.129456  , 32.3256721  , 787.897766  , 0.98        , 3           , 255         , 0           , 0
-0.168739587, 0.114466026 , -9.794127   , 6.04827947E-05, -0.000186577876, -0.000287351955, -0.0114264255, -0.0171417147, -9.621539E-06, 922.129456  , 32.3256721  , 787.8978    , 0.99        , 3           , 255         , 0           , 0
-0.164243922, 0.119136117 , -9.794371   , -2.4764624E-05, -0.0001287456, 0.000151395448, -0.0114266993, -0.0171429832, -8.092788E-06, 922.129456  , 32.3256721  , 787.8979    , 1           , 3           , 0           , 6.4622364   , 100
-0.1597192  , 0.114581272 , -9.791976   , -0.000139159732, 0.00028697736, 4.70283776E-05, -0.011427517, -0.017139094, -7.665241E-06, 922.129456  , 32.3256721  , 787.8951    , 1.01        , 3           , 1           , 0           , 0
-0.165239573, 0.110302486 , -9.792623   , -0.000275110477, 0.000236981563, 0.000381511345, -0.0114303324, -0.01713668 , -3.876996E-06, 922.129456  , 32.3256721  , 787.895142  , 1.02        , 3           , 2           , 0           , 0
-0.176924616, 0.112478435 , -9.789522   , -0.000176220958, -0.000137051364, 0.000165024467, -0.0114321234, -0.0171380322, -2.21098617E-06, 922.1345    , 32.326622   , 787.8952    , 1.03        , 3           , 3           , 0           , 0
-0.170306221, 0.11220745  , -9.781588   , 0.0002564176, 0.000156702619, -0.000524461735, -0.01142947 , -0.0171365254, -7.473812E-06, 922.1345    , 32.326622   , 787.895264  , 1.04        , 3           , 4           , 0           , 0
-0.173222169, 0.11383526  , -9.787893   , 0.00011847727, 5.157749E-05, -0.000292498444, -0.011428236, -0.0171360429, -1.04048522E-05, 922.1345    , 32.326622   , 787.8953    , 1.05        , 3           , 5           , 0           , 0
-0.172779948, 0.117050864 , -9.796434   , -0.0006034347, 0.0001526844, 0.000564511167, -0.011434366, -0.0171344522, -4.77686535E-06, 922.1345    , 32.326622   , 787.8954    , 1.06        , 3           , 6           , 0           , 0
-0.165444672, 0.111064635 , -9.792749   , 0.0002072735, -0.0003464304, 0.000846650859, -0.0114324391, -0.01713782 , 3.729738E-06, 922.1345    , 32.326622   , 787.895447  , 1.07        , 3           , 7           , 0           , 0
-0.168969065, 0.10945718  , -9.790068   , -1.20984041E-05, -0.000226592645, 3.008701E-05, -0.0114325657, -0.017140083, 4.05652736E-06, 922.1345    , 32.326622   , 787.8955    , 1.08        , 3           , 8           , 5           , 5
-0.174053624, 0.107735768 , -9.78692    , -0.0007723043, 0.000150262873, -0.000276213948, -0.0114402408, -0.0171386115, 1.277038E-06, 922.1345    , 32.326622   , 787.895569  , 1.09        , 3           , 9           , 5           , 0.1
-0.164331421, 0.118669435 , -9.784728   , 8.72668752E-05, 0.0001603495, -0.000305261317, -0.011439316, -0.0171370432, -1.794078E-06, 922.1345    , 32.326622   , 787.8956    , 1.1         , 3           , 10          , 0.1         , 0.1
-0.170574218, 0.113063432 , -9.799645   , 7.402635E-05, 0.000430496963, -0.0008437779, -0.0114415009, -0.0171375778, -1.02289669E-05, 922.1345    , 32.326622   , 787.887939  , 1.11        , 3           , 11          , 0.009159024 , 0.009159023
-0.178119332, 0.112630382 , -9.791563   , 0.000257220061, 0.000304587622, -0.000171820007, -0.0114388978, -0.017134551, -1.19821188E-05, 922.1345    , 32.326622   , 787.888     , 1.12        , 3           , 12          , 0.174642846 , 0
-0.166911   , 0.11652416  , -9.790951   , 0.0010101751, 4.32686647E-07, -0.0006343353, -0.0114286877, -0.01713462 , -1.83259017E-05, 922.147156  , 32.3293343  , 787.888062  , 1.13        , 3           , 13          , 0           , 0
-0.169181809, 0.121151283 , -9.791399   , 0.0005263088, 9.016937E-05, 0.0003131698, -0.011423477, -0.0171336811, -1.52043276E-05, 922.147156  , 32.3293343  , 787.8881    , 1.14        , 3           , 14          , -0.0004135397, -0.00026350675
-0.160059169, 0.11754249  , -9.786117   , 0.000211362116, 0.00033060112, 0.000513392966, -0.0114214523, -0.017130319, -1.01078822E-05, 922.147156  , 32.3293343  , 787.8882    , 1.15        , 3           , 15          , 0           , 2.39154929E-06
-0.1626844  , 0.11890018  , -9.787631   , 0.0005799486, 7.27399456E-05, -7.690692E-05, -0.0114156408, -0.0171295982, -1.08853092E-05, 922.147156  , 32.3293343  , 787.888245  , 1.16        , 3           , 16          , 0           , 1.401298E-45
-0.1674448  , 0.11559011  , -9.788982   , 2.2982189E-05, -0.000283436937, -0.0005087406, -0.0114153232, -0.017132489, -1.59406518E-05, 922.147156  , 32.3293343  , 787.8883    , 1.17        , 3           , 20          , 0           , 0
-0.163433254, 0.114649154 , -9.790537   , -0.000226820528, -0.00026823752, 9.880489E-05, -0.0114176068, -0.0171351619, -1.49219195E-05, 922.147156  , 32.3293343  , 787.888367  , 1.18        , 3           , 21          , 0           , 0
-0.168580219, 0.109740123 , -9.783101   , 0.000374337164, -0.0003102387, -0.000663159241, -0.0114137512, -0.0171383377, -2.15184718E-05, 922.147156  , 32.3293343  , 787.8884    , 1.19        , 3           , 22          , 0           , 0
-0.162557617, 0.118029892 , -9.789138   , 0.0007810851, -0.000390419242, -0.000516101543, -0.0114058517, -0.0171423  , -2.663523E-05, 922.147156  , 32.3293343  , 787.8885    , 1.2         , 3           , 40          , 0           , 0
-0.161457062, 0.1110067   , -9.781259   , -0.000106344174, 0.000225257143, 0.000250729674, -0.0114202034, -0.01713737 , -2.39265228E-05, 922.147156  , 32.3293343  , 787.8687    , 1.21        , 3           , 41          , 0           , 0
-0.17107892 , 0.100287154 , -9.787947   , 0.000585208647, 0.000269121781, 0.0006646012, -0.0114144636, -0.0171346068, -1.7310871E-05, 922.147156  , 32.3293343  , 787.8687    , 1.22        , 3           , 42          , 0           , 0
-0.176317126, 0.111387849 , -9.792109   , 0.000387591426, 0.000253534759, 6.516099E-05, -0.0114106  , -0.01713206 , -1.66881564E-05, 922.1077    , 32.3294029  , 787.8687    , 1.23        , 3           , 255         , 0           , 0
-0.164719775, 0.112328812 , -9.792545   , -0.000189618382, 0.000367998437, -0.0001449258, -0.0114124706, -0.0171283986, -1.817948E-05, 922.1077    , 32.3294029  , 787.8687    , 1.24        , 3           , 255         , 0           , 0
-0.176018029, 0.115214266 , -9.790764   , -0.0004834829, -0.000377607561, 0.000294003723, -0.0114173563, -0.01713214 , -1.51961685E-05, 922.1077    , 32.3294029  , 787.8687    , 1.25        , 3           , 255         , 0           , 0
-0.164945289, 0.1096737   , -9.793999   , 0.000146409322, 0.000196636771, 0.000114571463, -0.0114159118, -0.0171301626, -1.40728362E-05, 922.1077    , 32.3294029  , 787.8687    , 1.26        , 3           , 255         , 0           , 0
-0.160389081, 0.113747731 , -9.784878   , 0.00068228005, 0.000302046828, 0.000276858627, -0.0114091355, -0.01712711 , -1.13385731E-05, 922.1077    , 32.3294029  , 787.8687    , 1.27        , 3           , 255         , 0           , 0
-0.16347757 , 0.118222736 , -9.792814   , 0.0007686477, 1.01657351E-05, 0.000704015139, -0.0114015695, -0.0171269272, -4.29919373E-06, 922.1077    , 32.3294029  , 787.8687    , 1.28        , 3           , 255         , 0           , 0
-0.162837267, 0.1102797   , -9.798349   , 0.00040459336, -0.000186253077, -0.000271919474, -0.0113974772, -0.01712882 , -6.99731845E-06, 922.1077    , 32.3294029  , 787.8687    , 1.29        , 3           , 255         , 0           , 0
-0.1581205  , 0.112761714 , -9.792226   , 0.0009116766, -0.000121839956, -0.00012427273, -0.011388341, -0.01713005 , -8.226227E-06, 922.1077    , 32.3294029  , 787.8687    , 1.3         , 3           , 255         , 0           , 0
-0.1633384  , 0.110891737 , -9.797938   , 0.000155303947, -6.056679E-05, -0.00107614836, -0.01138575 , -0.0171252321, -1.89960519E-05, 922.1077    , 32.3294029  , 787.8916    , 1.31        , 3           , 255         , 0           , 0
-0.170797423, 0.105800942 , -9.793435   , -0.0001832  , -5.892376E-05, -0.000485497963, -0.0113874981, -0.0171258748, -2.38445973E-05, 922.1077    , 32.3294029  , 787.8917    , 1.32        , 3           , 255         , 0           , 0
-0.168697372, 0.104298189 , -9.793852   , 0.0005372134, 5.14179847E-05, -0.000256652769, -0.0113820815, -0.0171253886, -2.64171358E-05, 922.1358    , 32.333744   , 787.891846  , 1.33        , 3           , 255         , 0           , 0
-0.165297017, 0.113555476 , -9.792746   , 0.000220109985, 8.891399E-05, 0.000445850135, -0.0113799563, -0.01712445 , -2.19684953E-05, 922.1358    , 32.333744   , 787.891968  , 1.34        , 3           , 255         , 0           , 0
-0.164651364, 0.11004857  , -9.795337   , 0.000140324031, -0.000196388311, 0.000648913265, -0.0113786655, -0.0171263386, -1.54566551E-05, 922.1358    , 32.333744   , 787.8921    , 1.35        , 3           , 255         , 0           , 0
-0.168759823, 0.108614564 , -9.795813   , 0.000587568444, 0.000145911064, -5.98750776E-05, -0.0113727786, -0.0171248857, -1.60720319E-05, 922.1358    , 32.333744   , 787.8922    , 1.36        , 3           , 255         , 0           , 0
-0.177073777, 0.117269896 , -9.796405   , 0.000386235362, 0.0001218064, 0.000432810135, -0.0113689909, -0.0171236228, -1.1757531E-05, 922.1358    , 32.333744   , 787.892334  , 1.37        , 3           , 255         , 0           , 0
-0.167231947, 0.110210739 , -9.794048   , -8.809421E-05, 5.82929351E-06, -0.0002454592, -0.0113698291, -0.01712359 , -1.42129311E-05, 922.1358    , 32.333744   , 787.892456  , 1.38        , 3           , 255         , 0           , 0
-0.177752614, 0.116499804 , -9.792932   , 0.000194047985, -0.000187775062, -0.0004046179, -0.01136782 , -0.0171255115, -1.82379918E-05, 922.1358    , 32.333744   , 787.8926    , 1.39        , 3           , 255         , 0           , 0
-0.177320242, 0.119153045 , -9.79051    , -0.000172269123, -0.000131260866, 0.000111736219, -0.0113695627, -0.0171268117, -1.710565E-05, 922.1358    , 32.333744   , 787.8927    , 1.4         , 3           , 255         , 0           , 0
-0.163643748, 0.113149121 , -9.793233   , 0.0005818758, -0.000194900087, -0.000293788529, -0.0113641061, -0.01713417 , -2.00145059E-05, 922.1358    , 32.333744   , 787.884338  , 1.41        , 3           , 255         , 0           , 0
-0.168441921, 0.116456784 , -9.786154   , -0.000117024378, -8.639414E-06, -0.000545261661, -0.0113651827, -0.0171343181, -2.54664537E-05, 922.1358    , 32.333744   , 787.8844    , 1.42        , 3           , 255         , 0           , 0
-0.168178946, 0.11409235  , -9.792978   , 4.28730855E-05, -0.000350992341, 0.0001575876, -0.0113647822, -0.0171378087, -2.38505927E-05, 922.1519    , 32.3322525  , 787.88446   , 1.43        , 3           , 255         , 0           , 0
-0.167522117, 0.123208046 , -9.796398   , 0.000523737 , -0.000415824325, 0.0003596214, -0.011359605, -0.0171419233, -2.02069277E-05, 922.1519    , 32.3322525  , 787.8845    , 1.44        , 3           , 255         , 0           , 0
-0.174069613, 0.10865996  , -9.793234   , -0.000304618123, -5.997921E-06, -0.000187842117, -0.0113626206, -0.0171420053, -2.20847651E-05, 922.1519    , 32.3322525  , 787.8846    , 1.45        , 3           , 255         , 0           , 0
-0.17531842 , 0.117001832 , -9.800703   , -0.000168651255, -0.000144955178, 0.000381093356, -0.0113643724, -0.0171434134, -1.82571366E-05, 922.1519    , 32.3322525  , 787.884644  , 1.46        , 3           , 255         , 0           , 0
-0.180147856, 0.119056918 , -9.798976   , 9.094359E-05, 2.90796743E-05, -2.83837944E-05, -0.0113634588, -0.0171431266, -1.8544295E-05, 922.1519    , 32.3322525  , 787.8847    , 1.47        , 3           , 255         , 0           , 0
-0.168146133, 0.117196523 , -9.801742   , -0.000391015055, -0.000215644832, -0.0007319266, -0.0113672428, -0.0171453655, -2.5839463E-05, 922.1519    , 32.3322525  , 787.884766  , 1.48        , 3           , 255         , 0           , 0
-0.158720464, 0.115311146 , -9.793872   , 3.682662E-05, -0.00022061856, -0.00035293863, -0.0113668144, -0.01714761 , -2.93439662E-05, 922.1519    , 32.3322525  , 787.8848    , 1.49        , 3           , 255         , 0           , 0
-0.166979283, 0.111613609 , -9.789345   , -1.0359654E-05, -8.614731E-05, 5.947568E-05, -0.0113669271, -0.0171484649, -2.87393759E-05, 922.1519    , 32.3322525  , 787.8849    , 1.5         , 3           , 255         , 0           , 0
-0.16793634 , 0.115596771 , -9.792325   , 3.79295379E-05, -2.51379679E-05, 0.00060348527, -0.0113761062, -0.0171512682, -2.25391741E-05, 922.1519    , 32.3322525  , 787.860352  , 1.51        , 3           , 255         , 0           , 0
-0.165023819, 0.10824652  , -9.795934   , 0.000431033928, 0.000188643375, 0.000522994669, -0.0113718864, -0.0171493217, -1.73304034E-05, 922.1519    , 32.3322525  , 787.860352  , 1.52        , 3           , 255         , 0           , 0
-0.180134267, 0.112284504 , -9.787117   , 0.000452405657, -0.000308325456, 0.0007456897, -0.0113674905, -0.0171523187, -9.838018E-06, 922.1218    , 32.3363228  , 787.860352  , 1.53        , 3           , 255         , 0           , 0
-0.174736112, 0.108341195 , -9.792212   , 0.000333529984, -0.0004092508, 0.000151365835, -0.0113641825, -0.0171563923, -8.277765E-06, 922.1218    , 32.3363228  , 787.860352  , 1.54        , 3           , 255         , 0           , 0
-0.168070957, 0.108245216 , -9.787899   , -0.000325506233, -0.00014571441, 0.0003584278, -0.0113674989, -0.0171578079, -4.67672044E-06, 922.1218    , 32.3363228  , 787.860352  , 1.55        , 3           , 255         , 0           , 0
-0.17805852 , 0.109485984 , -9.790065   , -0.000103094237, 0.000240364374, 0.0006202464, -0.011368636, -0.0171553362, 1.49877667E-06, 922.1218    , 32.3363228  , 787.860352  , 1.56        , 3           , 255         , 0           , 0
-0.1620691  , 0.117354348 , -9.79466    , 0.000368358335, -0.0003034816, 0.0004810988, -0.0113650346, -0.0171583127, 6.34453545E-06, 922.1218    , 32.3363228  , 787.860352  , 1.57        , 3           , 255         , 0           , 0
-0.1732941  , 0.1106161   , -9.794998   , 0.0004808588, 0.00012479919, -0.000461489661, -0.0113601461, -0.0171571169, 1.71518116E-06, 922.1218    , 32.3363228  , 787.860352  , 1.58        , 3           , 255         , 0           , 0
-0.176119953, 0.112787843 , -9.794819   , 0.000411637651, 0.000343329826, -0.000622864463, -0.0113559235, -0.0171537567, -4.55281452E-06, 922.1218    , 32.3363228  , 787.860352  , 1.59        , 3           , 255         , 0           , 0
-0.1709662  , 0.112154029 , -9.800463   , 0.000307143957, 4.83687036E-05, 0.000262432382, -0.0113528967, -0.0171532426, -1.9338413E-06, 922.1218    , 32.3363228  , 787.860352  , 1.6         , 3           , 255         , 0           , 0
-0.172953337, 0.112132095 , -9.799752   , -0.000203970034, 0.000160091746, -0.00028444457, -0.0113553582, -0.01716025 , -4.78856145E-06, 922.1218    , 32.3363228  , 787.8701    , 1.61        , 3           , 255         , 0           , 0
-0.177097768, 0.115137793 , -9.798974   , 8.11630453E-05, 0.00016462199, -0.000145969985, -0.0113545218, -0.01715862 , -6.267043E-06, 922.1218    , 32.3363228  , 787.8702    , 1.62        , 3           , 255         , 0           , 0
-0.180035561, 0.11131344  , -9.78494549 , 0.0010661782, 0.000237936954, 0.000220754067, -0.0113438955, -0.0171562154, -4.08638653E-06, 922.1733    , 32.33395    , 787.870239  , 1.63        , 3           , 255         , 0           , 0
-0.172840163, 0.113378286 , -9.791351   , 9.564072E-05, 0.000354439544, 4.74088447E-05, -0.0113429483, -0.0171526689, -3.65248547E-06, 922.1733    , 32.33395    , 787.8703    , 1.64        , 3           , 255         , 0           , 0
-0.164916381, 0.115090355 , -9.78887749 , 9.686645E-05, 0.000287169969, 5.37959932E-05, -0.0113419881, -0.0171497874, -3.14706722E-06, 922.1733    , 32.33395    , 787.870361  , 1.65        , 3           , 255         , 0           , 0
-0.17367883 , 0.118934989 , -9.791282   , 0.000725754653, -0.000185691752, -4.330654E-05, -0.0113347238, -0.0171516482, -3.55910743E-06, 922.1733    , 32.33395    , 787.8704    , 1.66        , 3           , 255         , 0           , 0
-0.15455544 , 0.119029939 , -9.792686   , 0.0006191187, 0.000199087284, -0.000103787243, -0.0113285128, -0.01714967 , -4.61960963E-06, 922.1733    , 32.33395    , 787.8705    , 1.67        , 3           , 255         , 0           , 0
-0.166732267, 0.120206848 , -9.800735   , 0.000549181656, 0.000193754822, 0.000338992628, -0.01132308 , -0.0171476956, -1.251423E-06, 922.1733    , 32.33395    , 787.870544  , 1.68        , 3           , 255         , 0           , 0
-0.173649877, 0.112810537 , -9.79568    , -4.567945E-05, 0.000308769464, 0.00011487156, -0.0113235563, -0.0171445943, -1.37608581E-07, 922.1733    , 32.33395    , 787.8706    , 1.69        , 3           , 255         , 0           , 0
-0.1627661  , 0.103227042 , -9.785805   , 6.14553574E-06, 0.000204173455, 0.0006218542, -0.0113236019, -0.0171424858, 6.05816831E-06, 922.1733    , 32.33395    , 787.870667  , 1.7         , 3           , 255         , 0           , 0
-0.160480261, 0.104065672 , -9.785847   , 0.000175800189, 2.28602585E-05, 0.00010444731, -0.0113289915, -0.01714677 , 7.22236246E-06, 922.1733    , 32.33395    , 787.8229    , 1.71        , 3           , 255         , 0           , 0
-0.173657492, 0.107338391 , -9.79218    , -0.0003894162, 8.45189061E-05, 0.000216966509, -0.0113329226, -0.0171459019, 9.38257654E-06, 922.1733    , 32.33395    , 787.8227    , 1.72        , 3           , 255         , 0           , 0
-0.1647897  , 0.111714348 , -9.78333    , -0.000331588468, 0.000152601016, 0.0003440298, -0.0113362968, -0.0171443373, 1.28057709E-05, 922.1168    , 32.33544    , 787.8225    , 1.73        , 3           , 255         , 0           , 0
-0.159523726, 0.108717754 , -9.796634   , 0.0003849938, -0.000128774846, -0.0005687472, -0.0113323489, -0.01714569 , 7.13257077E-06, 922.1168    , 32.33544    , 787.8223    , 1.74        , 3           , 255         , 0           , 0
-0.172925249, 0.11671336  , -9.795115   , 0.00018427195, 0.000219346315, 0.000479956885, -0.01133059 , -0.0171434414, 1.190756E-05, 922.1168    , 32.33544    , 787.822144  , 1.75        , 3           , 255         , 0           , 0
-0.163412124, 0.121911988 , -9.788254   , 0.000359353027, 0.000280692184, 0.000297693448, -0.0113270469, -0.0171406  , 1.48528707E-05, 922.1168    , 32.33544    , 787.82196   , 1.76        , 3           , 255         , 0           , 0
-0.1689815  , 0.112722062 , -9.787014   , 0.000355327677, -0.000130966859, 1.10191713E-05, -0.0113234958, -0.0171419084, 1.49779053E-05, 922.1168    , 32.33544    , 787.8218    , 1.77        , 3           , 255         , 0           , 0
-0.175433353, 0.11072962  , -9.788117   , 7.91550556E-05, -0.000193315122, 0.0003895663, -0.0113227721, -0.017143799, 1.88956838E-05, 922.1168    , 32.33544    , 787.8216    , 1.78        , 3           , 255         , 0           , 0
-0.167909354, 0.117874965 , -9.78853    , -0.000105149142, -0.000320456224, -7.587597E-05, -0.0113238106, -0.0171470121, 1.81731757E-05, 922.1168    , 32.33544    , 787.8214    , 1.79        , 3           , 255         , 0           , 0
-0.171545878, 0.112403177 , -9.786767   , 5.379357E-05, -0.0001539384, -0.000349391019, -0.0113232117, -0.01714859 , 1.46964958E-05, 922.1168    , 32.33544    , 787.8212    , 1.8         , 3           , 255         , 0           , 0
-0.166555434, 0.115296111 , -9.790194   , 8.433999E-07, 0.000251535763, 0.000167478749, -0.0113278236, -0.0171460863, 1.64216253E-05, 922.1168    , 32.33544    , 787.8418    , 1.81        , 3           , 255         , 0           , 0
-0.1641732  , 0.116094671 , -9.788841   , -3.23308341E-05, 7.142086E-05, 0.000247599324, -0.01132819 , -0.017145345, 1.8889672E-05, 922.1168    , 32.33544    , 787.841736  , 1.82        , 3           , 255         , 0           , 0
-0.174090028, 0.108531453 , -9.793997   , -0.000246218027, 0.000104786974, -3.90785463E-05, -0.0113306437, -0.0171443019, 1.84869969E-05, 922.1258    , 32.3340836  , 787.8417    , 1.83        , 3           , 255         , 0           , 0
-0.1683474  , 0.111975029 , -9.793818   , -0.00044183954, -7.91836646E-05, -0.000112206952, -0.0113350442, -0.0171451066, 1.737383E-05, 922.1258    , 32.3340836  , 787.8416    , 1.84        , 3           , 255         , 0           , 0
-0.1786299  , 0.108812407 , -9.788225   , -0.000332487369, -0.000334996672, 0.0005901805, -0.01133847 , -0.0171483885, 2.331395E-05, 922.1258    , 32.3340836  , 787.841553  , 1.85        , 3           , 255         , 0           , 0
-0.175592422, 0.112596467 , -9.791997   , -1.48901017E-06, 0.000135952025, -8.441409E-05, -0.01133847 , -0.01714704 , 2.24543437E-05, 922.1258    , 32.3340836  , 787.8415    , 1.86        , 3           , 255         , 0           , 0
-0.160345912, 0.115430854 , -9.789687   , 8.21178837E-05, 0.000562166853, 9.502075E-05, -0.011337664, -0.0171414074, 2.33408664E-05, 922.1258    , 32.3340836  , 787.841431  , 1.87        , 3           , 255         , 0           , 0
-0.169055685, 0.116618611 , -9.801332   , -0.000124761282, 0.00027366195, -0.000274486956, -0.0113388645, -0.0171387  , 2.05648121E-05, 922.1258    , 32.3340836  , 787.8414    , 1.88        , 3           , 255         , 0           , 0
-0.168528408, 0.1111877   , -9.799505   , 4.75646229E-05, 0.000126241241, 0.0005081426, -0.0113384761, -0.01713738 , 2.56322128E-05, 922.1258    , 32.3340836  , 787.8413    , 1.89        , 3           , 255         , 0           , 0
-0.171827167, 0.111322209 , -9.803008   , 0.000615561963, 0.0003737657, 0.000164555517, -0.0113323489, -0.0171336271, 2.72354937E-05, 922.1258    , 32.3340836  , 787.841248  , 1.9         , 3           , 255         , 0           , 0
-0.171447188, 0.109125569 , -9.792536   , -0.0005223842, -0.000144211284, 0.000775001536, -0.011341338, -0.0171386134, 3.506457E-05, 922.1258    , 32.3340836  , 787.8498    , 1.91        , 3           , 255         , 0           , 0
-0.171992928, 0.113014162 , -9.794569   , -0.000675720046, 7.731478E-05, -0.000614848861, -0.01134799 , -0.0171379112, 2.8906954E-05, 922.1258    , 32.3340836  , 787.8498    , 1.92        , 3           , 255         , 0           , 0
-0.169238329, 0.117064163 , -9.792412   , 0.000321080966, -0.000338254322, -9.978302E-05, -0.0113447616, -0.0171413068, 2.7947448E-05, 922.200256  , 32.3372726  , 787.8498    , 1.93        , 3           , 255         , 0           , 0
-0.171614662, 0.109218478 , -9.792589   , 0.0003621673, -0.000488650636, -0.000606483431, -0.0113410372, -0.0171462614, 2.1937698E-05, 922.200256  , 32.3372726  , 787.8498    , 1.94        , 3           , 255         , 0           , 0
-0.173504084, 0.103228189 , -9.79098    , -0.000161291886, -0.000193955289, 0.0005180755, -0.0113427415, -0.01714814 , 2.71407553E-05, 922.200256  , 32.3372726  , 787.8498    , 1.95        , 3           , 255         , 0           , 0
-0.1734378  , 0.113847256 , -9.7848835  , -0.00020724049, -0.0005279132, 0.000623269356, -0.011344919, -0.0171533469, 3.343368E-05, 922.200256  , 32.3372726  , 787.8498    , 1.96        , 3           , 255         , 0           , 0
-0.168002173, 0.1093835   , -9.78996    , -0.00023845883, -0.000360068749, 0.0001514493, -0.01134733 , -0.01715693 , 3.498911E-05, 922.200256  , 32.3372726  , 787.8498    , 1.97        , 3           , 255         , 0           , 0
-0.165491849, 0.102045655 , -9.790835   , -0.000257078762, -0.000464189681, -0.000270823657, -0.011349855, -0.0171615984, 3.23333843E-05, 922.200256  , 32.3372726  , 787.8498    , 1.98        , 3           , 255         , 0           , 0
-0.171034619, 0.10218972  , -9.799797   , 0.000176485933, 0.000134100672, 0.000175391047, -0.011348119, -0.0171602387, 3.407217E-05, 922.200256  , 32.3372726  , 787.8498    , 1.99        , 3           , 255         , 0           , 0
-0.167647332, 0.110701583 , -9.789048   , 0.000149605185, 0.000263444585, -0.0002138957, -0.011346586, -0.0171576273, 3.19032042E-05, 922.200256  , 32.3372726  , 787.8498    , 2           , 3           , 0           , 7.4622364   , 200
-0.168589741, 0.110228822 , -9.794397   , -0.0002731953, 0.000171129825, -0.00071594055, -0.0113442279, -0.0171617474, 2.46387335E-05, 922.200256  , 32.3372726  , 787.7682    , 2.01        , 3           , 1           , 0           , 0
-0.171263784, 0.107028261 , -9.793895   , 9.90984845E-05, 1.49706029E-05, -4.070128E-05, -0.0113432305, -0.017161604, 2.42299975E-05, 922.200256  , 32.3372726  , 787.7677    , 2.02        , 3           , 2           , 0           , 0
-0.168650776, 0.104399025 , -9.797549   , 0.000186097619, -1.7673301E-05, -9.786525E-06, -0.0113413678, -0.017161781, 2.4134124E-05, 922.1719    , 32.3353729  , 787.7672    , 2.03        , 3           , 3           , 0           , 0
-0.171699136, 0.109561585 , -9.796639   , -9.903862E-05, -0.0008622681, -0.0005600085, -0.0113422628, -0.0171704683, 1.86315119E-05, 922.1719    , 32.3353729  , 787.7667    , 2.04        , 3           , 4           , 0           , 0
-0.169063956, 0.114847139 , -9.78992748 , 2.70665914E-05, -0.000111394882, 9.63932052E-06, -0.0113419928, -0.01717158 , 1.8740544E-05, 922.1719    , 32.3353729  , 787.766235  , 2.05        , 3           , 5           , 0           , 0
-0.1716564  , 0.114908    , -9.793451   , 0.000644230051, -0.0004806774, -5.80891E-05, -0.0113355424, -0.0171763934, 1.82141321E-05, 922.1719    , 32.3353729  , 787.765747  , 2.06        , 3           , 6           , 0           , 0
-0.164229646, 0.107864045 , -9.790548   , 0.0007576992, -0.000201364281, 5.6781988E-05, -0.0113279754, -0.0171784014, 1.88047961E-05, 922.1719    , 32.3353729  , 787.765259  , 2.07        , 3           , 7           , 0           , 0
-0.163328379, 0.104772709 , -9.787416   , -4.11772053E-05, -0.000227670709, 0.000167732549, -0.0113284159, -0.0171806589, 2.05080069E-05, 922.1719    , 32.3353729  , 787.7648    , 2.08        , 3           , 8           , 5           , 5
-0.162458211, 0.109663174 , -9.787967   , -0.00021767334, 0.0005107913, -4.64029436E-05, -0.0113305831, -0.0171755534, 1.99860679E-05, 922.1719    , 32.3353729  , 787.7643    , 2.09        , 3           , 9           , 5           , 0.1
-0.165853471, 0.112548031 , -9.799974   , 4.63147E-05 , 7.459005E-05, -0.0009394789, -0.0113299582, -0.0171749145, 1.05822728E-05, 922.1719    , 32.3353729  , 787.7638    , 2.1         , 3           , 10          , 0.1         , 0.1
-0.1660001  , 0.103444204 , -9.793173   , 0.0002652178, -9.64068458E-05, -0.000324398425, -0.0113240751, -0.0171748344, 7.294445E-06, 922.1719    , 32.3353729  , 787.7256    , 2.11        , 3           , 11          , 0.008036136 , 0.008036135
-0.169583291, 0.10492368  , -9.791192   , 0.0004831049, -0.000343673979, 0.0005758062, -0.0113193439, -0.0171782076, 1.30917515E-05, 922.1719    , 32.3353729  , 787.7249    , 2.12        , 3           , 12          , 0.174643889 , 0
-0.16780445 , 0.119167984 , -9.77593    , 0.0006588051, -0.0001719874, 0.000663586659, -0.01131287 , -0.01717985 , 1.97474637E-05, 922.1219    , 32.33551    , 787.724243  , 2.13        , 3           , 13          , 0           , 0
-0.168680042, 0.109685063 , -9.800958   , 0.000139739423, -0.000106036809, 0.0004481272, -0.01131155 , -0.01718086 , 2.42410024E-05, 922.1219    , 32.33551    , 787.7236    , 2.14        , 3           , 14          , -0.000413488335, -0.000263454043
-0.16772525 , 0.10892085  , -9.790797   , -0.000753429253, -7.408575E-05, 0.000435082242, -0.0113191586, -0.0171815548, 2.86004524E-05, 922.1219    , 32.33551    , 787.7229    , 2.15        , 3           , 15          , 0           , 2.39126871E-06
-0.174964547, 0.1183977   , -9.792655   , -0.000457450078, 0.0005192772, 0.000339186925, -0.0113237891, -0.0171763226, 3.19337159E-05, 922.1219    , 32.33551    , 787.7222    , 2.16        , 3           , 16          , 0           , 1.401298E-45
-0.171352565, 0.11664933  , -9.790549   , 0.0004201879, 3.1863412E-05, -0.000316855323, -0.0113195339, -0.01717604 , 2.87613839E-05, 922.1219    , 32.33551    , 787.721558  , 2.17        , 3           , 20          , 0           , 0
-0.177133158, 0.116680957 , -9.79044151 , 6.99508237E-05, 5.080765E-05, 0.0009841438, -0.0113190021, -0.0171754211, 3.85976346E-05, 922.1219    , 32.33551    , 787.7209    , 2.18        , 3           , 21          , 0           , 0
-0.168507   , 0.111113548 , -9.790847   , 0.000233379847, -0.000279640779, 5.37842279E-05, -0.0113166794, -0.0171782114, 3.916716E-05, 922.1219    , 32.33551    , 787.7202    , 2.19        , 3           , 22          , 0           , 0
-0.169894785, 0.109694719 , -9.788542   , -1.965274E-05, -0.000110719178, 0.000108070562, -0.0113168946, -0.0171793066, 4.02604637E-05, 922.1219    , 32.33551    , 787.719543  , 2.2         , 3           , 40          , 0           , 0
-0.162547559, 0.09808175  , -9.796054   , -0.0005512916, -0.00032110163, 0.0002097977, -0.011325133, -0.017187316, 4.24411337E-05, 922.1219    , 32.33551    , 787.749268  , 2.21        , 3           , 41          , 0           , 0
-0.158217132, 0.108602777 , -9.794446   , 0.000332031923, 0.000463636883, 0.000214713466, -0.0113218511, -0.0171826556, 4.45358964E-05, 922.1219    , 32.33551    , 787.7488    , 2.22        , 3           , 42          , 0           , 0
-0.161970034, 0.119931862 , -9.791737   , 0.00136696291, 0.0004872004, -0.000363801169, -0.011308115, -0.0171778277, 4.084252E-05, 922.130066  , 32.3384933  , 787.7483    , 2.23        , 3           , 255         , 0           , 0
-0.1740082  , 0.11262884  , -9.797797   , 0.000801673741, 0.000375353236, 0.00038570477, -0.0113001661, -0.017174026, 4.465735E-05, 922.130066  , 32.3384933  , 787.7478    , 2.24        , 3           , 255         , 0           , 0
-0.178115726, 0.104024507 , -9.791598   , 0.00075422565, -0.000104433129, 0.00126727961, -0.0112928422, -0.0171749257, 5.73426769E-05, 922.130066  , 32.3384933  , 787.7473    , 2.25        , 3           , 255         , 0           , 0
-0.170598269, 0.110100389 , -9.787313   , 0.0003215877, -0.000166841142, 0.0003664818, -0.0112896878, -0.0171765536, 6.10265633E-05, 922.130066  , 32.3384933  , 787.7468    , 2.26        , 3           , 255         , 0           , 0
-0.159572676, 0.114381477 , -9.785362   , 0.000533267739, -0.00040381233, 0.000198582668, -0.0112843914, -0.0171805713, 6.305808E-05, 922.130066  , 32.3384933  , 787.746338  , 2.27        , 3           , 255         , 0           , 0
-0.162852466, 0.113828219 , -9.788831   , -0.00024790215, 4.27547639E-05, -2.33150786E-05, -0.011286865, -0.0171801448, 6.28200942E-05, 922.130066  , 32.3384933  , 787.74585   , 2.28        , 3           , 255         , 0           , 0
-0.171432719, 0.113235429 , -9.793492   , -0.0002974563, -0.000172733213, 0.000308014336, -0.0112898936, -0.0171818379, 6.591992E-05, 922.130066  , 32.3384933  , 787.745361  , 2.29        , 3           , 255         , 0           , 0
-0.177942544, 0.115778469 , -9.794697   , -0.000133195048, -0.000198080088, 0.0009443513, -0.0112913866, -0.01718371 , 7.538635E-05, 922.130066  , 32.3384933  , 787.7449    , 2.3         , 3           , 255         , 0           , 0
-0.1622033  , 0.113808855 , -9.796932   , 0.000346184184, -0.0005466406, 0.0002619201, -0.01128894 , -0.0171881057, 7.80840855E-05, 922.130066  , 32.3384933  , 787.7615    , 2.31        , 3           , 255         , 0           , 0
-0.169630289, 0.113104962 , -9.801283   , 0.000263622875, -0.000163567427, 0.000669299 , -0.0112864189, -0.0171896666, 8.47959454E-05, 922.130066  , 32.3384933  , 787.7611    , 2.32        , 3           , 255         , 0           , 0
-0.1739398  , 0.11473874  , -9.784769   , 0.000380454236, 0.000139350668, 0.0004908038, -0.0112827  , -0.0171882175, 8.968854E-05, 922.1055    , 32.3381538  , 787.760742  , 2.33        , 3           , 255         , 0           , 0
-0.1680013  , 0.115386806 , -9.781029   , 0.0002901751, -8.57024861E-05, -0.000199686459, -0.0112797655, -0.0171890967, 8.77012353E-05, 922.1055    , 32.3381538  , 787.7604    , 2.34        , 3           , 255         , 0           , 0
-0.173982471, 0.102721848 , -9.789085   , 0.0001810048, -0.000323949585, -0.000230790349, -0.0112779168, -0.0171923637, 8.542975E-05, 922.1055    , 32.3381538  , 787.76      , 2.35        , 3           , 255         , 0           , 0
-0.1685524  , 0.105639324 , -9.795132   , 0.0005174753, 0.0002560054, 0.000128849264, -0.0112727629, -0.0171897877, 8.668945E-05, 922.1055    , 32.3381538  , 787.759644  , 2.36        , 3           , 255         , 0           , 0
-0.171787739, 0.109910786 , -9.794817   , 0.0008624292, 0.000122166 , 0.000443411962, -0.0112642134, -0.0171885174, 9.111005E-05, 922.1055    , 32.3381538  , 787.7593    , 2.37        , 3           , 255         , 0           , 0
-0.171405762, 0.121998273 , -9.788588   , 0.000723290257, -6.46789558E-05, -0.0005222223, -0.0112568922, -0.0171892233, 8.58948042E-05, 922.1055    , 32.3381538  , 787.7589    , 2.38        , 3           , 255         , 0           , 0
-0.16934678 , 0.119885646 , -9.790678   , 0.0004353974, -3.71832E-05, 0.000118753567, -0.0112525588, -0.0171895809, 8.70866E-05 , 922.1055    , 32.3381538  , 787.758545  , 2.39        , 3           , 255         , 0           , 0
-0.173702553, 0.109444723 , -9.795      , 0.0001674293, 0.000399361277, 0.0008297152, -0.0112510277, -0.017185498, 9.533931E-05, 922.1055    , 32.3381538  , 787.7582    , 2.4         , 3           , 255         , 0           , 0
-0.168963253, 0.113221467 , -9.794595   , 0.000176706133, 0.000321720378, 7.0717484E-05, -0.0112541309, -0.0171864182, 9.60938341E-05, 922.1055    , 32.3381538  , 787.806     , 2.41        , 3           , 255         , 0           , 0
-0.170460448, 0.115514256 , -9.798321   , -9.599366E-05, 0.000237696775, 0.0004246488, -0.0112551637, -0.017183993, 0.000100313824, 922.1055    , 32.3381538  , 787.805969  , 2.42        , 3           , 255         , 0           , 0
-0.169241786, 0.109393373 , -9.79514    , 0.0005921291, -0.000200066657, -0.000162045646, -0.0112492153, -0.0171860121, 9.871579E-05, 922.1528    , 32.3357124  , 787.8059    , 2.43        , 3           , 255         , 0           , 0
-0.16647324 , 0.104735672 , -9.788839   , 0.000167058111, 0.0003888487, -0.000484359654, -0.01124746 , -0.0171821769, 9.382817E-05, 922.1528    , 32.3357124  , 787.805847  , 2.44        , 3           , 255         , 0           , 0
-0.168845415, 0.110466219 , -9.79252    , 0.000139535841, -0.000544494949, -0.000181728683, -0.0112460339, -0.0171876419, 9.20720049E-05, 922.1528    , 32.3357124  , 787.8058    , 2.45        , 3           , 255         , 0           , 0
-0.174404189, 0.114679769 , -9.7922     , -0.00018692817, 0.000166264144, 0.000441674871, -0.0112479795, -0.01718593 , 9.647031E-05, 922.1528    , 32.3357124  , 787.8057    , 2.46        , 3           , 255         , 0           , 0
-0.1682827  , 0.110924289 , -9.797909   , 2.537886E-05, 1.87847763E-06, 0.0003048686, -0.0112477783, -0.0171858761, 9.951898E-05, 922.1528    , 32.3357124  , 787.8057    , 2.47        , 3           , 255         , 0           , 0
-0.1717073  , 0.114120826 , -9.799156   , -0.000215473847, -9.53683048E-06, -0.000207267512, -0.0112498971, -0.0171859954, 9.744724E-05, 922.1528    , 32.3357124  , 787.8057    , 2.48        , 3           , 255         , 0           , 0
-0.174198359, 0.111889109 , -9.799657   , -0.000306415983, -0.000359498517, 0.000216524946, -0.0112529993, -0.0171895642, 9.96530653E-05, 922.1528    , 32.3357124  , 787.8057    , 2.49        , 3           , 255         , 0           , 0
-0.16596517 , 0.116991378 , -9.791733   , 0.00042452148, -0.000125473569, -0.0007175284, -0.0112486314, -0.0171909016, 9.249148E-05, 922.1528    , 32.3357124  , 787.8057    , 2.5         , 3           , 255         , 0           , 0
-0.165818915, 0.117904067 , -9.792567   , 0.0005921477, 0.000309617433, -0.0005106562, -0.0112461355, -0.01719045 , 8.74102043E-05, 922.1528    , 32.3357124  , 787.7846    , 2.51        , 3           , 255         , 0           , 0
-0.172262922, 0.1133196   , -9.79847    , 0.00012885491, 0.000159675052, -0.00077553693, -0.0112447133, -0.0171889383, 7.963641E-05, 922.1528    , 32.3357124  , 787.7844    , 2.52        , 3           , 255         , 0           , 0
-0.166313618, 0.112790383 , -9.783027   , 0.000641685852, -0.000201659277, -6.430763E-05, -0.0112382872, -0.0171909649, 7.901597E-05, 922.1174    , 32.3353043  , 787.784241  , 2.53        , 3           , 255         , 0           , 0
-0.1654078  , 0.113554738 , -9.792447   , 0.000212500745, -0.0002488293, -5.33314123E-05, -0.0112361517, -0.017193459, 7.851059E-05, 922.1174    , 32.3353043  , 787.784058  , 2.54        , 3           , 255         , 0           , 0
-0.168062121, 0.108142115 , -9.791858   , 0.0004602092, -8.77252E-05, -5.4062868E-05, -0.0112315407, -0.0171943419, 7.79797847E-05, 922.1174    , 32.3353043  , 787.783936  , 2.55        , 3           , 255         , 0           , 0
-0.17482233 , 0.115358785 , -9.788277   , 0.0005391692, -0.00015720597, -0.0008951138, -0.0112259947, -0.0171960164, 6.904575E-05, 922.1174    , 32.3353043  , 787.7838    , 2.56        , 3           , 255         , 0           , 0
-0.179168731, 0.111821733 , -9.787603   , 0.000118415366, -0.0003724596, -0.000132965622, -0.0112247877, -0.017199751, 6.77578137E-05, 922.1174    , 32.3353043  , 787.7837    , 2.57        , 3           , 255         , 0           , 0
-0.174623147, 0.113508031 , -9.783209   , -0.000115454488, -0.0007294176, -4.04659222E-05, -0.0112259388, -0.0172070488, 6.743502E-05, 922.1174    , 32.3353043  , 787.783569  , 2.58        , 3           , 255         , 0           , 0
-0.1671814  , 0.121013142 , -9.78676    , -0.000321760366, -0.000165298872, -0.000236552689, -0.0112291146, -0.0172087289, 6.508792E-05, 922.1174    , 32.3353043  , 787.783447  , 2.59        , 3           , 255         , 0           , 0
-0.170888036, 0.113472626 , -9.79117    , 0.000176035624, -0.000390203262, 0.000127545092, -0.0112273777, -0.0172126163, 6.640727E-05, 922.1174    , 32.3353043  , 787.7833    , 2.6         , 3           , 255         , 0           , 0
-0.168516785, 0.118907213 , -9.793468   , -0.0003846061, -0.000132535031, 0.0007168856, -0.0112416446, -0.0172191281, 7.376875E-05, 922.1174    , 32.3353043  , 787.8134    , 2.61        , 3           , 255         , 0           , 0
-0.17172572 , 0.121276751 , -9.790316   , 0.000136648887, -0.000186306192, 0.0004029776, -0.0112403473, -0.017220946, 7.78197E-05 , 922.1174    , 32.3353043  , 787.8135    , 2.62        , 3           , 255         , 0           , 0
-0.165651143, 0.11461506  , -9.792948   , 0.0009526713, 5.48151729E-05, -8.435777E-05, -0.0112308059, -0.0172204077, 7.696991E-05, 922.162842  , 32.3375435  , 787.813538  , 2.63        , 3           , 255         , 0           , 0
-0.1597689  , 0.116378322 , -9.789204   , 0.000649148 , 0.000176016445, 0.000197156056, -0.0112243481, -0.0172186252, 7.892183E-05, 922.162842  , 32.3375435  , 787.8136    , 2.64        , 3           , 255         , 0           , 0
-0.168490559, 0.111638248 , -9.78410149 , -9.288013E-05, -8.699385E-05, 0.000448984851, -0.0112253549, -0.0172194447, 8.34217062E-05, 922.162842  , 32.3375435  , 787.81366   , 2.65        , 3           , 255         , 0           , 0
-0.169429868, 0.112872243 , -9.787905   , -4.323956E-05, -9.816809E-06, 0.0008255263, -0.0112259286, -0.01721945 , 9.167857E-05, 922.162842  , 32.3375435  , 787.8137    , 2.66        , 3           , 255         , 0           , 0
-0.16781646 , 0.111947916 , -9.789583   , 0.000524049567, -0.000256539875, 0.000564118731, -0.0112207858, -0.0172219519, 9.73488859E-05, 922.162842  , 32.3375435  , 787.8138    , 2.67        , 3           , 255         , 0           , 0
-0.173752844, 0.109498285 , -9.785245   , 0.000279834785, 0.000144688878, 0.000202808485, -0.0112180244, -0.0172204822, 9.936086E-05, 922.162842  , 32.3375435  , 787.813843  , 2.68        , 3           , 255         , 0           , 0
-0.17085205 , 0.111597046 , -9.791972   , 0.0008380432, -7.175453E-05, -0.000161043732, -0.0112096146, -0.0172212161, 9.775837E-05, 922.162842  , 32.3375435  , 787.8139    , 2.69        , 3           , 255         , 0           , 0
-0.165362239, 0.11038886  , -9.789593   , -7.806471E-05, 0.000464873156, -0.000317721133, -0.01121034 , -0.0172166042, 9.45288557E-05, 922.162842  , 32.3375435  , 787.813965  , 2.7         , 3           , 255         , 0           , 0
-0.1662575  , 0.106767461 , -9.791456   , 0.000634836731, 0.0003933307, 0.00040639998, -0.0112140207, -0.017211495, 9.87204257E-05, 922.162842  , 32.3375435  , 787.7776    , 2.71        , 3           , 255         , 0           , 0
-0.17249541 , 0.106216334 , -9.788468   , 0.000713493035, 4.72287065E-05, 8.864994E-05, -0.0112069007, -0.0172110125, 9.96016752E-05, 922.162842  , 32.3375435  , 787.7774    , 2.72        , 3           , 255         , 0           , 0
-0.170221731, 0.111936092 , -9.785062   , 0.000201226678, -0.000238925248, -6.502183E-05, -0.0112048779, -0.0172134079, 9.897821E-05, 922.112732  , 32.3393059  , 787.7772    , 2.73        , 3           , 255         , 0           , 0
-0.155236527, 0.114805795 , -9.790723   , -0.000391953421, -0.000109292654, 0.00015006031, -0.0112088248, -0.0172144827, 0.000100491139, 922.112732  , 32.3393059  , 787.777039  , 2.74        , 3           , 255         , 0           , 0
-0.156353652, 0.116367117 , -9.791201   , 0.000114190014, 0.000529904268, 0.000511902 , -0.01120777 , -0.01720913 , 0.000105551073, 922.112732  , 32.3393059  , 787.776855  , 2.75        , 3           , 255         , 0           , 0
-0.163252413, 0.113857269 , -9.785187   , 0.000199549686, -0.000487812242, 0.0010872276, -0.011205961, -0.0172138847, 0.000116478652, 922.112732  , 32.3393059  , 787.7767    , 2.76        , 3           , 255         , 0           , 0
-0.180037424, 0.108973876 , -9.786103   , 0.000463628938, -0.000123724749, 0.000164331708, -0.0112013537, -0.017215101, 0.000118135933, 922.112732  , 32.3393059  , 787.7765    , 2.77        , 3           , 255         , 0           , 0
-0.171712354, 0.1093737   , -9.786959   , 0.000155667774, 2.18513014E-05, -0.000147920058, -0.0111997714, -0.0172148962, 0.000116654192, 922.112732  , 32.3393059  , 787.7763    , 2.78        , 3           , 255         , 0           , 0
-0.169501632, 0.110021964 , -9.802403   , 0.000236438354, 0.0005393494, -0.0008462116, -0.0111972606, -0.0172096  , 0.000108131142, 922.112732  , 32.3393059  , 787.7761    , 2.79        , 3           , 255         , 0           , 0
-0.1702731  , 0.108879909 , -9.798874   , 0.000280193 , 0.000183247452, 0.000604554953, -0.0111945625, -0.0172076989, 0.000114156552, 922.112732  , 32.3393059  , 787.77594   , 2.8         , 3           , 255         , 0           , 0
-0.169633836, 0.110047378 , -9.78819    , 0.000259183464, 0.000110104607, -0.000292019744, -0.0111940736, -0.0172044318, 0.000111260917, 922.112732  , 32.3393059  , 787.813843  , 2.81        , 3           , 255         , 0           , 0
-0.166160613, 0.108956657 , -9.789482   , 0.000527006632, 0.000315194542, -0.000223638926, -0.0111887641, -0.01720131 , 0.000108989108, 922.112732  , 32.3393059  , 787.8139    , 2.82        , 3           , 255         , 0           , 0
-0.1688944  , 0.103957154 , -9.790898   , -3.669999E-05, 0.000133031863, 0.000439727941, -0.0111892065, -0.0171999279, 0.000113371774, 922.1418    , 32.3381538  , 787.813965  , 2.83        , 3           , 255         , 0           , 0
-0.166283563, 0.112273693 , -9.793526   , 0.0001923728, -0.000276116742, -0.000321530184, -0.0111872284, -0.0172027256, 0.000110187168, 922.1418    , 32.3381538  , 787.8141    , 2.84        , 3           , 255         , 0           , 0
-0.174487084, 0.109115444 , -9.789089   , 0.0004283748, -0.000208634941, -0.000327007321, -0.0111828884, -0.017204849, 0.000106940257, 922.1418    , 32.3381538  , 787.8142    , 2.85        , 3           , 255         , 0           , 0
-0.166588739, 0.115178682 , -9.796175   , 0.000349567534, -1.0638003E-05, 0.000367746979, -0.0111794565, -0.0172049142, 0.000110619134, 922.1418    , 32.3381538  , 787.814331  , 2.86        , 3           , 255         , 0           , 0
-0.1692013  , 0.112533249 , -9.785732   , 0.000136106217, -0.0004106506, 0.000628254958, -0.0111782048, -0.01720895 , 0.00011694798, 922.1418    , 32.3381538  , 787.814453  , 2.87        , 3           , 255         , 0           , 0
-0.165739775, 0.116376437 , -9.790898   , -1.80290663E-05, -0.00022222806, 0.000317624217, -0.0111784395, -0.0172111355, 0.000120149249, 922.1418    , 32.3381538  , 787.8146    , 2.88        , 3           , 255         , 0           , 0
-0.167671889, 0.11029534  , -9.799063   , 0.000175373018, -9.729661E-05, 0.000429943349, -0.01117676 , -0.01721206 , 0.000124459824, 922.1418    , 32.3381538  , 787.8147    , 2.89        , 3           , 255         , 0           , 0
-0.169964939, 0.103482567 , -9.795448   , 0.000240686233, -0.00032483766, -3.233965E-05, -0.011174351, -0.0172153134, 0.000124172715, 922.1418    , 32.3381538  , 787.8148    , 2.9         , 3           , 255         , 0           , 0
-0.167330116, 0.109973595 , -9.796203   , 0.000280148932, -0.000129030552, -0.0006430004, -0.0111728115, -0.0172166284, 0.000117780372, 922.1418    , 32.3381538  , 787.8074    , 2.91        , 3           , 255         , 0           , 0
-0.159690574, 0.108512819 , -9.796486   , 0.0001169357, -0.000119713717, 0.00077431777, -0.0111717749, -0.0172177367, 0.0001255374, 922.1418    , 32.3381538  , 787.807434  , 2.92        , 3           , 255         , 0           , 0
-0.1704822  , 0.1168759   , -9.791833   , -0.0004932486, -0.000241746282, 0.000477998954, -0.01117679 , -0.0172200985, 0.000130344662, 922.1417    , 32.34114    , 787.8075    , 2.93        , 3           , 255         , 0           , 0
-0.167518735, 0.119844638 , -9.788081   , -2.15973123E-05, -0.0006620686, -0.0004925913, -0.0111769224, -0.0172267724, 0.000125492457, 922.1417    , 32.34114    , 787.807556  , 2.94        , 3           , 255         , 0           , 0
-0.169898987, 0.112188146 , -9.78982    , 0.000392635149, -0.000139597076, -0.0007467824, -0.0111728683, -0.017228255, 0.000118039789, 922.1417    , 32.34114    , 787.8076    , 2.95        , 3           , 255         , 0           , 0
-0.177861542, 0.108507834 , -9.793263   , 0.000113802147, 0.000211066232, 6.250289E-05, -0.01117174 , -0.0172261354, 0.000118641277, 922.1417    , 32.34114    , 787.8077    , 2.96        , 3           , 255         , 0           , 0
-0.166999608, 0.117242411 , -9.79659748 , 0.000110832974, -8.40248E-06, 3.18839147E-06, -0.0111706322, -0.01722622 , 0.0001186741, 922.1417    , 32.34114    , 787.807739  , 2.97        , 3           , 255         , 0           , 0
-0.168709069, 0.120884672 , -9.788187   , -8.399907E-05, 0.000126329935, -0.000624830252, -0.0111713642, -0.0172250252, 0.0001124113, 922.1417    , 32.34114    , 787.8078    , 2.98        , 3           , 255         , 0           , 0
-0.175338611, 0.112641945 , -9.787054   , -0.000445628131, 0.000187246638, 0.0001228307, -0.0111758411, -0.01722314 , 0.000113618749, 922.1417    , 32.34114    , 787.807861  , 2.99        , 3           , 255         , 0           , 0
-0.172653824, 0.112560496 , -9.791298   , 1.600117E-05, 0.000153708868, -0.0007824429, -0.0111755459, -0.01722169 , 0.000105776664, 922.1417    , 32.34114    , 787.8079    , 3           , 3           , 0           , 8.462236    , 300
-0.165464759, 0.107795753 , -9.793927   , 0.0003573509, 0.000226718374, -0.000205953387, -0.0111805536, -0.0172212254, 0.000103840059, 922.1417    , 32.34114    , 787.801453  , 3.01        , 3           , 1           , 0           , 0
-0.160443857, 0.11458037  , -9.791863   , 0.0009081216, 0.000161379561, 8.300442E-06, -0.0111714741, -0.01721961 , 0.000103905048, 922.1417    , 32.34114    , 787.8015    , 3.02        , 3           , 2           , 0           , 0
-0.162471473, 0.106534466 , -9.793881   , 0.000534862862, 0.000468991639, 0.000619140337, -0.0111662317, -0.0172148533, 0.000110044435, 922.1377    , 32.3407326  , 787.8016    , 3.03        , 3           , 3           , 0           , 0
-0.166265935, 0.109561786 , -9.794386   , -4.47600323E-05, 0.000304223824, -0.0006118497, -0.0111665726, -0.0172118787, 0.000103891594, 922.1377    , 32.3407326  , 787.801636  , 3.04        , 3           , 4           , 0           , 0
-0.166713849, 0.1040471   , -9.788544   , -0.000252849248, -0.000112958573, 0.0003823849, -0.0111691663, -0.0172129646, 0.00010772828, 922.1377    , 32.3407326  , 787.8017    , 3.05        , 3           , 5           , 0           , 0
-0.172492668, 0.114702687 , -9.793412   , 0.000132505724, 0.00045716844, 0.000798765337, -0.0111679779, -0.0172083043, 0.00011566536, 922.1377    , 32.3407326  , 787.801758  , 3.06        , 3           , 6           , 0           , 0
-0.178531885, 0.114472583 , -9.79271    , -0.000161812874, 3.19267274E-05, -0.000281076238, -0.0111695472, -0.0172080174, 0.000112850859, 922.1377    , 32.3407326  , 787.8018    , 3.07        , 3           , 7           , 0           , 0
-0.1644566  , 0.11394044  , -9.798599   , -0.000125439314, 8.87348E-05 , 0.000186230376, -0.0111708343, -0.0172071084, 0.000114703362, 922.1377    , 32.3407326  , 787.8019    , 3.08        , 3           , 8           , 5           , 5
-0.166700944, 0.110255316 , -9.7973     , -0.00042320817, -3.44534346E-05, 0.000135514812, -0.0111750895, -0.0172074381, 0.000116062438, 922.1377    , 32.3407326  , 787.801941  , 3.09        , 3           , 9           , 5           , 0.1
-0.182548255, 0.109917864 , -9.794065   , -7.006858E-05, 0.00012253804, 0.000497145054, -0.0111758756, -0.0172061566, 0.0001210205, 922.1377    , 32.3407326  , 787.802     , 3.1         , 3           , 10          , 0.1         , 0.1
-0.165184677, 0.11654377  , -9.799428   , 0.000340137922, -6.21682848E-05, -0.000101926671, -0.0111744367, -0.0172067974, 0.000120042161, 922.1377    , 32.3407326  , 787.8022    , 3.11        , 3           , 11          , 0.0072444207, 0.00724441931
-0.17311199 , 0.1106381   , -9.796522   , 5.855257E-05, -0.0004236232, 0.000162785887, -0.0111738788, -0.0172110144, 0.000121717443, 922.1377    , 32.3407326  , 787.802246  , 3.12        , 3           , 12          , 0.174645633 , 0
-0.166267559, 0.113725223 , -9.794321   , 0.0006121019, -0.000248861557, -0.000337781239, -0.0111677  , -0.01721354 , 0.000118367243, 922.142     , 32.3399849  , 787.8023    , 3.13        , 3           , 13          , 0           , 0
-0.1646689  , 0.111627005 , -9.794646   , -0.000108172186, -0.000236767111, 0.000451227854, -0.011168859, -0.017215861, 0.000122906247, 922.142     , 32.3399849  , 787.802368  , 3.14        , 3           , 14          , -0.000413295231, -0.000263402471
-0.168375149, 0.107451811 , -9.79078    , 0.000199376329, -9.46713262E-05, 0.000190998471, -0.0111668985, -0.0172167849, 0.000124826911, 922.142     , 32.3399849  , 787.8024    , 3.15        , 3           , 15          , 0           , 2.3885425E-06
-0.179545   , 0.113757685 , -9.789104   , 8.762904E-05, 0.0006199373, 3.47463538E-05, -0.0111660268, -0.01721058 , 0.000125105158, 922.142     , 32.3399849  , 787.8025    , 3.16        , 3           , 16          , 0           , 1.401298E-45
-0.166052625, 0.112097338 , -9.797893   , 2.44625262E-05, 0.0001822854, 4.266925E-05, -0.0111657893, -0.0172087532, 0.000125511535, 922.142     , 32.3399849  , 787.802551  , 3.17        , 3           , 20          , 0           , 0
-0.163635164, 0.111395158 , -9.790059   , 1.31302222E-05, -0.000148117077, 0.000605760142, -0.0111657623, -0.0172101669, 0.000131586028, 922.142     , 32.3399849  , 787.8026    , 3.18        , 3           , 21          , 0           , 0
-0.1684326  , 0.101767555 , -9.792445   , -0.0003473012, -0.0001776421, 0.000641269435, -0.011169346, -0.01721187 , 0.00013801895, 922.142     , 32.3399849  , 787.8027    , 3.19        , 3           , 22          , 0           , 0
-0.177562147, 0.114340685 , -9.791449   , 0.000166701182, -7.87919E-05, 0.000277128915, -0.0111677274, -0.0172126275, 0.000140799224, 922.142     , 32.3399849  , 787.802734  , 3.2         , 3           , 40          , 0           , 0
-0.173536137, 0.111638144 , -9.794977   , 0.000174714674, 0.000121247314, 0.000243313727, -0.0111692455, -0.01721245 , 0.000143274461, 922.142     , 32.3399849  , 787.7966    , 3.21        , 3           , 41          , 0           , 0
-0.168955684, 0.114088237 , -9.791378   , -6.05870155E-05, 7.283017E-05, 6.375819E-05, -0.0111698611, -0.0172117148, 0.000143903933, 922.142     , 32.3399849  , 787.7966    , 3.22        , 3           , 42          , 0           , 0
-0.178431123, 0.111307278 , -9.790097   , 0.000403942919, 0.000230664242, -0.00034712872, -0.0111657623, -0.0172094461, 0.000140406672, 922.1569    , 32.3391724  , 787.796631  , 3.23        , 3           , 255         , 0           , 0
-0.1716499  , 0.1130258   , -9.791151   , 0.0003427167, 0.00049478584, 0.000347658352, -0.0111623937, -0.0172044635, 0.000143828234, 922.1569    , 32.3391724  , 787.7967    , 3.24        , 3           , 255         , 0           , 0
-0.175702184, 0.10354612  , -9.792851   , -0.000113367161, 0.0003703765, -8.11757855E-05, -0.0111635132, -0.0172007643, 0.00014297507, 922.1569    , 32.3391724  , 787.796753  , 3.25        , 3           , 255         , 0           , 0
-0.184656948, 0.107027069 , -9.790388   , -0.000225543685, 0.0001376636, 9.502736E-05, -0.0111657847, -0.0171993785, 0.000143910031, 922.1569    , 32.3391724  , 787.7968    , 3.26        , 3           , 255         , 0           , 0
-0.161207   , 0.114806131 , -9.784726   , -2.910741E-05, 0.000128639163, 0.000218363624, -0.0111661134, -0.0171980672, 0.000146079445, 922.1569    , 32.3391724  , 787.7969    , 3.27        , 3           , 255         , 0           , 0
-0.164246768, 0.108791783 , -9.789785   , -0.0002102991, 0.0004088611, -0.0005594669, -0.0111681186, -0.017194042, 0.000140438773, 922.1569    , 32.3391724  , 787.796936  , 3.28        , 3           , 255         , 0           , 0
-0.1763941  , 0.115236208 , -9.792509   , -0.000303957728, -0.000324320135, -0.0005968338, -0.011171056, -0.0171973519, 0.000134506292, 922.1569    , 32.3391724  , 787.797     , 3.29        , 3           , 255         , 0           , 0
-0.167947   , 0.11244981  , -9.789656   , -0.000257097417, -2.90929165E-05, -0.0003466053, -0.0111735677, -0.0171976816, 0.000131043285, 922.1569    , 32.3391724  , 787.797058  , 3.3         , 3           , 255         , 0           , 0
-0.169989064, 0.112461708 , -9.796137   , -0.000296504237, -0.000327307818, 0.000275686558, -0.0111803357, -0.0172085129, 0.000133901558, 922.1569    , 32.3391724  , 787.7705    , 3.31        , 3           , 255         , 0           , 0
-0.17313607 , 0.09580211  , -9.786259   , 0.000347391033, -0.000304937741, -5.5278626E-05, -0.0111768534, -0.0172115676, 0.00013338284, 922.1569    , 32.3391724  , 787.7704    , 3.32        , 3           , 255         , 0           , 0
-0.1591989  , 0.105793282 , -9.793557   , 0.000146171544, 0.000100828664, 0.000338780344, -0.01117545 , -0.0172105227, 0.000136759554, 922.1568    , 32.3378143  , 787.770264  , 3.33        , 3           , 255         , 0           , 0
-0.15878576 , 0.110695317 , -9.791002   , 0.000160904543, 5.411108E-05, 0.00128679979, -0.0111740623, -0.01720984 , 0.000149622283, 922.1568    , 32.3378143  , 787.770142  , 3.34        , 3           , 255         , 0           , 0
-0.1644086  , 0.115030013 , -9.786501   , 0.000286430761, 0.000122842379, 7.746945E-05, -0.0111712106, -0.0172085986, 0.0001503833, 922.1568    , 32.3378143  , 787.77      , 3.35        , 3           , 255         , 0           , 0
-0.158244357, 0.117385365 , -9.781365   , 4.52119566E-05, -7.251618E-05, -0.000619272643, -0.0111706518, -0.0172093939, 0.000144198319, 922.1568    , 32.3378143  , 787.7699    , 3.36        , 3           , 255         , 0           , 0
-0.175894648, 0.103331208 , -9.78802    , 0.000224733114, -6.284419E-06, -0.000200720329, -0.01116837 , -0.01720948 , 0.000142191668, 922.1568    , 32.3378143  , 787.7698    , 3.37        , 3           , 255         , 0           , 0
-0.166185528, 0.113567457 , -9.798762   , 0.0002299899, 3.93793453E-05, 0.00026602624, -0.0111661172, -0.0172090568, 0.000144847712, 922.1568    , 32.3378143  , 787.769653  , 3.38        , 3           , 255         , 0           , 0
-0.165813774, 0.116729081 , -9.790693   , 0.00105103711, 0.000259944325, 0.000607280934, -0.01115571 , -0.01720639 , 0.000150891879, 922.1568    , 32.3378143  , 787.769531  , 3.39        , 3           , 255         , 0           , 0
-0.167331636, 0.107564591 , -9.78218    , 0.000868782 , 0.00045247213, 0.000323621673, -0.0111470763, -0.0172018278, 0.000154077818, 922.1568    , 32.3378143  , 787.7694    , 3.4         , 3           , 255         , 0           , 0
-0.168514237, 0.113909423 , -9.78576851 , 0.000175389621, 0.000206680328, -0.000629736169, -0.0111462269, -0.0171941333, 0.000147774437, 922.1568    , 32.3378143  , 787.746765  , 3.41        , 3           , 255         , 0           , 0
-0.1648936  , 0.115846    , -9.79458    , -0.0002883621, -0.00015587153, -0.000185632773, -0.0111490777, -0.01719571 , 0.000145935366, 922.1568    , 32.3378143  , 787.7465    , 3.42        , 3           , 255         , 0           , 0
-0.173668951, 0.116195165 , -9.787758   , -4.477857E-05, -0.000105630781, 0.000486983045, -0.0111496095, -0.017196713, 0.000150817257, 922.154663  , 32.3397141  , 787.7463    , 3.43        , 3           , 255         , 0           , 0
-0.177709728, 0.114841267 , -9.790909   , 0.0005064806, 0.00037786446, 0.000308737042, -0.0111446  , -0.0171928983, 0.000153862711, 922.154663  , 32.3397141  , 787.746033  , 3.44        , 3           , 255         , 0           , 0
-0.181719139, 0.115756653 , -9.803551   , 0.0001768748, -1.519479E-05, 0.000150095075, -0.0111428574, -0.0171930343, 0.000155365444, 922.154663  , 32.3397141  , 787.7458    , 3.45        , 3           , 255         , 0           , 0
-0.176340833, 0.121908821 , -9.792366   , -0.000161630858, -5.54087455E-05, 0.0004971063, -0.0111445589, -0.0171935335, 0.00016034297, 922.154663  , 32.3397141  , 787.745544  , 3.46        , 3           , 255         , 0           , 0
-0.1665219  , 0.11392431  , -9.791905   , 0.000347172172, 2.09663558E-05, 0.000396469928, -0.0111411549, -0.01719328 , 0.000164305588, 922.154663  , 32.3397141  , 787.7453    , 3.47        , 3           , 255         , 0           , 0
-0.176929548, 0.10267476  , -9.785696   , -2.532982E-05, -0.00014481289, 3.8953247E-05, -0.0111414148, -0.0171947237, 0.0001647113, 922.154663  , 32.3397141  , 787.745056  , 3.48        , 3           , 255         , 0           , 0
-0.158173412, 0.119726934 , -9.789869   , -0.000140823133, -2.368429E-05, 0.00013755534, -0.011142849, -0.0171949454, 0.000166089565, 922.154663  , 32.3397141  , 787.7448    , 3.49        , 3           , 255         , 0           , 0
-0.160384476, 0.114667654 , -9.79792    , -0.0003474421, -7.67759338E-05, 0.000389545341, -0.0111463889, -0.01719567 , 0.000169993815, 922.154663  , 32.3397141  , 787.744568  , 3.5         , 3           , 255         , 0           , 0
-0.156708777, 0.107319757 , -9.79356    , -0.000185945886, 0.000520230038, -0.000390168861, -0.0111582875, -0.0171941649, 0.000166207654, 922.154663  , 32.3397141  , 787.7289    , 3.51        , 3           , 255         , 0           , 0
-0.157417625, 0.108696207 , -9.794336   , 1.75535679E-05, 0.000462064345, -0.0002703927, -0.011158064, -0.0171895735, 0.00016345203, 922.154663  , 32.3397141  , 787.7286    , 3.52        , 3           , 255         , 0           , 0
-0.163646549, 0.114916682 , -9.794065   , -0.0006172408, 8.92662647E-05, -0.0008327405, -0.0111640925, -0.0171887763, 0.000155114118, 922.1613    , 32.34019    , 787.7283    , 3.53        , 3           , 255         , 0           , 0
-0.176078975, 0.112580225 , -9.793314   , -0.000254850253, 0.000253855338, 0.0004096149, -0.01116671 , -0.01718619 , 0.000159182178, 922.1613    , 32.34019    , 787.727966  , 3.54        , 3           , 255         , 0           , 0
-0.167470858, 0.113181055 , -9.792424   , 0.000235426283, 3.81260179E-06, 0.000345633773, -0.0111644156, -0.01718611 , 0.000162638287, 922.1613    , 32.34019    , 787.727661  , 3.55        , 3           , 255         , 0           , 0
-0.1698236  , 0.1002586   , -9.79146    , -0.00016482221, 8.45767645E-05, -0.000253507169, -0.0111660212, -0.0171852969, 0.000160093623, 922.1613    , 32.34019    , 787.727356  , 3.56        , 3           , 255         , 0           , 0
-0.165939972, 0.106984243 , -9.805857   , -0.000120959536, 5.27183875E-06, 0.000361838553, -0.0111672925, -0.0171852037, 0.000163711637, 922.1613    , 32.34019    , 787.727051  , 3.57        , 3           , 255         , 0           , 0
-0.1651816  , 0.108368263 , -9.79206848 , 0.000221527254, -1.979235E-06, -4.67016944E-05, -0.01116507 , -0.0171852279, 0.000163244826, 922.1613    , 32.34019    , 787.726746  , 3.58        , 3           , 255         , 0           , 0
-0.170795411, 0.10737858  , -9.792354   , 0.000226281089, -0.0003574095, 0.000603605 , -0.0111629115, -0.0171887334, 0.000169321152, 922.1613    , 32.34019    , 787.72644   , 3.59        , 3           , 255         , 0           , 0
-0.167056724, 0.11733643  , -9.797136   , -7.151821E-05, -0.0005060554, 0.000769538165, -0.0111637618, -0.01719371 , 0.0001770735, 922.1613    , 32.34019    , 787.726135  , 3.6         , 3           , 255         , 0           , 0
-0.168210655, 0.1101114   , -9.791463   , 0.00017404501, -0.000167010352, -0.0005164235, -0.0111624207, -0.0171920285, 0.000171936015, 922.1613    , 32.34019    , 787.703552  , 3.61        , 3           , 255         , 0           , 0
-0.172411233, 0.103322819 , -9.800051   , 8.853126E-05, -0.000513966, -3.46610759E-05, -0.0111615295, -0.0171971712, 0.000171646738, 922.1613    , 32.34019    , 787.7031    , 3.62        , 3           , 255         , 0           , 0
-0.1720858  , 0.108684778 , -9.795301   , 0.000114932773, -0.000147036248, 3.35276854E-05, -0.0111603867, -0.0171986371, 0.000171998458, 922.1519    , 32.33829    , 787.7027    , 3.63        , 3           , 255         , 0           , 0
-0.17434895 , 0.115110181 , -9.784803   , -0.00047028478, 1.35122682E-05, 0.0006204759, -0.0111651961, -0.0171984322, 0.000178202055, 922.1519    , 32.33829    , 787.7023    , 3.64        , 3           , 255         , 0           , 0
-0.17098093 , 0.111707345 , -9.791452   , -0.0002900291, 0.000262652669, 0.0004336701, -0.0111681689, -0.0171957575, 0.000182509684, 922.1519    , 32.33829    , 787.701843  , 3.65        , 3           , 255         , 0           , 0
-0.169329211, 0.114925541 , -9.791951   , -0.000141119643, -6.18445338E-05, 3.68048859E-05, -0.0111695863, -0.0171963722, 0.000182884673, 922.1519    , 32.33829    , 787.7014    , 3.66        , 3           , 255         , 0           , 0
-0.172368854, 0.107201718 , -9.797274   , -7.27307051E-05, 0.000237088359, -2.51074944E-05, -0.01117031 , -0.0171940029, 0.0001826071, 922.1519    , 32.33829    , 787.701     , 3.67        , 3           , 255         , 0           , 0
-0.162690431, 0.107887112 , -9.791983   , -0.0005685354, 0.0005932264, 0.000198244234, -0.0111760264, -0.017188048, 0.000184523349, 922.1519    , 32.33829    , 787.700562  , 3.68        , 3           , 255         , 0           , 0
-0.151684612, 0.108155824 , -9.791211   , -0.000880415551, 0.000287434726, 0.000101724108, -0.0111848488, -0.0171851628, 0.000185508514, 922.1519    , 32.33829    , 787.700134  , 3.69        , 3           , 255         , 0           , 0
-0.165774435, 0.115073584 , -9.790102   , 1.07256346E-06, 0.000319570856, -8.075499E-05, -0.0111848228, -0.0171819758, 0.000184665172, 922.1519    , 32.33829    , 787.6997    , 3.7         , 3           , 255         , 0           , 0
-0.173458472, 0.106114373 , -9.802123   , -0.0002923205, 0.000482110016, 3.79860139E-05, -0.01118916 , -0.01717643 , 0.0001850153, 922.1519    , 32.33829    , 787.694336  , 3.71        , 3           , 255         , 0           , 0
-0.159862354, 0.10783162  , -9.790894   , 0.000344733533, 0.0003325619, 0.000221042 , -0.0111857485, -0.0171730835, 0.000187188634, 922.1519    , 32.33829    , 787.693848  , 3.72        , 3           , 255         , 0           , 0
-0.173708588, 0.112815544 , -9.789325   , 0.000113453541, -1.43479265E-05, -5.65469745E-05, -0.0111846039, -0.0171732325, 0.000186624762, 922.127441  , 32.3401222  , 787.693359  , 3.73        , 3           , 255         , 0           , 0
-0.170511439, 0.108916566 , -9.78999    , 0.00039424104, 0.000329162227, -0.000174874964, -0.0111806327, -0.01716996 , 0.0001848391, 922.127441  , 32.3401222  , 787.6929    , 3.74        , 3           , 255         , 0           , 0
-0.166997686, 0.110464    , -9.781934   , 0.000370054273, 8.976547E-05, 0.000198570284, -0.0111769652, -0.01716904 , 0.000186814854, 922.127441  , 32.3401222  , 787.6924    , 3.75        , 3           , 255         , 0           , 0
-0.172112718, 0.120530292 , -9.78909    , -0.000498435751, 0.000112997834, 0.000658649 , -0.0111820633, -0.0171678383, 0.000193389133, 922.127441  , 32.3401222  , 787.6919    , 3.76        , 3           , 255         , 0           , 0
-0.159640074, 0.123809181 , -9.795972   , -0.000596870435, -0.000207080215, 0.00067665847, -0.0111881467, -0.0171698313, 0.000200179275, 922.127441  , 32.3401222  , 787.6914    , 3.77        , 3           , 255         , 0           , 0
-0.170171589, 0.114820957 , -9.78684    , -6.456699E-05, -0.000219934242, 0.0003282207, -0.0111888489, -0.0171719939, 0.00020348627, 922.127441  , 32.3401222  , 787.6909    , 3.78        , 3           , 255         , 0           , 0
-0.180065021, 0.111973085 , -9.789237   , 0.000572654069, -4.10999928E-05, 0.000646806962, -0.0111832339, -0.0171723329, 0.00020995934, 922.127441  , 32.3401222  , 787.6905    , 3.79        , 3           , 255         , 0           , 0
-0.174313575, 0.112916708 , -9.793448   , 0.0006481111, -3.62249266E-05, 0.0002977151, -0.0111768031, -0.0171726625, 0.000212940722, 922.127441  , 32.3401222  , 787.690063  , 3.8         , 3           , 255         , 0           , 0
-0.172984123, 0.112649418 , -9.789551   , -2.75932834E-05, -0.000262688729, -0.0006076284, -0.01118345 , -0.0171789024, 0.000207004647, 922.127441  , 32.3401222  , 787.7209    , 3.81        , 3           , 255         , 0           , 0
-0.158406809, 0.109946236 , -9.788218   , 0.0003425086, -0.000113602524, -3.989493E-05, -0.01118002 , -0.0171800423, 0.000206618381, 922.127441  , 32.3401222  , 787.720642  , 3.82        , 3           , 255         , 0           , 0
-0.157525852, 0.11348705  , -9.79217    , 8.143223E-05, 0.000143768717, 0.000103479862, -0.0111792227, -0.0171785932, 0.0002076372, 922.1439    , 32.3401222  , 787.7204    , 3.83        , 3           , 255         , 0           , 0
-0.162640527, 0.107002929 , -9.786987   , 0.0003370794, -1.35857845E-05, 0.000391770736, -0.01117592 , -0.0171786845, 0.00021155666, 922.1439    , 32.3401222  , 787.720154  , 3.84        , 3           , 255         , 0           , 0
-0.158913225, 0.102705874 , -9.783791   , 0.000492122665, -1.282146E-05, 0.000870028569, -0.0111711463, -0.0171787161, 0.0002202589, 922.1439    , 32.3401222  , 787.7199    , 3.85        , 3           , 255         , 0           , 0
-0.1639001  , 0.113018073 , -9.784165   , 0.0004371418, -5.171582E-05, 0.000245232572, -0.0111668184, -0.017179206, 0.00022271715, 922.1439    , 32.3401222  , 787.719666  , 3.86        , 3           , 255         , 0           , 0
-0.176287383, 0.109759189 , -9.795401   , -0.000146297418, 1.95575121E-05, 0.000117687028, -0.011168302, -0.0171789955, 0.0002238919, 922.1439    , 32.3401222  , 787.7194    , 3.87        , 3           , 255         , 0           , 0
-0.16870293 , 0.115042508 , -9.794238   , -0.0004436069, 2.56311323E-05, 4.306363E-05, -0.0111727454, -0.0171787329, 0.0002243197, 922.1439    , 32.3401222  , 787.7192    , 3.88        , 3           , 255         , 0           , 0
-0.165927857, 0.108202741 , -9.79322    , -0.000354894466, 7.66464655E-05, 7.228568E-05, -0.0111763068, -0.017177958, 0.000225033989, 922.1439    , 32.3401222  , 787.718933  , 3.89        , 3           , 255         , 0           , 0
-0.171213746, 0.110064462 , -9.788167   , 0.000119008822, -0.000393131224, -0.0002448261, -0.0111750737, -0.0171819162, 0.000222629533, 922.1439    , 32.3401222  , 787.7187    , 3.9         , 3           , 255         , 0           , 0
-0.1750243  , 0.10773842  , -9.78858948 , 0.000401954952, -2.651912E-05, 0.000272814563, -0.0111727128, -0.0171770435, 0.000225388489, 922.1439    , 32.3401222  , 787.722046  , 3.91        , 3           , 255         , 0           , 0
-0.170833826, 0.111594796 , -9.799647   , 0.0005458829, 5.47073432E-05, 0.000550290337, -0.0111673484, -0.0171764344, 0.00023088562, 922.1439    , 32.3401222  , 787.7218    , 3.92        , 3           , 255         , 0           , 0
-0.161984131, 0.114000812 , -9.79095    , 0.000513346167, -8.96840356E-05, 0.0006579612, -0.0111623285, -0.01717726 , 0.000237475644, 922.1187    , 32.3394432  , 787.721558  , 3.93        , 3           , 255         , 0           , 0
-0.167105168, 0.1098607   , -9.795461   , -6.88449945E-05, -0.000133961468, 0.00030135698, -0.0111630689, -0.0171785671, 0.000240504334, 922.1187    , 32.3394432  , 787.7213    , 3.94        , 3           , 255         , 0           , 0
-0.170791164, 0.109567419 , -9.79025    , -1.44979567E-05, -0.0001323513, -0.000739297539, -0.0111630876, -0.0171799734, 0.0002331257, 922.1187    , 32.3394432  , 787.721069  , 3.95        , 3           , 255         , 0           , 0
-0.1689676  , 0.113617972 , -9.788759   , -0.000356465345, -0.000232475548, 0.000322091859, -0.0111667085, -0.01718226 , 0.000236372754, 922.1187    , 32.3394432  , 787.7208    , 3.96        , 3           , 255         , 0           , 0
-0.169478536, 0.113272287 , -9.792493   , -0.0007301979, -9.19211E-05, 0.0002406316, -0.0111740511, -0.017183153, 0.000238789507, 922.1187    , 32.3394432  , 787.720642  , 3.97        , 3           , 255         , 0           , 0
-0.16535449 , 0.111324646 , -9.801352   , -0.000383261824, 0.000339962717, 0.0009960027, -0.0111780539, -0.0171796419, 0.00024871208, 922.1187    , 32.3394432  , 787.720459  , 3.98        , 3           , 255         , 0           , 0
-0.173011169, 0.120234966 , -9.799196   , 0.000414871232, -0.000226923876, 0.000464130746, -0.0111739859, -0.0171818566, 0.000253379025, 922.1187    , 32.3394432  , 787.7203    , 3.99        , 3           , 255         , 0           , 0
-0.169377   , 0.114509858 , -9.788794   , 0.000557641 , -0.000223299663, -0.0004390056, -0.0111683346, -0.0171841383, 0.000249013683, 922.1187    , 32.3394432  , 787.7201    , 4           , 3           , 0           , 9.462236    , 400
-0.158492476, 0.106130913 , -9.785939   , -0.000136761955, 0.000218320652, -0.0004689284, -0.0111743379, -0.0171833429, 0.000244380761, 922.1187    , 32.3394432  , 787.7593    , 4.01        , 3           , 1           , 0           , 0
-0.158863828, 0.116495572 , -9.79151    , 0.000208945945, 5.79570042E-05, 0.000140750592, -0.0111722723, -0.0171827488, 0.000245781877, 922.1187    , 32.3394432  , 787.759338  , 4.02        , 3           , 2           , 0           , 0
-0.164791182, 0.105692968 , -9.792503   , 3.87206674E-05, -9.083102E-05, -0.000334679382, -0.011171828, -0.017183695, 0.00024244505, 922.109253  , 32.3396454  , 787.7594    , 4.03        , 3           , 3           , 0           , 0
-0.173543334, 0.112244055 , -9.78273    , 0.00027826213, 0.000337728416, -0.0002578929, -0.0111689987, -0.0171803478, 0.000239828209, 922.109253  , 32.3396454  , 787.75946   , 4.04        , 3           , 4           , 0           , 0
-0.17671147 , 0.115648463 , -9.785466   , 8.656061E-05, -0.000746063, -0.000361600221, -0.0111680739, -0.017187845, 0.000236295338, 922.109253  , 32.3396454  , 787.7595    , 4.05        , 3           , 5           , 0           , 0
-0.177203923, 0.122437775 , -9.787996   , -0.000352064118, -0.000659811369, 0.00012791976, -0.0111716185, -0.01719443 , 0.0002376483, 922.109253  , 32.3396454  , 787.7596    , 4.06        , 3           , 6           , 0           , 0
-0.175351053, 0.118282534 , -9.791113   , -0.000150361651, -0.000373930379, -0.00016253037, -0.0111730937, -0.0171981864, 0.00023606469, 922.109253  , 32.3396454  , 787.759644  , 4.07        , 3           , 7           , 0           , 0
-0.166976064, 0.122663677 , -9.793652   , 9.284733E-06, 0.000125347127, -8.560017E-05, -0.0111729847, -0.017196944, 0.000235194617, 922.109253  , 32.3396454  , 787.7597    , 4.08        , 3           , 8           , 5           , 5
-0.164519548, 0.115491316 , -9.793709   , 2.68772419E-05, 0.000160740659, -0.000321585, -0.0111726606, -0.0171953738, 0.0002319606, 922.109253  , 32.3396454  , 787.759766  , 4.09        , 3           , 9           , 5           , 0.1
-0.160867766, 0.110380255 , -9.783602   , -6.390773E-05, -2.1827E-06 , -2.998894E-05, -0.0111732939, -0.017195398, 0.000231660932, 922.109253  , 32.3396454  , 787.7598    , 4.1         , 3           , 10          , 0.1         , 0.1
-0.171594784, 0.108774044 , -9.784619   , 0.00043564834, 0.00020832177, -1.10473993E-05, -0.0111797135, -0.0171922538, 0.000231712489, 922.109253  , 32.3396454  , 787.8067    , 4.11        , 3           , 11          , 0.00668418  , 0.006684177
-0.171021208, 0.116562083 , -9.784345   , -3.224486E-05, -6.474383E-05, -2.89005438E-05, -0.0111800293, -0.017192902, 0.000231430662, 922.109253  , 32.3396454  , 787.807068  , 4.12        , 3           , 12          , 0.174648076 , 0
-0.175109178, 0.116758958 , -9.791283   , 0.000108514534, 1.39888725E-05, -0.000313005352, -0.01117889 , -0.0171927959, 0.000228298843, 922.1719    , 32.34053    , 787.807434  , 4.13        , 3           , 13          , 0           , 0
-0.165854126, 0.112402514 , -9.792727   , -5.496852E-05, 2.9851828E-05, 0.000295616745, -0.01117949 , -0.0171924662, 0.000231251863, 922.1719    , 32.34053    , 787.8078    , 4.14        , 3           , 14          , -0.0004130078, -0.000263401918
-0.164933473, 0.123503447 , -9.794342   , -0.000223122712, 0.000273893849, 2.60367033E-05, -0.0111817252, -0.0171897225, 0.000231481608, 922.1719    , 32.34053    , 787.808167  , 4.15        , 3           , 15          , 0           , 2.38361258E-06
-0.159499973, 0.11475201  , -9.793501   , 0.000673573057, 1.57554168E-05, -0.000241013142, -0.0111749489, -0.0171895921, 0.000229069585, 922.1719    , 32.34053    , 787.808533  , 4.16        , 3           , 16          , 0           , 1.401298E-45
-0.16189982 , 0.109087035 , -9.787764   , 8.478761E-05, -0.000400169258, -0.000261188048, -0.0111740567, -0.0171936247, 0.000226502292, 922.1719    , 32.34053    , 787.8089    , 4.17        , 3           , 20          , 0           , 0
-0.16258356 , 0.1114427   , -9.785732   , 6.670455E-05, -3.02449916E-06, 0.0005724415, -0.0111734886, -0.0171935912, 0.000232227379, 922.1719    , 32.34053    , 787.809265  , 4.18        , 3           , 21          , 0           , 0
-0.165302187, 0.111518636 , -9.787659   , 0.000752215157, 0.0005972385, 0.000566889066, -0.0111660631, -0.0171875544, 0.000237829867, 922.1719    , 32.34053    , 787.809631  , 4.19        , 3           , 22          , 0           , 0
-0.165604815, 0.108494237 , -9.790302   , 0.000227763288, 0.00013765342, 0.000668997469, -0.0111639015, -0.0171861034, 0.0002445049, 922.1719    , 32.34053    , 787.81      , 4.2         , 3           , 40          , 0           , 0
-0.166067913, 0.109809063 , -9.796949   , 0.000163348712, 5.604382E-05, -0.00042487937, -0.01116979 , -0.0171817262, 0.0002403801, 922.1719    , 32.34053    , 787.761     , 4.21        , 3           , 41          , 0           , 0
-0.1755269  , 0.114427567 , -9.78772    , 0.000469832565, 0.000375817355, -0.0003699193, -0.01116503 , -0.01717801 , 0.000236638734, 922.1719    , 32.34053    , 787.761047  , 4.22        , 3           , 42          , 0           , 0
-0.176269308, 0.113271371 , -9.795004   , 0.000342332234, 0.0005851909, 0.000110571178, -0.0111616226, -0.0171721485, 0.0002376792, 922.1863    , 32.3403244  , 787.7611    , 4.23        , 3           , 255         , 0           , 0
-0.171779811, 0.111053385 , -9.798941   , -0.000121289369, 0.000431343622, 0.0008845268, -0.011162986, -0.0171677358, 0.000246476819, 922.1863    , 32.3403244  , 787.761169  , 4.24        , 3           , 255         , 0           , 0
-0.167153046, 0.116059765 , -9.791193   , 0.000274555874, 0.0005183165, 0.000465461431, -0.0111603187, -0.0171625037, 0.000251073885, 922.1863    , 32.3403244  , 787.7612    , 4.25        , 3           , 255         , 0           , 0
-0.166533276, 0.111595526 , -9.789384   , 0.0005831013, -0.000137273077, 0.000435325142, -0.0111545641, -0.0171638243, 0.0002554427, 922.1863    , 32.3403244  , 787.7613    , 4.26        , 3           , 255         , 0           , 0
-0.168583825, 0.10961058  , -9.792113   , 6.823565E-05, -0.000141188677, 0.000475123961, -0.0111539634, -0.0171651859, 0.000260209956, 922.1863    , 32.3403244  , 787.761353  , 4.27        , 3           , 255         , 0           , 0
-0.165170416, 0.115583912 , -9.793818   , 8.020815E-05, -0.000482534524, 0.000260515255, -0.0111532062, -0.0171699822, 0.0002628691, 922.1863    , 32.3403244  , 787.7614    , 4.28        , 3           , 255         , 0           , 0
-0.166431814, 0.115896389 , -9.792719   , 0.000617696554, -0.000120325538, -4.89836166E-05, -0.0111470213, -0.01717119 , 0.000262392656, 922.1863    , 32.3403244  , 787.7615    , 4.29        , 3           , 255         , 0           , 0
-0.179670021, 0.10973718  , -9.795262   , 0.000291243341, 0.0007027397, -0.00033432935, -0.0111440513, -0.0171642  , 0.00025897086, 922.1863    , 32.3403244  , 787.761536  , 4.3         , 3           , 255         , 0           , 0
-0.180276185, 0.106070042 , -9.792965   , -0.000113188173, -0.000194347871, -0.00021571554, -0.0111499131, -0.0171692483, 0.0002569171, 922.1863    , 32.3403244  , 787.699036  , 4.31        , 3           , 255         , 0           , 0
-0.165235   , 0.112714015 , -9.79035    , -2.95152713E-05, 0.000128014857, -0.000265914481, -0.0111501617, -0.0171679985, 0.0002542435, 922.1863    , 32.3403244  , 787.6987    , 4.32        , 3           , 255         , 0           , 0
-0.157137126, 0.115904287 , -9.792407   , 0.0005149786, 0.0005025547, 0.0003474807, -0.0111450711, -0.0171629321, 0.0002576625, 922.1319    , 32.33985    , 787.6984    , 4.33        , 3           , 255         , 0           , 0
-0.1806657  , 0.111959    , -9.791614   , 0.0005656013, -0.000110649038, -0.0002000008, -0.0111393807, -0.01716406 , 0.000255674677, 922.1319    , 32.33985    , 787.6981    , 4.34        , 3           , 255         , 0           , 0
-0.174071282, 0.117173873 , -9.784911   , 0.000345390115, 0.000261610752, -0.000361673621, -0.0111358659, -0.0171614885, 0.0002520286, 922.1319    , 32.33985    , 787.6978    , 4.35        , 3           , 255         , 0           , 0
-0.170542762, 0.116903707 , -9.778715   , 0.000392826885, 7.195542E-05, -0.000919943966, -0.0111317784, -0.01716087 , 0.000242820563, 922.1319    , 32.33985    , 787.6975    , 4.36        , 3           , 255         , 0           , 0
-0.1635747  , 0.114958644 , -9.787544   , 0.00018405795, -5.73885045E-05, -0.0003705312, -0.0111298747, -0.0171614848, 0.000239121437, 922.1319    , 32.33985    , 787.6972    , 4.37        , 3           , 255         , 0           , 0
-0.160100117, 0.114737451 , -9.795654   , 0.000548530137, -0.00019375587, 0.000233875719, -0.0111244312, -0.0171633959, 0.0002414819, 922.1319    , 32.33985    , 787.6969    , 4.38        , 3           , 255         , 0           , 0
-0.169029087, 0.111932    , -9.791364   , 6.178673E-05, -1.36493763E-05, 5.302059E-05, -0.011123823, -0.0171635281, 0.000242013644, 922.1319    , 32.33985    , 787.6966    , 4.39        , 3           , 255         , 0           , 0
-0.1691905  , 0.114751041 , -9.788497   , 0.0005772168, -0.000213115243, -0.000272707723, -0.011118005, -0.01716569 , 0.000239310131, 922.1319    , 32.33985    , 787.6963    , 4.4         , 3           , 255         , 0           , 0
-0.155159861, 0.10950841  , -9.790697   , -6.68340363E-06, 4.1106774E-05, -0.000516640255, -0.0111267194, -0.0171671  , 0.000234288818, 922.1319    , 32.33985    , 787.7201    , 4.41        , 3           , 255         , 0           , 0
-0.162867188, 0.118931949 , -9.793911   , 0.000428009924, -0.000107920612, -0.000245522184, -0.0111223981, -0.0171682071, 0.00023184545, 922.1319    , 32.33985    , 787.7199    , 4.42        , 3           , 255         , 0           , 0
-0.167187363, 0.112564147 , -9.790642   , 0.000183182157, 8.557823E-05, -0.00019239675, -0.0111205317, -0.0171673726, 0.000229911864, 922.1784    , 32.338356   , 787.7197    , 4.43        , 3           , 255         , 0           , 0
-0.172199011, 0.11741896  , -9.794466   , 0.0002790083, 0.0008550057, 0.00071694213, -0.0111178625, -0.0171587449, 0.000236986627, 922.1784    , 32.338356   , 787.7196    , 4.44        , 3           , 255         , 0           , 0
-0.173278138, 0.114745833 , -9.787817   , 0.000192911379, 0.000286819035, 0.000685552659, -0.0111160511, -0.0171558  , 0.000243810675, 922.1784    , 32.338356   , 787.7195    , 4.45        , 3           , 255         , 0           , 0
-0.1619763  , 0.113771081 , -9.787809   , -0.000422452664, -4.823174E-05, -0.000550217, -0.0111201806, -0.01715634 , 0.000238313543, 922.1784    , 32.338356   , 787.71936   , 4.46        , 3           , 255         , 0           , 0
-0.174132317, 0.105491176 , -9.789061   , 0.000102131453, -0.0005426969, -9.735131E-05, -0.0111191431, -0.0171617754, 0.0002374003, 922.1784    , 32.338356   , 787.719238  , 4.47        , 3           , 255         , 0           , 0
-0.165760115, 0.106955007 , -9.800765   , 0.000222163362, 5.909051E-05, -0.000341786334, -0.0111168632, -0.017161224, 0.000233975647, 922.1784    , 32.338356   , 787.7191    , 4.48        , 3           , 255         , 0           , 0
-0.161928132, 0.105841205 , -9.799792   , 0.0004642929, 0.000160680735, 0.000230149773, -0.01111226 , -0.0171595924, 0.000236259439, 922.1784    , 32.338356   , 787.719     , 4.49        , 3           , 255         , 0           , 0
-0.162741035, 0.113642596 , -9.788904   , 0.000259535969, -0.0004989264, 0.000160755575, -0.0111096939, -0.0171645638, 0.000237922548, 922.1784    , 32.338356   , 787.7189    , 4.5         , 3           , 255         , 0           , 0
-0.1766484  , 0.11939548  , -9.781853   , -0.000318294129, 0.00013318834, 0.000295406237, -0.0111173475, -0.0171598177, 0.00024093785, 922.1784    , 32.338356   , 787.6738    , 4.51        , 3           , 255         , 0           , 0
-0.169835061, 0.110360287 , -9.786832   , 0.000156812224, -0.000203733391, 1.76324866E-05, -0.0111157829, -0.0171618517, 0.000241136848, 922.1784    , 32.338356   , 787.6734    , 4.52        , 3           , 255         , 0           , 0
-0.172752991, 0.121335782 , -9.792301   , 0.0002005306, -0.0002442409, -0.0001188904, -0.0111137582, -0.0171643086, 0.000239975023, 922.133057  , 32.337883   , 787.673     , 4.53        , 3           , 255         , 0           , 0
-0.164357781, 0.115886427 , -9.795883   , -9.207634E-05, -0.000160301017, 0.0002931689, -0.0111147305, -0.01716588 , 0.0002429247, 922.133057  , 32.337883   , 787.672546  , 4.54        , 3           , 255         , 0           , 0
-0.160341352, 0.118455574 , -9.787321   , -0.000374368363, -3.145347E-05, 0.000144841251, -0.0111184977, -0.01716618 , 0.0002443767, 922.133057  , 32.337883   , 787.6721    , 4.55        , 3           , 255         , 0           , 0
-0.168982834, 0.115658924 , -9.78704548 , -0.000235867308, 6.96191E-05 , 0.0008381084, -0.011121   , -0.01716539 , 0.000252750528, 922.133057  , 32.337883   , 787.6717    , 4.56        , 3           , 255         , 0           , 0
-0.16820243 , 0.117202081 , -9.786896   , -0.0004706536, -5.29056124E-05, -8.813498E-05, -0.01112569 , -0.0171659272, 0.000251875 , 922.133057  , 32.337883   , 787.671265  , 4.57        , 3           , 255         , 0           , 0
-0.161345527, 0.11451336  , -9.795708   , -1.96012843E-05, -2.18817149E-06, -0.0009786908, -0.0111257182, -0.0171660576, 0.0002420877, 922.133057  , 32.337883   , 787.670837  , 4.58        , 3           , 255         , 0           , 0
-0.169430777, 0.112963341 , -9.795783   , 0.0002452836, -0.000237447879, -0.0007695264, -0.0111231329, -0.0171685163, 0.000234418389, 922.133057  , 32.337883   , 787.6704    , 4.59        , 3           , 255         , 0           , 0
-0.171098515, 0.11732123  , -9.800471   , 5.52125857E-06, 0.000106978085, 0.000164441983, -0.0111231059, -0.0171674285, 0.000236051 , 922.133057  , 32.337883   , 787.67      , 4.6         , 3           , 255         , 0           , 0
-0.168423623, 0.108969092 , -9.787562   , 0.000427497347, -2.26491538E-05, -0.000374867552, -0.011130604, -0.0171680152, 0.000232507868, 922.133057  , 32.337883   , 787.696     , 4.61        , 3           , 255         , 0           , 0
-0.1672481  , 0.115745626 , -9.792105   , 0.000653189432, -1.55943853E-05, -5.53777E-05, -0.0111240642, -0.0171681754, 0.000231955783, 922.133057  , 32.337883   , 787.69574   , 4.62        , 3           , 255         , 0           , 0
-0.168503672, 0.113786295 , -9.789039   , 2.8227485E-05, -0.0005610663, -0.000245436444, -0.01112374 , -0.01717381 , 0.00022956368, 922.139465  , 32.34209    , 787.6955    , 4.63        , 3           , 255         , 0           , 0
-0.169277355, 0.116433963 , -9.793268   , -0.000304192567, -6.512346E-05, 0.0002993351, -0.011126834, -0.0171744283, 0.000232564445, 922.139465  , 32.34209    , 787.695251  , 4.64        , 3           , 255         , 0           , 0
-0.161300525, 0.120078243 , -9.799097   , -0.000234169624, 0.000207688558, -5.30529578E-05, -0.0111291669, -0.0171723589, 0.000232010774, 922.139465  , 32.34209    , 787.695     , 4.65        , 3           , 255         , 0           , 0
-0.162131235, 0.115984835 , -9.797486   , 0.000371572649, -0.000151458691, 0.000478299131, -0.0111255338, -0.01717382 , 0.000236810927, 922.139465  , 32.34209    , 787.694763  , 4.66        , 3           , 255         , 0           , 0
-0.170160741, 0.11490196  , -9.789962   , 0.000216586326, 0.000105264495, -0.000391516485, -0.0111233005, -0.0171728116, 0.000232883831, 922.139465  , 32.34209    , 787.6945    , 4.67        , 3           , 255         , 0           , 0
-0.1662246  , 0.119650044 , -9.783421   , -0.0002455619, -0.000356573815, -0.00026546928, -0.0111257117, -0.0171764065, 0.000230268663, 922.139465  , 32.34209    , 787.6943    , 4.68        , 3           , 255         , 0           , 0
-0.16371116 , 0.116262056 , -9.797426   , -0.000217951339, -0.000380228768, -3.12817829E-05, -0.0111278864, -0.0171802118, 0.000229998113, 922.139465  , 32.34209    , 787.694031  , 4.69        , 3           , 255         , 0           , 0
-0.17281267 , 0.111156963 , -9.795649   , -0.00010090039, 0.000300897984, 0.000893775 , -0.0111290487, -0.0171771012, 0.000238902925, 922.139465  , 32.34209    , 787.6938    , 4.7         , 3           , 255         , 0           , 0
-0.169489667, 0.103845514 , -9.791101   , 0.000135059032, -0.0003897199, 0.000510581 , -0.0111366827, -0.01717923 , 0.0002442052, 922.139465  , 32.34209    , 787.7074    , 4.71        , 3           , 255         , 0           , 0
-0.168939039, 0.1194597   , -9.791237   , 0.000572454534, -0.000537475164, -0.000482009258, -0.0111308768, -0.017184658, 0.000239444707, 922.139465  , 32.34209    , 787.7073    , 4.72        , 3           , 255         , 0           , 0
-0.171978742, 0.115605831 , -9.780851   , -6.846918E-05, -0.0002607893, -7.4099E-05 , -0.0111315483, -0.017187275, 0.0002387327, 922.136963  , 32.34209    , 787.707153  , 4.73        , 3           , 255         , 0           , 0
-0.166573256, 0.110241532 , -9.790761   , 0.000451494241, 0.000222893941, -8.775915E-05, -0.0111270184, -0.0171850547, 0.000237830245, 922.136963  , 32.34209    , 787.707031  , 4.74        , 3           , 255         , 0           , 0
-0.164599717, 0.121349141 , -9.79505348 , -0.000102777092, -0.000326521054, -0.000656190852, -0.0111279329, -0.0171883926, 0.000231304264, 922.136963  , 32.34209    , 787.7069    , 4.75        , 3           , 255         , 0           , 0
-0.164965   , 0.114096835 , -9.793692   , 0.0005260978, -0.000109108281, 8.874557E-05, -0.0111226877, -0.0171894711, 0.000232203922, 922.136963  , 32.34209    , 787.7068    , 4.76        , 3           , 255         , 0           , 0
-0.171708182, 0.110798225 , -9.792549   , -0.0004496089, -0.000332827447, 0.00012419399, -0.0111272046, -0.0171927847, 0.000233482933, 922.136963  , 32.34209    , 787.706665  , 4.77        , 3           , 255         , 0           , 0
-0.173057824, 0.10267105  , -9.79102    , 0.00011291221, 0.000464676443, -0.000180304589, -0.0111260442, -0.0171881579, 0.000231628059, 922.136963  , 32.34209    , 787.706543  , 4.78        , 3           , 255         , 0           , 0
-0.167317837, 0.102626309 , -9.784976   , 0.0005515757, -4.75492561E-05, -0.00027547183, -0.0111204805, -0.0171886664, 0.000228878474, 922.136963  , 32.34209    , 787.7064    , 4.79        , 3           , 255         , 0           , 0
-0.165548965, 0.116075061 , -9.788948   , -0.000224318181, 0.000103243947, 0.0001395149, -0.0111227473, -0.0171876177, 0.000230262187, 922.136963  , 32.34209    , 787.7063    , 4.8         , 3           , 255         , 0           , 0
-0.167251691, 0.114501253 , -9.801304   , 0.000118568889, -0.000101601909, -0.0006017967, -0.0111260582, -0.017188916, 0.000224334231, 922.136963  , 32.34209    , 787.7219    , 4.81        , 3           , 255         , 0           , 0
-0.162984118, 0.105131149 , -9.798491   , 0.0003317122, 2.877586E-05, -0.00081157044, -0.0111226011, -0.0171887185, 0.000216214816, 922.136963  , 32.34209    , 787.7219    , 4.82        , 3           , 255         , 0           , 0
-0.172993928, 0.109777853 , -9.794016   , 0.000718947 , -0.000124000537, 0.00020271237, -0.0111154485, -0.0171899386, 0.000218255882, 922.124939  , 32.33795    , 787.7219    , 4.83        , 3           , 255         , 0           , 0
-0.165840164, 0.11684984  , -9.786307   , 0.00015894149, -6.27112458E-05, -0.00041676368, -0.0111137889, -0.017190611, 0.000214094965, 922.124939  , 32.33795    , 787.7219    , 4.84        , 3           , 255         , 0           , 0
-0.165571332, 0.109537959 , -9.791619   , 0.0001543666, 0.000191045678, -8.0429134E-05, -0.0111122318, -0.01718871 , 0.0002132694, 922.124939  , 32.33795    , 787.7219    , 4.85        , 3           , 255         , 0           , 0
-0.172085583, 0.1076652   , -9.787854   , 7.86116E-05 , 0.000174896 , 0.000147436614, -0.0111114709, -0.0171869453, 0.000214724423, 922.124939  , 32.33795    , 787.7219    , 4.86        , 3           , 255         , 0           , 0
-0.177491292, 0.104387186 , -9.78706551 , -0.000119150791, 0.00043137747, 1.55130019E-05, -0.011112663, -0.0171826314, 0.000214831627, 922.124939  , 32.33795    , 787.7219    , 4.87        , 3           , 255         , 0           , 0
-0.1677322  , 0.09790857  , -9.795522   , 0.000530908233, 0.000130013941, -3.28736023E-05, -0.0111073488, -0.0171813387, 0.00021448842, 922.124939  , 32.33795    , 787.7219    , 4.88        , 3           , 255         , 0           , 0
-0.1715278  , 0.107251681 , -9.802925   , 0.0001923645, 0.000138294912, -0.000627454952, -0.0111053167, -0.0171800219, 0.000208198122, 922.124939  , 32.33795    , 787.7219    , 4.89        , 3           , 255         , 0           , 0
-0.1679199  , 0.109838665 , -9.794195   , 0.0002786533, 1.72779546E-05, 0.000272408564, -0.0111025767, -0.0171798188, 0.000210920465, 922.124939  , 32.33795    , 787.7219    , 4.9         , 3           , 255         , 0           , 0
-0.17166011 , 0.1164188   , -9.787168   , 0.000449657819, 0.000312089251, -0.000318409322, -0.0110973269, -0.0171776842, 0.000207689562, 922.124939  , 32.33795    , 787.7524    , 4.91        , 3           , 255         , 0           , 0
-0.171751529, 0.119836226 , -9.78595352 , -0.000356085366, 2.33676546E-05, -0.0008933856, -0.0111007337, -0.017177552, 0.000198752547, 922.124939  , 32.33795    , 787.752563  , 4.92        , 3           , 255         , 0           , 0
-0.159812778, 0.115009092 , -9.792162   , -0.000862599933, -0.0002759677, -0.0003953109, -0.0111092906, -0.0171803515, 0.00019482983, 922.174561  , 32.3410721  , 787.752747  , 4.93        , 3           , 255         , 0           , 0
-0.170906946, 0.111314967 , -9.799202   , -0.0004365276, 0.0002173046, -0.000617330661, -0.0111135505, -0.0171782468, 0.000188631981, 922.174561  , 32.3410721  , 787.7529    , 4.94        , 3           , 255         , 0           , 0
-0.166967064, 0.1175277   , -9.790893   , -0.0003240308, 6.07514958E-05, -0.000513342733, -0.0111167021, -0.0171776954, 0.0001834915, 922.174561  , 32.3410721  , 787.7531    , 4.95        , 3           , 255         , 0           , 0
-0.166484281, 0.118590251 , -9.783385   , 0.0003734825, -0.00035649573, -0.000629215967, -0.01111286 , -0.0171813313, 0.000177238588, 922.174561  , 32.3410721  , 787.7533    , 4.96        , 3           , 255         , 0           , 0
-0.172627121, 0.118032217 , -9.794594   , 0.000437389 , 0.000110246896, 0.000132350411, -0.0111085083, -0.0171802137, 0.000178549933, 922.174561  , 32.3410721  , 787.7535    , 4.97        , 3           , 255         , 0           , 0
-0.168480664, 0.122807488 , -9.800745   , -0.000188309292, 0.0001800439, 0.000246113836, -0.0111104343, -0.0171783864, 0.000180991221, 922.174561  , 32.3410721  , 787.753662  , 4.98        , 3           , 255         , 0           , 0
-0.173393175, 0.112237811 , -9.797205   , 0.000108163105, -8.66017654E-05, -0.0003019509, -0.0111093  , -0.0171792861, 0.000177981157, 922.174561  , 32.3410721  , 787.753845  , 4.99        , 3           , 255         , 0           , 0
-0.175052792, 0.106202163 , -9.800391   , 0.00081222353, 0.000140503937, -0.000247501855, -0.011101136, -0.0171779078, 0.000175490364, 922.174561  , 32.3410721  , 787.754     , 5           , 3           , 0           , -1          , 500
-0.172743767, 0.112817988 , -9.790052   , -0.000123583421, -0.0003555612, -1.08673894E-05, -0.01111134 , -0.01718335 , 0.000175575275, 922.174561  , 32.3410721  , 787.709839  , 5.01        , 3           , 1           , 0           , 0
-0.170197815, 0.118785165 , -9.78924751 , -0.000366841734, 1.7522194E-05, 0.0004716364, -0.0111150881, -0.0171831232, 0.00018029  , 922.174561  , 32.3410721  , 787.7098    , 5.02        , 3           , 2           , 0           , 0
-0.168373629, 0.10808482  , -9.78253    , 6.460829E-05, -0.000542783469, 0.0002997267, -0.0111144949, -0.0171885155, 0.000183347758, 922.150269  , 32.3412743  , 787.7097    , 5.03        , 3           , 3           , 0           , 0
-0.171551719, 0.121231392 , -9.79513    , -6.815512E-05, -0.000187410915, 0.0005853361, -0.0111152781, -0.017190326, 0.000189222308, 922.150269  , 32.3412743  , 787.709656  , 5.04        , 3           , 4           , 0           , 0
-0.1653811  , 0.122243464 , -9.787654   , -7.65203149E-05, -0.000175511552, 0.00029607254, -0.011116094, -0.0171920471, 0.00019220273, 922.150269  , 32.3412743  , 787.7096    , 5.05        , 3           , 5           , 0           , 0
-0.168113351, 0.116682649 , -9.796076   , 0.000368045672, -0.000155494112, 9.064157E-05, -0.01111243 , -0.0171935912, 0.000193126471, 922.150269  , 32.3412743  , 787.709534  , 5.06        , 3           , 6           , 0           , 0
-0.170976073, 0.107522562 , -9.790216   , -0.0001237081, -0.000347740424, -0.000293116143, -0.0111136166, -0.0171971023, 0.0001902338, 922.150269  , 32.3412743  , 787.7095    , 5.07        , 3           , 7           , 0           , 0
-0.166848645, 0.105072938 , -9.79027    , 0.0003623552, -0.000264279253, -0.0003281357, -0.0111099379, -0.01719978 , 0.0001869816, 922.150269  , 32.3412743  , 787.7094    , 5.08        , 3           , 8           , 5           , 5
