Acc X       , Acc Y       , Acc Z       , Gyro X      , Gyro Y      , Gyro Z      , Euler X     , Euler Y     , Euler Z     , Pres X      , Pres Y      , Pres Z      , Time        , Status      , LowRate X   , LowRate Y   , LowRate Z    
-0.177935675, 0.0886680558, -9.785448   , 0           , 0           , 0           , -0.009060968, -0.0181809515, 0           , 923.563843  , 31.5372124  , 774.994934  , 0           , 2           , 0           , 5.466232    , 0
-0.176125169, 0.08661495  , -9.793944   , 0.0003440891, -7.467216E-05, 5.749758E-05, -0.009057357, -0.0181816183, 5.818017E-07, 923.563843  , 31.5372124  , 774.994934  , 0.01        , 3           , 1           , 0           , 0
-0.167902261, 0.08871601  , -9.790709   , -0.000160795142, -0.000318231643, -0.000187500991, -0.009058932, -0.0181848165, -1.26456689E-06, 923.563843  , 31.5372124  , 774.994934  , 0.02        , 3           , 2           , 0           , 0
-0.172265679, 0.0832452551, -9.789743   , -6.362074E-05, -0.000183371245, 0.0004238556, -0.009059644, -0.0181866121, 2.99102248E-06, 923.5406    , 31.1039734  , 774.994934  , 0.03        , 3           , 3           , 0           , 0
-0.184162363, 0.09343543  , -9.788169   , 0.0004145026, 0.0002410916, 0.000338167185, -0.00905556 , -0.018184172, 6.35120068E-06, 923.5406    , 31.1039734  , 774.994934  , 0.04        , 3           , 4           , 0           , 0
-0.186431557, 0.0986345559, -9.79538    , 0.0004438677, 5.67840762E-05, 0.000301682885, -0.009051177, -0.0181835759, 9.363174E-06, 923.5406    , 31.1039734  , 774.994934  , 0.05        , 3           , 5           , 0           , 0
-0.181245342, 0.107223369 , -9.793814   , 1.101126E-05, 0.000281064364, 0.000310534815, -0.009051123, -0.0181807429, 1.24433964E-05, 923.5406    , 31.1039734  , 774.994934  , 0.06        , 3           , 6           , 0           , 0
-0.182359546, 0.09715078  , -9.795134   , -0.000133860653, -0.000420906581, 0.000462980417, -0.009052544, -0.0181849059, 1.71117554E-05, 923.5406    , 31.1039734  , 774.994934  , 0.07        , 3           , 7           , 0           , 0
-0.173023224, 0.08658254  , -9.794844   , 0.000298242085, 0.0003433712, -0.000107259162, -0.009049542, -0.0181814823, 1.6007978E-05, 923.5406    , 31.1039734  , 774.994934  , 0.08        , 3           , 8           , 5           , 5
-0.1742536  , 0.09234445  , -9.795294   , 5.79612679E-05, -8.8472385E-05, -1.12978933E-05, -0.009048962, -0.0181823671, 1.59029914E-05, 923.5406    , 31.1039734  , 774.994934  , 0.09        , 3           , 9           , 5           , 0.1
-0.180978909, 0.09224495  , -9.786376   , 8.855382E-05, 9.973993E-05, 0.0002857116, -0.009048128, -0.0181813445, 1.87513724E-05, 923.5406    , 31.1039734  , 774.994934  , 0.1         , 3           , 10          , 0.1         , 0.1
-0.18366313 , 0.09040952  , -9.789755   , 0.0002612953, 0.0002822241, 0.000132825837, -0.009061771, -0.01817763 , 2.03492782E-05, 923.5406    , 31.1039734  , 775.203857  , 0.11        , 3           , 11          , 0.0109544508, 0.0109544508
-0.1763848  , 0.08791225  , -9.801001   , -0.000289813936, 0.0002077739, -0.0009482131, -0.009064496, -0.0181756411, 1.08473778E-05, 923.5406    , 31.1039734  , 775.203857  , 0.12        , 3           , 12          , 0.174642488 , 0
-0.176879078, 0.0862939   , -9.783148   , 0.0001884129, -0.000369785761, -3.21590633E-05, -0.009062606, -0.018179344, 1.05592753E-05, 923.5796    , 31.1413536  , 775.203857  , 0.13        , 3           , 13          , 0           , 0
-0.18204236 , 0.08715372  , -9.79638    , 0.0003368719, -0.000180659525, 0.000435714 , -0.009059317, -0.01818111 , 1.49332127E-05, 923.5796    , 31.1413536  , 775.203857  , 0.14        , 3           , 14          , -0.0003345684, -0.000403315236
-0.1792871  , 0.08661376  , -9.794754   , 0.000557822059, -0.000251770427, 0.000486946577, -0.009053829, -0.0181835834, 1.98259768E-05, 923.5796    , 31.1413536  , 775.203857  , 0.15        , 3           , 15          , 0           , -1.47964568E-06
-0.17544198 , 0.08900039  , -9.787847   , 0.00046699302, -5.42646449E-05, 0.000368327281, -0.009049226, -0.0181840919, 2.35145289E-05, 923.5796    , 31.1413536  , 775.203857  , 0.16        , 3           , 16          , 0           , 1.401298E-45
-0.180660531, 0.09198306  , -9.785449   , 9.414303E-05, 0.000134152913, 0.0006487993, -0.009048402, -0.0181826912, 2.999102E-05, 923.5796    , 31.1413536  , 775.203857  , 0.17        , 3           , 20          , 0           , 0
-0.175167292, 0.0862011239, -9.782483   , 8.747057E-05, 5.851654E-05, 7.955217E-05, -0.009047543, -0.0181820989, 3.078133E-05, 923.5796    , 31.1413536  , 775.203857  , 0.18        , 3           , 21          , 0           , 0
-0.1815067  , 0.08762421  , -9.790137   , 0.00043351762, -0.00012925925, -0.000586208946, -0.0090431  , -0.0181834437, 2.49303484E-05, 923.5796    , 31.1413536  , 775.203857  , 0.19        , 3           , 22          , 0           , 0
-0.17540212 , 0.07795869  , -9.796194   , 0.000146223232, 0.000171250838, 0.000350705115, -0.00904170051, -0.0181817  , 2.842226E-05, 923.5796    , 31.1413536  , 775.2039    , 0.2         , 3           , 40          , 0           , 0
-0.171885878, 0.08570731  , -9.793585   , 8.63539753E-06, -0.0006409141, 0.00034026138, -0.009034786, -0.01819072 , 3.175779E-05, 923.5796    , 31.1413536  , 775.027954  , 0.21        , 3           , 41          , 0           , 0
-0.1783991  , 0.08457692  , -9.789278   , 6.813099E-05, 6.14440651E-05, 9.48011148E-05, -0.009034122, -0.0181900989, 3.270035E-05, 923.5796    , 31.1413536  , 775.028     , 0.22        , 3           , 42          , 0           , 0
-0.176884681, 0.08064765  , -9.793918   , 0.000480062678, -0.000143459853, -0.0002928901, -0.009029268, -0.0181915574, 2.97841052E-05, 923.552734  , 31.165844   , 775.0281    , 0.23        , 3           , 255         , 0           , 0
-0.168381855, 0.09712937  , -9.787754   , -5.594766E-05, -0.000264715083, -4.58612158E-05, -0.00902982 , -0.0181942079, 2.93493576E-05, 923.552734  , 31.165844   , 775.028137  , 0.24        , 3           , 255         , 0           , 0
-0.182866052, 0.0793009847, -9.792567   , 0.000375143049, 0.000532446255, -7.615849E-05, -0.009026055, -0.0181888919, 2.853963E-05, 923.552734  , 31.165844   , 775.0282    , 0.25        , 3           , 255         , 0           , 0
-0.183499262, 0.0822186   , -9.79256    , 1.6716891E-05, -7.456701E-05, -0.00053300336, -0.009025792, -0.0181896873, 2.32157981E-05, 923.552734  , 31.165844   , 775.028259  , 0.26        , 3           , 255         , 0           , 0
-0.180324093, 0.102588676 , -9.790389   , 0.0004629863, -0.0003842656, 0.000339963182, -0.00902122352, -0.0181934964, 2.66504485E-05, 923.552734  , 31.165844   , 775.0283    , 0.27        , 3           , 255         , 0           , 0
-0.187145248, 0.09501703  , -9.79899    , 0.0005582921, 6.56224147E-05, 0.000272284175, -0.00901569147, -0.0181928147, 2.936765E-05, 923.552734  , 31.165844   , 775.0284    , 0.28        , 3           , 255         , 0           , 0
-0.178259656, 0.09283477  , -9.791603   , 0.000235265776, -0.000217629509, 0.000418814627, -0.009013414, -0.018194953, 3.35758377E-05, 923.552734  , 31.165844   , 775.028442  , 0.29        , 3           , 255         , 0           , 0
-0.1793961  , 0.09098047  , -9.785436   , 0.000554203463, -0.000354568969, -0.0002755705, -0.009007823, -0.0181985237, 3.08518138E-05, 923.552734  , 31.165844   , 775.0285    , 0.3         , 3           , 255         , 0           , 0
-0.189225048, 0.0913556   , -9.791281   , 0.000344488857, -0.000104615377, -2.33380924E-05, -0.009007171, -0.0182017926, 3.06787333E-05, 923.552734  , 31.165844   , 775.0503    , 0.31        , 3           , 255         , 0           , 0
-0.184771657, 0.08763163  , -9.795034   , -3.76490061E-06, -9.09059E-05, -3.992578E-05, -0.009007201, -0.0182027053, 3.02876233E-05, 923.552734  , 31.165844   , 775.050354  , 0.32        , 3           , 255         , 0           , 0
-0.189698666, 0.09457725  , -9.794321   , 2.60651286E-05, -0.0006260596, 0.00050363387, -0.009007031, -0.018208921, 3.538085E-05, 923.50885   , 31.18233    , 775.0504    , 0.33        , 3           , 255         , 0           , 0
-0.181485519, 0.09293347  , -9.795702   , -3.63319123E-05, -0.000468806626, 6.659516E-06, -0.009007396, -0.0182136074, 3.54896765E-05, 923.50885   , 31.18233    , 775.0505    , 0.34        , 3           , 255         , 0           , 0
-0.180769235, 0.09104891  , -9.79199    , -0.000333307224, -0.0002992887, 9.964371E-05, -0.009010749, -0.01821659 , 3.651319E-05, 923.50885   , 31.18233    , 775.050537  , 0.35        , 3           , 255         , 0           , 0
-0.175997838, 0.09206412  , -9.786594   , 0.000286694732, -0.000149857224, -0.0001322301, -0.009007858, -0.0182181  , 3.52042625E-05, 923.50885   , 31.18233    , 775.0506    , 0.36        , 3           , 255         , 0           , 0
-0.178207412, 0.08689207  , -9.79405    , 8.578456E-05, -0.0005079163, -9.316836E-06, -0.0090069985, -0.0182231758, 3.51568233E-05, 923.50885   , 31.18233    , 775.050659  , 0.37        , 3           , 255         , 0           , 0
-0.173188612, 0.07699579  , -9.788211   , 0.0003287746, -0.000357360841, -2.05920733E-05, -0.009003707, -0.0182267539, 3.49830661E-05, 923.50885   , 31.18233    , 775.0507    , 0.38        , 3           , 255         , 0           , 0
-0.170987159, 0.07098676  , -9.793507   , 7.614936E-05, 3.64601437E-05, -0.000224960284, -0.009002904, -0.01822641 , 3.27299567E-05, 923.50885   , 31.18233    , 775.0508    , 0.39        , 3           , 255         , 0           , 0
-0.173419714, 0.0744383857, -9.791914   , 8.452812E-05, 0.000121096848, -0.000378327735, -0.00900199 , -0.0182252321, 2.89353939E-05, 923.50885   , 31.18233    , 775.050842  , 0.4         , 3           , 255         , 0           , 0
-0.180781886, 0.07489733  , -9.792397   , 9.97150346E-05, 0.000182232136, -0.0001645555, -0.008992436, -0.01822846 , 2.71178469E-05, 923.50885   , 31.18233    , 775.1616    , 0.41        , 3           , 255         , 0           , 0
-0.176417232, 0.07784006  , -9.793294   , -0.0002804888, 0.000873165554, 9.87529857E-05, -0.008995258, -0.01821972 , 2.80269342E-05, 923.50885   , 31.18233    , 775.1617    , 0.42        , 3           , 255         , 0           , 0
-0.1760391  , 0.0789683461, -9.790523   , -2.70605669E-05, 0.000237743472, -0.000129822191, -0.008995505, -0.018217355, 2.67071937E-05, 923.5405    , 31.1932526  , 775.161743  , 0.43        , 3           , 255         , 0           , 0
-0.18098852 , 0.08682769  , -9.7912     , 0.000210758575, 0.000213993742, 0.00033602785, -0.00899346 , -0.018215185, 3.0048559E-05, 923.5405    , 31.1932526  , 775.1618    , 0.44        , 3           , 255         , 0           , 0
-0.175126135, 0.09736204  , -9.786455   , 0.000615524652, -0.000269503915, 0.000310605945, -0.008987361, -0.01821785 , 3.31791525E-05, 923.5405    , 31.1932526  , 775.161865  , 0.45        , 3           , 255         , 0           , 0
-0.177913949, 0.0981183946, -9.793712   , 0.000191627754, 0.000152045977, -4.69767E-05, -0.008985436, -0.0182163361, 3.269568E-05, 923.5405    , 31.1932526  , 775.1619    , 0.46        , 3           , 255         , 0           , 0
-0.180086717, 0.097724475 , -9.792964   , -9.438416E-05, 0.0002840204, -3.894486E-05, -0.008986371, -0.0182135  , 3.22806554E-05, 923.5405    , 31.1932526  , 775.162     , 0.47        , 3           , 255         , 0           , 0
-0.184427813, 0.103473149 , -9.788538   , -0.0002166829, 0.000375060132, -0.00102136075, -0.00898835 , -0.01820984 , 2.20323054E-05, 923.5405    , 31.1932526  , 775.162048  , 0.48        , 3           , 255         , 0           , 0
-0.1821771  , 0.116849266 , -9.793104   , -8.720279E-05, -0.000164776458, -0.0005475999, -0.008989123, -0.018211538, 1.657057E-05, 923.5405    , 31.1932526  , 775.1621    , 0.49        , 3           , 255         , 0           , 0
-0.1780158  , 0.09829576  , -9.789753   , -0.000155854737, 0.00014244474, 4.930606E-06, -0.008990681, -0.0182101112, 1.66070568E-05, 923.5405    , 31.1932526  , 775.1622    , 0.5         , 3           , 255         , 0           , 0
-0.182906672, 0.09974509  , -9.7829     , -9.828381E-05, 0.000147501414, 0.000254333252, -0.009010738, -0.01821167 , 1.94839013E-05, 923.5405    , 31.1932526  , 775.170959  , 0.51        , 3           , 255         , 0           , 0
-0.186174914, 0.100405619 , -9.789004   , -0.000119370437, 0.0002270967, 0.000291897071, -0.009011986, -0.0182093736, 2.23827119E-05, 923.5405    , 31.1932526  , 775.171     , 0.52        , 3           , 255         , 0           , 0
-0.186581239, 0.0937723145, -9.781566   , -0.000480616553, 0.000419269316, 0.000751550251, -0.009016926, -0.0182051156, 2.9861154E-05, 923.524048  , 31.19963    , 775.1711    , 0.53        , 3           , 255         , 0           , 0
-0.1877059  , 0.079695344 , -9.787817   , -0.0003290714, -0.000250034383, 0.000630809343, -0.00902033 , -0.0182075556, 3.619242E-05, 923.524048  , 31.19963    , 775.1712    , 0.54        , 3           , 255         , 0           , 0
-0.1751948  , 0.0806717649, -9.787047   , -0.000555310049, -5.75162121E-05, 0.00036945098, -0.009025953, -0.0182080977, 3.98924931E-05, 923.524048  , 31.19963    , 775.1713    , 0.55        , 3           , 255         , 0           , 0
-0.173824608, 0.08268429  , -9.788849   , 0.000147327228, 5.85491071E-05, 6.71889356E-05, -0.009024491, -0.0182075072, 4.05591636E-05, 923.524048  , 31.19963    , 775.171448  , 0.56        , 3           , 255         , 0           , 0
-0.175394535, 0.07412715  , -9.786261   , -7.131853E-05, -0.0003186498, -0.000564135145, -0.009025102, -0.0182107426, 3.49460133E-05, 923.524048  , 31.19963    , 775.1716    , 0.57        , 3           , 255         , 0           , 0
-0.169393092, 0.07894455  , -9.79394    , 0.0002766803, -0.0002771776, -0.000403448154, -0.009022261, -0.0182135534, 3.093614E-05, 923.524048  , 31.19963    , 775.1717    , 0.58        , 3           , 255         , 0           , 0
-0.172498   , 0.07346107  , -9.795189   , 3.2838172E-05, -0.00031373027, -5.59177533E-06, -0.009021931, -0.0182166882, 3.09085044E-05, 923.524048  , 31.19963    , 775.1718    , 0.59        , 3           , 255         , 0           , 0
-0.173100457, 0.0871423855, -9.79592    , -0.000273261481, 0.000128900865, 1.85179979E-05, -0.009024668, -0.0182154  , 3.108208E-05, 923.524048  , 31.19963    , 775.171936  , 0.6         , 3           , 255         , 0           , 0
-0.179857075, 0.08907907  , -9.791794   , 0.000131626759, -7.654124E-05, 0.000564852264, -0.009008836, -0.0182161871, 3.64718035E-05, 923.524048  , 31.19963    , 775.2036    , 0.61        , 3           , 255         , 0           , 0
-0.187093809, 0.092868045 , -9.793588   , -0.000323356362, 9.921758E-05, 0.000169632229, -0.009012103, -0.01821518 , 3.81593527E-05, 923.524048  , 31.19963    , 775.203735  , 0.62        , 3           , 255         , 0           , 0
-0.183817431, 0.091194585 , -9.79189    , 5.86160459E-05, -0.000348604721, -0.000742321834, -0.00901138 , -0.0182187315, 3.07668051E-05, 923.5422    , 31.2077713  , 775.203857  , 0.63        , 3           , 255         , 0           , 0
-0.180295274, 0.0882542953, -9.788728   , 0.000571944751, -0.0002061314, 3.89895322E-05, -0.009005669, -0.01822079 , 3.11753174E-05, 923.5422    , 31.2077713  , 775.204     , 0.64        , 3           , 255         , 0           , 0
-0.185287148, 0.09255068  , -9.792162   , 0.000648368848, -0.000212090061, 0.00124404766, -0.008999413, -0.0182227939, 4.36361333E-05, 923.5422    , 31.2077713  , 775.2041    , 0.65        , 3           , 255         , 0           , 0
-0.179611638, 0.106653191 , -9.787206   , 0.00060250255, -0.000167162128, 0.0002907909, -0.00899344 , -0.0182244387, 4.65593657E-05, 923.5422    , 31.2077713  , 775.2042    , 0.66        , 3           , 255         , 0           , 0
-0.181208283, 0.09680498  , -9.780607   , 0.000412405818, 9.22694744E-05, 0.000172329717, -0.008989347, -0.0182235073, 4.827454E-05, 923.5422    , 31.2077713  , 775.204346  , 0.67        , 3           , 255         , 0           , 0
-0.1748438  , 0.0933087245, -9.785739   , 0.000647222041, -0.000314264762, 6.28306152E-05, -0.008982887, -0.01822664 , 4.89311424E-05, 923.5422    , 31.2077713  , 775.204468  , 0.68        , 3           , 255         , 0           , 0
-0.168088824, 0.0883633941, -9.791043   , 0.000181788273, 4.93946427E-05, -0.00024556226, -0.008981024, -0.018226169, 4.64708428E-05, 923.5422    , 31.2077713  , 775.2046    , 0.69        , 3           , 255         , 0           , 0
-0.17343919 , 0.0856803656, -9.790329   , -0.000122376136, -6.000008E-05, -3.391492E-05, -0.008982241, -0.0182267725, 4.613705E-05, 923.5422    , 31.2077713  , 775.2047    , 0.7         , 3           , 255         , 0           , 0
-0.177016169, 0.0873191357, -9.793327   , 0.000124289276, 5.17123553E-05, -0.000221487659, -0.008998718, -0.0182301328, 4.42410746E-05, 923.5422    , 31.2077713  , 775.202454  , 0.71        , 3           , 255         , 0           , 0
-0.183551222, 0.08459358  , -9.790604   , 0.000244426716, 0.000192142354, -0.000286509923, -0.008996221, -0.0182282366, 4.13584021E-05, 923.5422    , 31.2077713  , 775.2026    , 0.72        , 3           , 255         , 0           , 0
-0.17960909 , 0.07870846  , -9.783491   , -0.0004923448, 8.392034E-05, 0.000220752961, -0.009001185, -0.0182273779, 4.35585971E-05, 923.547241  , 31.2104168  , 775.2027    , 0.73        , 3           , 255         , 0           , 0
-0.172189742, 0.0798834562, -9.78215    , 0.0005988187, -0.000115748087, 0.000242817143, -0.008995242, -0.0182285141, 4.59974362E-05, 923.547241  , 31.2104168  , 775.2028    , 0.74        , 3           , 255         , 0           , 0
-0.182587251, 0.0866219848, -9.791307   , 0.000590658863, -0.000372652838, -0.000255129067, -0.008989289, -0.0182322636, 4.34793947E-05, 923.547241  , 31.2104168  , 775.202942  , 0.75        , 3           , 255         , 0           , 0
-0.179621756, 0.0864117   , -9.787284   , 0.000492856838, -0.000672502967, 1.93846827E-05, -0.008984365, -0.0182389915, 4.373371E-05, 923.547241  , 31.2104168  , 775.203064  , 0.76        , 3           , 255         , 0           , 0
-0.181154966, 0.0895793   , -9.782851   , 0.000125602615, 3.92185757E-05, 6.544083E-05, -0.00898312 , -0.018238591, 4.438465E-05, 923.547241  , 31.2104168  , 775.2032    , 0.77        , 3           , 255         , 0           , 0
-0.18630743 , 0.104665086 , -9.781711   , 1.6317761E-05, 0.000271408935, 8.74111647E-05, -0.008982974, -0.0182358678, 4.52344757E-05, 923.547241  , 31.2104168  , 775.2033    , 0.78        , 3           , 255         , 0           , 0
-0.178275168, 0.104575023 , -9.788327   , -0.000191839179, -4.083736E-05, -9.41389662E-05, -0.008984875, -0.0182362851, 4.429666E-05, 923.547241  , 31.2104168  , 775.2034    , 0.79        , 3           , 255         , 0           , 0
-0.1828391  , 0.10445185  , -9.784822   , 0.000219057241, -3.934544E-05, 0.00031942263, -0.008982743, -0.01823665 , 4.749475E-05, 923.547241  , 31.2104168  , 775.203552  , 0.8         , 3           , 255         , 0           , 0
-0.181598276, 0.09839966  , -9.787718   , -0.0004710443, -2.830755E-05, 0.000734790461, -0.009001376, -0.0182464831, 5.50975237E-05, 923.547241  , 31.2104168  , 775.195435  , 0.81        , 3           , 255         , 0           , 0
-0.17606914 , 0.09596078  , -9.792215   , -0.000111963484, 0.0003996718, 0.00118095288, -0.009002712, -0.0182423815, 6.68722641E-05, 923.547241  , 31.2104168  , 775.195557  , 0.82        , 3           , 255         , 0           , 0
-0.182374462, 0.09001011  , -9.802413   , -0.000293605641, 0.00036833348, 0.0001581001, -0.009005675, -0.01823868 , 6.8420246E-05, 923.522156  , 31.2153015  , 775.1957    , 0.83        , 3           , 255         , 0           , 0
-0.17803508 , 0.08040329  , -9.793135   , 0.000143228826, -4.5701483E-05, -0.001348263, -0.009003995, -0.0182392616, 5.494036E-05, 923.522156  , 31.2153015  , 775.1958    , 0.84        , 3           , 255         , 0           , 0
-0.185155779, 0.07906027  , -9.793993   , -0.0003409784, -0.000242247159, 0.000339789869, -0.009007467, -0.01824165 , 5.83604124E-05, 923.522156  , 31.2153015  , 775.1959    , 0.85        , 3           , 255         , 0           , 0
-0.177486792, 0.07894655  , -9.789646   , -0.000187508442, -0.0003341254, 0.00110784429, -0.009009542, -0.0182448886, 6.947006E-05, 923.522156  , 31.2153015  , 775.196045  , 0.86        , 3           , 255         , 0           , 0
-0.172071964, 0.07803613  , -9.787469   , 0.000270904042, -0.000198077149, 0.0005944685, -0.009006942, -0.0182468165, 7.5433185E-05, 923.522156  , 31.2153015  , 775.196167  , 0.87        , 3           , 255         , 0           , 0
-0.179244444, 0.07384425  , -9.794744   , 8.650511E-05, -0.000432329922, 0.000537099 , -0.009006176, -0.01825109 , 8.084366E-05, 923.522156  , 31.2153015  , 775.1963    , 0.88        , 3           , 255         , 0           , 0
-0.185385391, 0.0727694854, -9.79021549 , 0.000125038161, 2.57685024E-05, 7.655727E-05, -0.00900494 , -0.0182508249, 8.1607E-05  , 923.522156  , 31.2153015  , 775.1964    , 0.89        , 3           , 255         , 0           , 0
-0.182214469, 0.07746383  , -9.784955   , 0.0006931119, 0.000484031858, 0.000275979372, -0.008998059, -0.0182459671, 8.432348E-05, 923.522156  , 31.2153015  , 775.196533  , 0.9         , 3           , 255         , 0           , 0
-0.183457464, 0.088497445 , -9.782067   , 0.00096027297, 0.000119087141, 0.000187558282, -0.008970713, -0.0182489026, 8.586415E-05, 923.522156  , 31.2153015  , 775.2188    , 0.91        , 3           , 255         , 0           , 0
-0.175032139, 0.099869594 , -9.785596   , 0.0009516793, 0.0002642916, -0.000164843819, -0.008961165, -0.0182462744, 8.419183E-05, 923.522156  , 31.2153015  , 775.219     , 0.92        , 3           , 255         , 0           , 0
-0.178696364, 0.09795452  , -9.786909   , 0.000514319749, -2.18995265E-05, 4.85676828E-05, -0.008956033, -0.0182464886, 8.467952E-05, 923.5153    , 31.2147579  , 775.2192    , 0.93        , 3           , 255         , 0           , 0
-0.184575   , 0.08789866  , -9.798157   , 0.000314532139, 0.0003541293, 7.075109E-05, -0.0089529  , -0.0182429384, 8.53553938E-05, 923.5153    , 31.2147579  , 775.21936   , 0.94        , 3           , 255         , 0           , 0
-0.17571    , 0.0900473446, -9.790816   , 0.000178821749, -4.24832979E-05, 0.000194147724, -0.008951146, -0.0182433445, 8.73008757E-05, 923.5153    , 31.2147579  , 775.219543  , 0.95        , 3           , 255         , 0           , 0
-0.1841991  , 0.09068506  , -9.788453   , -0.0002889949, 0.000221701019, 0.000319602317, -0.008954095, -0.0182411019, 9.047736E-05, 923.5153    , 31.2147579  , 775.2197    , 0.96        , 3           , 255         , 0           , 0
-0.17645362 , 0.1012694   , -9.788915   , 5.20611939E-05, 3.058929E-06, -0.000235500818, -0.008953531, -0.01824109 , 8.812185E-05, 923.5153    , 31.2147579  , 775.2199    , 0.97        , 3           , 255         , 0           , 0
-0.169398308, 0.09398327  , -9.785919   , -7.373016E-05, 0.000371886767, 0.0004916474, -0.008954358, -0.01823733 , 9.30055248E-05, 923.5153    , 31.2147579  , 775.2201    , 0.98        , 3           , 255         , 0           , 0
-0.181807742, 0.08916924  , -9.791343   , -6.525745E-05, -0.000530902762, 0.000870975142, -0.00895517 , -0.0182425566, 0.0001017637, 923.5153    , 31.2147579  , 775.2203    , 0.99        , 3           , 255         , 0           , 0
-0.1688644  , 0.08174362  , -9.790126   , 1.61031494E-06, -0.000284820679, 0.000659697049, -0.008955275, -0.018245345, 0.000108386848, 923.5153    , 31.2147579  , 775.220459  , 1           , 3           , 0           , 6.46623659  , 100
-0.176692009, 0.0909170359, -9.7894     , -0.000390865171, -6.000421E-05, 0.000154356065, -0.008976226, -0.0182429422, 0.000110246328, 923.5153    , 31.2147579  , 775.2461    , 1.01        , 3           , 1           , 0           , 0
-0.182271451, 0.08237007  , -9.784591   , -0.0002571617, -0.00022528111, 0.000283494184, -0.008978849, -0.01824517 , 0.000113101785, 923.5153    , 31.2147579  , 775.246338  , 1.02        , 3           , 2           , 0           , 0
-0.175506324, 0.0886918455, -9.791376   , -0.000279088883, -0.000499555958, 0.0003799247, -0.008981709, -0.01825013 , 0.00011694627, 923.5151    , 31.2163181  , 775.2466    , 1.03        , 3           , 3           , 0           , 0
-0.180400372, 0.09567573  , -9.799898   , 5.70242119E-05, -8.687546E-05, 0.0003277621, -0.008981199, -0.0182509683, 0.00012023202, 923.5151    , 31.2163181  , 775.2468    , 1.04        , 3           , 4           , 0           , 0
-0.177793056, 0.0939298049, -9.790636   , 0.000213608029, 2.34560575E-05, 3.839443E-05, -0.008979071, -0.01825073 , 0.000120613906, 923.5151    , 31.2163181  , 775.2471    , 1.05        , 3           , 5           , 0           , 0
-0.181144983, 0.10588187  , -9.783524   , 0.0002561086, 0.000320276042, -0.0002788089, -0.008976459, -0.0182475522, 0.000117796786, 923.5151    , 31.2163181  , 775.2473    , 1.06        , 3           , 6           , 0           , 0
-0.18231602 , 0.0915526152, -9.793529   , -2.96832E-05, 0.000124042126, -0.0007201847, -0.008976623, -0.018246375, 0.00011058306, 923.5151    , 31.2163181  , 775.247559  , 1.07        , 3           , 7           , 0           , 0
-0.178298622, 0.08531116  , -9.793625   , -0.000392760063, 0.0008814478, -0.0006377905, -0.008980433, -0.0182376187, 0.000104125349, 923.5151    , 31.2163181  , 775.2478    , 1.08        , 3           , 8           , 5           , 5
-0.179217249, 0.0933835655, -9.787865   , -0.000133035559, 0.000499392743, 5.847603E-05, -0.008981773, -0.01823262 , 0.000104665312, 923.5151    , 31.2163181  , 775.248047  , 1.09        , 3           , 9           , 5           , 0.1
-0.1729526  , 0.09454088  , -9.787451   , -0.0005239068, 1.37433526E-05, 0.000269922253, -0.008987061, -0.01823246 , 0.000107363572, 923.5151    , 31.2163181  , 775.2483    , 1.1         , 3           , 10          , 0.1         , 0.1
-0.17227447 , 0.08872065  , -9.777301   , -0.00042535254, -0.000420145429, -8.539642E-05, -0.009005305, -0.0182365123, 0.000106802712, 923.5151    , 31.2163181  , 775.2702    , 1.11        , 3           , 11          , 0.00895195  , 0.008951951
-0.178465217, 0.0837548   , -9.77856    , -0.000655753945, -0.000655993237, 1.07085E-05 , -0.00901186652, -0.0182430688, 0.000106968917, 923.5151    , 31.2163181  , 775.2705    , 1.12        , 3           , 12          , 0.174642846 , 0
-0.17367205 , 0.084778145 , -9.79445648 , -0.000338243844, -0.000368492358, -0.000461401331, -0.009015165, -0.0182467941, 0.000102387647, 923.5303    , 31.2191     , 775.2708    , 1.13        , 3           , 13          , 0           , 0
-0.179127425, 0.08803514  , -9.79005051 , -0.000372965063, 0.000633013668, -4.77316353E-05, -0.009018884, -0.0182404686, 0.000101853191, 923.5303    , 31.2191     , 775.2711    , 1.14        , 3           , 14          , -0.000334525772, -0.0004032988
-0.181336716, 0.09213455  , -9.795796   , 0.000194647146, 0.0007867336, -9.62542763E-05, -0.009016919, -0.01823261 , 0.000100819576, 923.5303    , 31.2191     , 775.2714    , 1.15        , 3           , 15          , 0           , -1.48027414E-06
-0.168058   , 0.09276989  , -9.800381   , 0.000474117027, -5.45186631E-05, 0.00018210178, -0.009012211, -0.0182331372, 0.000102645696, 923.5303    , 31.2191     , 775.2717    , 1.16        , 3           , 16          , 0           , 1.401298E-45
-0.17374514 , 0.0884187743, -9.793314   , -0.0006830515, 8.922099E-06, 0.00027009414, -0.009019091, -0.0182330254, 0.000105346109, 923.5303    , 31.2191     , 775.272034  , 1.17        , 3           , 20          , 0           , 0
-0.177110627, 0.09036757  , -9.793413   , -0.000164830009, 6.287446E-06, -0.000306115224, -0.009020683, -0.01823299 , 0.000102284088, 923.5303    , 31.2191     , 775.272339  , 1.18        , 3           , 21          , 0           , 0
-0.18369779 , 0.08609664  , -9.789485   , 0.0005293769, 0.0002114927, -0.000439061841, -0.009015311, -0.0182309151, 9.787395E-05, 923.5303    , 31.2191     , 775.272644  , 1.19        , 3           , 22          , 0           , 0
-0.174050823, 0.0891925842, -9.781477   , 0.000297391583, -0.000524271163, 0.000325396075, -0.009012396, -0.0182361286, 0.000101175494, 923.5303    , 31.2191     , 775.272949  , 1.2         , 3           , 40          , 0           , 0
-0.1736691  , 0.09204315  , -9.784464   , 8.42261943E-05, -4.89984232E-05, 0.000185463723, -0.009012085, -0.0182285141, 0.000103043792, 923.5303    , 31.2191     , 775.276245  , 1.21        , 3           , 41          , 0           , 0
-0.178621709, 0.09546452  , -9.787212   , -1.67677354E-05, -0.000239275367, 0.000146775987, -0.009012279, -0.0182308946, 0.000104533254, 923.5303    , 31.2191     , 775.27655   , 1.22        , 3           , 42          , 0           , 0
-0.178502589, 0.09475203  , -9.78426    , -0.000174741843, 1.950917E-05, -4.082085E-05, -0.009014019, -0.0182307027, 0.000104123239, 923.5516    , 31.2212029  , 775.276855  , 1.23        , 3           , 255         , 0           , 0
-0.17927511 , 0.08966921  , -9.789359   , -7.520005E-05, 0.000395760348, 0.000394460425, -0.009014842, -0.01822671 , 0.00010803256, 923.5516    , 31.2212029  , 775.277161  , 1.24        , 3           , 255         , 0           , 0
-0.183949   , 0.097292684 , -9.783888   , 1.73915178E-05, -0.000211744307, -0.0007433389, -0.009014533, -0.0182288941, 0.000100617515, 923.5516    , 31.2212029  , 775.277466  , 1.25        , 3           , 255         , 0           , 0
-0.188298374, 0.09598533  , -9.791573   , -8.992158E-05, 6.210679E-05, -0.0006288145, -0.009015317, -0.0182283316, 9.43231353E-05, 923.5516    , 31.2212029  , 775.2778    , 1.26        , 3           , 255         , 0           , 0
-0.189609215, 0.08930605  , -9.789129   , -0.000202294788, 2.15988257E-05, 0.000680074038, -0.009017464, -0.018228054, 0.00010112262, 923.5516    , 31.2212029  , 775.278137  , 1.27        , 3           , 255         , 0           , 0
-0.191883579, 0.0742991939, -9.786888   , 0.00013217768, 0.000310893 , 0.00111854158, -0.009016344, -0.0182248466, 0.000112281108, 923.5516    , 31.2212029  , 775.2785    , 1.28        , 3           , 255         , 0           , 0
-0.176038057, 0.08647397  , -9.788797   , 0.0003046283, 0.000317330472, 0.000109968394, -0.009013318, -0.0182216577, 0.0001133523, 923.5516    , 31.2212029  , 775.2789    , 1.29        , 3           , 255         , 0           , 0
-0.1716765  , 0.08290021  , -9.784562   , 0.000185265613, 0.000148574472, -0.0004586424, -0.00901138 , -0.018220216, 0.000108752021, 923.5516    , 31.2212029  , 775.279236  , 1.3         , 3           , 255         , 0           , 0
-0.173270985, 0.0706506446, -9.785028   , 0.000241501679, -0.0004164511, -0.000392392278, -0.009015424, -0.0182356145, 0.00010498429, 923.5516    , 31.2212029  , 775.2598    , 1.31        , 3           , 255         , 0           , 0
-0.170554   , 0.08670143  , -9.788496   , -0.000240536872, -0.0009353106, -1.45638178E-05, -0.009017829, -0.0182449669, 0.000104922983, 923.5516    , 31.2212029  , 775.2601    , 1.32        , 3           , 255         , 0           , 0
-0.179068312, 0.0848364756, -9.789258   , -0.000146521081, -0.0006814962, 0.000298824074, -0.009019349, -0.0182517543, 0.000107972985, 923.553955  , 31.221611   , 775.2603    , 1.33        , 3           , 255         , 0           , 0
-0.177063152, 0.0803252459, -9.790981   , -0.000492176332, 0.000246979122, 0.00010552047, -0.009024289, -0.018249277, 0.000109006018, 923.553955  , 31.221611   , 775.260559  , 1.34        , 3           , 255         , 0           , 0
-0.1733218  , 0.08056577  , -9.788836   , -0.000252164784, 0.000251488615, -0.00018753609, -0.009026776, -0.01824678 , 0.000107107757, 923.553955  , 31.221611   , 775.2608    , 1.35        , 3           , 255         , 0           , 0
-0.187712237, 0.0901058838, -9.788576   , -0.000228949182, -0.000505541335, 0.0002475216, -0.009029111, -0.0182518084, 0.000109628854, 923.553955  , 31.221611   , 775.2611    , 1.36        , 3           , 255         , 0           , 0
-0.180238888, 0.0864355   , -9.781262   , -0.0004898304, 1.23443024E-05, 0.0005234452, -0.009034105, -0.018251637, 0.00011486272, 923.553955  , 31.221611   , 775.2614    , 1.37        , 3           , 255         , 0           , 0
-0.169685   , 0.08464378  , -9.790731   , -0.000245447969, 0.000163264762, -0.000103287879, -0.009036539, -0.0182500146, 0.000113814975, 923.553955  , 31.221611   , 775.2617    , 1.38        , 3           , 255         , 0           , 0
-0.170942515, 0.09513508  , -9.786303   , 2.1039159E-07, 0.0002952629, 8.979093E-06, -0.009036539, -0.0182470623, 0.0001138781, 923.553955  , 31.221611   , 775.262     , 1.39        , 3           , 255         , 0           , 0
-0.1721022  , 0.093372494 , -9.797062   , 6.92629255E-05, 1.75397145E-05, 9.06668938E-05, -0.009035862, -0.01824688 , 0.000114783281, 923.553955  , 31.221611   , 775.2623    , 1.4         , 3           , 255         , 0           , 0
-0.1831909  , 0.08687316  , -9.787312   , -0.0003216762, 0.000114719907, 0.00038982564, -0.009028715, -0.0182346646, 0.000118481257, 923.553955  , 31.221611   , 775.2422    , 1.41        , 3           , 255         , 0           , 0
-0.184993774, 0.08772865  , -9.779575   , -0.000459404546, -0.0004216403, -0.000320767838, -0.00903325 , -0.01823891 , 0.000115311326, 923.553955  , 31.221611   , 775.2424    , 1.42        , 3           , 255         , 0           , 0
-0.178217217, 0.08028843  , -9.791648   , -0.0005042187, -0.0001388219, -0.000102069913, -0.009038274, -0.0182403084, 0.000114303068, 923.5248    , 31.22351    , 775.242554  , 1.43        , 3           , 255         , 0           , 0
-0.177054077, 0.08748694  , -9.793587   , -0.000265502546, -0.000271840778, 0.00046441477, -0.009041013, -0.0182429831, 0.000118972268, 923.5248    , 31.22351    , 775.242737  , 1.44        , 3           , 255         , 0           , 0
-0.182951048, 0.0803877339, -9.79669    , -0.000131887966, -0.000423483027, -0.000609826646, -0.009042222, -0.018247271, 0.000112911664, 923.5248    , 31.22351    , 775.2429    , 1.45        , 3           , 255         , 0           , 0
-0.183244944, 0.08163192  , -9.787527   , 0.000166323589, 0.000257907377, -0.000499526854, -0.009040467, -0.0182447359, 0.000107892578, 923.5248    , 31.22351    , 775.2431    , 1.46        , 3           , 255         , 0           , 0
-0.175450757, 0.08479273  , -9.784602   , 0.000185464829, 0.0005816923, -0.0007598808, -0.009038473, -0.0182389915, 0.00010024041, 923.5248    , 31.22351    , 775.2433    , 1.47        , 3           , 255         , 0           , 0
-0.18188791 , 0.08501472  , -9.786891   , 0.000219208625, -0.000208091747, 0.000120188859, -0.009036303, -0.01824106 , 0.000101461228, 923.5248    , 31.22351    , 775.243469  , 1.48        , 3           , 255         , 0           , 0
-0.185036778, 0.08126503  , -9.790588   , -0.000257303182, -0.000401144149, 0.0008970557, -0.009039041, -0.0182449874, 0.000110468944, 923.5248    , 31.22351    , 775.243652  , 1.49        , 3           , 255         , 0           , 0
-0.174533963, 0.08500625  , -9.797204   , 0.0001505482, -0.0001539865, 0.00038206653, -0.009037605, -0.0182464942, 0.000114303904, 923.5248    , 31.22351    , 775.243835  , 1.5         , 3           , 255         , 0           , 0
-0.177537054, 0.0823394358, -9.794359   , 0.0005553435, 3.2247568E-05, 0.000264062925, -0.009018676, -0.0182521921, 0.000116696909, 923.5248    , 31.22351    , 775.2559    , 1.51        , 3           , 255         , 0           , 0
-0.178704172, 0.08127592  , -9.792963   , 0.0005963205, 0.00108325819, 0.0009025553, -0.009012878, -0.018241277, 0.00012562568, 923.5248    , 31.22351    , 775.256165  , 1.52        , 3           , 255         , 0           , 0
-0.180142283, 0.08607684  , -9.787376   , 0.000462517317, 0.000268586737, 0.0007621041, -0.00900839 , -0.0182385277, 0.000133223308, 923.561646  , 31.2243252  , 775.2564    , 1.53        , 3           , 255         , 0           , 0
-0.1790449  , 0.07719573  , -9.788624   , -0.000361958839, -7.075528E-05, -3.48305366E-05, -0.009012003, -0.0182392336, 0.000132881323, 923.561646  , 31.2243252  , 775.256653  , 1.54        , 3           , 255         , 0           , 0
-0.182226568, 0.0775113851, -9.789843   , -0.0007133364, -0.000479936425, 1.91084146E-05, -0.00901914 , -0.01824403 , 0.0001331157, 923.561646  , 31.2243252  , 775.2569    , 1.55        , 3           , 255         , 0           , 0
-0.176394463, 0.09024829  , -9.789457   , 0.000105860323, -0.000720582437, -0.00024022955, -0.009018039, -0.018251257, 0.000130778149, 923.561646  , 31.2243252  , 775.257141  , 1.56        , 3           , 255         , 0           , 0
-0.178312272, 0.0926993862, -9.797884   , -0.0001175901, -0.0002782034, 0.00042852512, -0.009019294, -0.0182539988, 0.000135088951, 923.561646  , 31.2243252  , 775.2574    , 1.57        , 3           , 255         , 0           , 0
-0.179975122, 0.09094262  , -9.794111   , 4.155599E-05, -8.249568E-06, 0.0009602795, -0.009019053, -0.0182539951, 0.000144693433, 923.561646  , 31.2243252  , 775.2577    , 1.58        , 3           , 255         , 0           , 0
-0.188605934, 0.092336    , -9.788791   , -3.73138464E-05, -4.620469E-05, 0.000175644062, -0.009019458, -0.0182544421, 0.000146454244, 923.561646  , 31.2243252  , 775.258     , 1.59        , 3           , 255         , 0           , 0
-0.187745377, 0.100191608 , -9.785192   , -0.000283436937, 1.02654158E-05, -0.000316522579, -0.009022235, -0.0182543676, 0.000143287747, 923.561646  , 31.2243252  , 775.2583    , 1.6         , 3           , 255         , 0           , 0
-0.1816288  , 0.0973162353, -9.78521252 , -0.000259038527, 0.000170783678, -0.000156556722, -0.009021659, -0.0182585251, 0.000141649332, 923.561646  , 31.2243252  , 775.2297    , 1.61        , 3           , 255         , 0           , 0
-0.18069607 , 0.101433955 , -9.798213   , 0.000113466696, -0.000392896385, -0.000184934222, -0.0090204915, -0.018262472, 0.000139835262, 923.561646  , 31.2243252  , 775.2298    , 1.62        , 3           , 255         , 0           , 0
-0.177552432, 0.09299931  , -9.798739   , 0.000267726544, -8.177446E-05, 0.0005143372, -0.00901791 , -0.0182632431, 0.000144986538, 923.5495    , 31.2226963  , 775.2299    , 1.63        , 3           , 255         , 0           , 0
-0.173547372, 0.08263017  , -9.789499   , 0.000238252134, -0.0002635784, 0.000196250214, -0.009015563, -0.01826586 , 0.000146972976, 923.5495    , 31.2226963  , 775.230042  , 1.64        , 3           , 255         , 0           , 0
-0.175057456, 0.0799013   , -9.791787   , 0.00062087737, -0.000189063925, -0.0003457846, -0.009009291, -0.01826778 , 0.000143531855, 923.5495    , 31.2226963  , 775.230164  , 1.65        , 3           , 255         , 0           , 0
-0.169683546, 0.08131662  , -9.79072    , -0.000206748664, -0.000468159938, 0.000189552084, -0.009011393, -0.0182724465, 0.000145469734, 923.5495    , 31.2226963  , 775.2303    , 1.66        , 3           , 255         , 0           , 0
-0.174125835, 0.08075492  , -9.790729   , -0.0007459266, -0.000377112563, 0.000388733373, -0.009018924, -0.0182761811, 0.000149391461, 923.5495    , 31.2226963  , 775.2304    , 1.67        , 3           , 255         , 0           , 0
-0.175773174, 0.0741327256, -9.789046   , -0.000363665924, 0.000185878162, 0.000272223348, -0.009022611, -0.0182742979, 0.0001520972, 923.5495    , 31.2226963  , 775.2305    , 1.68        , 3           , 255         , 0           , 0
-0.181426361, 0.07355625  , -9.782624   , 0.000193570464, -0.000133454887, -3.25642031E-05, -0.009020669, -0.0182756353, 0.000151783577, 923.5495    , 31.2226963  , 775.230652  , 1.69        , 3           , 255         , 0           , 0
-0.177366614, 0.08029559  , -9.785909   , 0.000334630226, -0.0004487091, -0.000513738662, -0.009017232, -0.0182801671, 0.000146686129, 923.5495    , 31.2226963  , 775.2308    , 1.7         , 3           , 255         , 0           , 0
-0.171732634, 0.0930985957, -9.790467   , -3.83674924E-05, -8.24110757E-05, 0.0006721977, -0.009007474, -0.01827504 , 0.000153228655, 923.5495    , 31.2226963  , 775.2177    , 1.71        , 3           , 255         , 0           , 0
-0.178145483, 0.101358488 , -9.796583   , -6.31879957E-05, -0.0002785564, 0.000567835232, -0.00900821 , -0.0182777736, 0.000158932686, 923.5495    , 31.2226963  , 775.2178    , 1.72        , 3           , 255         , 0           , 0
-0.167855784, 0.0820722356, -9.795629   , -0.000135563489, -0.000794257037, 0.000399443583, -0.009009639, -0.0182856787, 0.0001629991, 923.517151  , 31.2246628  , 775.217834  , 1.73        , 3           , 255         , 0           , 0
-0.176755637, 0.0920731649, -9.799914   , -0.000120395882, -0.000147126062, -0.000440972159, -0.009010764, -0.01828719 , 0.0001586022, 923.517151  , 31.2246628  , 775.2179    , 1.74        , 3           , 255         , 0           , 0
-0.186832815, 0.09232878  , -9.793366   , 0.000115284245, -0.00011904948, -0.001051396, -0.009009419, -0.0182884745, 0.000148097883, 923.517151  , 31.2246628  , 775.217957  , 1.75        , 3           , 255         , 0           , 0
-0.176597953, 0.09472515  , -9.788279   , 0.000111510191, 6.69652654E-05, -0.000175786015, -0.009008271, -0.0182878189, 0.0001463338, 923.517151  , 31.2246628  , 775.218     , 1.76        , 3           , 255         , 0           , 0
-0.184218556, 0.104305349 , -9.786455   , 0.0001039574, -0.000204223412, 3.36502562E-05, -0.009007238, -0.01828986 , 0.000146688748, 923.517151  , 31.2246628  , 775.2181    , 1.77        , 3           , 255         , 0           , 0
-0.1821703  , 0.09427066  , -9.786741   , 0.000137599549, -1.41931814E-05, 0.000376333977, -0.009005932, -0.0182899665, 0.000150453736, 923.517151  , 31.2246628  , 775.21814   , 1.78        , 3           , 255         , 0           , 0
-0.178289518, 0.0850432   , -9.789984   , 0.000469889928, 0.000198439884, -0.00053972943, -0.009001135, -0.0182880312, 0.000145038037, 923.517151  , 31.2246628  , 775.2182    , 1.79        , 3           , 255         , 0           , 0
-0.179507688, 0.07888191  , -9.795085   , 0.000187226469, 9.861679E-05, -0.0001817004, -0.00899922848, -0.0182870626, 0.000143211975, 923.517151  , 31.2246628  , 775.218262  , 1.8         , 3           , 255         , 0           , 0
-0.176868111, 0.08187573  , -9.794528   , 6.300799E-05, 0.0001335231, 0.000642391446, -0.009006775, -0.018283654, 0.000149771877, 923.517151  , 31.2246628  , 775.243     , 1.81        , 3           , 255         , 0           , 0
-0.176069379, 0.08501704  , -9.794208   , -0.0003047032, 0.000131958659, 0.0005906776, -0.009009928, -0.0182822812, 0.000155667367, 923.517151  , 31.2246628  , 775.2432    , 1.82        , 3           , 255         , 0           , 0
-0.176681116, 0.07533459  , -9.795211   , -0.000192228588, -0.0001762005, 0.0001856672, -0.009011886, -0.0182840247, 0.000157540111, 923.551147  , 31.225275   , 775.243469  , 1.83        , 3           , 255         , 0           , 0
-0.176790923, 0.08525501  , -9.792793   , 7.090421E-05, -0.000229517784, -0.0004998066, -0.009011086, -0.0182863642, 0.000152562221, 923.551147  , 31.225275   , 775.2437    , 1.84        , 3           , 255         , 0           , 0
-0.170958579, 0.0915256739, -9.793427   , 0.000259031716, 0.00020381232, -0.000318724575, -0.009008437, -0.0182843562, 0.000149356289, 923.551147  , 31.225275   , 775.243958  , 1.85        , 3           , 255         , 0           , 0
-0.182953551, 0.09655497  , -9.79491    , 0.0007675951, -0.0002477565, -0.000157431947, -0.009000735, -0.0182868484, 0.000147804123, 923.551147  , 31.225275   , 775.2442    , 1.86        , 3           , 255         , 0           , 0
-0.17899926 , 0.101391181 , -9.803587   , 0.000399935874, -0.00019397834, 5.73419275E-05, -0.008996746, -0.0182887819, 0.000148395076, 923.551147  , 31.225275   , 775.244446  , 1.87        , 3           , 255         , 0           , 0
-0.189753368, 0.106207706 , -9.791882   , 4.89788363E-05, -0.000151503686, -0.000328728318, -0.008996196, -0.018290326, 0.000145121085, 923.551147  , 31.225275   , 775.2447    , 1.88        , 3           , 255         , 0           , 0
-0.191653073, 0.110708252 , -9.785085   , -0.000228646211, -0.000291244622, -7.731392E-05, -0.008998469, -0.0182932466, 0.000144374077, 923.551147  , 31.225275   , 775.244934  , 1.89        , 3           , 255         , 0           , 0
-0.188693881, 0.111302339 , -9.783475   , -0.000177584647, -4.158559E-06, 0.000207453544, -0.009000284, -0.018293269, 0.000146449165, 923.551147  , 31.225275   , 775.2452    , 1.9         , 3           , 255         , 0           , 0
-0.198025316, 0.108262852 , -9.79167    , -0.0002795351, 7.164324E-05, 9.167909E-05, -0.009016248, -0.0182964113, 0.000147600251, 923.551147  , 31.225275   , 775.227966  , 1.91        , 3           , 255         , 0           , 0
-0.19609201 , 0.10283637  , -9.800066   , -0.000147727231, 4.11677756E-05, -3.849147E-05, -0.009017718, -0.0182960033, 0.0001472116, 923.551147  , 31.225275   , 775.2281    , 1.92        , 3           , 255         , 0           , 0
-0.190077379, 0.0976115242, -9.79661751 , -8.1481965E-05, 0.000193350163, 0.000418902462, -0.009018608, -0.0182940327, 0.0001513836, 923.5585    , 31.2264957  , 775.2282    , 1.93        , 3           , 255         , 0           , 0
-0.181728914, 0.09529704  , -9.788468   , 0.000178601287, -0.000121890334, -0.0001326741, -0.009016799, -0.0182952639, 0.000150067717, 923.5585    , 31.2264957  , 775.228333  , 1.94        , 3           , 255         , 0           , 0
-0.1791068  , 0.08847936  , -9.789158   , 5.46773663E-06, -0.000141031283, -0.000335698627, -0.009016682, -0.0182967056, 0.00014672309, 923.5585    , 31.2264957  , 775.2285    , 1.95        , 3           , 255         , 0           , 0
-0.180446178, 0.08682535  , -9.789864   , -0.00017802362, 2.36520427E-05, -0.0008840659, -0.009018299, -0.0182965472, 0.0001378794, 923.5585    , 31.2264957  , 775.2287    , 1.96        , 3           , 255         , 0           , 0
-0.179828018, 0.08495863  , -9.803322   , 0.000324480236, -0.000103821279, -0.000729538151, -0.009014921, -0.0182976518, 0.000130592642, 923.5585    , 31.2264957  , 775.2289    , 1.97        , 3           , 255         , 0           , 0
-0.1760753  , 0.07967093  , -9.797526   , 0.000160874479, 6.4406544E-05, -0.00037201462, -0.009013244, -0.01829704 , 0.0001268663, 923.5585    , 31.2264957  , 775.229065  , 1.98        , 3           , 255         , 0           , 0
-0.171319515, 0.0752580538, -9.791861   , 0.00014748743, -0.000333726523, 0.000294089376, -0.009011824, -0.0183003489, 0.000129837557, 923.5585    , 31.2264957  , 775.229248  , 1.99        , 3           , 255         , 0           , 0
-0.17037496 , 0.08012999  , -9.79241    , 3.707045E-05, -1.4934456E-05, -0.000117208532, -0.009011431, -0.01830051 , 0.00012866671, 923.5585    , 31.2264957  , 775.229431  , 2           , 3           , 0           , 7.46623659  , 200
-0.162652537, 0.07297629  , -9.79021549 , -1.21468038E-05, 6.468038E-05, 0.000414039881, -0.009014711, -0.0183057  , 0.000132858142, 923.5585    , 31.2264957  , 775.2048    , 2.01        , 3           , 1           , 0           , 0
-0.177796274, 0.07078381  , -9.788417   , -0.0002678898, 0.0003495861, 0.0005826109, -0.009017495, -0.0183021519, 0.000138653311, 923.5585    , 31.2264957  , 775.2048    , 2.02        , 3           , 2           , 0           , 0
-0.178388283, 0.06956797  , -9.802559   , -0.000401690864, -0.000116000854, 0.000750456064, -0.009021649, -0.0183032453, 0.0001461691, 923.547546  , 31.2259521  , 775.2048    , 2.03        , 3           , 3           , 0           , 0
-0.176840931, 0.0704785   , -9.793029   , 7.723094E-05, -0.0002093252, 0.000640349346, -0.009020994, -0.01830528 , 0.00015259214, 923.547546  , 31.2259521  , 775.2048    , 2.04        , 3           , 4           , 0           , 0
-0.180225044, 0.07519579  , -9.792658   , 9.451367E-05, -6.78947254E-05, 6.890454E-05, -0.009020063, -0.0183059536, 0.000153287387, 923.547546  , 31.2259521  , 775.2048    , 2.05        , 3           , 5           , 0           , 0
-0.175961822, 0.08102832  , -9.788977   , 0.000135785769, 6.035916E-05, -0.0003052327, -0.009018648, -0.0183053762, 0.0001502293, 923.547546  , 31.2259521  , 775.2048    , 2.06        , 3           , 6           , 0           , 0
-0.173226386, 0.0956857   , -9.792745   , 0.000421928184, -7.327355E-05, 0.0002067392, -0.009014468, -0.01830609 , 0.000152303517, 923.547546  , 31.2259521  , 775.2048    , 2.07        , 3           , 7           , 0           , 0
-0.169884175, 0.09892747  , -9.786112   , -0.00015365021, 0.000198598311, 0.000914396369, -0.009016171, -0.018304022, 0.000161430507, 923.547546  , 31.2259521  , 775.2048    , 2.08        , 3           , 8           , 5           , 5
-0.173868537, 0.09302084  , -9.789793   , 6.53273E-05 , 0.000280082982, 0.0004451606, -0.0090156  , -0.01830118 , 0.000165857316, 923.547546  , 31.2259521  , 775.2048    , 2.09        , 3           , 9           , 5           , 0.1
-0.185367286, 0.09346606  , -9.794353   , 0.000254567654, 0.0003698149, -0.0004070125, -0.00901298 , -0.01829752 , 0.000161753429, 923.547546  , 31.2259521  , 775.2048    , 2.1         , 3           , 10          , 0.1         , 0.1
-0.181944638, 0.092983976 , -9.793432   , 0.0006145629, 0.000158294017, -0.000918212056, -0.008993007, -0.0182875581, 0.00015230634, 923.547546  , 31.2259521  , 775.196     , 2.11        , 3           , 11          , 0.00777986  , 0.007779859
-0.174292877, 0.0903606862, -9.788961   , 1.22163037E-05, -0.00014439362, -0.000234401945, -0.008992842, -0.01828902 , 0.000149975065, 923.547546  , 31.2259521  , 775.196     , 2.12        , 3           , 12          , 0.174643889 , 0
-0.179625   , 0.0897775739, -9.78802    , -0.000369093817, 0.0002173878, -0.000247165328, -0.008996488, -0.0182868689, 0.000147483617, 923.537537  , 31.227581   , 775.196     , 2.13        , 3           , 13          , 0           , 0
-0.1811532  , 0.09119172  , -9.789389   , 0.000248676428, -1.52264547E-05, -4.424344E-05, -0.00899399351, -0.0182870254, 0.0001470425, 923.537537  , 31.227581   , 775.196     , 2.14        , 3           , 14          , -0.00033456806, -0.000403305428
-0.187476635, 0.09061297  , -9.790935   , 2.400967E-05, -1.96820183E-05, 0.000279832544, -0.008993804, -0.0182871968, 0.000149842876, 923.537537  , 31.227581   , 775.196     , 2.15        , 3           , 15          , 0           , -1.47956212E-06
-0.181393832, 0.09048459  , -9.789111   , -0.0005730025, -0.0002199864, 6.834827E-05, -0.008999546, -0.01828939 , 0.000150546213, 923.537537  , 31.227581   , 775.196     , 2.16        , 3           , 16          , 0           , 1.401298E-45
-0.186246961, 0.08970375  , -9.7823925  , -0.000229719823, 0.0007486433, -0.0007546078, -0.009001703, -0.0182819683, 0.000142931953, 923.537537  , 31.227581   , 775.196     , 2.17        , 3           , 20          , 0           , 0
-0.18662031 , 0.090148136 , -9.790492   , -8.061313E-05, 0.0006525618, 0.000380028272, -0.009002578, -0.01827541 , 0.000146673861, 923.537537  , 31.227581   , 775.196     , 2.18        , 3           , 21          , 0           , 0
-0.177957937, 0.0991301462, -9.788767   , 3.58925026E-05, -0.000155949587, 0.000306649221, -0.009002276, -0.0182769429, 0.0001497547, 923.537537  , 31.227581   , 775.196     , 2.19        , 3           , 22          , 0           , 0
-0.184011787, 0.11002636  , -9.784529   , -0.000364892854, 8.139489E-05, -5.42788E-06, -0.009005923, -0.0182761271, 0.000149693078, 923.537537  , 31.227581   , 775.196     , 2.2         , 3           , 40          , 0           , 0
-0.191812128, 0.110271081 , -9.78936    , -0.0006258145, -0.000129590131, 0.000355418131, -0.0090272  , -0.0182858016, 0.000153532746, 923.537537  , 31.227581   , 775.200745  , 2.21        , 3           , 41          , 0           , 0
-0.180336684, 0.09492832  , -9.789289   , 0.00026946218, -0.0001561199, 3.93628E-05 , -0.009024513, -0.0182873588, 0.00015394052, 923.537537  , 31.227581   , 775.200745  , 2.22        , 3           , 42          , 0           , 0
-0.18369925 , 0.08680653  , -9.782423   , 0.000174704 , -3.518365E-05, -2.30957521E-05, -0.009022762, -0.0182877127, 0.00015371271, 923.517944  , 31.2246628  , 775.200745  , 2.23        , 3           , 255         , 0           , 0
-0.178341925, 0.08323797  , -9.788947   , -9.513213E-05, -0.0002088061, -0.000185144178, -0.009023679, -0.0182898156, 0.000151879911, 923.517944  , 31.2246628  , 775.200745  , 2.24        , 3           , 255         , 0           , 0
-0.176787585, 0.0812785   , -9.784608   , 0.000441058568, 0.000203664182, -0.000533251, -0.009019172, -0.0182878282, 0.0001465285, 923.517944  , 31.2246628  , 775.200745  , 2.25        , 3           , 255         , 0           , 0
-0.184488028, 0.07612638  , -9.795079   , 0.000180310948, 0.0003857172, -0.000274574442, -0.00901731849, -0.0182839967, 0.000143747689, 923.517944  , 31.2246628  , 775.200745  , 2.26        , 3           , 255         , 0           , 0
-0.168997929, 0.07321797  , -9.792986   , -0.000650532136, 0.000395836541, -2.47748249E-05, -0.009023817, -0.01828004 , 0.000143464218, 923.517944  , 31.2246628  , 775.200745  , 2.27        , 3           , 255         , 0           , 0
-0.161503732, 0.07625065  , -9.79112148 , -0.0004862041, -4.336296E-06, -0.0001429752, -0.009028655, -0.0182800982, 0.000142034711, 923.517944  , 31.2246628  , 775.200745  , 2.28        , 3           , 255         , 0           , 0
-0.168891147, 0.0718497857, -9.787619   , -9.221246E-05, -6.3098094E-05, -0.000161023287, -0.009029546, -0.0182807446, 0.000140430013, 923.517944  , 31.2246628  , 775.200745  , 2.29        , 3           , 255         , 0           , 0
-0.164931446, 0.07430563  , -9.786993   , -0.000464545621, -0.000109352375, 0.0005104381, -0.009034285, -0.0182817914, 0.0001455448, 923.517944  , 31.2246628  , 775.200745  , 2.3         , 3           , 255         , 0           , 0
-0.171473473, 0.0757827   , -9.793904   , -0.000454451831, 0.000154918671, 0.000355452939, -0.009024155, -0.01827195 , 0.000148816369, 923.517944  , 31.2246628  , 775.230164  , 2.31        , 3           , 255         , 0           , 0
-0.1715964  , 0.0824602246, -9.80489    , -0.0003450408, -9.9136465E-05, 0.000613378 , -0.009027719, -0.0182728842, 0.000154959722, 923.517944  , 31.2246628  , 775.2304    , 2.32        , 3           , 255         , 0           , 0
-0.1788036  , 0.08098666  , -9.788096   , 6.77582E-05 , -0.000264100352, 0.000345763547, -0.009027105, -0.0182754938, 0.000158441544, 923.5138    , 31.22507    , 775.230652  , 2.33        , 3           , 255         , 0           , 0
-0.17718932 , 0.08823704  , -9.788012   , -0.000149910746, -0.000479273585, 0.000137948751, -0.009028631, -0.0182802733, 0.000159864459, 923.5138    , 31.22507    , 775.2309    , 2.34        , 3           , 255         , 0           , 0
-0.173965529, 0.09959659  , -9.805349   , -0.000359237543, -0.000320100778, 0.0007596173, -0.009032361, -0.0182834044, 0.0001674903, 923.5138    , 31.22507    , 775.23114   , 2.35        , 3           , 255         , 0           , 0
-0.181994572, 0.107078955 , -9.796155   , -0.0003711321, -0.000104309496, -0.0001917855, -0.009036038, -0.0182844661, 0.000165581674, 923.5138    , 31.22507    , 775.2314    , 2.36        , 3           , 255         , 0           , 0
-0.183032945, 0.103436589 , -9.788225   , 0.000234921608, -7.595084E-05, -0.0003915319, -0.00903361849, -0.01828526 , 0.000161672826, 923.5138    , 31.22507    , 775.2316    , 2.37        , 3           , 255         , 0           , 0
-0.190206826, 0.09462194  , -9.78934    , 0.000207709032, 0.000184081509, 0.000285061134, -0.009031593, -0.0182833932, 0.0001645071, 923.5138    , 31.22507    , 775.2319    , 2.38        , 3           , 255         , 0           , 0
-0.1915118  , 0.09486557  , -9.790841   , -5.04442432E-05, -0.000239412388, 0.0005145636, -0.009032193, -0.018285742, 0.0001696749, 923.5138    , 31.22507    , 775.2321    , 2.39        , 3           , 255         , 0           , 0
-0.181579858, 0.0977681056, -9.787906   , -0.000145290338, -0.000119414326, 0.000182732256, -0.00903368 , -0.01828692 , 0.000171513209, 923.5138    , 31.22507    , 775.232361  , 2.4         , 3           , 255         , 0           , 0
-0.175616562, 0.08690947  , -9.783632   , -6.357103E-05, 0.000304121 , 0.0005565839, -0.009041827, -0.01828578 , 0.000177187612, 923.5138    , 31.22507    , 775.2636    , 2.41        , 3           , 255         , 0           , 0
-0.17970483 , 0.0855855942, -9.78344    , -0.000150216743, -5.19267342E-05, 0.000350856077, -0.009043394, -0.0182862654, 0.00018070123, 923.5138    , 31.22507    , 775.264038  , 2.42        , 3           , 255         , 0           , 0
-0.1749964  , 0.0905806   , -9.787789   , 0.0003597317, -0.000149954256, 0.000202062409, -0.009039835, -0.0182877462, 0.000182735617, 923.548645  , 31.2256813  , 775.264465  , 2.43        , 3           , 255         , 0           , 0
-0.17202726 , 0.09545566  , -9.78893852 , 1.39551412E-05, -8.671198E-05, 0.000481234718, -0.009039783, -0.0182885714, 0.000187556288, 923.548645  , 31.2256813  , 775.2649    , 2.44        , 3           , 255         , 0           , 0
-0.170205012, 0.094657816 , -9.788814   , 0.0007003329, -7.73782958E-05, -4.96934445E-06, -0.009032778, -0.0182893462, 0.0001875136, 923.548645  , 31.2256813  , 775.2653    , 2.45        , 3           , 255         , 0           , 0
-0.169659108, 0.08844137  , -9.802169   , 0.000454575144, -0.000220212416, 0.000543302333, -0.009028333, -0.0182915013, 0.000192967054, 923.548645  , 31.2256813  , 775.265747  , 2.46        , 3           , 255         , 0           , 0
-0.18085213 , 0.08613236  , -9.796312   , 5.1541836E-05, 0.000266140822, -0.000378762372, -0.009027749, -0.0182888713, 0.00018915502, 923.548645  , 31.2256813  , 775.2662    , 2.47        , 3           , 255         , 0           , 0
-0.180652738, 0.09028036  , -9.797642   , -0.000267630618, 3.280668E-05, -8.989811E-05, -0.009030408, -0.01828855 , 0.000188252976, 923.548645  , 31.2256813  , 775.2666    , 2.48        , 3           , 255         , 0           , 0
-0.1840432  , 0.08913426  , -9.793344   , -0.000230980979, -0.0005319974, 0.0005912448, -0.009032826, -0.01829382 , 0.000194214081, 923.548645  , 31.2256813  , 775.267     , 2.49        , 3           , 255         , 0           , 0
-0.189035565, 0.0916871056, -9.789759   , -0.000380415062, -0.0004977253, 0.000952160452, -0.00903680548, -0.018298706, 0.000203781616, 923.548645  , 31.2256813  , 775.267456  , 2.5         , 3           , 255         , 0           , 0
-0.17016995 , 0.09162846  , -9.79772    , 7.840374E-05, 0.000196244946, 0.0007226507, -0.009039126, -0.0182937  , 0.0002110455, 923.548645  , 31.2256813  , 775.248     , 2.51        , 3           , 255         , 0           , 0
-0.179707438, 0.0800110847, -9.792983   , -3.7484715E-05, -1.9656E-05 , -0.000109517234, -0.009039479, -0.0182939041, 0.000209951977, 923.548645  , 31.2256813  , 775.2483    , 2.52        , 3           , 255         , 0           , 0
-0.182124168, 0.08133094  , -9.78535652 , 0.0003758855, -1.710956E-06, 0.000357343466, -0.009035786, -0.0182938911, 0.000213525971, 923.535339  , 31.2302952  , 775.2486    , 2.53        , 3           , 255         , 0           , 0
-0.175034791, 0.08768304  , -9.788779   , -0.000235973246, -4.64535842E-05, 0.000112033871, -0.009038166, -0.0182943456, 0.00021465063, 923.535339  , 31.2302952  , 775.2489    , 2.54        , 3           , 255         , 0           , 0
-0.174261734, 0.08494042  , -9.792354   , -0.0008191145, -1.16132433E-05, -0.000138514981, -0.009046331, -0.0182944741, 0.000213266365, 923.535339  , 31.2302952  , 775.2492    , 2.55        , 3           , 255         , 0           , 0
-0.174021751, 0.09105762  , -9.784427   , -0.0003924972, 5.238218E-05, -0.0007016879, -0.009050127, -0.018294014, 0.000206244033, 923.535339  , 31.2302952  , 775.2495    , 2.56        , 3           , 255         , 0           , 0
-0.181387991, 0.08150515  , -9.788294   , 8.02286959E-05, -0.000182648742, 0.000434239017, -0.009049404, -0.0182958022, 0.0002106034, 923.535339  , 31.2302952  , 775.2498    , 2.57        , 3           , 255         , 0           , 0
-0.17056413 , 0.0840717   , -9.793054   , 0.000140525168, -0.00015666461, 0.000132027941, -0.009048024, -0.0182973556, 0.000211937979, 923.535339  , 31.2302952  , 775.2501    , 2.58        , 3           , 255         , 0           , 0
-0.172162279, 0.0873798   , -9.784792   , -0.000185678568, 0.0002449407, 0.0005601856, -0.009049983, -0.018294856, 0.000217518245, 923.535339  , 31.2302952  , 775.2504    , 2.59        , 3           , 255         , 0           , 0
-0.1796016  , 0.07825092  , -9.79558849 , 0.000466645637, 0.000504681 , -0.0003403823, -0.009045254, -0.018289838, 0.0002140684, 923.535339  , 31.2302952  , 775.250732  , 2.6         , 3           , 255         , 0           , 0
-0.180428356, 0.08369934  , -9.805776   , 0.000206783268, 9.26503E-05 , 0.000132736692, -0.009034895, -0.01828174 , 0.000215235515, 923.535339  , 31.2302952  , 775.2513    , 2.61        , 3           , 255         , 0           , 0
-0.181061536, 0.09100194  , -9.804997   , -1.13163551E-05, 0.000449879735, 0.000107492531, -0.009035027, -0.0182772353, 0.0002162699, 923.535339  , 31.2302952  , 775.251648  , 2.62        , 3           , 255         , 0           , 0
-0.183920771, 0.09096448  , -9.788621   , -3.450518E-05, -6.640592E-05, 0.0003524739, -0.009035436, -0.018277863, 0.00021980099, 923.5041    , 31.2294121  , 775.252     , 2.63        , 3           , 255         , 0           , 0
-0.178186476, 0.0900487751, -9.792557   , 0.00025977983, -8.509582E-05, 0.0006232638, -0.009032953, -0.0182786584, 0.000226041957, 923.5041    , 31.2294121  , 775.2524    , 2.64        , 3           , 255         , 0           , 0
-0.178983048, 0.09198065  , -9.783594   , -0.00026172676, 6.802904E-06, -0.00032591846, -0.00903551 , -0.01827862 , 0.000222781819, 923.5041    , 31.2294121  , 775.252747  , 2.65        , 3           , 255         , 0           , 0
-0.1796406  , 0.09386269  , -9.78609848 , 8.681705E-05, 0.000803127943, -0.0004919827, -0.009034553, -0.018270636, 0.000217788911, 923.5041    , 31.2294121  , 775.2531    , 2.66        , 3           , 255         , 0           , 0
-0.1784614  , 0.0916219354, -9.798239   , 0.000853870763, 3.760433E-05, -0.0003464477, -0.00902595 , -0.0182702933, 0.0002143207, 923.5041    , 31.2294121  , 775.2535    , 2.67        , 3           , 255         , 0           , 0
-0.180594683, 0.07965296  , -9.79103    , 5.8341393E-05, 0.000572661869, -0.0008903351, -0.009025202, -0.0182646438, 0.000205364748, 923.5041    , 31.2294121  , 775.253845  , 2.68        , 3           , 255         , 0           , 0
-0.174162284, 0.08872274  , -9.796583   , -0.000157084636, 0.000452015374, 5.02668627E-05, -0.00902678352, -0.0182601213, 0.000205826655, 923.5041    , 31.2294121  , 775.2542    , 2.69        , 3           , 255         , 0           , 0
-0.1714197  , 0.0944578946, -9.791468   , -0.0004032304, 9.563184E-05, -0.0003034401, -0.00903075747, -0.0182591919, 0.000202783311, 923.5041    , 31.2294121  , 775.2546    , 2.7         , 3           , 255         , 0           , 0
-0.180277243, 0.08632241  , -9.789289   , -6.78294746E-05, -0.000177539856, 0.000390486617, -0.009033372, -0.0182603318, 0.000206738652, 923.5041    , 31.2294121  , 775.297363  , 2.71        , 3           , 255         , 0           , 0
-0.177286118, 0.08729009  , -9.797266   , -0.000209971651, -0.000215753942, -0.000102454891, -0.009035451, -0.0182624944, 0.000205733464, 923.5041    , 31.2294121  , 775.298     , 2.72        , 3           , 255         , 0           , 0
-0.180133969, 0.0918828   , -9.790524   , -0.0004930431, 7.013188E-05, -6.034067E-05, -0.009040372, -0.0182618  , 0.000205123666, 923.50824   , 31.2277164  , 775.2986    , 2.73        , 3           , 255         , 0           , 0
-0.182487145, 0.09330489  , -9.787244   , 0.000129294989, 2.58870423E-05, 0.000130427215, -0.009039104, -0.0182615276, 0.000206425728, 923.50824   , 31.2277164  , 775.2992    , 2.74        , 3           , 255         , 0           , 0
-0.1848655  , 0.0981303155, -9.793582   , -0.000386842323, 4.73609543E-05, -9.736789E-05, -0.009042952, -0.0182610638, 0.000205447679, 923.50824   , 31.2277164  , 775.2998    , 2.75        , 3           , 255         , 0           , 0
-0.187425345, 0.09654407  , -9.791722   , -7.221676E-05, -0.000243230286, 0.0002662943, -0.009043723, -0.01826347 , 0.000208132842, 923.50824   , 31.2277164  , 775.3004    , 2.76        , 3           , 255         , 0           , 0
-0.181536317, 0.08521823  , -9.79503    , 3.445233E-05, -0.000374602125, 0.0003931466, -0.009043451, -0.01826718 , 0.000212098588, 923.50824   , 31.2277164  , 775.301     , 2.77        , 3           , 255         , 0           , 0
-0.174607441, 0.08755094  , -9.796399   , -0.000262741378, -0.000155456626, 0.000409457658, -0.009046153, -0.018268697, 0.000216207627, 923.50824   , 31.2277164  , 775.301636  , 2.78        , 3           , 255         , 0           , 0
-0.186817914, 0.09415288  , -9.794552   , -0.000272939069, -0.0003802935, 0.000276362349, -0.009048932, -0.0182724744, 0.000219005946, 923.50824   , 31.2277164  , 775.3023    , 2.79        , 3           , 255         , 0           , 0
-0.176350936, 0.08509346  , -9.795303   , 0.0004661723, -0.00026298975, 1.58388389E-06, -0.009044272, -0.0182751045, 0.000219045585, 923.50824   , 31.2277164  , 775.303     , 2.8         , 3           , 255         , 0           , 0
-0.180849031, 0.0832522959, -9.788032   , -5.97124454E-05, 0.00022705202, 0.000206335419, -0.009048366, -0.0182768162, 0.0002211518, 923.50824   , 31.2277164  , 775.33374   , 2.81        , 3           , 255         , 0           , 0
-0.177054167, 0.0910544842, -9.793003   , -7.20594253E-05, 0.0006135687, 0.0005152603, -0.00904918 , -0.0182706341, 0.000226249424, 923.50824   , 31.2277164  , 775.3346    , 2.82        , 3           , 255         , 0           , 0
-0.17390427 , 0.09177467  , -9.789423   , -0.0003335432, 0.0002112108, 0.000357707118, -0.00905258 , -0.01826849 , 0.000229807731, 923.5534    , 31.2290058  , 775.335449  , 2.83        , 3           , 255         , 0           , 0
-0.176231861, 0.0911629349, -9.7912035  , -0.000183935772, 0.000106805994, 5.11957878E-05, -0.009054429, -0.0182674136, 0.000230310063, 923.5534    , 31.2290058  , 775.3363    , 2.84        , 3           , 255         , 0           , 0
-0.183817014, 0.09323808  , -9.791366   , -0.00038079996, -2.369887E-05, -0.000740409771, -0.009058101, -0.0182677172, 0.000222907343, 923.5534    , 31.2290058  , 775.337158  , 2.85        , 3           , 255         , 0           , 0
-0.175886989, 0.0940132   , -9.79406    , 0.0003204862, -0.000132998684, -0.000692078844, -0.009054769, -0.0182691123, 0.0002159979, 923.5534    , 31.2290058  , 775.338     , 2.86        , 3           , 255         , 0           , 0
-0.180630162, 0.0954423547, -9.795141   , -0.0003302536, 0.000456845679, -0.000152152876, -0.009058043, -0.0182645563, 0.00021443484, 923.5534    , 31.2290058  , 775.338867  , 2.87        , 3           , 255         , 0           , 0
-0.178597063, 0.08839872  , -9.785982   , -0.000153256318, 0.000129453634, 0.0003480746, -0.009059639, -0.01826323 , 0.000217904191, 923.5534    , 31.2290058  , 775.3397    , 2.88        , 3           , 255         , 0           , 0
-0.1806014  , 0.08863316  , -9.792201   , 9.96169547E-05, -0.000128222571, -2.2500757E-05, -0.00905863848, -0.0182645153, 0.0002176908, 923.5534    , 31.2290058  , 775.3406    , 2.89        , 3           , 255         , 0           , 0
-0.182507619, 0.085855715 , -9.789304   , -0.00052990776, 0.000164372308, 1.70724124E-05, -0.009063939, -0.0182628687, 0.000217846653, 923.5534    , 31.2290058  , 775.341431  , 2.9         , 3           , 255         , 0           , 0
-0.180082381, 0.08244753  , -9.79385    , -0.0003764089, -0.0002578977, -0.000437262672, -0.009070812, -0.0182657316, 0.000213555162, 923.5534    , 31.2290058  , 775.3041    , 2.91        , 3           , 255         , 0           , 0
-0.179436758, 0.08156052  , -9.79601    , 0.0001231599, 4.70859231E-05, -0.000191624174, -0.009069545, -0.018265279, 0.00021163444, 923.5534    , 31.2290058  , 775.3047    , 2.92        , 3           , 255         , 0           , 0
-0.171036661, 0.09402118  , -9.786974   , -0.000665903441, 0.000121325691, -0.00059534004, -0.009076095, -0.0182641186, 0.00020566945, 923.592     , 31.2311077  , 775.3053    , 2.93        , 3           , 255         , 0           , 0
-0.178939626, 0.0900217742, -9.788931   , 0.000135394817, -0.0006013502, -0.000366069435, -0.009074676, -0.0182701647, 0.000202062962, 923.592     , 31.2311077  , 775.3059    , 2.94        , 3           , 255         , 0           , 0
-0.178516   , 0.09851684  , -9.789045   , 0.000515855558, -0.00015592025, 0.0008823434, -0.009069677, -0.0182716437, 0.000210901431, 923.592     , 31.2311077  , 775.3065    , 2.95        , 3           , 255         , 0           , 0
-0.177567765, 0.08900426  , -9.79059    , 0.0005754324, 9.827636E-06, 8.834648E-05, -0.009063939, -0.0182715375, 0.0002117841, 923.592     , 31.2311077  , 775.3071    , 2.96        , 3           , 255         , 0           , 0
-0.1791456  , 0.0946283   , -9.79628    , 0.000481628173, 0.000339314458, 0.000684256 , -0.00905924849, -0.0182680823, 0.000218596615, 923.592     , 31.2311077  , 775.307739  , 2.97        , 3           , 255         , 0           , 0
-0.185770959, 0.09695687  , -9.784087   , -0.0001259488, -0.000108563312, -4.56602138E-05, -0.0090605  , -0.0182691738, 0.0002181498, 923.592     , 31.2311077  , 775.30835   , 2.98        , 3           , 255         , 0           , 0
-0.186636969, 0.0905924   , -9.789637   , -2.11645965E-06, -9.970929E-05, -6.979888E-05, -0.009060509, -0.0182701778, 0.000217460765, 923.592     , 31.2311077  , 775.30896   , 2.99        , 3           , 255         , 0           , 0
-0.188232422, 0.080589354 , -9.797643   , -9.69258545E-05, -5.92216966E-05, 0.000532911 , -0.009061575, -0.0182707217, 0.000222795774, 923.592     , 31.2311077  , 775.3096    , 3           , 3           , 0           , 8.466237    , 300
-0.183059022, 0.093390964 , -9.793002   , 0.000130548171, -0.0002332979, 0.0005922535, -0.009062289, -0.01827605 , 0.000228774952, 923.592     , 31.2311077  , 775.222351  , 3.01        , 3           , 1           , 0           , 0
-0.178790957, 0.09425832  , -9.788218   , 0.000111744259, -0.0002281119, -0.000348767, -0.009061108, -0.0182783641, 0.00022530758, 923.592     , 31.2311077  , 775.2224    , 3.02        , 3           , 2           , 0           , 0
-0.180075765, 0.0898023248, -9.782371   , -0.000204448326, -0.000347335677, -0.000486712175, -0.009063065, -0.01828188 , 0.00022047144, 923.5044    , 31.23043    , 775.2225    , 3.03        , 3           , 3           , 0           , 0
-0.17410484 , 0.08840805  , -9.788427   , -0.000263777823, -0.000110117981, -0.0006802906, -0.009065578, -0.0182830449, 0.0002136778, 923.5044    , 31.23043    , 775.222534  , 3.04        , 3           , 4           , 0           , 0
-0.182895228, 0.0877482146, -9.787868   , -8.08298937E-05, -0.000338565354, -0.000127874, -0.009066363, -0.01828644 , 0.000212429644, 923.5044    , 31.23043    , 775.2226    , 3.05        , 3           , 5           , 0           , 0
-0.186905786, 0.09297785  , -9.792697   , 5.45412477E-05, -0.000132818619, 0.0009783213, -0.009065995, -0.01828768 , 0.000222225863, 923.5044    , 31.23043    , 775.222656  , 3.06        , 3           , 6           , 0           , 0
-0.179592386, 0.09063621  , -9.789709   , -0.000131819717, -8.631262E-05, 0.000431620865, -0.009067391, -0.0182885  , 0.000226550314, 923.5044    , 31.23043    , 775.2227    , 3.07        , 3           , 7           , 0           , 0
-0.175722957, 0.08337208  , -9.789697   , 0.0005007312, 1.670621E-05, 4.27581326E-05, -0.009062392, -0.01828833 , 0.000226976437, 923.5044    , 31.23043    , 775.2228    , 3.08        , 3           , 8           , 5           , 5
-0.180970863, 0.08565793  , -9.791779   , 0.000410075474, 7.58610258E-05, -0.000738274364, -0.009058156, -0.01828764 , 0.000219586072, 923.5044    , 31.23043    , 775.222839  , 3.09        , 3           , 9           , 5           , 0.1
-0.17891185 , 0.086573936 , -9.793343   , -0.00013647796, 8.485923E-05, 0.0002490564, -0.009059565, -0.0182867683, 0.0002220692, 923.5044    , 31.23043    , 775.2229    , 3.1         , 3           , 10          , 0.1         , 0.1
-0.1819751  , 0.08032741  , -9.785376   , -0.000118726486, 0.000200192226, -0.000138533724, -0.009061842, -0.0182870459, 0.00022068595, 923.5044    , 31.23043    , 775.2706    , 3.11        , 3           , 11          , 0.007039181 , 0.00703917863
-0.170153543, 0.08407583  , -9.777334   , -0.000173081062, -5.16358123E-05, 0.00014416824, -0.009063599, -0.0182875488, 0.000222132468, 923.5044    , 31.23043    , 775.271     , 3.12        , 3           , 12          , 0.174645633 , 0
-0.173009753, 0.0897668153, -9.788836   , -0.0003446316, -0.000108628068, -0.00037217926, -0.009066977, -0.0182886664, 0.000218420115, 923.510864  , 31.231245   , 775.271362  , 3.13        , 3           , 13          , 0           , 0
-0.1647444  , 0.08924095  , -9.791459   , -9.9118246E-05, 0.000236333988, 0.000195260218, -0.009068003, -0.01828629 , 0.000220351518, 923.510864  , 31.231245   , 775.2717    , 3.14        , 3           , 14          , -0.0003345101, -0.000403296261
-0.180884853, 0.0870761   , -9.79434    , -0.00012765135, -0.000220325834, -3.930485E-05, -0.009069273, -0.0182884932, 0.000219978392, 923.510864  , 31.231245   , 775.2721    , 3.15        , 3           , 15          , 0           , -1.48053755E-06
-0.171932578, 0.0969752744, -9.795494   , 0.0001644226, 0.000478504342, 0.0004370101, -0.009067708, -0.0182836726, 0.000224305535, 923.510864  , 31.231245   , 775.272461  , 3.16        , 3           , 16          , 0           , 1.401298E-45
-0.171217337, 0.09163566  , -9.792812   , 0.000194320077, -1.01332553E-05, 0.000314788922, -0.009065823, -0.0182837453, 0.000227454657, 923.510864  , 31.231245   , 775.2728    , 3.17        , 3           , 20          , 0           , 0
-0.184404254, 0.0905368552, -9.788769   , -0.0005026075, 3.26164882E-05, 0.0008197845, -0.009070997, -0.0182833448, 0.000235650383, 923.510864  , 31.231245   , 775.2732    , 3.18        , 3           , 21          , 0           , 0
-0.181565717, 0.08825868  , -9.791345   , 6.14905439E-05, -0.000474933477, 0.0006360585, -0.0090705  , -0.0182880349, 0.000242054666, 923.510864  , 31.231245   , 775.27356   , 3.19        , 3           , 22          , 0           , 0
-0.174951151, 0.08592598  , -9.792852   , 0.000208797719, 2.28517456E-05, 0.000475251029, -0.009068498, -0.018287763, 0.0002468056, 923.510864  , 31.231245   , 775.2739    , 3.2         , 3           , 40          , 0           , 0
-0.173584491, 0.08885455  , -9.788389   , -0.000300250133, -3.05683352E-05, -0.000689556939, -0.009070542, -0.0182807334, 0.000239896879, 923.510864  , 31.231245   , 775.3055    , 3.21        , 3           , 41          , 0           , 0
-0.170628265, 0.09052888  , -9.787799   , -0.000377252523, 0.000274821883, -0.000189136292, -0.009074277, -0.018277999, 0.000237980348, 923.510864  , 31.231245   , 775.3061    , 3.22        , 3           , 42          , 0           , 0
-0.177930042, 0.09315781  , -9.786029   , 0.0004920438, 0.000111871486, -0.0001228794, -0.009069335, -0.0182768926, 0.000236741282, 923.547058  , 31.22697    , 775.3067    , 3.23        , 3           , 255         , 0           , 0
-0.18406713 , 0.09274604  , -9.787353   , -0.000150164647, 4.08641936E-05, -0.0003002477, -0.009070781, -0.01827651 , 0.000233734827, 923.547058  , 31.22697    , 775.3073    , 3.24        , 3           , 255         , 0           , 0
-0.18236573 , 0.09557675  , -9.797905   , -0.0006482067, -0.00031334057, 0.000286784372, -0.009077315, -0.0182796177, 0.000236631371, 923.547058  , 31.22697    , 775.3079    , 3.25        , 3           , 255         , 0           , 0
-0.176239222, 0.08392285  , -9.795435   , 0.00027002  , -2.961341E-05, 0.0009922197, -0.009074798, -0.0182798244, 0.000246557232, 923.547058  , 31.22697    , 775.308533  , 3.26        , 3           , 255         , 0           , 0
-0.1708953  , 0.08919412  , -9.798319   , -5.57777821E-05, 0.00022320039, 0.000380249316, -0.009075423, -0.0182775557, 0.000250339857, 923.547058  , 31.22697    , 775.309143  , 3.27        , 3           , 255         , 0           , 0
-0.171959966, 0.09561044  , -9.791762   , -5.62645437E-05, -6.672615E-05, 0.000125289051, -0.009076008, -0.0182782114, 0.000251598918, 923.547058  , 31.22697    , 775.309753  , 3.28        , 3           , 255         , 0           , 0
-0.173208266, 0.08440773  , -9.794886   , -0.000343787018, -0.000174217217, 0.0008856187, -0.009079609, -0.0182798747, 0.0002604718, 923.547058  , 31.22697    , 775.310364  , 3.29        , 3           , 255         , 0           , 0
-0.174648255, 0.0848624259, -9.790812   , -0.0004169661, -0.000129442662, 0.000280233 , -0.009083831, -0.0182811432, 0.000263286172, 923.547058  , 31.22697    , 775.311     , 3.3         , 3           , 255         , 0           , 0
-0.173904523, 0.08434267  , -9.790814   , -0.0004727471, 0.000349489448, -0.0003166307, -0.009090275, -0.0182716958, 0.000260120229, 923.547058  , 31.22697    , 775.2864    , 3.31        , 3           , 255         , 0           , 0
-0.182134211, 0.08945669  , -9.79554    , 0.0006376982, 7.00060627E-06, -0.000362628954, -0.009083831, -0.0182716586, 0.000256492931, 923.547058  , 31.22697    , 775.2868    , 3.32        , 3           , 255         , 0           , 0
-0.184538484, 0.09817686  , -9.789105   , 0.000884837238, -5.24774077E-05, 6.570481E-05, -0.009074993, -0.018272182, 0.000257154839, 923.5542    , 31.2294121  , 775.287231  , 3.33        , 3           , 255         , 0           , 0
-0.179077417, 0.09777894  , -9.78317451 , 0.000629074639, 7.090421E-05, 0.000192571577, -0.009068739, -0.0182714537, 0.000259074266, 923.5542    , 31.2294121  , 775.287659  , 3.34        , 3           , 255         , 0           , 0
-0.181740046, 0.09722041  , -9.792645   , -2.64073024E-05, 4.53730172E-05, 0.0003513832, -0.00906906649, -0.01827097 , 0.000262584334, 923.5542    , 31.2294121  , 775.2881    , 3.35        , 3           , 255         , 0           , 0
-0.181005031, 0.09210275  , -9.789442   , -9.474144E-05, -0.0001742795, -0.0002507026, -0.009069969, -0.0182727352, 0.0002600929, 923.5542    , 31.2294121  , 775.2885    , 3.36        , 3           , 255         , 0           , 0
-0.178253844, 0.08677252  , -9.790297   , 5.89814153E-05, -0.000197892659, -6.994283E-05, -0.009069366, -0.018274717, 0.000259411347, 923.5542    , 31.2294121  , 775.28894   , 3.37        , 3           , 255         , 0           , 0
-0.171726659, 0.09026663  , -9.796065   , -2.42013484E-05, -0.000293249846, -1.07815795E-05, -0.009069607, -0.0182776526, 0.0002593301, 923.5542    , 31.2294121  , 775.2894    , 3.38        , 3           , 255         , 0           , 0
-0.183795184, 0.09418294  , -9.789896   , -6.56330958E-05, 1.29634282E-05, 0.00109334523, -0.00907046348, -0.0182774216, 0.000270263467, 923.5542    , 31.2294121  , 775.2899    , 3.39        , 3           , 255         , 0           , 0
-0.17738609 , 0.09764801  , -9.790796   , -0.000110418856, 0.000365656335, 0.000167267 , -0.009071597, -0.018273754, 0.000271903176, 923.5542    , 31.2294121  , 775.2904    , 3.4         , 3           , 255         , 0           , 0
-0.181399986, 0.09526507  , -9.790773   , 4.30230866E-05, 2.19457434E-06, -5.161344E-05, -0.009078509, -0.01827454 , 0.0002715211, 923.5542    , 31.2294121  , 775.25824   , 3.41        , 3           , 255         , 0           , 0
-0.189965457, 0.09486137  , -9.79694    , -7.464751E-05, 2.860921E-05, 9.552044E-05, -0.009079273, -0.0182742439, 0.0002724738, 923.5542    , 31.2294121  , 775.2585    , 3.42        , 3           , 255         , 0           , 0
-0.184634954, 0.09165804  , -9.791664   , -0.000133651367, -0.000125191786, 0.000183888464, -0.009080643, -0.01827548 , 0.000274324237, 923.5351    , 31.22887    , 775.2587    , 3.43        , 3           , 255         , 0           , 0
-0.178319067, 0.08960484  , -9.793635   , -0.000216763874, -0.000319160434, -0.000452125067, -0.009082728, -0.01827871 , 0.0002698315, 923.5351    , 31.22887    , 775.259     , 3.44        , 3           , 255         , 0           , 0
-0.170238286, 0.0872408   , -9.788513   , 2.8424518E-05, -0.000692068366, 0.0005375459, -0.009082544, -0.0182855818, 0.000275270373, 923.5351    , 31.22887    , 775.2592    , 3.45        , 3           , 255         , 0           , 0
-0.171285182, 0.0873193   , -9.790926   , -0.0003080914, -0.00032285924, 0.000359016762, -0.00908569153, -0.0182887763, 0.00027889022, 923.5351    , 31.22887    , 775.25946   , 3.46        , 3           , 255         , 0           , 0
-0.17325075 , 0.0991652161, -9.794483   , 8.153109E-05, -0.000235768239, 3.42384847E-05, -0.009084881, -0.0182911325, 0.000279254076, 923.5351    , 31.22887    , 775.2597    , 3.47        , 3           , 255         , 0           , 0
-0.177825317, 0.09349562  , -9.796248   , 0.000144593534, -0.000178519549, 0.0003732716, -0.009083505, -0.0182928834, 0.000283003377, 923.5351    , 31.22887    , 775.259949  , 3.48        , 3           , 255         , 0           , 0
-0.180011109, 0.0847356543, -9.7947     , 0.0006281296, -0.000289439253, 0.000226253615, -0.009077267, -0.0182957556, 0.000285292423, 923.5351    , 31.22887    , 775.2602    , 3.49        , 3           , 255         , 0           , 0
-0.178290635, 0.08991228  , -9.789602   , 0.000307400565, -0.00058706745, 0.000115109906, -0.009074215, -0.01830162 , 0.000286496943, 923.5351    , 31.22887    , 775.260437  , 3.5         , 3           , 255         , 0           , 0
-0.171760455, 0.09372224  , -9.786565   , -1.08189415E-05, -0.000119769305, -0.000230255187, -0.009078013, -0.0183019824, 0.000284273323, 923.5351    , 31.22887    , 775.259644  , 3.51        , 3           , 255         , 0           , 0
-0.169226453, 0.086693354 , -9.792865   , 0.0005959817, 0.0001234973, 0.0006154477, -0.009072165, -0.01830069 , 0.0002904172, 923.5351    , 31.22887    , 775.2599    , 3.52        , 3           , 255         , 0           , 0
-0.178408191, 0.08859812  , -9.792262   , 0.000379402161, 0.000216093453, 0.00043832502, -0.009068451, -0.01829849 , 0.0002947813, 923.548157  , 31.2296829  , 775.260132  , 3.53        , 3           , 255         , 0           , 0
-0.181514621, 0.0861260146, -9.793615   , 0.0001948383, 9.115707E-05, -0.000130179338, -0.009066477, -0.01829759 , 0.000293471123, 923.548157  , 31.2296829  , 775.2604    , 3.54        , 3           , 255         , 0           , 0
-0.183127284, 0.08909355  , -9.791283   , 3.24253924E-05, 0.0001288972, 0.00020732994, -0.009066191, -0.0182962827, 0.000295532926, 923.548157  , 31.2296829  , 775.2607    , 3.55        , 3           , 255         , 0           , 0
-0.177375764, 0.08957257  , -9.795533   , -0.000178218063, -0.000387935259, 0.000162064054, -0.009068004, -0.0183001477, 0.000297188933, 923.548157  , 31.2296829  , 775.261     , 3.56        , 3           , 255         , 0           , 0
-0.172685027, 0.08542775  , -9.793584   , -0.000418975076, -0.000418583455, 0.000152350069, -0.009072222, -0.0183043182, 0.000298750558, 923.548157  , 31.2296829  , 775.2613    , 3.57        , 3           , 255         , 0           , 0
-0.1745213  , 0.08053602  , -9.792846   , -0.000124612066, -0.000189138053, 3.80163256E-05, -0.009073476, -0.018306205, 0.0002991479, 923.548157  , 31.2296829  , 775.2616    , 3.58        , 3           , 255         , 0           , 0
-0.174802572, 0.08241191  , -9.801035   , -0.000100302539, 2.37106287E-05, -5.787967E-05, -0.009074467, -0.01830597 , 0.000298566883, 923.548157  , 31.2296829  , 775.2619    , 3.59        , 3           , 255         , 0           , 0
-0.169606954, 0.0884099454, -9.796112   , -0.000498856243, -0.000166725658, 0.0004302069, -0.009079535, -0.0183076  , 0.0003028845, 923.548157  , 31.2296829  , 775.2622    , 3.6         , 3           , 255         , 0           , 0
-0.1796921  , 0.09008713  , -9.785028   , 0.000130731976, 3.93001246E-05, 4.552779E-05, -0.009075677, -0.018301433, 0.0003032895, 923.548157  , 31.2296829  , 775.242859  , 3.61        , 3           , 255         , 0           , 0
-0.173772618, 0.0831521   , -9.790297   , 0.00054327515, -0.00019069697, 0.0005988615, -0.009070356, -0.0183032863, 0.000309296 , 923.548157  , 31.2296829  , 775.243042  , 3.62        , 3           , 255         , 0           , 0
-0.174697429, 0.0873067752, -9.795247   , 0.000192851119, 2.730696E-06, 0.000222864779, -0.009068469, -0.01830324 , 0.000311524636, 923.532532  , 31.2296829  , 775.2432    , 3.63        , 3           , 255         , 0           , 0
-0.1798922  , 0.07798725  , -9.78535    , -0.000402321282, 3.74389056E-05, 0.00032602626, -0.009072551, -0.0183028355, 0.00031478185, 923.532532  , 31.2296829  , 775.2434    , 3.64        , 3           , 255         , 0           , 0
-0.1727966  , 0.0844801   , -9.793771   , 4.87732468E-05, 0.000108160544, 0.000861401146, -0.009072221, -0.0183016751, 0.000323386921, 923.532532  , 31.2296829  , 775.2436    , 3.65        , 3           , 255         , 0           , 0
-0.184272557, 0.0861480162, -9.796414   , 0.000686713262, -0.000208318466, 0.0008944133, -0.009065517, -0.0183036774, 0.000332350872, 923.532532  , 31.2296829  , 775.2438    , 3.66        , 3           , 255         , 0           , 0
-0.181825429, 0.0907824   , -9.798232   , 0.000558316242, -3.53896758E-06, 0.0005480461, -0.009060035, -0.0183036644, 0.000337832229, 923.532532  , 31.2296829  , 775.243958  , 3.67        , 3           , 255         , 0           , 0
-0.179907262, 0.09042801  , -9.796825   , 0.0002595402, -0.000189006969, -0.00015155274, -0.009057412, -0.018305568, 0.000336333673, 923.532532  , 31.2296829  , 775.244141  , 3.68        , 3           , 255         , 0           , 0
-0.178890035, 0.08926535  , -9.791573   , -0.000348764646, 0.000231500468, -0.00028699392, -0.009060848, -0.0183032788, 0.00033344244, 923.532532  , 31.2296829  , 775.2443    , 3.69        , 3           , 255         , 0           , 0
-0.171336427, 0.0919207558, -9.795822   , -0.000551050238, 0.000209851161, 0.0002947041, -0.00906641 , -0.0183011536, 0.000336370722, 923.532532  , 31.2296829  , 775.2445    , 3.7         , 3           , 255         , 0           , 0
-0.1797798  , 0.08939247  , -9.790547   , -0.000379468984, 0.000521398 , 0.000401338155, -0.009067705, -0.0182935465, 0.000340290222, 923.532532  , 31.2296829  , 775.249756  , 3.71        , 3           , 255         , 0           , 0
-0.176962644, 0.08076218  , -9.795366   , -0.0003999848, 2.56806088E-05, -0.0006249862, -0.009071591, -0.0182933453, 0.000334037381, 923.532532  , 31.2296829  , 775.25      , 3.72        , 3           , 255         , 0           , 0
-0.174775153, 0.09366414  , -9.795512   , -3.7761667E-05, -0.000279508531, -0.0007187348, -0.009071837, -0.0182962045, 0.000326874637, 923.4839    , 31.2313118  , 775.250244  , 3.73        , 3           , 255         , 0           , 0
-0.182642713, 0.0963553041, -9.7970295  , 0.0002004595, -0.0004481764, -0.000122998157, -0.00906981 , -0.0183006972, 0.0003256852, 923.4839    , 31.2313118  , 775.2505    , 3.74        , 3           , 255         , 0           , 0
-0.174146816, 0.09101085  , -9.797451   , 2.43051618E-05, 0.0002945891, 0.000268370844, -0.009069614, -0.0182977282, 0.0003283425, 923.4839    , 31.2313118  , 775.250732  , 3.75        , 3           , 255         , 0           , 0
-0.174442172, 0.0978836045, -9.79543    , -0.000296105427, 0.000251966121, 0.000103553466, -0.009072594, -0.0182951987, 0.000329355273, 923.4839    , 31.2313118  , 775.251     , 3.76        , 3           , 255         , 0           , 0
-0.176719591, 0.09339596  , -9.79261    , 0.0003052846, -0.000214095344, 0.0007501876, -0.009069678, -0.0182972718, 0.000336877361, 923.4839    , 31.2313118  , 775.2512    , 3.77        , 3           , 255         , 0           , 0
-0.168233   , 0.092911616 , -9.788432   , 0.000178999573, -0.000429636915, -0.000247105316, -0.009067844, -0.0183015913, 0.00033444498, 923.4839    , 31.2313118  , 775.251465  , 3.78        , 3           , 255         , 0           , 0
-0.1658276  , 0.0945052356, -9.78509    , 6.067456E-05, 0.000141224155, -0.000714998, -0.009067106, -0.0183002427, 0.00032728145, 923.4839    , 31.2313118  , 775.2517    , 3.79        , 3           , 255         , 0           , 0
-0.168174312, 0.09177575  , -9.78745    , -0.000506438548, 7.760705E-05, -0.0002143284, -0.00907213148, -0.0182994865, 0.000325130939, 923.4839    , 31.2313118  , 775.251953  , 3.8         , 3           , 255         , 0           , 0
-0.1736649  , 0.08250775  , -9.784427   , -0.000184670411, -0.000525040668, 0.000371020142, -0.009079205, -0.0182969235, 0.000328983529, 923.4839    , 31.2313118  , 775.3251    , 3.81        , 3           , 255         , 0           , 0
-0.174387574, 0.0934650749, -9.789141   , -0.000321513129, -0.000113255373, -0.000489909435, -0.00908233 , -0.0182981  , 0.0003240942, 923.4839    , 31.2313118  , 775.325745  , 3.82        , 3           , 255         , 0           , 0
-0.1840697  , 0.09338     , -9.78828049 , 0.000282430265, -2.884501E-05, 0.000119678021, -0.00907953 , -0.0182983782, 0.000325293717, 923.5577    , 31.2303619  , 775.3264    , 3.83        , 3           , 255         , 0           , 0
-0.173531145, 0.09136508  , -9.788942   , 0.00025590416, -0.000450598571, -0.000712165, -0.009076839, -0.0183029473, 0.00031821226, 923.5577    , 31.2303619  , 775.3271    , 3.84        , 3           , 255         , 0           , 0
-0.177215755, 0.0843258649, -9.78434    , -1.29106047E-05, 8.526447E-05, -0.0005521657, -0.009076867, -0.0183021482, 0.0003126823, 923.5577    , 31.2303619  , 775.327759  , 3.85        , 3           , 255         , 0           , 0
-0.179114088, 0.08945181  , -9.791943   , 0.000474761124, 3.47223249E-05, 0.0007285313, -0.009072254, -0.0183017347, 0.0003199652, 923.5577    , 31.2303619  , 775.3284    , 3.86        , 3           , 255         , 0           , 0
-0.171017364, 0.09311014  , -9.786846   , 0.0003623329, 2.07123521E-05, 0.00038197398, -0.009068701, -0.0183014926, 0.000323783461, 923.5577    , 31.2303619  , 775.3291    , 3.87        , 3           , 255         , 0           , 0
-0.1710592  , 0.0947280452, -9.795984   , -0.0003150515, 0.0001352099, 0.000265692215, -0.009071901, -0.0183001161, 0.000326428446, 923.5577    , 31.2303619  , 775.3298    , 3.88        , 3           , 255         , 0           , 0
-0.176929131, 0.08083968  , -9.796835   , 0.000210414 , 4.23152524E-05, 0.000451843749, -0.009069879, -0.0182996541, 0.0003309435, 923.5577    , 31.2303619  , 775.330444  , 3.89        , 3           , 255         , 0           , 0
-0.183698148, 0.08793384  , -9.79684    , 0.000237720611, 0.000464335229, -0.000746559235, -0.009067366, -0.0182950776, 0.00032343503, 923.5577    , 31.2303619  , 775.3311    , 3.9         , 3           , 255         , 0           , 0
-0.17260997 , 0.0964666456, -9.783862   , 0.000710964436, -0.000141458149, -0.0004172842, -0.009060615, -0.0182916354, 0.000319282553, 923.5577    , 31.2303619  , 775.288147  , 3.91        , 3           , 255         , 0           , 0
-0.174501061, 0.08726335  , -9.783487   , 0.000293009332, -1.4469726E-05, -0.000106360218, -0.009057664, -0.0182917863, 0.000318220118, 923.5577    , 31.2303619  , 775.2886    , 3.92        , 3           , 255         , 0           , 0
-0.178191081, 0.08955106  , -9.794509   , -0.0004945569, -0.0005586123, -0.0005111508, -0.009062517, -0.0182974171, 0.000313158729, 923.545959  , 31.2307014  , 775.289     , 3.93        , 3           , 255         , 0           , 0
-0.181058317, 0.09388173  , -9.795663   , 1.13516871E-05, -0.000182876334, -0.0002982567, -0.00906235 , -0.01829927 , 0.0003101924, 923.545959  , 31.2307014  , 775.2894    , 3.94        , 3           , 255         , 0           , 0
-0.189184159, 0.09317074  , -9.796983   , -0.0004813046, -0.000193263724, -0.0003012357, -0.009067107, -0.01830123 , 0.000307197246, 923.545959  , 31.2307014  , 775.289856  , 3.95        , 3           , 255         , 0           , 0
-0.181561261, 0.09549872  , -9.795827   , -0.000388042477, -6.44906249E-05, -0.0003147055, -0.00907093 , -0.0183019061, 0.00030405572, 923.545959  , 31.2307014  , 775.2903    , 3.96        , 3           , 255         , 0           , 0
-0.174537614, 0.0774894   , -9.784918   , -0.000444762583, 0.00019162058, 6.795004E-05, -0.009075389, -0.018299982, 0.00030471792, 923.545959  , 31.2307014  , 775.2907    , 3.97        , 3           , 255         , 0           , 0
-0.16840139 , 0.0862977058, -9.790007   , -0.000117380318, -3.14396166E-05, 0.000615527155, -0.00907667447, -0.01830024 , 0.00031087664, 923.545959  , 31.2307014  , 775.291138  , 3.98        , 3           , 255         , 0           , 0
-0.162739411, 0.07341435  , -9.795213   , 3.871275E-06, -4.029344E-05, 2.68671974E-05, -0.009076641, -0.0183006413, 0.000311149022, 923.545959  , 31.2307014  , 775.291565  , 3.99        , 3           , 255         , 0           , 0
-0.1738382  , 0.0717680454, -9.803773   , -0.000402674021, 0.00014387953, 0.000216606277, -0.009080707, -0.0182991829, 0.0003133022, 923.545959  , 31.2307014  , 775.292     , 4           , 3           , 0           , 9.466237    , 400
-0.176446527, 0.06411824  , -9.800009   , -3.737191E-05, 0.000143403915, 0.000467422 , -0.009077713, -0.0182923321, 0.000317900733, 923.545959  , 31.2307014  , 775.27124   , 4.01        , 3           , 1           , 0           , 0
-0.174107283, 0.06666837  , -9.800717   , 0.0006227698, 4.839734E-05, 0.000736577553, -0.00907162 , -0.01829178 , 0.000325262867, 923.545959  , 31.2307014  , 775.271545  , 4.02        , 3           , 2           , 0           , 0
-0.175101325, 0.07324177  , -9.780597   , 7.46322039E-05, 0.000105666 , 0.000165689358, -0.009070905, -0.01829071 , 0.000326910347, 923.5434    , 31.2332115  , 775.271851  , 4.03        , 3           , 3           , 0           , 0
-0.175035   , 0.07579426  , -9.783397   , -3.56244273E-05, 0.0004772099, -0.000170611354, -0.009071228, -0.0182859525, 0.00032516077, 923.5434    , 31.2332115  , 775.272156  , 4.04        , 3           , 4           , 0           , 0
-0.176862642, 0.0944340453, -9.782611   , -0.000214809348, 0.000500689144, -0.000436253962, -0.009073297, -0.0182809867, 0.000320752355, 923.5434    , 31.2332115  , 775.272461  , 4.05        , 3           , 5           , 0           , 0
-0.182625681, 0.0935933143, -9.783081   , 0.000242374837, -6.87032E-05, -0.000416710769, -0.009070796, -0.0182817113, 0.0003165911, 923.5434    , 31.2332115  , 775.272766  , 4.06        , 3           , 6           , 0           , 0
-0.184288532, 0.09159244  , -9.78689    , 0.000142014265, -0.000341161038, -0.00022005623, -0.009069337, -0.0182851441, 0.000314421224, 923.5434    , 31.2332115  , 775.2731    , 4.07        , 3           , 7           , 0           , 0
-0.187375575, 0.105709471 , -9.792557   , -3.55498341E-05, -0.000169699488, -0.0005107644, -0.009069599, -0.0182868857, 0.000309328461, 923.5434    , 31.2332115  , 775.2734    , 4.08        , 3           , 8           , 5           , 5
-0.183294147, 0.105459906 , -9.795801   , 0.000271535071, -0.000203654985, -0.0002903615, -0.009066831, -0.0182889458, 0.000306443 , 923.5434    , 31.2332115  , 775.2737    , 4.09        , 3           , 9           , 5           , 0.1
-0.182647124, 0.09669612  , -9.791231   , -4.0006038E-05, 4.872936E-05, 9.95989249E-05, -0.00906724948, -0.01828845 , 0.000307434675, 923.5434    , 31.2332115  , 775.274     , 4.1         , 3           , 10          , 0.1         , 0.1
-0.188660339, 0.09615978  , -9.7951     , 0.000132915724, -0.000219042151, -0.000322429056, -0.009062044, -0.0182920732, 0.0003041601, 923.5434    , 31.2332115  , 775.2596    , 4.11        , 3           , 11          , 0.006510831 , 0.00651082676
-0.175991088, 0.09675663  , -9.790579   , -0.000398248754, 5.975188E-05, -0.000166442449, -0.009065996, -0.01829149 , 0.0003024901, 923.5434    , 31.2332115  , 775.2598    , 4.12        , 3           , 12          , 0.174648076 , 0
-0.1740892  , 0.09444412  , -9.803633   , 9.252748E-06, -0.000169259351, 0.0002498692, -0.009065951, -0.0182931609, 0.0003050044, 923.584656  , 31.229887   , 775.2601    , 4.13        , 3           , 13          , 0           , 0
-0.1734702  , 0.09503703  , -9.793729   , -0.000252749916, -0.000136196, 0.0002109493, -0.009068519, -0.0182945039, 0.000307126436, 923.584656  , 31.229887   , 775.2603    , 4.14        , 3           , 14          , -0.000334487268, -0.000403549318
-0.170083448, 0.07850281  , -9.787547   , -0.000192690786, 0.000482774136, 0.000172722037, -0.009070477, -0.0182896573, 0.000308810035, 923.584656  , 31.229887   , 775.260559  , 4.15        , 3           , 15          , 0           , -1.48324057E-06
-0.18455705 , 0.07771965  , -9.792642   , -0.0005382078, 0.0002471171, 0.0004926498, -0.009075948, -0.0182871427, 0.0003137146, 923.584656  , 31.229887   , 775.2608    , 4.16        , 3           , 16          , 0           , 1.401298E-45
-0.172802642, 0.07376948  , -9.783017   , -6.577198E-05, -0.000235103915, 5.606918E-05, -0.009076616, -0.0182894878, 0.0003142967, 923.584656  , 31.229887   , 775.261047  , 4.17        , 3           , 20          , 0           , 0
-0.173584267, 0.0859904   , -9.7963295  , -0.000232828635, -0.000365626445, -0.0003227273, -0.009078886, -0.0182931721, 0.0003111023, 923.584656  , 31.229887   , 775.2613    , 4.18        , 3           , 21          , 0           , 0
-0.173693091, 0.07892994  , -9.788931   , -0.0004642868, -0.000279863, -0.000346413959, -0.009083468, -0.0182960033, 0.0003076632, 923.584656  , 31.229887   , 775.261536  , 4.19        , 3           , 22          , 0           , 0
-0.168857008, 0.08844483  , -9.785969   , -1.52011926E-05, 0.000225806536, -5.2543237E-05, -0.009083608, -0.01829375 , 0.000307117181, 923.584656  , 31.229887   , 775.2618    , 4.2         , 3           , 40          , 0           , 0
-0.179049715, 0.08728911  , -9.788826   , 0.000259896653, 0.000368743058, 0.000316774473, -0.009077634, -0.018284576, 0.000310189032, 923.584656  , 31.229887   , 775.1908    , 4.21        , 3           , 41          , 0           , 0
-0.184598535, 0.09760451  , -9.790945   , 0.0002154125, -4.230786E-05, 0.0005214564, -0.009075575, -0.0182849541, 0.00031540796, 923.584656  , 31.229887   , 775.1906    , 4.22        , 3           , 42          , 0           , 0
-0.1890508  , 0.104242049 , -9.793745   , -0.000269672775, 0.000131030334, 0.0005320826, -0.009078367, -0.0182835944, 0.00032071743, 923.5363    , 31.2316513  , 775.1904    , 4.23        , 3           , 255         , 0           , 0
-0.18685858 , 0.100847408 , -9.787272   , -0.000253689825, -2.898209E-05, -0.000152617577, -0.009080877, -0.018283898, 0.000319193729, 923.5363    , 31.2316513  , 775.190247  , 4.24        , 3           , 255         , 0           , 0
-0.176303864, 0.105950929 , -9.78768    , 9.403424E-05, -0.000232821942, 0.00031531183, -0.009079995, -0.0182861965, 0.0003223683, 923.5363    , 31.2316513  , 775.190063  , 4.25        , 3           , 255         , 0           , 0
-0.176256031, 0.106069282 , -9.790875   , -6.07078837E-05, -0.000271409779, 0.000885817863, -0.009080764, -0.0182888266, 0.000331252028, 923.5363    , 31.2316513  , 775.1899    , 4.26        , 3           , 255         , 0           , 0
-0.1752412  , 0.0894496739, -9.789258   , 0.00021529806, 0.0004960409, 0.00105711143, -0.00907880347, -0.01828377 , 0.000341779174, 923.5363    , 31.2316513  , 775.1897    , 4.27        , 3           , 255         , 0           , 0
-0.175002068, 0.0872249752, -9.783132   , -3.88333E-05, -0.000200254057, 0.000257510284, -0.009079239, -0.0182857476, 0.0003443727, 923.5363    , 31.2316513  , 775.1895    , 4.28        , 3           , 255         , 0           , 0
-0.1698902  , 0.08843206  , -9.797895   , -9.962116E-05, -0.000290032156, -0.000352094125, -0.00908017252, -0.0182886813, 0.000340877741, 923.5363    , 31.2316513  , 775.189331  , 4.29        , 3           , 255         , 0           , 0
-0.176946789, 0.07994959  , -9.789087   , -0.00015955884, 0.000214023763, -0.0004980286, -0.009081676, -0.0182865858, 0.0003358775, 923.5363    , 31.2316513  , 775.189148  , 4.3         , 3           , 255         , 0           , 0
-0.166643947, 0.06932397  , -9.796364   , -0.000167417631, 0.000285089947, 0.000163755773, -0.009093478, -0.0182835124, 0.000337674021, 923.5363    , 31.2316513  , 775.196838  , 4.31        , 3           , 255         , 0           , 0
-0.177027568, 0.0702002645, -9.793381   , 0.000362200546, 0.0005748819, -0.0004895336, -0.009089765, -0.01827781 , 0.000332725933, 923.5363    , 31.2316513  , 775.1967    , 4.32        , 3           , 255         , 0           , 0
-0.180310518, 0.07736324  , -9.78927    , 0.000104040082, 0.000456271344, -0.000198889364, -0.009088688, -0.0182732642, 0.000330695359, 923.5389    , 31.23172    , 775.1966    , 4.33        , 3           , 255         , 0           , 0
-0.172210887, 0.07782321  , -9.783548   , 0.000257836538, 0.0002419229, -2.88206757E-05, -0.009086105, -0.0182708483, 0.000330385141, 923.5389    , 31.23172    , 775.1965    , 4.34        , 3           , 255         , 0           , 0
-0.178328156, 0.08458249  , -9.783129   , 0.0006281756, -0.00035588356, 0.00024260013, -0.009079869, -0.0182743855, 0.000332843716, 923.5389    , 31.23172    , 775.19635   , 4.35        , 3           , 255         , 0           , 0
-0.175575808, 0.09221788  , -9.788787   , -0.0002563282, -0.00030059152, 0.000177446273, -0.0090824645, -0.018277375, 0.000334645651, 923.5389    , 31.23172    , 775.1962    , 4.36        , 3           , 255         , 0           , 0
-0.174429372, 0.101347163 , -9.789644   , -0.000301600085, -3.91080976E-05, -0.000259148917, -0.009085434, -0.0182777885, 0.000332057418, 923.5389    , 31.23172    , 775.1961    , 4.37        , 3           , 255         , 0           , 0
-0.183422074, 0.09769382  , -9.788737   , -4.457019E-06, 5.19022869E-05, 0.000237762608, -0.009085521, -0.0182772484, 0.000334430544, 923.5389    , 31.23172    , 775.196     , 4.38        , 3           , 255         , 0           , 0
-0.174397081, 0.102317594 , -9.791463   , -0.000243900751, 0.000132850284, 0.00100931409, -0.009088143, -0.0182758272, 0.000344512635, 923.5389    , 31.23172    , 775.195862  , 4.39        , 3           , 255         , 0           , 0
-0.183805242, 0.0947304145, -9.793871   , -0.000104111707, -0.000240724708, -0.000224975491, -0.009089144, -0.0182782542, 0.000342284533, 923.5389    , 31.23172    , 775.19574   , 4.4         , 3           , 255         , 0           , 0
-0.184775352, 0.0921338648, -9.788225   , 0.0005990155, -0.000435680879, 5.8107802E-05, -0.009079417, -0.0182786081, 0.000342836778, 923.5389    , 31.23172    , 775.1987    , 4.41        , 3           , 255         , 0           , 0
-0.173254639, 0.08953042  , -9.782667   , 0.0004622579, 7.830837E-05, -4.49860454E-05, -0.009074789, -0.01827783 , 0.000342379819, 923.5389    , 31.23172    , 775.1986    , 4.42        , 3           , 255         , 0           , 0
-0.180519879, 0.08684072  , -9.797129   , 0.000210054626, 0.000207535413, -0.000370780734, -0.00907262 , -0.0182757881, 0.000338652782, 923.511047  , 31.2326012  , 775.1985    , 4.43        , 3           , 255         , 0           , 0
-0.178705662, 0.09049313  , -9.79196    , -7.76627E-05, 0.000303283741, 0.000120337223, -0.009073419, -0.0182727482, 0.000339828752, 923.511047  , 31.2326012  , 775.198364  , 4.44        , 3           , 255         , 0           , 0
-0.175396234, 0.0852372   , -9.792555   , 0.0005037417, 0.000259647961, -8.93938E-05, -0.009068364, -0.01827016 , 0.0003389111, 923.511047  , 31.2326012  , 775.198242  , 4.45        , 3           , 255         , 0           , 0
-0.17642872 , 0.08515467  , -9.789152   , 8.1473816E-05, -0.0004959485, -4.443365E-05, -0.009067542, -0.01827512 , 0.000338511745, 923.511047  , 31.2326012  , 775.1982    , 4.46        , 3           , 255         , 0           , 0
-0.177918687, 0.08714135  , -9.797525   , -0.0008306323, -0.000463199132, 0.000118220174, -0.009075869, -0.0182797424, 0.000339736027, 923.511047  , 31.2326012  , 775.1981    , 4.47        , 3           , 255         , 0           , 0
-0.176409572, 0.08723265  , -9.796098   , -0.000258045882, -0.0003046485, 0.000180958217, -0.009078483, -0.0182827711, 0.000341573439, 923.511047  , 31.2326012  , 775.198059  , 4.48        , 3           , 255         , 0           , 0
-0.176471651, 0.08475339  , -9.784025   , -0.00025900625, 0.000156540016, -0.0005735045, -0.009080969, -0.0182812586, 0.00033582357, 923.511047  , 31.2326012  , 775.198     , 4.49        , 3           , 255         , 0           , 0
-0.179271221, 0.0866930038, -9.788306   , -0.0006036899, -0.000168244442, -0.000408244, -0.009086931, -0.0182829779, 0.000331756048, 923.511047  , 31.2326012  , 775.197937  , 4.5         , 3           , 255         , 0           , 0
-0.187482372, 0.0913265347, -9.785601   , -0.000516691, -0.000191463972, 0.000553768361, -0.009090167, -0.018283261, 0.000337274541, 923.511047  , 31.2326012  , 775.240234  , 4.51        , 3           , 255         , 0           , 0
-0.179167315, 0.09155176  , -9.783019   , 0.000126643 , 0.000254601036, 0.000322102656, -0.009088959, -0.0182806849, 0.000340472732, 923.511047  , 31.2326012  , 775.2404    , 4.52        , 3           , 255         , 0           , 0
-0.171320125, 0.0911263451, -9.789357   , -0.0003720067, -6.04061643E-06, -1.602532E-05, -0.00909267552, -0.0182807483, 0.000340313 , 923.5383    , 31.2318554  , 775.2406    , 4.53        , 3           , 255         , 0           , 0
-0.1774238  , 0.08588694  , -9.793051   , -0.0004217419, 2.14830216E-05, -0.000408295076, -0.009096818, -0.01828057 , 0.0003362277, 923.5383    , 31.2318554  , 775.2408    , 4.54        , 3           , 255         , 0           , 0
-0.174000084, 0.08178075  , -9.792324   , -9.243816E-05, -0.0008116583, -0.00156410073, -0.009097457, -0.018288821, 0.000320658932, 923.5383    , 31.2318554  , 775.240967  , 4.55        , 3           , 255         , 0           , 0
-0.180016115, 0.08685817  , -9.796368   , -0.0005302479, -0.0002992358, -0.000425996142, -0.009102681, -0.0182918534, 0.00031642575, 923.5383    , 31.2318554  , 775.24115   , 4.56        , 3           , 255         , 0           , 0
-0.1747382  , 0.09777067  , -9.794891   , 1.00940233E-05, 0.000462985 , 0.000486360863, -0.00910267 , -0.01828718 , 0.000321247731, 923.5383    , 31.2318554  , 775.241333  , 4.57        , 3           , 255         , 0           , 0
-0.179108649, 0.0993665457, -9.795546   , -8.140298E-05, 0.000111227389, -1.39106651E-05, -0.009103481, -0.018286068, 0.000321098516, 923.5383    , 31.2318554  , 775.2415    , 4.58        , 3           , 255         , 0           , 0
-0.1813682  , 0.10106685  , -9.79195    , -9.211869E-05, 3.0941068E-05, -0.000557391, -0.009104299, -0.0182858109, 0.0003155212, 923.5383    , 31.2318554  , 775.2417    , 4.59        , 3           , 255         , 0           , 0
-0.17003952 , 0.0850508139, -9.798738   , -0.0003448016, 4.87866055E-05, -0.000161238742, -0.009107718, -0.018285336, 0.000313904224, 923.5383    , 31.2318554  , 775.2419    , 4.6         , 3           , 255         , 0           , 0
-0.17928341 , 0.09506729  , -9.784257   , -3.60484119E-05, -0.00021574751, -1.53888977E-05, -0.009111024, -0.01828522 , 0.000313823868, 923.5383    , 31.2318554  , 775.239258  , 4.61        , 3           , 255         , 0           , 0
-0.184755281, 0.09465954  , -9.78718    , 7.560823E-05, 3.84741E-06 , 6.664402E-05, -0.009110281, -0.0182851776, 0.000314490055, 923.5383    , 31.2318554  , 775.239441  , 4.62        , 3           , 255         , 0           , 0
-0.182726234, 0.08800447  , -9.794668   , -0.000213062129, 0.0001862913, 0.0001959359, -0.009112447, -0.0182832964, 0.000316432619, 923.557068  , 31.2321949  , 775.2396    , 4.63        , 3           , 255         , 0           , 0
-0.178862646, 0.09360305  , -9.794778   , -0.0004547716, 9.403369E-05, 0.0004959524, -0.00911708549, -0.018282311, 0.000321384083, 923.557068  , 31.2321949  , 775.2398    , 4.64        , 3           , 255         , 0           , 0
-0.173533827, 0.08880326  , -9.790472   , -0.000440953736, 5.316001E-05, -0.0007929818, -0.00912135 , -0.018281851, 0.0003134486, 923.557068  , 31.2321949  , 775.24      , 4.65        , 3           , 255         , 0           , 0
-0.170785353, 0.09127919  , -9.791068   , -0.000264008675, -0.00014961249, -0.000287385657, -0.009123939, -0.0182833727, 0.0003105881, 923.557068  , 31.2321949  , 775.2402    , 4.66        , 3           , 255         , 0           , 0
-0.1856062  , 0.08101969  , -9.78035    , -2.68348958E-06, -0.000403370766, -0.000799094851, -0.009123821, -0.018287478, 0.000302633183, 923.557068  , 31.2321949  , 775.240356  , 4.67        , 3           , 255         , 0           , 0
-0.181731611, 0.08816446  , -9.790805   , 0.000185410245, 8.64276662E-05, -0.000385488383, -0.009121896, -0.01828665 , 0.00029877  , 923.557068  , 31.2321949  , 775.24054   , 4.68        , 3           , 255         , 0           , 0
-0.189028621, 0.0967722163, -9.786069   , 0.000148337509, 0.000298529223, 0.0003297267, -0.009120471, -0.0182836335, 0.000302040338, 923.557068  , 31.2321949  , 775.2407    , 4.69        , 3           , 255         , 0           , 0
-0.176793054, 0.09267047  , -9.792369   , -4.53346E-05, -4.571359E-05, -0.000170426356, -0.009120894, -0.0182841066, 0.000300340122, 923.557068  , 31.2321949  , 775.2409    , 4.7         , 3           , 255         , 0           , 0
-0.1768163  , 0.09747081  , -9.785893   , -3.29717E-05, 0.0003713018, 0.0006438611, -0.009124355, -0.0182826333, 0.0003068006, 923.557068  , 31.2321949  , 775.2123    , 4.71        , 3           , 255         , 0           , 0
-0.181556791, 0.0992852747, -9.793347   , -0.0004937006, 0.000499720452, 0.000289015938, -0.009129344, -0.01827761 , 0.00030964546, 923.557068  , 31.2321949  , 775.2123    , 4.72        , 3           , 255         , 0           , 0
-0.180918843, 0.09348361  , -9.791948   , 5.6204357E-05, 0.00031744584, -0.0003348028, -0.00912872 , -0.0182744656, 0.000306268077, 923.5591    , 31.22982    , 775.2123    , 4.73        , 3           , 255         , 0           , 0
-0.17120406 , 0.08712515  , -9.795739   , 0.000236150561, -6.522317E-05, 0.000393173 , -0.009126432, -0.018275084, 0.000310206175, 923.5591    , 31.22982    , 775.2123    , 4.74        , 3           , 255         , 0           , 0
-0.173361808, 0.0866068453, -9.788935   , 0.000140141623, 5.567164E-05, 0.000300265 , -0.009125085, -0.0182745  , 0.000313204044, 923.5591    , 31.22982    , 775.2123    , 4.75        , 3           , 255         , 0           , 0
-0.18062894 , 0.082734786 , -9.789314   , 2.69356533E-05, 0.000151022046, 0.0003689791, -0.009124882, -0.0182729587, 0.00031688044, 923.5591    , 31.22982    , 775.2123    , 4.76        , 3           , 255         , 0           , 0
-0.175994277, 0.09037023  , -9.785444   , 4.33569949E-05, 1.78794726E-05, 9.889841E-05, -0.009124464, -0.0182727687, 0.000317867874, 923.5591    , 31.22982    , 775.2123    , 4.77        , 3           , 255         , 0           , 0
-0.171809524, 0.0886439458, -9.784735   , 0.0001935098, -0.0002410099, 0.00021154806, -0.00912257 , -0.01827516 , 0.000320005551, 923.5591    , 31.22982    , 775.2123    , 4.78        , 3           , 255         , 0           , 0
-0.171493515, 0.08706233  , -9.792543   , 0.0005280309, -0.0004693674, -0.000609999639, -0.009117179, -0.018279912, 0.000313947763, 923.5591    , 31.22982    , 775.2123    , 4.79        , 3           , 255         , 0           , 0
-0.179189056, 0.0794931   , -9.793913   , -1.36768213E-05, -0.000271019555, -0.000226269709, -0.009117275, -0.01828264 , 0.000311709533, 923.5591    , 31.22982    , 775.2123    , 4.8         , 3           , 255         , 0           , 0
-0.177951664, 0.0836100057, -9.788911   , 0.000108281121, -0.0005386758, -0.0001200371, -0.009115985, -0.018283831, 0.00031055478, 923.5591    , 31.22982    , 775.1849    , 4.81        , 3           , 255         , 0           , 0
-0.180698633, 0.0903673   , -9.786102   , 6.48602145E-06, -2.683021E-05, -9.668339E-05, -0.009115903, -0.0182841085, 0.000309590279, 923.5591    , 31.22982    , 775.184753  , 4.82        , 3           , 255         , 0           , 0
-0.178745553, 0.09248613  , -9.78519249 , 0.000159493065, 0.000318162434, 0.000110133762, -0.009114328, -0.0182809159, 0.000310662726, 923.4902    , 31.2285976  , 775.184631  , 4.83        , 3           , 255         , 0           , 0
-0.173840567, 0.100755736 , -9.799718   , -0.00013148869, 0.000421343779, 0.0004718455, -0.009115729, -0.0182766579, 0.000315343263, 923.4902    , 31.2285976  , 775.1845    , 4.84        , 3           , 255         , 0           , 0
-0.1803051  , 0.1010596   , -9.805554   , -0.0005457684, -0.000224350166, 0.0004471981, -0.009121268, -0.01827886 , 0.000319836137, 923.4902    , 31.2285976  , 775.1844    , 4.85        , 3           , 255         , 0           , 0
-0.186282083, 0.09716876  , -9.787802   , -3.957108E-05, -0.0003023255, -2.24797222E-05, -0.009121661, -0.0182818882, 0.0003196389, 923.4902    , 31.2285976  , 775.184265  , 4.86        , 3           , 255         , 0           , 0
-0.17846027 , 0.102604643 , -9.78835    , 0.0002999661, -0.000163594115, -0.0006399578, -0.009118546, -0.0182835832, 0.0003132536, 923.4902    , 31.2285976  , 775.184143  , 4.87        , 3           , 255         , 0           , 0
-0.183311343, 0.09702569  , -9.789166   , 0.0005450943, 7.613795E-05, -1.40416114E-05, -0.009113092, -0.0182828233, 0.000313106226, 923.4902    , 31.2285976  , 775.184     , 4.88        , 3           , 255         , 0           , 0
-0.1743453  , 0.09256886  , -9.787229   , 0.0006407844, 0.000240929745, -0.000222487652, -0.0091066435, -0.0182804354, 0.0003108592, 923.4902    , 31.2285976  , 775.1839    , 4.89        , 3           , 255         , 0           , 0
-0.181250557, 0.09080525  , -9.791246   , 0.000410005567, -0.0004810783, 0.000323554152, -0.009102602, -0.0182852168, 0.000314138859, 923.4902    , 31.2285976  , 775.1838    , 4.9         , 3           , 255         , 0           , 0
-0.181626722, 0.08094243  , -9.794741   , 0.00022808864, -0.000324591267, 0.0006687927, -0.009108597, -0.0182891767, 0.000321006053, 923.4902    , 31.2285976  , 775.257568  , 4.91        , 3           , 255         , 0           , 0
-0.172716945, 0.08040388  , -9.799856   , 0.000406898849, -0.000284230249, 9.59191239E-05, -0.009104545, -0.0182920117, 0.000321991247, 923.4902    , 31.2285976  , 775.2579    , 4.92        , 3           , 255         , 0           , 0
-0.1791721  , 0.08243539  , -9.779006   , -0.000136583, -0.000357171317, -0.000284759648, -0.00910586 , -0.0182956085, 0.0003191759, 923.5926    , 31.2331429  , 775.2582    , 4.93        , 3           , 255         , 0           , 0
-0.1802688  , 0.0875228941, -9.785665   , 0.000240576075, -0.000120321783, -0.00016259987, -0.009103424, -0.0182968266, 0.000317560683, 923.5926    , 31.2331429  , 775.2585    , 4.94        , 3           , 255         , 0           , 0
-0.174206287, 0.08507337  , -9.784922   , 1.02566846E-05, -1.52929861E-05, -0.000664700754, -0.0091032  , -0.018297039, 0.0003109144, 923.5926    , 31.2331429  , 775.2588    , 4.95        , 3           , 255         , 0           , 0
-0.184397951, 0.08339648  , -9.787446   , -0.000472071435, 0.0005000441, 4.89015765E-05, -0.009107931, -0.018292034, 0.00031135793, 923.5926    , 31.2331429  , 775.259155  , 4.96        , 3           , 255         , 0           , 0
-0.172333479, 0.0913355052, -9.800745   , -0.000307317328, 1.32067944E-05, 0.000316537131, -0.00911106 , -0.018291872, 0.000314522418, 923.5926    , 31.2331429  , 775.2595    , 4.97        , 3           , 255         , 0           , 0
-0.187753856, 0.09153521  , -9.805183   , -0.00022406425, 8.63633759E-05, 0.000280782027, -0.009113353, -0.0182909835, 0.000317322643, 923.5926    , 31.2331429  , 775.2599    , 4.98        , 3           , 255         , 0           , 0
-0.186625674, 0.08972283  , -9.800267   , 0.000177986192, -0.000275050843, -0.000333645556, -0.00911151152, -0.0182937644, 0.000314010918, 923.5926    , 31.2331429  , 775.260254  , 4.99        , 3           , 255         , 0           , 0
-0.1878025  , 0.09129008  , -9.794816   , -6.96156349E-05, -0.000227462471, -1.24312182E-05, -0.009112207, -0.0182960387, 0.0003139073, 923.5926    , 31.2331429  , 775.2606    , 5           , 3           , 0           , -1          , 500
-0.191363484, 0.0964639857, -9.790728   , -0.000174485554, 0.000109325018, 0.000372682523, -0.00911059 , -0.0182967279, 0.000317561819, 923.5926    , 31.2331429  , 775.1791    , 5.01        , 3           , 1           , 0           , 0
-0.17333968 , 0.0985299349, -9.792961   , -7.06556E-05, 5.672418E-05, 0.0007888822, -0.009111441, -0.018296089, 0.00032544625, 923.5926    , 31.2331429  , 775.1789    , 5.02        , 3           , 2           , 0           , 0
-0.174304336, 0.09898935  , -9.799646   , 0.000503366 , -0.000151840737, 0.0001761424, -0.009106441, -0.0182975922, 0.000327221671, 923.540344  , 31.23077    , 775.1787    , 5.03        , 3           , 3           , 0           , 0
-0.18365787 , 0.08928759  , -9.795351   , 0.000272545672, -2.56716739E-05, 0.000181180862, -0.009103749, -0.0182978325, 0.000329036033, 923.540344  , 31.23077    , 775.1785    , 5.04        , 3           , 4           , 0           , 0
-0.170914009, 0.08315811  , -9.791883   , -6.269227E-05, -1.8922E-05 , 0.000202051189, -0.009104413, -0.0182980038, 0.000331058458, 923.540344  , 31.23077    , 775.1784    , 5.05        , 3           , 5           , 0           , 0
-0.172827214, 0.08222361  , -9.799034   , 0.0002648827, -0.000159397139, 0.00037550024, -0.009101833, -0.0182995647, 0.000334828364, 923.540344  , 31.23077    , 775.1783    , 5.06        , 3           , 6           , 0           , 0
-0.190182358, 0.0826324448, -9.789031   , 0.000248520868, 0.0003207405, -0.000194469249, -0.009099312, -0.0182963759, 0.000332854252, 923.540344  , 31.23077    , 775.178162  , 5.07        , 3           , 7           , 0           , 0
-0.179564446, 0.0844011456, -9.794535   , -0.000395179959, -0.0004933261, -0.0004204401, -0.009103188, -0.0183013473, 0.000328694354, 923.540344  , 31.23077    , 775.17804   , 5.08        , 3           , 8           , 5           , 5
-0.178209469, 0.09462078  , -9.801076   , -0.000136270217, -0.000358523161, -0.000408907217, -0.009104475, -0.0183049683, 0.0003246375, 923.540344  , 31.23077    , 775.1779    , 5.09        , 3           , 9           , 5           , 0.1
-0.188380569, 0.0931863561, -9.795238   , 1.6107806E-05, -0.00044832495, 0.000158292227, -0.009104345, -0.0183094367, 0.0003262614, 923.540344  , 31.23077    , 775.1778    , 5.1         , 3           , 10          , 0.1         , 0.1
-0.1862726  , 0.0872360244, -9.793211   , -0.000222276169, 5.73260768E-05, -0.0004260523, -0.009107773, -0.0183100179, 0.000322018721, 923.540344  , 31.23077    , 775.1815    , 5.11        , 3           , 11          , 0.006077679 , 0.00607767375
