Acc X       , Acc Y       , Acc Z       , Gyro X      , Gyro Y      , Gyro Z      , Euler X     , Euler Y     , Euler Z     , Pres X      , Pres Y      , Pres Z      , Time        , Status      , LowRate X   , LowRate Y   , LowRate Z    
-0.1457903  , 0.146249741 , -9.785763   , 0           , 0           , 0           , -0.0149440421, -0.0148954391, 0           , 923.54126   , 31.82995    , 775.1958    , 0           , 2           , 0           , 5.45423174  , 0
-0.14271684 , 0.1532306   , -9.787518   , 0.000364544976, -0.0004208031, -0.000153703091, -0.0149406949, -0.0148999058, -1.47411265E-06, 923.54126   , 31.82995    , 775.1958    , 0.01        , 3           , 1           , 0           , 0
-0.142676368, 0.150995567 , -9.794099   , 0.000255677325, -0.000207677134, 0.0004989337, -0.0149382129, -0.0149019072, 3.546128E-06, 923.54126   , 31.82995    , 775.1958    , 0.02        , 3           , 2           , 0           , 0
-0.145651326, 0.1448063   , -9.795535   , -1.50857959E-05, 0.000125358667, 0.00124436663, -0.0149385491, -0.0149004692, 1.59707524E-05, 923.5189    , 31.3944721  , 775.1958    , 0.03        , 3           , 3           , 0           , 0
-0.144986466, 0.1481551   , -9.79670048 , 0.000282362 , 7.217834E-05, 0.000193446176, -0.0149357542, -0.0148997195, 1.789438E-05, 923.5189    , 31.3944721  , 775.1958    , 0.04        , 3           , 4           , 0           , 0
-0.153822362, 0.145477116 , -9.799861   , 0.000575551 , 0.000295185862, 7.793744E-05, -0.0149300117, -0.014896756, 1.86296547E-05, 923.5189    , 31.3944721  , 775.1958    , 0.05        , 3           , 5           , 0           , 0
-0.143716887, 0.145677656 , -9.802395   , 8.15072563E-05, -8.92258249E-05, 0.000379758247, -0.0149292527, -0.0148975905, 2.24404521E-05, 923.5189    , 31.3944721  , 775.1958    , 0.06        , 3           , 6           , 0           , 0
-0.143779069, 0.151517421 , -9.803981   , -0.000392829766, 0.000121696328, 0.000937930134, -0.01493332 , -0.0148962364, 3.180135E-05, 923.5189    , 31.3944721  , 775.1958    , 0.07        , 3           , 7           , 0           , 0
-0.14969039 , 0.148303017 , -9.789629   , 0.0004927862, 0.000294599158, 0.00102610071, -0.0149285449, -0.0148931351, 4.201812E-05, 923.5189    , 31.3944721  , 775.1958    , 0.08        , 3           , 8           , 5           , 5
-0.139346987, 0.146242723 , -9.786518   , 0.000482059957, 0.000307967246, 0.0009663927, -0.0149238678, -0.0148899127, 5.16358341E-05, 923.5189    , 31.3944721  , 775.1958    , 0.09        , 3           , 9           , 5           , 0.1
-0.14640446 , 0.135879219 , -9.793451   , 0.000398095726, -0.000166977348, 0.00110255356, -0.0149200512, -0.01489142 , 6.2686E-05  , 923.5189    , 31.3944721  , 775.1958    , 0.1         , 3           , 10          , 0.1         , 0.1
-0.153075382, 0.147351459 , -9.798131   , -0.000156840833, -0.000482105446, -0.000150249092, -0.0149242  , -0.0148939444, 6.12942458E-05, 923.5189    , 31.3944721  , 775.3968    , 0.11        , 3           , 11          , 0.0109544508, 0.0109544508
-0.141739756, 0.144224316 , -9.799876   , -0.000476647983, -0.00032633837, -0.000266892253, -0.0149289295, -0.0148972459, 5.86741044E-05, 923.5189    , 31.3944721  , 775.3968    , 0.12        , 3           , 12          , 0.174642488 , 0
-0.136691362, 0.139059186 , -9.781225   , -0.0006205281, 2.37606582E-06, -0.000673460658, -0.0149350325, -0.0148973232, 5.1939307E-05, 923.527466  , 31.4318523  , 775.3968    , 0.13        , 3           , 13          , 0           , 0
-0.1492149  , 0.147083849 , -9.7929945  , -0.0004145694, 0.000325261324, 3.8646107E-05, -0.0149391824, -0.0148940654, 5.22771661E-05, 923.527466  , 31.4318523  , 775.3968    , 0.14        , 3           , 14          , -0.000614226563, -0.0003998851
-0.143625289, 0.152686328 , -9.794187   , -0.000400399324, -4.3637323E-05, 0.000226314543, -0.01494322 , -0.0148944678, 5.45467738E-05, 923.527466  , 31.4318523  , 775.3968    , 0.15        , 3           , 15          , 0           , 3.81581667E-05
-0.146370456, 0.152269989 , -9.791895   , -0.0008906971, -0.000147342012, 0.000441685 , -0.014952193, -0.0148958731, 5.89855372E-05, 923.527466  , 31.4318523  , 775.3968    , 0.16        , 3           , 16          , 0           , 1.401298E-45
-0.1544272  , 0.1385598   , -9.790063   , 0.0005351861, 0.0002750256, -0.000100053789, -0.0149468267, -0.0148931416, 5.79439147E-05, 923.527466  , 31.4318523  , 775.396851  , 0.17        , 3           , 20          , 0           , 0
-0.145657867, 0.1427309   , -9.79855    , 0.000140137592, 0.0004985665, -0.000234713938, -0.0149453906, -0.0148881916, 5.552232E-05, 923.527466  , 31.4318523  , 775.3969    , 0.18        , 3           , 21          , 0           , 0
-0.145895645, 0.145145386 , -9.78903    , -0.000313283759, 6.24423E-05 , -0.000135593276, -0.0149485013, -0.0148875862, 5.41570953E-05, 923.527466  , 31.4318523  , 775.397     , 0.19        , 3           , 22          , 0           , 0
-0.14549315 , 0.140970692 , -9.792366   , 0.000113682239, -0.0001993055, -0.00015969362, -0.0149473418, -0.0148896044, 5.258998E-05, 923.527466  , 31.4318523  , 775.397034  , 0.2         , 3           , 40          , 0           , 0
-0.144625977, 0.133658916 , -9.788723   , 0.000335686578, -0.000405016821, 0.0007516654, -0.0149390679, -0.0148948114, 6.00920539E-05, 923.527466  , 31.4318523  , 775.358643  , 0.21        , 3           , 41          , 0           , 0
-0.150365442, 0.145037323 , -9.792586   , 0.000248526369, -0.0006097966, -9.575072E-05, -0.0149365691, -0.0149009228, 5.9225662E-05, 923.527466  , 31.4318523  , 775.3587    , 0.22        , 3           , 42          , 0           , 0
-0.155906126, 0.141688988 , -9.793769   , 0.000387128675, -0.000144793361, -0.00115897076, -0.0149325244, -0.0149025461, 4.76578862E-05, 923.5534    , 31.459465   , 775.358765  , 0.23        , 3           , 255         , 0           , 0
-0.152682558, 0.151455969 , -9.796415   , 0.000291410048, 0.0002574544, -0.0008429145, -0.0149294864, -0.0149000967, 3.919052E-05, 923.5534    , 31.459465   , 775.3588    , 0.24        , 3           , 255         , 0           , 0
-0.1489126  , 0.142992213 , -9.791722   , 0.0002362243, 2.366773E-05, -0.0001854189, -0.0149270957, -0.0148998881, 3.73328439E-05, 923.5534    , 31.459465   , 775.3589    , 0.25        , 3           , 255         , 0           , 0
-0.148588076, 0.139006346 , -9.796487   , 0.0003671836, 5.277389E-05, 6.09937233E-05, -0.0149234338, -0.0148993516, 3.7934893E-05, 923.5534    , 31.459465   , 775.358948  , 0.26        , 3           , 255         , 0           , 0
-0.151987463, 0.144389689 , -9.794666   , -0.000413806934, 0.000110307883, 0.0002973072, -0.0149276173, -0.0148982042, 4.08914239E-05, 923.5534    , 31.459465   , 775.359     , 0.27        , 3           , 255         , 0           , 0
-0.136064678, 0.153607756 , -9.795912   , -0.000316634134, -0.000124091341, 0.000830489153, -0.0149309067, -0.0148993218, 4.92146319E-05, 923.5534    , 31.459465   , 775.3591    , 0.28        , 3           , 255         , 0           , 0
-0.1482512  , 0.153757617 , -9.793001   , -0.000179015042, -0.00014846283, 0.0004432424, -0.014932761, -0.01490074 , 5.36691041E-05, 923.5534    , 31.459465   , 775.359131  , 0.29        , 3           , 255         , 0           , 0
-0.141853124, 0.144246966 , -9.793093   , -0.000114310009, -3.10567848E-05, -0.000189175043, -0.0149338758, -0.0149010792, 5.178204E-05, 923.5534    , 31.459465   , 775.3592    , 0.3         , 3           , 255         , 0           , 0
-0.139719337, 0.1381418   , -9.788169   , 0.000452982524, 4.38273419E-05, 0.000320309075, -0.0149251316, -0.0149074439, 5.49149627E-05, 923.5534    , 31.459465   , 775.26825   , 0.31        , 3           , 255         , 0           , 0
-0.149955064, 0.151781172 , -9.790828   , 0.000304970657, -2.30372243E-05, 0.000290554279, -0.0149221262, -0.0149076348, 5.782387E-05, 923.5534    , 31.459465   , 775.2683    , 0.32        , 3           , 255         , 0           , 0
-0.145827025, 0.14797464  , -9.790864   , 0.000272134959, 0.00019027658, 0.000588239 , -0.0149194915, -0.0149056427, 6.36777258E-05, 923.574341  , 31.4707947  , 775.2684    , 0.33        , 3           , 255         , 0           , 0
-0.1500554  , 0.149931967 , -9.786613   , 0.0005694671, 0.000143222656, 0.00019494255, -0.0149138281, -0.0149041805, 6.560574E-05, 923.574341  , 31.4707947  , 775.268433  , 0.34        , 3           , 255         , 0           , 0
-0.162917525, 0.141983062 , -9.795237   , 0.000217979366, 8.624318E-05, -0.000189448692, -0.0149116209, -0.0149033461, 6.369844E-05, 923.574341  , 31.4707947  , 775.2685    , 0.35        , 3           , 255         , 0           , 0
-0.14703092 , 0.145830482 , -9.797016   , 0.0007721409, -9.204741E-05, 0.0008849461, -0.0149040315, -0.0149041349, 7.256141E-05, 923.574341  , 31.4707947  , 775.268555  , 0.36        , 3           , 255         , 0           , 0
-0.138287038, 0.1486748   , -9.793447   , 0.000274527178, -0.00020060988, 0.000523513241, -0.0149013652, -0.0149060637, 7.782632E-05, 923.574341  , 31.4707947  , 775.2686    , 0.37        , 3           , 255         , 0           , 0
-0.136358157, 0.142718464 , -9.78867    , 8.788821E-05, -2.079591E-05, 0.000362237362, -0.0149005391, -0.0149062173, 8.14517E-05 , 923.574341  , 31.4707947  , 775.2687    , 0.38        , 3           , 255         , 0           , 0
-0.139939979, 0.144714445 , -9.79358    , 0.000312769145, -1.03764178E-05, 0.0001248333, -0.0148974312, -0.0149063021, 8.270155E-05, 923.574341  , 31.4707947  , 775.268738  , 0.39        , 3           , 255         , 0           , 0
-0.141799539, 0.14514333  , -9.786291   , 0.000268586882, -0.000129563356, 0.000277041778, -0.0148947863, -0.0149075557, 8.54912E-05 , 923.574341  , 31.4707947  , 775.2688    , 0.4         , 3           , 255         , 0           , 0
-0.136766613, 0.145037681 , -9.795612   , -0.000134092057, 6.33299351E-08, 0.000357813668, -0.0148948533, -0.0149044516, 8.90494557E-05, 923.574341  , 31.4707947  , 775.1754    , 0.41        , 3           , 255         , 0           , 0
-0.136693388, 0.132924214 , -9.798164   , 0.00024131278, -0.0001587061, -6.84500556E-05, -0.0148924319, -0.0149060478, 8.838861E-05, 923.574341  , 31.4707947  , 775.1755    , 0.42        , 3           , 255         , 0           , 0
-0.1342962  , 0.142458782 , -9.796776   , 0.000508391357, 6.12375152E-05, 0.000174449611, -0.0148873739, -0.014905409, 9.012396E-05, 923.5852    , 31.4858551  , 775.175537  , 0.43        , 3           , 255         , 0           , 0
-0.141480118, 0.151938587 , -9.791257   , -5.8665406E-05, 0.000405724975, -0.0008558807, -0.014887834, -0.0149014788, 8.15049643E-05, 923.5852    , 31.4858551  , 775.1756    , 0.44        , 3           , 255         , 0           , 0
-0.145000815, 0.153000951 , -9.794145   , 0.0003859836, 0.000230415666, 0.0003357554, -0.0148840239, -0.0148991244, 8.48281343E-05, 923.5852    , 31.4858551  , 775.175659  , 0.45        , 3           , 255         , 0           , 0
-0.142530337, 0.1508865   , -9.795197   , 0.0009245513, 0.000391296577, 0.000414343784, -0.01487484 , -0.0148951523, 8.891326E-05, 923.5852    , 31.4858551  , 775.1757    , 0.46        , 3           , 255         , 0           , 0
-0.143485636, 0.140192121 , -9.792484   , 0.000456402719, 0.000201166738, -0.000156242022, -0.0148702525, -0.0148931649, 8.732096E-05, 923.5852    , 31.4858551  , 775.1758    , 0.47        , 3           , 255         , 0           , 0
-0.14685449 , 0.133336648 , -9.795481   , 0.00026410626, -0.000363253348, 8.01038259E-05, -0.0148676243, -0.0148967849, 8.817599E-05, 923.5852    , 31.4858551  , 775.175842  , 0.48        , 3           , 255         , 0           , 0
-0.142799452, 0.138819158 , -9.793363   , 0.000145281578, -0.000278951542, -0.0006891659, -0.014866069, -0.0148996767, 8.13259758E-05, 923.5852    , 31.4858551  , 775.1759    , 0.49        , 3           , 255         , 0           , 0
-0.141902953, 0.139968291 , -9.79142952 , -7.014506E-05, -0.000162372657, -0.0008697844, -0.01486664 , -0.0149014294, 7.2652474E-05, 923.5852    , 31.4858551  , 775.175964  , 0.5         , 3           , 255         , 0           , 0
-0.140192   , 0.146042377 , -9.797553   , 0.0003630771, 0.000522716437, 0.00062705006, -0.0148539227, -0.0148812272, 7.870852E-05, 923.5852    , 31.4858551  , 775.0993    , 0.51        , 3           , 255         , 0           , 0
-0.134338617, 0.157717884 , -9.796262   , 8.631835E-05, 0.0003283638, 0.000275846833, -0.0148530994, -0.0148779061, 8.141815E-05, 923.5852    , 31.4858551  , 775.099365  , 0.52        , 3           , 255         , 0           , 0
-0.143520728, 0.142658919 , -9.798741   , 3.97930271E-05, 0.000196025154, 0.0006616985, -0.0148528  , -0.014875846, 8.800586E-05, 923.5794    , 31.4931145  , 775.0994    , 0.53        , 3           , 255         , 0           , 0
-0.139185816, 0.141767666 , -9.797304   , 0.000554759754, -1.92743028E-06, 0.000151510612, -0.0148472749, -0.0148758432, 8.952123E-05, 923.5794    , 31.4931145  , 775.0995    , 0.54        , 3           , 255         , 0           , 0
-0.137978479, 0.142403841 , -9.790022   , 0.000661068363, 5.5529963E-05, 0.000174276938, -0.0148406914, -0.0148752648, 9.12557152E-05, 923.5794    , 31.4931145  , 775.099548  , 0.55        , 3           , 255         , 0           , 0
-0.148046687, 0.144172788 , -9.787114   , -1.12676644E-05, 0.000119888631, 0.000187365746, -0.014840832, -0.0148740374, 9.31115355E-05, 923.5794    , 31.4931145  , 775.0996    , 0.56        , 3           , 255         , 0           , 0
-0.1427047  , 0.14232941  , -9.792017   , 0.0002612726, 0.000173148961, 0.000465848978, -0.0148382885, -0.0148722371, 9.774422E-05, 923.5794    , 31.4931145  , 775.0997    , 0.57        , 3           , 255         , 0           , 0
-0.143002629, 0.147529557 , -9.7988615  , -0.000517438748, -0.000106395775, 0.00107198791, -0.0148436222, -0.0148731433, 0.000108479631, 923.5794    , 31.4931145  , 775.099731  , 0.58        , 3           , 255         , 0           , 0
-0.152783722, 0.142265588 , -9.801339   , 0.000226903678, -6.466269E-05, -0.000176694361, -0.0148413284, -0.0148738148, 0.00010672232, 923.5794    , 31.4931145  , 775.0998    , 0.59        , 3           , 255         , 0           , 0
-0.1486682  , 0.14406772  , -9.790419   , 0.000493795436, -7.655422E-05, -5.69515723E-05, -0.0148363812, -0.0148745868, 0.000106164174, 923.5794    , 31.4931145  , 775.099854  , 0.6         , 3           , 255         , 0           , 0
-0.151563466, 0.147403151 , -9.79557    , 5.102146E-05, -9.005534E-05, 0.00109831174, -0.0148351481, -0.0148675  , 0.000117147196, 923.5794    , 31.4931145  , 775.0573    , 0.61        , 3           , 255         , 0           , 0
-0.141836733, 0.142502308 , -9.794286   , 7.208355E-05, -9.010511E-05, 0.0005993647, -0.0148345167, -0.0148683134, 0.000123154066, 923.5794    , 31.4931145  , 775.0574    , 0.62        , 3           , 255         , 0           , 0
-0.147608832, 0.141783416 , -9.790873   , -0.000386637636, -0.000162278651, 0.000300575979, -0.0148384282, -0.0148698911, 0.000126183819, 923.546448  , 31.4977951  , 775.057434  , 0.63        , 3           , 255         , 0           , 0
-0.141388625, 0.141088873 , -9.793715   , -0.000414815033, -0.000179241761, 0.00076848123, -0.0148426909, -0.0148715684, 0.000133895039, 923.546448  , 31.4977951  , 775.0575    , 0.64        , 3           , 255         , 0           , 0
-0.138528869, 0.149380833 , -9.79340649 , 0.00014133472, -5.5843615E-05, 0.000357466226, -0.0148413312, -0.0148720732, 0.000137477909, 923.546448  , 31.4977951  , 775.057556  , 0.65        , 3           , 255         , 0           , 0
-0.152103037, 0.1518067   , -9.795022   , 0.000360670354, -0.000245395233, 0.000208334954, -0.0148377577, -0.0148744946, 0.000139597643, 923.546448  , 31.4977951  , 775.0576    , 0.66        , 3           , 255         , 0           , 0
-0.147332   , 0.154382974 , -9.789492   , 2.37110071E-05, -0.000522446062, 0.00018564974, -0.0148375491, -0.0148796914, 0.000141531607, 923.546448  , 31.4977951  , 775.0577    , 0.67        , 3           , 255         , 0           , 0
-0.142021686, 0.139122277 , -9.786972   , 0.000209932768, -0.000259484921, 0.000273490616, -0.01483549 , -0.0148822451, 0.00014430494, 923.546448  , 31.4977951  , 775.057739  , 0.68        , 3           , 255         , 0           , 0
-0.136868447, 0.136129171 , -9.793234   , 0.0001920984, -5.56882E-05, -5.07060759E-06, -0.01483357 , -0.014882802, 0.0001442625, 923.546448  , 31.4977951  , 775.0578    , 0.69        , 3           , 255         , 0           , 0
-0.1440609  , 0.134821013 , -9.793033   , -3.583735E-05, -0.000236742839, 0.000383284758, -0.0148339858, -0.0148851126, 0.000148130377, 923.546448  , 31.4977951  , 775.057861  , 0.7         , 3           , 255         , 0           , 0
-0.1429663  , 0.145024508 , -9.792105   , 0.000168284 , -0.000244647381, -0.000878895749, -0.01482721 , -0.0148833171, 0.000139304087, 923.546448  , 31.4977951  , 775.0724    , 0.71        , 3           , 255         , 0           , 0
-0.144623652, 0.140510529 , -9.794116   , -0.000189063314, -0.000347770634, 0.000136832125, -0.0148291234, -0.0148867741, 0.000140723947, 923.546448  , 31.4977951  , 775.0725    , 0.72        , 3           , 255         , 0           , 0
-0.144538522, 0.139532551 , -9.797444   , -5.72280842E-05, -3.46930465E-05, 0.0005579739, -0.014829779, -0.0148870386, 0.0001463087, 923.5483    , 31.50044    , 775.072632  , 0.73        , 3           , 255         , 0           , 0
-0.144621775, 0.139412656 , -9.793543   , 0.00040100835, -0.000128412386, 0.000160364289, -0.0148257939, -0.0148883  , 0.000147931351, 923.5483    , 31.50044    , 775.072754  , 0.74        , 3           , 255         , 0           , 0
-0.147444248, 0.148530632 , -9.790804   , -0.000198144349, -9.135553E-05, -0.000620711, -0.0148276817, -0.0148893055, 0.000141737924, 923.5483    , 31.50044    , 775.0729    , 0.75        , 3           , 255         , 0           , 0
-0.147662014, 0.1454415   , -9.789194   , -0.000636943965, 9.434123E-06, -0.000197936723, -0.0148340221, -0.01488924 , 0.00013975719, 923.5483    , 31.50044    , 775.073     , 0.76        , 3           , 255         , 0           , 0
-0.1441926  , 0.150615692 , -9.790937   , -0.000359631667, -0.000384937273, 1.63589139E-05, -0.01483762 , -0.0148930838, 0.000139977885, 923.5483    , 31.50044    , 775.0731    , 0.77        , 3           , 255         , 0           , 0
-0.148595735, 0.14657779  , -9.790749   , 0.000124375161, -0.0002621172, 0.000106103653, -0.0148363933, -0.01489569 , 0.000141077791, 923.5483    , 31.50044    , 775.073242  , 0.78        , 3           , 255         , 0           , 0
-0.150750071, 0.151681274 , -9.79664    , 0.00022752615, 6.209957E-05, 0.0005647636, -0.0148342028, -0.0148949837, 0.000146716076, 923.5483    , 31.50044    , 775.073364  , 0.79        , 3           , 255         , 0           , 0
-0.14474383 , 0.1517405   , -9.795671   , 0.000499478 , 0.00022855142, 0.000164050725, -0.0148292305, -0.0148926741, 0.000148322637, 923.5483    , 31.50044    , 775.0735    , 0.8         , 3           , 255         , 0           , 0
-0.1409724  , 0.136382118 , -9.791588   , -0.000135808485, 0.000226260585, 0.00018641568, -0.0148327406, -0.0148909315, 0.000150184846, 923.5483    , 31.50044    , 775.0819    , 0.81        , 3           , 255         , 0           , 0
-0.143130943, 0.133260608 , -9.793076   , -0.000459925737, 5.540866E-05, 0.000389838242, -0.0148373973, -0.01489032 , 0.0001540749, 923.5483    , 31.50044    , 775.082031  , 0.82        , 3           , 255         , 0           , 0
-0.150134727, 0.14517954  , -9.789447   , -0.0004819302, 0.000148846768, -0.00016988923, -0.0148421908, -0.0148888566, 0.000152353954, 923.5719    , 31.5024757  , 775.082153  , 0.83        , 3           , 255         , 0           , 0
-0.145719185, 0.1431098   , -9.793198   , 0.0001839787, 0.000163500736, -0.0001536291, -0.0148403281, -0.0148872435, 0.000150793436, 923.5719    , 31.5024757  , 775.0823    , 0.84        , 3           , 255         , 0           , 0
-0.152547568, 0.153102979 , -9.801688   , 0.0006995215, 4.956106E-05, 5.18412926E-05, -0.0148333414, -0.01488674 , 0.000151304484, 923.5719    , 31.5024757  , 775.0824    , 0.85        , 3           , 255         , 0           , 0
-0.14982605 , 0.147877738 , -9.799477   , 0.000748929859, -0.000217785564, 2.93236226E-05, -0.0148258572, -0.014888918, 0.000151630025, 923.5719    , 31.5024757  , 775.0825    , 0.86        , 3           , 255         , 0           , 0
-0.148447469, 0.141654462 , -9.791781   , 0.000335464429, -2.4467503E-05, 0.00050543173, -0.0148225762, -0.0148890847, 0.000156687849, 923.5719    , 31.5024757  , 775.082642  , 0.87        , 3           , 255         , 0           , 0
-0.141189843, 0.138922587 , -9.78887    , -4.125398E-05, 0.000219024078, -4.26604456E-05, -0.0148229832, -0.0148869008, 0.000156228809, 923.5719    , 31.5024757  , 775.082764  , 0.88        , 3           , 255         , 0           , 0
-0.144673645, 0.137421161 , -9.79232    , -0.000288486946, -0.000299970823, 7.2564304E-05, -0.01482588 , -0.01488989 , 0.000156998882, 923.5719    , 31.5024757  , 775.0829    , 0.89        , 3           , 255         , 0           , 0
-0.153527573, 0.151948243 , -9.792267   , -0.00039339473, -0.000100714591, -4.01821562E-05, -0.014829807, -0.0148909027, 0.000156612 , 923.5719    , 31.5024757  , 775.083     , 0.9         , 3           , 255         , 0           , 0
-0.14476651 , 0.14089556  , -9.79168    , 0.000174855813, 0.000327482179, -1.35335886E-05, -0.014820965, -0.0148911383, 0.000156322523, 923.5719    , 31.5024757  , 775.062561  , 0.91        , 3           , 255         , 0           , 0
-0.15277648 , 0.147260115 , -9.790012   , -0.000345034932, 0.000222430652, -0.000359713769, -0.0148243606, -0.0148889683, 0.000152692475, 923.5719    , 31.5024757  , 775.0627    , 0.92        , 3           , 255         , 0           , 0
-0.142246053, 0.146964163 , -9.786138   , -7.399393E-05, 0.000398160919, 0.000517342 , -0.0148251764, -0.01488491 , 0.000157806746, 923.587646  , 31.50553    , 775.0628    , 0.93        , 3           , 255         , 0           , 0
-0.142518714, 0.151619747 , -9.790364   , 0.000253950624, -0.00010764692, -0.0004092379, -0.0148225753, -0.0148860468, 0.000153730434, 923.587646  , 31.50553    , 775.0629    , 0.94        , 3           , 255         , 0           , 0
-0.147308961, 0.154395163 , -9.795214   , -0.000237528584, 0.000246238516, -0.0005688695, -0.0148248663, -0.0148836691, 0.000148005362, 923.587646  , 31.50553    , 775.063049  , 0.95        , 3           , 255         , 0           , 0
-0.152636975, 0.148640543 , -9.801028   , -0.0002709229, -0.000400336052, 0.00026219734, -0.0148276137, -0.0148876337, 0.000150686639, 923.587646  , 31.50553    , 775.0632    , 0.96        , 3           , 255         , 0           , 0
-0.1442878  , 0.15230839  , -9.791566   , 0.000245060481, -0.0004084317, 0.000431444 , -0.0148252286, -0.0148916533, 0.000155061512, 923.587646  , 31.50553    , 775.0633    , 0.97        , 3           , 255         , 0           , 0
-0.146648481, 0.149373084 , -9.784543   , -0.0004242272, 0.0001773696, 0.000130477958, -0.0148294894, -0.0148898605, 0.000156339971, 923.587646  , 31.50553    , 775.0634    , 0.98        , 3           , 255         , 0           , 0
-0.150527328, 0.144382164 , -9.790507   , -0.000278693042, 6.68502762E-05, 7.16713839E-05, -0.0148322871, -0.0148891825, 0.000157046758, 923.587646  , 31.50553    , 775.063538  , 0.99        , 3           , 255         , 0           , 0
-0.143214375, 0.140626237 , -9.795476   , -0.000225208, 0.000158828363, 0.0005793927, -0.0148346247, -0.014887508, 0.000162816985, 923.587646  , 31.50553    , 775.06366   , 1           , 3           , 0           , 6.45423651  , 100
-0.1383582  , 0.143671244 , -9.800554   , -0.0003049298, 3.08279414E-06, -0.0008002955, -0.01484547 , -0.01489053 , 0.000154931622, 923.587646  , 31.50553    , 775.0296    , 1.01        , 3           , 1           , 0           , 0
-0.1491797  , 0.139486149 , -9.79511    , 0.0003035645, 0.000293380755, -0.000674249255, -0.0148423361, -0.0148876971, 0.000148145758, 923.587646  , 31.50553    , 775.029663  , 1.02        , 3           , 2           , 0           , 0
-0.143972173, 0.1359767   , -9.794536   , -3.365398E-05, 0.000254426152, 0.00018632524, -0.0148426993, -0.0148851238, 0.0001499712, 923.556     , 31.5079041  , 775.0297    , 1.03        , 3           , 3           , 0           , 0
-0.1462112  , 0.136465043 , -9.797893   , -5.15158172E-05, -0.0002688264, 0.0009149938, -0.0148433493, -0.0148876784, 0.000159160816, 923.556     , 31.5079041  , 775.0298    , 1.04        , 3           , 4           , 0           , 0
-0.148112386, 0.135782883 , -9.792593   , 6.566808E-05, -0.00016650316, -0.000101641315, -0.01484268 , -0.0148893567, 0.000158169132, 923.556     , 31.5079041  , 775.029846  , 1.05        , 3           , 5           , 0           , 0
-0.142411262, 0.133547068 , -9.787615   , 0.0007898903, 5.60135231E-05, -0.000437807641, -0.0148347141, -0.0148888621, 0.000153782865, 923.556     , 31.5079041  , 775.0299    , 1.06        , 3           , 6           , 0           , 0
-0.143771544, 0.1448431   , -9.794555   , 0.00024696553, 0.000159843461, 0.000143193392, -0.0148322657, -0.0148872407, 0.000155191054, 923.556     , 31.5079041  , 775.029968  , 1.07        , 3           , 7           , 0           , 0
-0.144658074, 0.155834481 , -9.797875   , -6.917224E-06, 7.48728344E-05, -0.00113142631, -0.014832166, -0.0148866624, 0.000143865953, 923.556     , 31.5079041  , 775.03      , 1.08        , 3           , 8           , 5           , 5
-0.136646926, 0.152221411 , -9.791064   , -0.000344798784, 0.000214669853, -2.94465171E-05, -0.0148356091, -0.01488452 , 0.000143539641, 923.556     , 31.5079041  , 775.0301    , 1.09        , 3           , 9           , 5           , 0.1
-0.140577987, 0.149812669 , -9.787603   , -0.000138096279, -0.000111958449, 0.000140475357, -0.0148370108, -0.0148856193, 0.000144960984, 923.556     , 31.5079041  , 775.030151  , 1.1         , 3           , 10          , 0.1         , 0.1
-0.1460102  , 0.1512609   , -9.789203   , 0.000395846873, -0.000115479896, 0.000210155325, -0.0148260845, -0.0148801748, 0.000146975464, 923.556     , 31.5079041  , 775.034241  , 1.11        , 3           , 11          , 0.009292192 , 0.009292192
-0.143245578, 0.149818435 , -9.791461   , 0.00041860668, 0.000229982368, -0.000475910521, -0.0148218274, -0.0148779489, 0.0001421824, 923.556     , 31.5079041  , 775.0343    , 1.12        , 3           , 12          , 0.174642846 , 0
-0.151275784, 0.150724277 , -9.783876   , 3.5488396E-05, 0.0004352406, 0.000162382436, -0.0148214977, -0.0148735708, 0.000143741679, 923.562561  , 31.51089    , 775.0344    , 1.13        , 3           , 13          , 0           , 0
-0.143386289, 0.154493719 , -9.78742    , -0.0003676279, 0.000247989752, -0.0009341338, -0.014825034, -0.0148712331, 0.0001343638, 923.562561  , 31.51089    , 775.034546  , 1.14        , 3           , 14          , -0.0006142428, -0.000399900629
-0.147854537, 0.146877766 , -9.791642   , 1.37480674E-05, -2.79830419E-05, -0.000174673885, -0.01482487 , -0.0148715368, 0.000132621237, 923.562561  , 31.51089    , 775.034668  , 1.15        , 3           , 15          , 0           , 3.815817E-05
-0.1424168  , 0.138491675 , -9.796541   , -7.288315E-05, -4.722865E-05, -6.977275E-05, -0.0148255881, -0.0148720192, 0.00013193053, 923.562561  , 31.51089    , 775.0348    , 1.16        , 3           , 16          , 0           , 1.401298E-45
-0.147606164, 0.133847237 , -9.791168   , 0.000175343361, 0.00011969122, -9.685184E-05, -0.0148238195, -0.0148708373, 0.0001309443, 923.562561  , 31.51089    , 775.0349    , 1.17        , 3           , 20          , 0           , 0
-0.145581573, 0.136265844 , -9.791353   , 0.000147966144, 0.0006028472, -0.000141531331, -0.0148223173, -0.01486483 , 0.000129439664, 923.562561  , 31.51089    , 775.035034  , 1.18        , 3           , 21          , 0           , 0
-0.1452795  , 0.142223865 , -9.79595    , 0.000235900079, 8.935464E-05, -7.293325E-05, -0.014819948, -0.01486395 , 0.0001286971, 923.562561  , 31.51089    , 775.035156  , 1.19        , 3           , 22          , 0           , 0
-0.140886143, 0.148499876 , -9.799721   , 5.97352628E-05, 0.000285206479, -0.0005029944, -0.0148192756, -0.0148611711, 0.00012362501, 923.562561  , 31.51089    , 775.0353    , 1.2         , 3           , 40          , 0           , 0
-0.1440504  , 0.143653736 , -9.79478    , 0.000429864536, -0.000187476253, -0.0002888627, -0.0148151638, -0.01486222 , 0.000120767654, 923.562561  , 31.51089    , 775.0321    , 1.21        , 3           , 41          , 0           , 0
-0.146087527, 0.1498301   , -9.798182   , -0.000174502435, -0.0004457692, 0.00123765063, -0.0148170944, -0.0148664974, 0.0001332099, 923.562561  , 31.51089    , 775.0322    , 1.22        , 3           , 42          , 0           , 0
-0.150944486, 0.149482518 , -9.785423   , 0.000143497833, -0.00013376851, 0.000263707771, -0.0148156974, -0.0148677928, 0.000135866736, 923.584534  , 31.5103455  , 775.032349  , 1.23        , 3           , 255         , 0           , 0
-0.144895524, 0.135301769 , -9.792212   , 0.0005299232, -0.000170600164, -0.000425402453, -0.0148103358, -0.0148695614, 0.00013163808, 923.584534  , 31.5103455  , 775.0325    , 1.24        , 3           , 255         , 0           , 0
-0.144201875, 0.143820614 , -9.8034     , 0.000101338723, -7.555989E-05, -0.000379179284, -0.0148092667, -0.0148703726, 0.000127857566, 923.584534  , 31.5103455  , 775.0326    , 1.25        , 3           , 255         , 0           , 0
-0.147198126, 0.145105615 , -9.79711    , 0.000303764769, 0.000172690648, 7.931153E-05, -0.0148062408, -0.0148686348, 0.0001286251, 923.584534  , 31.5103455  , 775.0327    , 1.26        , 3           , 255         , 0           , 0
-0.143819869, 0.139857084 , -9.79241    , 0.000150051317, 0.000311955839, 0.00109734852, -0.0148049025, -0.0148653537, 0.000139552139, 923.584534  , 31.5103455  , 775.032837  , 1.27        , 3           , 255         , 0           , 0
-0.143916681, 0.143764809 , -9.78576851 , -5.479582E-05, 0.000173375447, 0.000398854318, -0.0148055106, -0.0148635618, 0.000143514917, 923.584534  , 31.5103455  , 775.032959  , 1.28        , 3           , 255         , 0           , 0
-0.154294148, 0.133190185 , -9.78227    , -0.000219257374, -0.0006762218, -3.26294648E-05, -0.0148076983, -0.014870326, 0.000143288766, 923.584534  , 31.5103455  , 775.0331    , 1.29        , 3           , 255         , 0           , 0
-0.1511955  , 0.146498889 , -9.78974    , 6.37163757E-05, -0.000321647472, 0.00025486364, -0.0148070995, -0.0148735046, 0.000145884958, 923.584534  , 31.5103455  , 775.0332    , 1.3         , 3           , 255         , 0           , 0
-0.146402568, 0.1525046   , -9.79733849 , 0.000321922475, -0.000213528634, 0.000444981444, -0.0147983208, -0.0148796253, 0.000150282562, 923.584534  , 31.5103455  , 775.0076    , 1.31        , 3           , 255         , 0           , 0
-0.147166371, 0.1475655   , -9.791346   , -6.967352E-05, 0.000105058542, 6.795756E-05, -0.0147990268, -0.0148785645, 0.000150946566, 923.584534  , 31.5103455  , 775.0076    , 1.32        , 3           , 255         , 0           , 0
-0.145548046, 0.157487988 , -9.789154   , 0.000215970125, -0.000117535586, -0.000340104249, -0.0147968158, -0.01487979 , 0.000147563027, 923.563965  , 31.5137386  , 775.0076    , 1.33        , 3           , 255         , 0           , 0
-0.1398931  , 0.1365916   , -9.776001   , 0.00048649474, 0.000194275257, 0.000359625235, -0.0147920046, -0.0148777943, 0.000151130429, 923.563965  , 31.5137386  , 775.0076    , 1.34        , 3           , 255         , 0           , 0
-0.149934262, 0.1422872   , -9.784047   , 0.000131056557, 0.000116644165, 0.0007370765, -0.0147908041, -0.0148765221, 0.000158483788, 923.563965  , 31.5137386  , 775.0076    , 1.35        , 3           , 255         , 0           , 0
-0.140632749, 0.143696219 , -9.795792   , -0.000215368869, -9.429653E-05, 0.00116828713, -0.0147931315, -0.01487729 , 0.000170180327, 923.563965  , 31.5137386  , 775.0076    , 1.36        , 3           , 255         , 0           , 0
-0.1440815  , 0.1491829   , -9.798893   , -0.000173881184, -0.0005376945, 0.0002918471, -0.014794915, -0.0148826251, 0.000173178269, 923.563965  , 31.5137386  , 775.0076    , 1.37        , 3           , 255         , 0           , 0
-0.142689943, 0.1552436   , -9.798866   , -7.441442E-06, -0.000132759626, 0.000248063647, -0.0147950267, -0.014883914, 0.000175678491, 923.563965  , 31.5137386  , 775.0076    , 1.38        , 3           , 255         , 0           , 0
-0.139114738, 0.152419776 , -9.789255   , -0.0002145379, 0.000416343857, 0.000201877308, -0.0147972  , -0.0148797221, 0.000177635622, 923.563965  , 31.5137386  , 775.0077    , 1.39        , 3           , 255         , 0           , 0
-0.1333415  , 0.148028016 , -9.793089   , -0.000663242, 2.6771304E-05, 0.0005528338, -0.0148039153, -0.0148793729, 0.000183159864, 923.563965  , 31.5137386  , 775.007751  , 1.4         , 3           , 255         , 0           , 0
-0.1417276  , 0.149100542 , -9.794106   , 0.0002568215, -0.000136305025, 3.11014228E-05, -0.0148120373, -0.0148725258, 0.000183649958, 923.563965  , 31.5137386  , 775.006042  , 1.41        , 3           , 255         , 0           , 0
-0.1453043  , 0.144607514 , -9.798063   , 0.0004347349, -2.727512E-05, 0.0005199601, -0.0148077672, -0.0148727214, 0.00018885349, 923.563965  , 31.5137386  , 775.006042  , 1.42        , 3           , 255         , 0           , 0
-0.143434078, 0.143147543 , -9.801211   , 4.2019703E-05, 0.000483898039, 0.000673635048, -0.0148074459, -0.0148677835, 0.00019551802, 923.592     , 31.5142136  , 775.0061    , 1.43        , 3           , 255         , 0           , 0
-0.153205946, 0.135608822 , -9.800348   , 0.00061112683, -0.000124109822, 0.00106136152, -0.0148014948, -0.0148688685, 0.000206149751, 923.592     , 31.5142136  , 775.006165  , 1.44        , 3           , 255         , 0           , 0
-0.1413058  , 0.137569934 , -9.790896   , 0.0005981924, -0.000142327888, 0.00011446017, -0.0147955306, -0.0148702748, 0.000207315417, 923.592     , 31.5142136  , 775.0062    , 1.45        , 3           , 255         , 0           , 0
-0.140713543, 0.147624731 , -9.79019    , 0.00100531057, -0.000201583054, -0.000288922, -0.0147854351, -0.0148723312, 0.000204456053, 923.592     , 31.5142136  , 775.0063    , 1.46        , 3           , 255         , 0           , 0
-0.146130174, 0.144488722 , -9.786263   , 0.000882018358, 6.72286551E-05, 8.906209E-06, -0.0147766154, -0.0148716578, 0.000204535187, 923.592     , 31.5142136  , 775.006348  , 1.47        , 3           , 255         , 0           , 0
-0.141091347, 0.142817244 , -9.79347    , -0.0005751784, -0.000151647575, 4.840242E-05, -0.0147823729, -0.0148731666, 0.0002050416, 923.592     , 31.5142136  , 775.0064    , 1.48        , 3           , 255         , 0           , 0
-0.1365903  , 0.143970981 , -9.79214    , 0.000146751932, 0.000209002639, -0.000236120439, -0.01478087 , -0.0148711121, 0.000202649549, 923.592     , 31.5142136  , 775.0065    , 1.49        , 3           , 255         , 0           , 0
-0.144290522, 0.146253482 , -9.793715   , 0.000239485176, 0.0003099945, -0.000466280355, -0.0147784054, -0.0148680815, 0.000197941044, 923.592     , 31.5142136  , 775.006531  , 1.5         , 3           , 255         , 0           , 0
-0.141594067, 0.142111436 , -9.793935   , 0.000317891478, -3.85150779E-05, 4.985017E-05, -0.0147718471, -0.01486303 , 0.00019839489, 923.592     , 31.5142136  , 774.975647  , 1.51        , 3           , 255         , 0           , 0
-0.137903288, 0.152043909 , -9.79554    , 0.000345428765, 3.52123752E-05, 4.109407E-05, -0.0147684  , -0.0148626706, 0.000198800612, 923.592     , 31.5142136  , 774.9755    , 1.52        , 3           , 255         , 0           , 0
-0.145607427, 0.141809076 , -9.793331   , 0.0008180656, 0.0004402251, -0.000597402, -0.0147601292, -0.0148583595, 0.000192761727, 923.568054  , 31.51245    , 774.9754    , 1.53        , 3           , 255         , 0           , 0
-0.144286543, 0.151991442 , -9.791101   , 0.000152491848, 0.000383333972, -0.0002547282, -0.0147585645, -0.0148545634, 0.000190157953, 923.568054  , 31.51245    , 774.9753    , 1.54        , 3           , 255         , 0           , 0
-0.1438838  , 0.156103417 , -9.792896   , 0.00033295725, -9.974552E-05, 0.0001909128, -0.0147552649, -0.0148555329, 0.00019208173, 923.568054  , 31.51245    , 774.975159  , 1.55        , 3           , 255         , 0           , 0
-0.142426684, 0.15065442  , -9.790906   , -5.55668958E-05, -0.0002582976, 2.06983532E-06, -0.0147558209, -0.0148581127, 0.000192140549, 923.568054  , 31.51245    , 774.9751    , 1.56        , 3           , 255         , 0           , 0
-0.15326795 , 0.137644559 , -9.787466   , -0.000165179837, -8.444767E-06, -0.000337255449, -0.0147574218, -0.0148582468, 0.000188769322, 923.568054  , 31.51245    , 774.975037  , 1.57        , 3           , 255         , 0           , 0
-0.150900692, 0.145997137 , -9.798399   , 0.000374689727, 0.000126727187, -0.000681485748, -0.0147535745, -0.01485708 , 0.000181935917, 923.568054  , 31.51245    , 774.975     , 1.58        , 3           , 255         , 0           , 0
-0.143513754, 0.148338586 , -9.794939   , -0.000424529426, -6.82097743E-06, -0.000261427136, -0.01475778 , -0.0148571869, 0.000179322713, 923.568054  , 31.51245    , 774.9749    , 1.59        , 3           , 255         , 0           , 0
-0.146497458, 0.139964327 , -9.800301   , 0.000246843119, -4.735519E-05, 4.87503276E-05, -0.0147553189, -0.0148576535, 0.0001798172, 923.568054  , 31.51245    , 774.974854  , 1.6         , 3           , 255         , 0           , 0
-0.142398745, 0.1459827   , -9.787923   , 0.000174184446, -0.000238105917, 7.386058E-05, -0.0147585766, -0.0148587869, 0.00018066504, 923.568054  , 31.51245    , 774.9723    , 1.61        , 3           , 255         , 0           , 0
-0.1531575  , 0.140764564 , -9.794893   , -2.18595378E-05, -0.000187327125, 0.000115693547, -0.0147588132, -0.0148606431, 0.000181849609, 923.568054  , 31.51245    , 774.972168  , 1.62        , 3           , 255         , 0           , 0
-0.143985644, 0.142087862 , -9.783876   , -0.000115096511, 2.38548964E-05, -0.0007261176, -0.0147598572, -0.0148605118, 0.00017458506, 923.569153  , 31.51089    , 774.9721    , 1.63        , 3           , 255         , 0           , 0
-0.142545536, 0.146368518 , -9.79461    , -0.0001971632, 1.80317729E-05, -0.000203098709, -0.0147618  , -0.0148603609, 0.000172551474, 923.569153  , 31.51089    , 774.972046  , 1.64        , 3           , 255         , 0           , 0
-0.1525855  , 0.1591263   , -9.793425   , -0.000284146285, 0.000309062423, 6.07426337E-05, -0.01476465 , -0.0148572614, 0.000173113265, 923.569153  , 31.51089    , 774.972     , 1.65        , 3           , 255         , 0           , 0
-0.141914174, 0.158595636 , -9.7927475  , -0.000478650967, 0.000209024234, -0.000251827762, -0.0147693977, -0.01485521 , 0.000170564163, 923.569153  , 31.51089    , 774.9719    , 1.66        , 3           , 255         , 0           , 0
-0.144187227, 0.157371819 , -9.795122   , 0.000416553841, -9.737618E-06, 6.557534E-05, -0.014765243, -0.0148552964, 0.000171221356, 923.569153  , 31.51089    , 774.971863  , 1.67        , 3           , 255         , 0           , 0
-0.1458225  , 0.150866717 , -9.796061   , -1.77979819E-05, -0.00040796792, 4.99289381E-05, -0.0147654284, -0.0148593681, 0.000171780863, 923.569153  , 31.51089    , 774.9718    , 1.68        , 3           , 255         , 0           , 0
-0.143228456, 0.1459178   , -9.792734   , 0.0002810812, -1.12186535E-05, 0.0003667174, -0.0147626717, -0.0148594258, 0.0001754496, 923.569153  , 31.51089    , 774.971741  , 1.69        , 3           , 255         , 0           , 0
-0.143744618, 0.148867935 , -9.790478   , -0.0002933903, 1.07119267E-05, 0.0005266484, -0.0147656836, -0.0148592405, 0.000180714385, 923.569153  , 31.51089    , 774.9717    , 1.7         , 3           , 255         , 0           , 0
-0.148701757, 0.133917034 , -9.798245   , 0.000188327336, -0.000491441344, 5.19787827E-05, -0.01477661 , -0.0148637192, 0.000181496987, 923.569153  , 31.51089    , 774.9682    , 1.71        , 3           , 255         , 0           , 0
-0.142182037, 0.1327007   , -9.800325   , -0.000140659045, -0.000148028048, -0.000173426335, -0.01477799 , -0.0148652252, 0.000179784634, 923.569153  , 31.51089    , 774.9681    , 1.72        , 3           , 255         , 0           , 0
-0.14458622 , 0.133744448 , -9.802714   , 0.000184460136, -0.0003254287, -5.03645351E-05, -0.0147761395, -0.0148684867, 0.000179329087, 923.6093    , 31.5150948  , 774.968     , 1.73        , 3           , 255         , 0           , 0
-0.152838081, 0.1342587   , -9.794629   , 8.88793147E-05, -0.000121182849, 0.0005132407, -0.0147753265, -0.014869621, 0.0001844793, 923.6093    , 31.5150948  , 774.967957  , 1.74        , 3           , 255         , 0           , 0
-0.147251591, 0.138958573 , -9.782184   , 0.0003089363, -0.00014772985, -0.000250633864, -0.014772201, -0.0148711363, 0.000181994852, 923.6093    , 31.5150948  , 774.9679    , 1.75        , 3           , 255         , 0           , 0
-0.147566512, 0.1451767   , -9.795733   , -0.00034088036, 0.000343642721, -0.000299891544, -0.014775564, -0.0148677444, 0.000178945222, 923.6093    , 31.5150948  , 774.967834  , 1.76        , 3           , 255         , 0           , 0
-0.142450392, 0.1456978   , -9.793832   , 7.29710446E-05, 0.000109591754, -0.0001623323, -0.0147748115, -0.0148666725, 0.000177305745, 923.6093    , 31.5150948  , 774.9678    , 1.77        , 3           , 255         , 0           , 0
-0.148544863, 0.150205255 , -9.792098   , 0.000182155636, -7.346636E-05, 0.000254344137, -0.0147730261, -0.01486737 , 0.000179859984, 923.6093    , 31.5150948  , 774.9677    , 1.78        , 3           , 255         , 0           , 0
-0.148264721, 0.153716087 , -9.790958   , -0.000462467782, 8.870414E-05, 0.000333651376, -0.0147777  , -0.0148664331, 0.000183183292, 923.6093    , 31.5150948  , 774.967651  , 1.79        , 3           , 255         , 0           , 0
-0.1361093  , 0.163963482 , -9.797136   , -4.78671864E-05, -0.000183020864, 0.0002937458, -0.0147782229, -0.0148682185, 0.000186147721, 923.6093    , 31.5150948  , 774.9676    , 1.8         , 3           , 255         , 0           , 0
-0.138720348, 0.149701327 , -9.795617   , 0.000249442761, 0.00010639659, -4.072636E-05, -0.0147725856, -0.014867519, 0.000185678131, 923.6093    , 31.5150948  , 774.9192    , 1.81        , 3           , 255         , 0           , 0
-0.153049946, 0.1543876   , -9.794141   , 8.694874E-05, 0.000385779975, 0.000315126817, -0.0147717623, -0.01486362 , 0.000188772334, 923.6093    , 31.5150948  , 774.9188    , 1.82        , 3           , 255         , 0           , 0
-0.152669415, 0.159710437 , -9.797196   , 6.635045E-05, 0.000121814111, 0.000241156959, -0.0147711346, -0.0148623632, 0.000191165862, 923.5704    , 31.5153656  , 774.918457  , 1.83        , 3           , 255         , 0           , 0
-0.142564446, 0.156606674 , -9.79297352 , 0.000957613054, 0.000186036239, -1.74345332E-05, -0.0147615569, -0.0148605043, 0.000190964027, 923.5704    , 31.5153656  , 774.9181    , 1.84        , 3           , 255         , 0           , 0
-0.137905374, 0.143373758 , -9.78283    , 0.000497378933, -2.38079811E-05, -1.1822578E-05, -0.0147565817, -0.0148607483, 0.000190849314, 923.5704    , 31.5153656  , 774.9177    , 1.85        , 3           , 255         , 0           , 0
-0.1400256  , 0.135162815 , -9.777211   , -0.0004345288, 8.83171451E-05, 0.00046654942, -0.0147609962, -0.0148597946, 0.000195501649, 923.5704    , 31.5153656  , 774.917358  , 1.86        , 3           , 255         , 0           , 0
-0.143651277, 0.13980037  , -9.79189    , -0.0003577898, 0.0002810408, -0.0007367735, -0.0147644626, -0.0148570938, 0.0001880926, 923.5704    , 31.5153656  , 774.917     , 1.87        , 3           , 255         , 0           , 0
-0.144666612, 0.13250728  , -9.79785    , -9.788998E-05, -6.611759E-05, -0.000197418238, -0.0147654125, -0.0148577839, 0.000186128222, 923.5704    , 31.5153656  , 774.9166    , 1.88        , 3           , 255         , 0           , 0
-0.146680415, 0.140946418 , -9.798941   , -4.122907E-05, -3.16675578E-05, 0.000159757241, -0.0147658484, -0.0148580773, 0.000187730446, 923.5704    , 31.5153656  , 774.91626   , 1.89        , 3           , 255         , 0           , 0
-0.144297153, 0.143360615 , -9.796898   , 0.00018695218, -0.000335304736, 1.74244269E-06, -0.0147639792, -0.0148614291, 0.00018779737, 923.5704    , 31.5153656  , 774.9159    , 1.9         , 3           , 255         , 0           , 0
-0.1357611  , 0.139407158 , -9.795869   , 0.000256025 , 2.2208842E-05, -6.83554754E-06, -0.014763861, -0.0148585113, 0.000187762023, 923.5704    , 31.5153656  , 774.917542  , 1.91        , 3           , 255         , 0           , 0
-0.137944683, 0.141607836 , -9.79153    , 0.00016950065, 7.47484155E-05, 0.0008582197, -0.0147622926, -0.0148576368, 0.000196332971, 923.5704    , 31.5153656  , 774.917236  , 1.92        , 3           , 255         , 0           , 0
-0.153659075, 0.157335073 , -9.799428   , 0.000277748273, -0.000193403859, 0.000180945455, -0.0147595415, -0.0148595441, 0.00019817095, 923.5743    , 31.5161133  , 774.916931  , 1.93        , 3           , 255         , 0           , 0
-0.144478709, 0.158645928 , -9.800024   , 0.0003996349, 6.227649E-05, -0.00033313653, -0.0147554968, -0.01485897 , 0.000194830485, 923.5743    , 31.5161133  , 774.9166    , 1.94        , 3           , 255         , 0           , 0
-0.1446164  , 0.1530436   , -9.796542   , 0.0006165545, 0.000135440059, -0.000453949673, -0.0147492643, -0.0148576833, 0.000190271108, 923.5743    , 31.5161133  , 774.9163    , 1.95        , 3           , 255         , 0           , 0
-0.148052365, 0.159392565 , -9.79431    , 0.000241647242, -0.00029134 , -0.000420494383, -0.0147467861, -0.014860658, 0.000186109217, 923.5743    , 31.5161133  , 774.916     , 1.96        , 3           , 255         , 0           , 0
-0.1455439  , 0.147581    , -9.789194   , 0.000352932868, -0.000100306934, -0.000258257554, -0.0147432173, -0.0148617029, 0.000183541517, 923.5743    , 31.5161133  , 774.9157    , 1.97        , 3           , 255         , 0           , 0
-0.14977482 , 0.141362518 , -9.794919   , 0.000230913749, 4.68082435E-05, -0.00041494568, -0.0147408461, -0.0148612931, 0.000179385243, 923.5743    , 31.5161133  , 774.9154    , 1.98        , 3           , 255         , 0           , 0
-0.143546313, 0.140883774 , -9.794359   , 0.0006874498, -9.511656E-05, -9.582761E-05, -0.01473396 , -0.0148622589, 0.000178441027, 923.5743    , 31.5161133  , 774.9151    , 1.99        , 3           , 255         , 0           , 0
-0.136368   , 0.144285128 , -9.799927   , 0.0002698966, 4.0246814E-05, -9.116174E-05, -0.014731247, -0.01486187 , 0.0001775235, 923.5743    , 31.5161133  , 774.9148    , 2           , 3           , 0           , 7.45423651  , 200
-0.136082053, 0.14051     , -9.790161   , 0.0003875567, -0.000394342758, -0.00055425067, -0.0147347115, -0.01486281 , 0.000172149521, 923.5743    , 31.5161133  , 774.9121    , 2.01        , 3           , 1           , 0           , 0
-0.142779469, 0.138650745 , -9.792824   , -0.000421213452, -6.274984E-05, -9.867946E-05, -0.014738909, -0.0148634519, 0.000171172 , 923.5743    , 31.5161133  , 774.9118    , 2.02        , 3           , 2           , 0           , 0
-0.138311   , 0.146619529 , -9.788451   , -0.0003712523, -0.0002551807, 0.000349091162, -0.0147426734, -0.0148659525, 0.000174700443, 923.5897    , 31.5164528  , 774.9115    , 2.03        , 3           , 3           , 0           , 0
-0.144019842, 0.146449119 , -9.789441   , -0.000212973973, 1.33988215E-05, -0.00016794863, -0.0147447791, -0.0148658426, 0.000173019 , 923.5897    , 31.5164528  , 774.9112    , 2.04        , 3           , 4           , 0           , 0
-0.150819331, 0.137927249 , -9.796968   , -0.000112496433, 0.00022829033, -9.58622E-05, -0.0147458883, -0.0148635749, 0.000172026746, 923.5897    , 31.5164528  , 774.9109    , 2.05        , 3           , 5           , 0           , 0
-0.141556457, 0.151213    , -9.799713   , -0.000233385945, 9.097782E-05, -0.0003300738, -0.0147481747, -0.0148627134, 0.000168712679, 923.5897    , 31.5164528  , 774.9106    , 2.06        , 3           , 6           , 0           , 0
-0.136514753, 0.151887923 , -9.78276    , -0.000136399991, -0.000307959155, 9.405864E-05, -0.0147495512, -0.0148657765, 0.000169698644, 923.5897    , 31.5164528  , 774.9103    , 2.07        , 3           , 7           , 0           , 0
-0.150480986, 0.148217931 , -9.793657   , 0.0003596415, -0.00016424479, -0.0003982714, -0.0147458967, -0.0148674781, 0.000165740246, 923.5897    , 31.5164528  , 774.91      , 2.08        , 3           , 8           , 5           , 5
-0.144964844, 0.1462387   , -9.79579449 , 0.0002831142, 0.000235332685, 0.000545515737, -0.0147431465, -0.0148650445, 0.0001711606, 923.5897    , 31.5164528  , 774.909668  , 2.09        , 3           , 9           , 5           , 0.1
-0.137836367, 0.146070033 , -9.792059   , 0.000203105563, 0.000143556914, -0.000236232969, -0.01474108 , -0.0148636466, 0.000168777158, 923.5897    , 31.5164528  , 774.909363  , 2.1         , 3           , 10          , 0.1         , 0.1
-0.141547173, 0.142883509 , -9.789865   , 0.000141889526, 8.70219956E-05, 0.000397985743, -0.0147420317, -0.01485505 , 0.000172778426, 923.5897    , 31.5164528  , 774.8885    , 2.11        , 3           , 11          , 0.008220997 , 0.008220996
-0.1417416  , 0.147182792 , -9.792586   , 0.000627263158, -0.00013008315, 2.484378E-05, -0.014735763, -0.0148563469, 0.000173046 , 923.5897    , 31.5164528  , 774.888062  , 2.12        , 3           , 12          , 0.174643889 , 0
-0.137313753, 0.136629745 , -9.792822   , 0.000131587964, 0.000123071513, -0.0006583814, -0.0147343483, -0.0148552135, 0.000166444239, 923.5558    , 31.5171986  , 774.887634  , 2.13        , 3           , 13          , 0           , 0
-0.141354889, 0.14107585  , -9.787582   , -5.01841423E-05, -0.000156065827, -0.0001460087, -0.0147348279, -0.0148567958, 0.000165007179, 923.5558    , 31.5171986  , 774.8872    , 2.14        , 3           , 14          , -0.000614175166, -0.000399959943
-0.140168279, 0.146818355 , -9.79534    , 6.33887248E-05, -0.000226980977, -0.000765745353, -0.014734081, -0.0148591781, 0.000157383343, 923.5558    , 31.5171986  , 774.8868    , 2.15        , 3           , 15          , 0           , 3.81562859E-05
-0.141235068, 0.135696486 , -9.792685   , 0.000138536678, 0.000237168133, -0.000205051343, -0.0147326654, -0.0148568368, 0.000155297952, 923.5558    , 31.5171986  , 774.886353  , 2.16        , 3           , 16          , 0           , 1.401298E-45
-0.150357619, 0.132228583 , -9.791629   , -0.000108271313, -8.93531542E-05, 0.000354203 , -0.0147338007, -0.0148576777, 0.000158853043, 923.5558    , 31.5171986  , 774.8859    , 2.17        , 3           , 20          , 0           , 0
-0.147133112, 0.1415514   , -9.786453   , -4.82308678E-05, 1.962349E-05, 0.00043562  , -0.0147343474, -0.0148574179, 0.000163206263, 923.5558    , 31.5171986  , 774.8855    , 2.18        , 3           , 21          , 0           , 0
-0.153823614, 0.15557     , -9.791089   , 0.0001999492, 0.000235061991, -6.809222E-05, -0.0147323376, -0.0148550812, 0.000162490731, 923.5558    , 31.5171986  , 774.8851    , 2.19        , 3           , 22          , 0           , 0
-0.155807182, 0.158011064 , -9.803565   , -0.000235016574, -0.000405732222, 8.882028E-05, -0.0147347  , -0.0148591232, 0.000163438686, 923.5558    , 31.5171986  , 774.884644  , 2.2         , 3           , 40          , 0           , 0
-0.147686   , 0.15794827  , -9.796748   , 3.20767867E-05, -0.000492729247, 3.75110358E-05, -0.01473318 , -0.0148629621, 0.000163868448, 923.5558    , 31.5171986  , 774.909241  , 2.21        , 3           , 41          , 0           , 0
-0.135096222, 0.148648575 , -9.788474   , 0.000261408131, 0.000304932124, -0.0003673421, -0.0147305112, -0.014859966, 0.000160150186, 923.5558    , 31.5171986  , 774.909     , 2.22        , 3           , 42          , 0           , 0
-0.144497961, 0.1501789   , -9.786701   , 0.0004640783, 0.000247559859, 0.000358522782, -0.0147259235, -0.0148574384, 0.000163698875, 923.5618    , 31.5182152  , 774.908752  , 2.23        , 3           , 255         , 0           , 0
-0.14196381 , 0.149745971 , -9.7918     , 0.000111332047, -0.000314153585, 0.0005370739, -0.0147248907, -0.0148605  , 0.000169115752, 923.5618    , 31.5182152  , 774.9085    , 2.24        , 3           , 255         , 0           , 0
-0.143489152, 0.155152485 , -9.791319   , -0.000752196531, -0.000210663857, 0.000182652846, -0.0147324409, -0.01486258 , 0.000170973275, 923.5618    , 31.5182152  , 774.908264  , 2.25        , 3           , 255         , 0           , 0
-0.148106754, 0.152089164 , -9.79501152 , -0.000225013471, -0.000470111234, -0.000386156084, -0.0147346333, -0.0148673356, 0.000167181046, 923.5618    , 31.5182152  , 774.908     , 2.26        , 3           , 255         , 0           , 0
-0.14150995 , 0.150310546 , -9.803617   , -0.0007675532, -0.0001270698, -0.000303890818, -0.0147422645, -0.01486865 , 0.000164160927, 923.5618    , 31.5182152  , 774.9078    , 2.27        , 3           , 255         , 0           , 0
-0.142770931, 0.143657565 , -9.796028   , -0.0001487793, 0.000184459917, -5.48649477E-05, -0.0147437444, -0.0148668149, 0.0001635851, 923.5618    , 31.5182152  , 774.907532  , 2.28        , 3           , 255         , 0           , 0
-0.146427989, 0.138447568 , -9.795008   , -0.0001187732, -0.000189422717, -0.000109652741, -0.0147449151, -0.0148687214, 0.0001625165, 923.5618    , 31.5182152  , 774.9073    , 2.29        , 3           , 255         , 0           , 0
-0.142864838, 0.140945554 , -9.796888   , -3.48967733E-05, -0.000140239863, -0.000136058, -0.0147452438, -0.0148701435, 0.000161176635, 923.5618    , 31.5182152  , 774.907043  , 2.3         , 3           , 255         , 0           , 0
-0.142378181, 0.134254128 , -9.7966795  , -0.000249547244, 0.00024741306, -0.000172993168, -0.0147564942, -0.0148634557, 0.000159540781, 923.5618    , 31.5182152  , 774.921448  , 2.31        , 3           , 255         , 0           , 0
-0.15163064 , 0.138552576 , -9.794195   , -0.000131621491, -0.0002941473, -0.0005606259, -0.0147577263, -0.01486648 , 0.00015397805, 923.5618    , 31.5182152  , 774.9213    , 2.32        , 3           , 255         , 0           , 0
-0.141826674, 0.150037333 , -9.7889     , -0.000245187024, -0.0005193091, 0.000468205719, -0.0147602484, -0.0148716019, 0.000158736642, 923.5153    , 31.5162487  , 774.9212    , 2.33        , 3           , 255         , 0           , 0
-0.141421825, 0.143646941 , -9.79919    , -0.000163984951, -0.00019935309, 0.000368817942, -0.0147619443, -0.014873541, 0.000162454147, 923.5153    , 31.5162487  , 774.9211    , 2.34        , 3           , 255         , 0           , 0
-0.15236564 , 0.15550603  , -9.795347   , 0.000154847017, 0.000355047261, -0.000456780137, -0.0147603266, -0.0148700569, 0.00015783406, 923.5153    , 31.5162487  , 774.920959  , 2.35        , 3           , 255         , 0           , 0
-0.151698872, 0.157348186 , -9.795996   , 0.0005789142, 5.05966E-05 , -0.000475055, -0.0147544648, -0.01486962 , 0.000153076151, 923.5153    , 31.5162487  , 774.920837  , 2.36        , 3           , 255         , 0           , 0
-0.137935445, 0.149605513 , -9.793928   , 0.0003930462, 8.420812E-05, -0.000593698758, -0.0147504471, -0.0148688694, 0.000147126892, 923.5153    , 31.5162487  , 774.9207    , 2.37        , 3           , 255         , 0           , 0
-0.147902653, 0.148171768 , -9.788313   , 2.321048E-05, -0.000267716532, 0.0003070708, -0.0147502627, -0.0148715  , 0.000150237014, 923.5153    , 31.5162487  , 774.9206    , 2.38        , 3           , 255         , 0           , 0
-0.145542547, 0.1483788   , -9.788506   , -0.000104128383, -0.000211051432, -0.000116712436, -0.0147512872, -0.0148736276, 0.000149101033, 923.5153    , 31.5162487  , 774.9205    , 2.39        , 3           , 255         , 0           , 0
-0.147257239, 0.149626076 , -9.790151   , 2.89945747E-05, -4.744524E-05, 8.412771E-05, -0.01475101 , -0.0148740895, 0.000149949308, 923.5153    , 31.5162487  , 774.920349  , 2.4         , 3           , 255         , 0           , 0
-0.149685636, 0.151529372 , -9.794675   , 0.000351319672, 9.586505E-05, -0.000597156934, -0.0147535112, -0.0148739032, 0.0001440545, 923.5153    , 31.5162487  , 774.994568  , 2.41        , 3           , 255         , 0           , 0
-0.146981075, 0.152543187 , -9.798248   , 0.0004762975, -0.000284115144, -1.2002758E-05, -0.0147487475, -0.0148767456, 0.000143976373, 923.5153    , 31.5162487  , 774.994934  , 2.42        , 3           , 255         , 0           , 0
-0.148022234, 0.150312766 , -9.798733   , -0.000272739038, -2.57024076E-05, 0.000364390115, -0.0147515284, -0.0148769487, 0.00014762397, 923.590332  , 31.5171986  , 774.9953    , 2.43        , 3           , 255         , 0           , 0
-0.148891911, 0.158372521 , -9.79574    , -0.000183611, -6.98565855E-05, 0.000539349043, -0.0147534441, -0.0148775671, 0.000153027635, 923.590332  , 31.5171986  , 774.995667  , 2.44        , 3           , 255         , 0           , 0
-0.150662333, 0.144980848 , -9.792383   , 0.0004594369, -7.836032E-05, -0.000135967392, -0.01474883 , -0.0148783708, 0.00015167956, 923.590332  , 31.5171986  , 774.996033  , 2.45        , 3           , 255         , 0           , 0
-0.151892349, 0.144592315 , -9.793755   , 0.000125119055, -0.00027397048, -0.0009614371, -0.0147474371, -0.0148812551, 0.000142105811, 923.590332  , 31.5171986  , 774.9964    , 2.46        , 3           , 255         , 0           , 0
-0.1543521  , 0.142739847 , -9.789034   , 0.000423436257, -0.0003105033, -2.30915375E-05, -0.0147431986, -0.0148843629, 0.0001419207, 923.590332  , 31.5171986  , 774.996765  , 2.47        , 3           , 255         , 0           , 0
-0.141994327, 0.143199861 , -9.790233   , -0.000101290178, -9.39953E-05, 0.000813881634, -0.0147443339, -0.0148851816, 0.000150073189, 923.590332  , 31.5171986  , 774.997131  , 2.48        , 3           , 255         , 0           , 0
-0.1396306  , 0.14460893  , -9.796276   , 0.000363672036, -0.000399716781, 0.000243933668, -0.0147407334, -0.0148891415, 0.0001525714, 923.590332  , 31.5171986  , 774.9975    , 2.49        , 3           , 255         , 0           , 0
-0.143777683, 0.142193943 , -9.789971   , -5.1882118E-05, -7.468162E-05, -0.0005535134, -0.0147411693, -0.01488997 , 0.000147047409, 923.590332  , 31.5171986  , 774.997864  , 2.5         , 3           , 255         , 0           , 0
-0.138562426, 0.144079626 , -9.800385   , -0.000149673491, 0.000295521342, -0.000125632025, -0.0147484941, -0.0148905981, 0.0001458346, 923.590332  , 31.5171986  , 774.962463  , 2.51        , 3           , 255         , 0           , 0
-0.149812534, 0.153254479 , -9.793073   , -0.000482393953, 2.00189243E-05, 0.0001374479, -0.0147533379, -0.0148903774, 0.000147206083, 923.590332  , 31.5171986  , 774.9626    , 2.52        , 3           , 255         , 0           , 0
-0.15671277 , 0.145354956 , -9.796119   , -0.0005106929, 7.759026E-05, 0.000338382262, -0.0147584928, -0.01488955 , 0.000150578373, 923.5547    , 31.5183525  , 774.9627    , 2.53        , 3           , 255         , 0           , 0
-0.154481024, 0.148830533 , -9.795022   , -1.24381622E-05, -0.000144204736, -5.058857E-05, -0.01475861 , -0.0148909986, 0.00015009378, 923.5547    , 31.5183525  , 774.9628    , 2.54        , 3           , 255         , 0           , 0
-0.1414741  , 0.1467494   , -9.789706   , 0.000602724 , 0.000272332516, 0.00041929193, -0.0147526478, -0.0148882139, 0.000154246431, 923.5547    , 31.5183525  , 774.962952  , 2.55        , 3           , 255         , 0           , 0
-0.148611873, 0.1569596   , -9.795484   , -8.85057962E-05, 0.0005214851, -0.0005067413, -0.0147534553, -0.0148830786, 0.0001491022, 923.5547    , 31.5183525  , 774.9631    , 2.56        , 3           , 255         , 0           , 0
-0.1451678  , 0.143787175 , -9.788088   , 0.000435517 , 0.000104500068, -0.00119805953, -0.0147489225, -0.0148822078, 0.000137106457, 923.5547    , 31.5183525  , 774.9632    , 2.57        , 3           , 255         , 0           , 0
-0.142357737, 0.142040357 , -9.787058   , -3.942009E-05, -8.836997E-05, -0.000729800842, -0.0147492075, -0.0148832  , 0.000129821667, 923.5547    , 31.5183525  , 774.9633    , 2.58        , 3           , 255         , 0           , 0
-0.149016142, 0.143354267 , -9.795957   , 0.0004473988, 0.000114588212, -0.000204316108, -0.0147447037, -0.014882084, 0.000127761654, 923.5547    , 31.5183525  , 774.96344   , 2.59        , 3           , 255         , 0           , 0
-0.150892332, 0.141735    , -9.795752   , -7.06012361E-05, -0.000145107711, 0.0006393015, -0.0147455037, -0.0148834409, 0.0001341759, 923.5547    , 31.5183525  , 774.9636    , 2.6         , 3           , 255         , 0           , 0
-0.145977139, 0.146210551 , -9.79174    , -0.0003099942, -7.82691641E-05, 2.94316742E-05, -0.0147526488, -0.0148878014, 0.000134541886, 923.5547    , 31.5183525  , 774.9811    , 2.61        , 3           , 255         , 0           , 0
-0.157072589, 0.146498919 , -9.783556   , 0.000240849826, 6.478882E-05, 0.000784936 , -0.0147503549, -0.0148870368, 0.000142381512, 923.5547    , 31.5183525  , 774.9813    , 2.62        , 3           , 255         , 0           , 0
-0.152983889, 0.145664513 , -9.791483   , 0.000947484164, 0.0003935028, 0.0002480151, -0.014740915, -0.0148830647, 0.000144803562, 923.555664  , 31.5214043  , 774.981567  , 2.63        , 3           , 255         , 0           , 0
-0.147111952, 0.145132661 , -9.792316   , 0.000844812952, 0.000327608635, 3.492099E-05, -0.0147324735, -0.0148797845, 0.0001451045, 923.555664  , 31.5214043  , 774.9818    , 2.64        , 3           , 255         , 0           , 0
-0.147478729, 0.139848575 , -9.798737   , 0.000420815282, -0.000221762428, -0.00103492057, -0.0147281112, -0.0148821566, 0.000134788177, 923.555664  , 31.5214043  , 774.982056  , 2.65        , 3           , 255         , 0           , 0
-0.152124986, 0.141738921 , -9.798127   , 0.00085006305, 0.000283983944, -0.000222193863, -0.0147195766, -0.0148793487, 0.0001325245, 923.555664  , 31.5214043  , 774.982361  , 2.66        , 3           , 255         , 0           , 0
-0.1505914  , 0.145652741 , -9.793644   , 0.0001362107, 0.0005713845, 0.0003755367, -0.014718269, -0.01487358 , 0.000136195667, 923.555664  , 31.5214043  , 774.982666  , 2.67        , 3           , 255         , 0           , 0
-0.149769872, 0.1403735   , -9.793081   , 0.0003616627, -0.00043407557, 0.000386793225, -0.0147147123, -0.0148778632, 0.000140127391, 923.555664  , 31.5214043  , 774.983     , 2.68        , 3           , 255         , 0           , 0
-0.1489425  , 0.145881891 , -9.795804   , 3.13536148E-05, -5.911209E-05, 0.000577184255, -0.014714485, -0.0148783689, 0.000145907819, 923.555664  , 31.5214043  , 774.9833    , 2.69        , 3           , 255         , 0           , 0
-0.141260773, 0.151551768 , -9.792819   , -4.16709227E-05, 0.000125020044, 6.26750261E-05, -0.01471491 , -0.01487711 , 0.000146516148, 923.555664  , 31.5214043  , 774.9836    , 2.7         , 3           , 255         , 0           , 0
-0.153268337, 0.149106517 , -9.793166   , -0.000113505637, -0.0003327675, 0.00035811658, -0.01471726 , -0.014887373, 0.0001501635, 923.555664  , 31.5214043  , 774.996948  , 2.71        , 3           , 255         , 0           , 0
-0.1517028  , 0.1526161   , -9.790877   , 0.000480910618, -0.000440128963, 0.000172330256, -0.014712479, -0.0148917492, 0.000151951535, 923.555664  , 31.5214043  , 774.9973    , 2.72        , 3           , 255         , 0           , 0
-0.150033444, 0.144875184 , -9.786122   , -0.0001160815, -0.000253637263, -0.000418312353, -0.0147135789, -0.0148943467, 0.000147805826, 923.574     , 31.5163841  , 774.9977    , 2.73        , 3           , 255         , 0           , 0
-0.148988038, 0.145687252 , -9.7916975  , -3.71619826E-05, -0.000278022024, -0.00032940862, -0.014713902, -0.0148971761, 0.000144552716, 923.574     , 31.5163841  , 774.998047  , 2.74        , 3           , 255         , 0           , 0
-0.1436837  , 0.1462597   , -9.796373   , 0.0001827194, -4.091271E-06, 7.052398E-05, -0.0147120841, -0.0148972059, 0.000145258542, 923.574     , 31.5163841  , 774.9984    , 2.75        , 3           , 255         , 0           , 0
-0.141507745, 0.146058887 , -9.788408   , 0.000104299106, -0.0003557547, -0.000366517983, -0.014710987, -0.0149008175, 0.000141645782, 923.574     , 31.5163841  , 774.9988    , 2.76        , 3           , 255         , 0           , 0
-0.14211233 , 0.14420867  , -9.792685   , 9.227777E-06, 1.6709062E-05, 0.000435554946, -0.014710959, -0.0149005866, 0.000145998783, 923.574     , 31.5163841  , 774.999146  , 2.77        , 3           , 255         , 0           , 0
-0.140867963, 0.140943125 , -9.786135   , -0.000725678168, -7.07532454E-05, -0.0001820889, -0.014718188, -0.0149013186, 0.000144188336, 923.574     , 31.5163841  , 774.9995    , 2.78        , 3           , 255         , 0           , 0
-0.136834383, 0.139253408 , -9.793952   , 0.000352220435, -0.00018838048, -4.69262523E-05, -0.0147146611, -0.0149032082, 0.0001437468, 923.574     , 31.5163841  , 774.9999    , 2.79        , 3           , 255         , 0           , 0
-0.1367539  , 0.13930136  , -9.798988   , -0.000159451854, 0.0001840939, -0.000293774123, -0.0147162089, -0.0149014117, 0.000140782024, 923.574     , 31.5163841  , 775.000244  , 2.8         , 3           , 255         , 0           , 0
-0.149938136, 0.144294649 , -9.792795   , -0.00026458432, -0.00012963402, 0.000101368816, -0.0147204632, -0.0148999039, 0.000141838536, 923.574     , 31.5163841  , 774.986145  , 2.81        , 3           , 255         , 0           , 0
-0.148752123, 0.14740181  , -9.79372    , -0.000181262789, 0.000141883065, -0.0008020765, -0.0147221573, -0.0148986029, 0.000133797046, 923.574     , 31.5163841  , 774.98645   , 2.82        , 3           , 255         , 0           , 0
-0.153369442, 0.145827264 , -9.789512   , -0.0005008321, -0.000195267115, -0.0011615433, -0.0147269918, -0.0149007244, 0.000122210637, 923.564453  , 31.5195732  , 774.986755  , 2.83        , 3           , 255         , 0           , 0
-0.147517577, 0.143903121 , -9.791184   , -0.0005210714, -0.000562261441, 5.68054274E-05, -0.0147322118, -0.0149063384, 0.000122861486, 923.564453  , 31.5195732  , 774.987061  , 2.84        , 3           , 255         , 0           , 0
-0.147342786, 0.14770326  , -9.795023   , 4.223606E-06, 0.000130923 , -0.000362510327, -0.0147321168, -0.0149050821, 0.000119217177, 923.564453  , 31.5195732  , 774.987366  , 2.85        , 3           , 255         , 0           , 0
-0.150547534, 0.1501621   , -9.79016    , -0.0004128447, 2.3932982E-05, -0.000917861355, -0.01473611 , -0.0149049768, 0.000110035246, 923.564453  , 31.5195732  , 774.9877    , 2.86        , 3           , 255         , 0           , 0
-0.158436522, 0.150198653 , -9.793281   , 0.000271899218, 0.0004105621, -0.000103167753, -0.0147333732, -0.0149008911, 0.00010894311, 923.564453  , 31.5195732  , 774.988     , 2.87        , 3           , 255         , 0           , 0
-0.136180475, 0.144676641 , -9.79165649 , 0.0005012533, 0.00052506174, 6.004982E-05, -0.01472837 , -0.014895631, 0.000109466244, 923.564453  , 31.5195732  , 774.9883    , 2.88        , 3           , 255         , 0           , 0
-0.1452922  , 0.13956435  , -9.786498   , 0.000423723279, 0.000122673955, 0.000201531191, -0.0147241624, -0.0148943746, 0.000111463458, 923.564453  , 31.5195732  , 774.9886    , 2.89        , 3           , 255         , 0           , 0
-0.1499096  , 0.144657731 , -9.788706   , 0.000112776412, 0.0001307003, -0.000159429837, -0.0147230113, -0.01489309 , 0.000109849949, 923.564453  , 31.5195732  , 774.9889    , 2.9         , 3           , 255         , 0           , 0
-0.138608977, 0.1403767   , -9.789765   , 0.0003605393, -9.789772E-05, 0.000254129962, -0.0147228427, -0.0148999561, 0.00011245624, 923.564453  , 31.5195732  , 774.9894    , 2.91        , 3           , 255         , 0           , 0
-0.1409854  , 0.139275819 , -9.788814   , 3.22833075E-05, -0.000245974225, -1.73395656E-05, -0.0147225186, -0.0149024175, 0.00011231906, 923.564453  , 31.5195732  , 774.9897    , 2.92        , 3           , 255         , 0           , 0
-0.1403834  , 0.135551527 , -9.794081   , -0.000240919937, -0.000162003154, 0.00040523897, -0.0147249866, -0.0149039766, 0.000116395204, 923.544067  , 31.52093    , 774.99      , 2.93        , 3           , 255         , 0           , 0
-0.1482247  , 0.142398119 , -9.791761   , -0.00019713497, 0.000213291612, 0.000148412015, -0.0147269815, -0.0149018234, 0.000117847885, 923.544067  , 31.52093    , 774.9903    , 2.94        , 3           , 255         , 0           , 0
-0.1514709  , 0.145213634 , -9.788571   , 0.000138914445, 0.000254032231, -0.000241344373, -0.0147255557, -0.014899319, 0.000115397095, 923.544067  , 31.52093    , 774.9906    , 2.95        , 3           , 255         , 0           , 0
-0.150309727, 0.146319464 , -9.79238    , 0.000231468119, -4.58718569E-05, 0.0003093588, -0.0147232879, -0.0148997316, 0.000118497373, 923.544067  , 31.52093    , 774.9909    , 2.96        , 3           , 255         , 0           , 0
-0.1353781  , 0.146941558 , -9.790019   , -0.000154883543, 0.000147131388, -0.0008126422, -0.0147247147, -0.0148983812, 0.000110349472, 923.544067  , 31.52093    , 774.9912    , 2.97        , 3           , 255         , 0           , 0
-0.142581865, 0.153648764 , -9.800542   , -0.000126512081, -0.0001564059, 0.0001345741, -0.0147260008, -0.0148999253, 0.000111718211, 923.544067  , 31.52093    , 774.9915    , 2.98        , 3           , 255         , 0           , 0
-0.13966383 , 0.146444976 , -9.794357   , -0.000497890345, -0.000456777285, 0.000196819223, -0.01473101 , -0.0149044627, 0.000113753646, 923.544067  , 31.52093    , 774.9918    , 2.99        , 3           , 255         , 0           , 0
-0.138066024, 0.1430443   , -9.802786   , 7.295149E-05, 1.98627822E-06, 0.0003294812, -0.01473033 , -0.0149043938, 0.00011704809, 923.544067  , 31.52093    , 774.9921    , 3           , 3           , 0           , 8.454237    , 300
-0.13760455 , 0.150596336 , -9.787721   , -0.00011826749, 0.000234552645, 0.000225054668, -0.0147309834, -0.0148957921, 0.000119255645, 923.544067  , 31.52093    , 775.021057  , 3.01        , 3           , 1           , 0           , 0
-0.145711616, 0.149420679 , -9.78904152 , 0.000502471754, 0.000444309262, -0.0004026322, -0.0147258975, -0.0148914112, 0.000115163974, 923.544067  , 31.52093    , 775.021545  , 3.02        , 3           , 2           , 0           , 0
-0.145854712, 0.136611149 , -9.796518   , 0.000203174946, -4.0716317E-05, -0.00067030004, -0.0147237657, -0.014891915, 0.000108467124, 923.6011    , 31.5206585  , 775.022034  , 3.03        , 3           , 3           , 0           , 0
-0.142514661, 0.149628133 , -9.789066   , -0.00053146 , -0.000699131051, -0.000363159837, -0.0147290276, -0.0148989605, 0.000104938554, 923.6011    , 31.5206585  , 775.0225    , 3.04        , 3           , 4           , 0           , 0
-0.145293608, 0.150878549 , -9.792644   , -0.000297620019, -5.83686924E-05, -0.0004080029, -0.0147319427, -0.0148996022, 0.0001008672, 923.6011    , 31.5206585  , 775.023     , 3.05        , 3           , 5           , 0           , 0
-0.14289172 , 0.14866361  , -9.798917   , -0.000358795165, 0.000347340218, -0.000599689665, -0.0147354417, -0.0148962177, 9.48192537E-05, 923.6011    , 31.5206585  , 775.0235    , 3.06        , 3           , 6           , 0           , 0
-0.151340678, 0.152752236 , -9.802286   , 1.53597211E-05, 0.000312984048, 0.0006091173, -0.0147353774, -0.0148929972, 0.00010086417, 923.6011    , 31.5206585  , 775.024048  , 3.07        , 3           , 7           , 0           , 0
-0.148300558, 0.145650953 , -9.791811   , -0.000280721462, 0.000291275675, 0.000316045072, -0.0147382291, -0.0148900384, 0.00010398162, 923.6011    , 31.5206585  , 775.0246    , 3.08        , 3           , 8           , 5           , 5
-0.1418639  , 0.145392224 , -9.789728   , -7.25494465E-06, 0.0002513324, 7.691233E-06, -0.0147383036, -0.0148875238, 0.0001040215, 923.6011    , 31.5206585  , 775.025146  , 3.09        , 3           , 9           , 5           , 0.1
-0.142532185, 0.147862047 , -9.788941   , 0.000361805171, -0.0003044239, -0.000222119663, -0.0147346519, -0.0148906009, 0.0001018452, 923.6011    , 31.5206585  , 775.0257    , 3.1         , 3           , 10          , 0.1         , 0.1
-0.135427132, 0.149980336 , -9.794287   , 1.12329144E-05, 0.000134796224, 0.0003437091, -0.0147411264, -0.01488631 , 0.000105359664, 923.6011    , 31.5206585  , 774.969543  , 3.11        , 3           , 11          , 0.007453891 , 0.00745388865
-0.145088777, 0.149296492 , -9.80030251 , 0.000157702889, 0.0002046719, -6.58082354E-06, -0.01473955 , -0.0148842642, 0.000105263687, 923.6011    , 31.5206585  , 774.9697    , 3.12        , 3           , 12          , 0.174645633 , 0
-0.156316683, 0.152243763 , -9.792594   , 0.0002367663, 1.27175881E-05, 0.000338679733, -0.0147372317, -0.014884091, 0.000108648543, 923.592834  , 31.5219479  , 774.9699    , 3.13        , 3           , 13          , 0           , 0
-0.156764388, 0.14121303  , -9.780093   , 0.0002428238, -0.000130831118, 0.000616715639, -0.014734895, -0.0148853064, 0.000114834846, 923.592834  , 31.5219479  , 774.9701    , 3.14        , 3           , 14          , -0.000614036457, -0.000399948243
-0.159284383, 0.151938275 , -9.790079   , 4.84534539E-05, -0.00017841 , 0.0006028382, -0.0147345029, -0.014887   , 0.000120889374, 923.592834  , 31.5219479  , 774.9703    , 3.15        , 3           , 15          , 0           , 3.81543978E-05
-0.1436643  , 0.14551577  , -9.79617    , 0.000314452278, -0.000325699541, -0.000364382344, -0.0147313047, -0.0148903122, 0.000117293624, 923.592834  , 31.5219479  , 774.970459  , 3.16        , 3           , 16          , 0           , 1.401298E-45
-0.150974244, 0.15023534  , -9.789824   , -9.37201E-05, -4.459321E-05, 0.000133456 , -0.01473226 , -0.0148907378, 0.000118634722, 923.592834  , 31.5219479  , 774.970642  , 3.17        , 3           , 20          , 0           , 0
-0.143070817, 0.153674334 , -9.79530048 , -0.0002069525, 4.8124115E-05, 0.000425278384, -0.014734393, -0.0148901949, 0.000122880316, 923.592834  , 31.5219479  , 774.9708    , 3.18        , 3           , 21          , 0           , 0
-0.146570638, 0.148831308 , -9.783224   , 0.000205147517, -4.5169465E-05, 0.0008305657, -0.0147324651, -0.0148905236, 0.000131192428, 923.592834  , 31.5219479  , 774.971     , 3.19        , 3           , 22          , 0           , 0
-0.147321731, 0.138655    , -9.788055   , 0.000225221884, -0.000139089447, -0.000316118443, -0.0147301666, -0.0148919607, 0.000128051819, 923.592834  , 31.5219479  , 774.9712    , 3.2         , 3           , 40          , 0           , 0
-0.144069478, 0.14237465  , -9.787666   , -4.43075551E-05, 2.80558015E-06, -0.00120990758, -0.0147384657, -0.014897638, 0.000116072326, 923.592834  , 31.5219479  , 774.9342    , 3.21        , 3           , 41          , 0           , 0
-0.138301924, 0.1388425   , -9.793653   , -0.000648149638, 0.000281326647, -0.00076631573, -0.014744834, -0.0148949353, 0.000108367858, 923.592834  , 31.5219479  , 774.934143  , 3.22        , 3           , 42          , 0           , 0
-0.13823019 , 0.143229842 , -9.793959   , -0.000157293922, -5.81980566E-05, 8.432582E-05, -0.0147464192, -0.0148955053, 0.000109219684, 923.574158  , 31.5182152  , 774.9341    , 3.23        , 3           , 255         , 0           , 0
-0.1419839  , 0.1471434   , -9.800389   , -0.0006232187, -0.000428881263, 0.000128466258, -0.01475267 , -0.0148997745, 0.000110567562, 923.574158  , 31.5182152  , 774.934     , 3.24        , 3           , 255         , 0           , 0
-0.146671221, 0.153310567 , -9.800607   , -0.0002759351, -0.000308782153, 2.04295138E-05, -0.0147554334, -0.014902859, 0.000110817426, 923.574158  , 31.5182152  , 774.93396   , 3.25        , 3           , 255         , 0           , 0
-0.146006986, 0.156049341 , -9.79460049 , -1.622492E-05, -3.45900771E-05, 0.000146261678, -0.0147556178, -0.014903184, 0.000112285117, 923.574158  , 31.5182152  , 774.9339    , 3.26        , 3           , 255         , 0           , 0
-0.14823547 , 0.151418954 , -9.794568   , -0.000320587016, 0.000342209678, 0.0003811306, -0.0147588784, -0.0148997065, 0.000116045827, 923.574158  , 31.5182152  , 774.933838  , 3.27        , 3           , 255         , 0           , 0
-0.157395273, 0.147468    , -9.793624   , 0.000252144382, -0.0001593504, -0.00104171166, -0.0147562027, -0.0149014508, 0.000105652456, 923.574158  , 31.5182152  , 774.9338    , 3.28        , 3           , 255         , 0           , 0
-0.155472323, 0.140845284 , -9.7989     , 0.000246715557, 0.000105106534, -0.0005753664, -0.01475365 , -0.0149004851, 9.988342E-05, 923.574158  , 31.5182152  , 774.9337    , 3.29        , 3           , 255         , 0           , 0
-0.140846387, 0.143239379 , -9.79958248 , -0.000184210367, 0.000708127045, 4.86528952E-05, -0.0147554977, -0.0148934  , 0.000100265461, 923.574158  , 31.5182152  , 774.933655  , 3.3         , 3           , 255         , 0           , 0
-0.146182328, 0.153269023 , -9.798342   , -0.000158908835, 0.000347706373, -2.6294947E-07, -0.01475986 , -0.0148895048, 0.000100252822, 923.574158  , 31.5182152  , 774.9282    , 3.31        , 3           , 255         , 0           , 0
-0.1499771  , 0.146117046 , -9.793199   , 8.76397244E-05, -0.0002519098, 0.0003134553, -0.0147590293, -0.0148919774, 0.000103424485, 923.574158  , 31.5182152  , 774.928162  , 3.32        , 3           , 255         , 0           , 0
-0.147412568, 0.150969431 , -9.792601   , -0.000229083409, 6.135547E-05, 0.0002888708, -0.0147613641, -0.0148913218, 0.000106304069, 923.616638  , 31.5214729  , 774.9281    , 3.33        , 3           , 255         , 0           , 0
-0.149756834, 0.150114447 , -9.793637   , -0.000582076, 0.000143535755, 0.000738472969, -0.0147672938, -0.0148897767, 0.000113667433, 923.616638  , 31.5214729  , 774.92804   , 3.34        , 3           , 255         , 0           , 0
-0.150820881, 0.150321767 , -9.795436   , -0.000145457161, -0.000126903789, -0.000121283752, -0.0147687308, -0.0148910638, 0.000112473354, 923.616638  , 31.5214729  , 774.928     , 3.35        , 3           , 255         , 0           , 0
-0.149152339, 0.15694432  , -9.788533   , 0.000170774118, -0.000162736716, -4.42967576E-07, -0.0147670219, -0.0148926908, 0.000112492955, 923.616638  , 31.5214729  , 774.9279    , 3.36        , 3           , 255         , 0           , 0
-0.153829247, 0.148272678 , -9.794634   , 0.0006073186, 0.0006120021, 0.000266130926, -0.0147609878, -0.014886532, 0.000115063849, 923.616638  , 31.5214729  , 774.927856  , 3.37        , 3           , 255         , 0           , 0
-0.155158892, 0.148486942 , -9.791082   , -6.32974E-05, -0.000115429779, 9.647479E-05, -0.014761636, -0.0148876719, 0.000116045616, 923.616638  , 31.5214729  , 774.9278    , 3.38        , 3           , 255         , 0           , 0
-0.143839985, 0.146900386 , -9.7918     , 6.76060445E-05, -0.000100397534, 0.000317696016, -0.0147610074, -0.0148886293, 0.000119237324, 923.616638  , 31.5214729  , 774.927734  , 3.39        , 3           , 255         , 0           , 0
-0.146422461, 0.151297957 , -9.798065   , -0.000221560011, -5.992886E-06, 0.000230835809, -0.0147632565, -0.0148886554, 0.000121546516, 923.616638  , 31.5214729  , 774.9277    , 3.4         , 3           , 255         , 0           , 0
-0.148841515, 0.143979833 , -9.792872   , -0.000154602982, -9.253746E-05, 0.000240063586, -0.0147741428, -0.014895157, 0.000124099344, 923.616638  , 31.5214729  , 774.8631    , 3.41        , 3           , 255         , 0           , 0
-0.148937315, 0.150971085 , -9.78529549 , -0.000164439029, 0.000203667762, 0.000828827266, -0.01477591 , -0.0148929991, 0.000132357323, 923.616638  , 31.5214729  , 774.8627    , 3.42        , 3           , 255         , 0           , 0
-0.147338659, 0.147774026 , -9.793331   , 0.000303117529, -5.08755329E-06, 0.000143005658, -0.0147729  , -0.014893028, 0.000133788111, 923.5995    , 31.52025    , 774.862244  , 3.43        , 3           , 255         , 0           , 0
-0.150593951, 0.139430448 , -9.795757   , 0.000407104118, -0.000272680045, 0.0003423669, -0.0147688827, -0.0148957046, 0.000137251976, 923.5995    , 31.52025    , 774.8618    , 3.44        , 3           , 255         , 0           , 0
-0.14855431 , 0.151625484 , -9.795682   , -0.0004508081, -0.000395176437, 0.00030690874, -0.014773435, -0.0148996124, 0.000140379358, 923.5995    , 31.52025    , 774.8614    , 3.45        , 3           , 255         , 0           , 0
-0.144636154, 0.140914053 , -9.791588   , 5.434215E-05, -8.426569E-05, -0.0007328274, -0.014772783, -0.0149005633, 0.000133063717, 923.5995    , 31.52025    , 774.860962  , 3.46        , 3           , 255         , 0           , 0
-0.140136316, 0.139818    , -9.798662   , 0.000146239967, 0.0001758544, 0.0003763865, -0.0147713777, -0.0148987491, 0.000136801507, 923.5995    , 31.52025    , 774.860535  , 3.47        , 3           , 255         , 0           , 0
-0.13887009 , 0.142102659 , -9.797359   , 0.000193072687, 0.0002141092, -0.000374948664, -0.0147693912, -0.0148966638, 0.0001330205, 923.5995    , 31.52025    , 774.8601    , 3.48        , 3           , 255         , 0           , 0
-0.140486687, 0.144033045 , -9.796795   , -0.000181844691, 0.000338271726, -0.0004640333, -0.0147711392, -0.0148933493, 0.000128330284, 923.5995    , 31.52025    , 774.8597    , 3.49        , 3           , 255         , 0           , 0
-0.148787275, 0.138924733 , -9.801894   , -0.00017039571, 4.73136024E-05, -0.000174407469, -0.0147728147, -0.0148929022, 0.000126579267, 923.5995    , 31.52025    , 774.859253  , 3.5         , 3           , 255         , 0           , 0
-0.153517261, 0.143745348 , -9.789516   , -0.000222181086, -3.647516E-05, -0.000239417175, -0.014773869, -0.0148929441, 0.00012417369, 923.5995    , 31.52025    , 774.8287    , 3.51        , 3           , 255         , 0           , 0
-0.140877515, 0.15181835  , -9.795644   , -0.00023629202, -5.731912E-06, 0.000462161028, -0.0147763016, -0.014892933, 0.000128796019, 923.5995    , 31.52025    , 774.828064  , 3.52        , 3           , 255         , 0           , 0
-0.153546646, 0.157429889 , -9.79151249 , 2.5381567E-05, 5.903872E-05, 0.000156245151, -0.01477607 , -0.01489232 , 0.000130349712, 923.5446    , 31.5195045  , 774.827454  , 3.53        , 3           , 255         , 0           , 0
-0.14278698 , 0.154806286 , -9.785543   , -0.000197988411, -0.000378424855, -3.00716729E-05, -0.0147780469, -0.0148961088, 0.000130104934, 923.5446    , 31.5195045  , 774.826843  , 3.54        , 3           , 255         , 0           , 0
-0.137052476, 0.149415061 , -9.782652   , -0.000363300671, -0.000309653144, 0.000328546565, -0.0147817284, -0.0148991551, 0.000133436071, 923.5446    , 31.5195045  , 774.826233  , 3.55        , 3           , 255         , 0           , 0
-0.142948657, 0.150432274 , -9.791554   , -0.0006268888, -0.000416054128, 0.000564746442, -0.0147880828, -0.0149032315, 0.000139144919, 923.5446    , 31.5195045  , 774.8256    , 3.56        , 3           , 255         , 0           , 0
-0.145629466, 0.1558775   , -9.792298   , -0.0009120079, 3.704641E-05, 0.0005279399, -0.0147972805, -0.0149027845, 0.000144418707, 923.5446    , 31.5195045  , 774.825     , 3.57        , 3           , 255         , 0           , 0
-0.147652   , 0.148628742 , -9.784578   , 0.000127540785, -0.000170580373, -0.000130988163, -0.0147959879, -0.0149045084, 0.000143134108, 923.5446    , 31.5195045  , 774.8244    , 3.58        , 3           , 255         , 0           , 0
-0.146297023, 0.142850548 , -9.793902   , -0.000179451425, -0.0003741377, 0.00010401172, -0.0147977965, -0.0149082337, 0.000144229547, 923.5446    , 31.5195045  , 774.8238    , 3.59        , 3           , 255         , 0           , 0
-0.144126385, 0.142091721 , -9.803237   , 0.000122324564, 0.0002776822, -0.000477884721, -0.0147965029, -0.0149055291, 0.000139409734, 923.5446    , 31.5195045  , 774.8232    , 3.6         , 3           , 255         , 0           , 0
-0.147159651, 0.143618062 , -9.796835   , 1.07819214E-05, 0.000385614 , -0.000188393766, -0.0148060611, -0.0149008231, 0.000137613257, 923.5446    , 31.5195045  , 774.8759    , 3.61        , 3           , 255         , 0           , 0
-0.147281215, 0.14221707  , -9.793623   , 0.000159790914, 1.14277645E-05, -0.0005560188, -0.0148043819, -0.0149007905, 0.0001320515, 923.5446    , 31.5195045  , 774.8756    , 3.62        , 3           , 255         , 0           , 0
-0.142872542, 0.1455813   , -9.79167652 , -0.0005006048, -0.000301552034, -0.0005438261, -0.0148093058, -0.0149038862, 0.000126658022, 923.5883    , 31.5182838  , 774.875366  , 3.63        , 3           , 255         , 0           , 0
-0.148441613, 0.139640138 , -9.797285   , 9.196409E-05, -0.0004425374, 0.000399968936, -0.014808448, -0.0149082523, 0.000130723143, 923.5883    , 31.5182838  , 774.8751    , 3.64        , 3           , 255         , 0           , 0
-0.146782085, 0.1440222   , -9.794418   , 0.000451163272, -0.000305367255, 0.00036396028, -0.0148039917, -0.0149112521, 0.000134407892, 923.5883    , 31.5182838  , 774.8749    , 3.65        , 3           , 255         , 0           , 0
-0.13932541 , 0.152239114 , -9.7918005  , 0.000193686632, -8.774584E-05, 0.00052955217, -0.0148021327, -0.0149120511, 0.00013971627, 923.5883    , 31.5182838  , 774.874634  , 3.66        , 3           , 255         , 0           , 0
-0.146075919, 0.162659273 , -9.791261   , -6.722275E-05, -0.000182575634, 0.0006656221, -0.0148029039, -0.0149137788, 0.000146399354, 923.5883    , 31.5182838  , 774.8744    , 3.67        , 3           , 255         , 0           , 0
-0.1530165  , 0.157849386 , -9.7875185  , 0.000420448778, -1.82920485E-06, -0.0005809112, -0.0147986123, -0.0149138831, 0.000140590666, 923.5883    , 31.5182838  , 774.874146  , 3.68        , 3           , 255         , 0           , 0
-0.140881255, 0.142552465 , -9.791241   , 0.0003724303, 1.66158134E-05, -0.000758863462, -0.0147947753, -0.014913829, 0.000132999747, 923.5883    , 31.5182838  , 774.8739    , 3.69        , 3           , 255         , 0           , 0
-0.140220165, 0.144975483 , -9.794081   , -0.000192875857, -2.03065865E-05, 0.00046795854, -0.014796773, -0.0149139632, 0.000137682233, 923.5883    , 31.5182838  , 774.873657  , 3.7         , 3           , 255         , 0           , 0
-0.145575255, 0.147092849 , -9.786909   , -1.625286E-05, -4.42121527E-05, -4.34756766E-05, -0.0148011595, -0.014913016, 0.0001373171, 923.5883    , 31.5182838  , 774.857056  , 3.71        , 3           , 255         , 0           , 0
-0.135198668, 0.149736911 , -9.784607   , 0.0002805807, -1.04302308E-06, 0.0005541201, -0.0147984354, -0.0149129443, 0.0001428583, 923.5883    , 31.5182838  , 774.8567    , 3.72        , 3           , 255         , 0           , 0
-0.151317045, 0.145841077 , -9.786378   , 0.000261063833, -0.000147767423, -0.000234765568, -0.0147957914, -0.0149144558, 0.000140532589, 923.545959  , 31.5210648  , 774.8563    , 3.73        , 3           , 255         , 0           , 0
-0.143481851, 0.138221934 , -9.783774   , -2.47168355E-05, 8.846421E-05, -0.0005809347, -0.0147959506, -0.0149136567, 0.000134710281, 923.545959  , 31.5210648  , 774.855957  , 3.74        , 3           , 255         , 0           , 0
-0.143201366, 0.145018637 , -9.789446   , 0.000245858857, 8.691498E-05, -0.000160779324, -0.0147934668, -0.014912812, 0.000133089663, 923.545959  , 31.5210648  , 774.8556    , 3.75        , 3           , 255         , 0           , 0
-0.1480695  , 0.14334029  , -9.788973   , 0.000102348626, 5.27518E-05 , 0.000206517667, -0.0147924749, -0.0149122532, 0.000135147 , 923.545959  , 31.5210648  , 774.8552    , 3.76        , 3           , 255         , 0           , 0
-0.155439287, 0.140519589 , -9.785579   , 0.00029577635, 0.000400963065, 0.000610051444, -0.0147896074, -0.0149081573, 0.000141188051, 923.545959  , 31.5210648  , 774.854858  , 3.77        , 3           , 255         , 0           , 0
-0.137615979, 0.147038713 , -9.792968   , -0.000197675137, 0.0004153512, 0.0007634459, -0.0147916963, -0.01490389 , 0.0001487609, 923.545959  , 31.5210648  , 774.8545    , 3.78        , 3           , 255         , 0           , 0
-0.13663426 , 0.150795832 , -9.793706   , -9.82206548E-05, -0.000194248278, 0.0002545624, -0.0147927171, -0.0149057955, 0.000151335189, 923.545959  , 31.5210648  , 774.8541    , 3.79        , 3           , 255         , 0           , 0
-0.141865745, 0.1406186   , -9.791298   , -0.000137866475, -0.000146763457, -9.08554357E-05, -0.0147940824, -0.0149072753, 0.000150448366, 923.545959  , 31.5210648  , 774.85376   , 3.8         , 3           , 255         , 0           , 0
-0.134062335, 0.1474107   , -9.791545   , -0.000161935925, 3.67247849E-05, 0.000183958589, -0.0147957262, -0.0149017219, 0.000152282417, 923.545959  , 31.5210648  , 774.9002    , 3.81        , 3           , 255         , 0           , 0
-0.14110969 , 0.149097249 , -9.792285   , -0.000486987527, 0.0001550559, 7.548994E-05, -0.0148006072, -0.01490016 , 0.000153014349, 923.545959  , 31.5210648  , 774.900146  , 3.82        , 3           , 255         , 0           , 0
-0.148654372, 0.152003154 , -9.798504   , 0.0003265859, -8.219533E-06, -6.841933E-05, -0.0147973318, -0.0149002532, 0.0001523314, 923.588562  , 31.51842    , 774.9001    , 3.83        , 3           , 255         , 0           , 0
-0.142018273, 0.155595109 , -9.797789   , 2.54747E-05 , -3.32819764E-05, 0.00020770618, -0.0147971073, -0.0149005549, 0.000154413341, 923.588562  , 31.51842    , 774.9       , 3.84        , 3           , 255         , 0           , 0
-0.138639644, 0.156531    , -9.799394   , -0.000102038088, -0.0005431491, 6.397485E-05, -0.0147981392, -0.0149059771, 0.000155133443, 923.588562  , 31.51842    , 774.899963  , 3.85        , 3           , 255         , 0           , 0
-0.142064765, 0.149715617 , -9.795052   , -0.000280904642, -0.000347734021, 0.000195498375, -0.0148009788, -0.014909422, 0.000157139846, 923.588562  , 31.51842    , 774.8999    , 3.86        , 3           , 255         , 0           , 0
-0.137973338, 0.152170211 , -9.793774   , 0.000269944576, -5.99086052E-05, -0.000187272715, -0.0147982519, -0.0149100488, 0.000155276037, 923.588562  , 31.51842    , 774.899841  , 3.87        , 3           , 255         , 0           , 0
-0.1349654  , 0.146174312 , -9.796154   , -0.000374526135, -0.000143411569, 0.000369683257, -0.0148020526, -0.0149114281, 0.000158994008, 923.588562  , 31.51842    , 774.8998    , 3.88        , 3           , 255         , 0           , 0
-0.140773058, 0.147147417 , -9.784265   , -4.929025E-07, 6.379749E-05, 0.000644076848, -0.0148021542, -0.0149106942, 0.000165425183, 923.588562  , 31.51842    , 774.8997    , 3.89        , 3           , 255         , 0           , 0
-0.144080892, 0.136459842 , -9.785783   , 0.0001613647, -2.350891E-06, -0.000389136781, -0.0148004834, -0.0149107752, 0.000161534263, 923.588562  , 31.51842    , 774.899658  , 3.9         , 3           , 255         , 0           , 0
-0.154743373, 0.137813851 , -9.797793   , -9.82793863E-05, 0.000337137142, -0.000575971, -0.0148081044, -0.0148988  , 0.000155824964, 923.588562  , 31.51842    , 774.87915   , 3.91        , 3           , 255         , 0           , 0
-0.152395532, 0.14958857  , -9.800953   , -6.14936E-05, -9.272233E-05, -4.63901E-05, -0.0148087107, -0.0148997344, 0.000155374815, 923.588562  , 31.51842    , 774.878967  , 3.92        , 3           , 255         , 0           , 0
-0.1490653  , 0.139799669 , -9.793901   , -0.00023686036, -0.0003768986, -0.0002589906, -0.0148110408, -0.0149035407, 0.000152840774, 923.5909    , 31.522625   , 774.8788    , 3.93        , 3           , 255         , 0           , 0
-0.146630436, 0.138742924 , -9.794133   , -0.000477264519, -0.000262512331, 0.000136638613, -0.0148158334, -0.0149061475, 0.000154246023, 923.5909    , 31.522625   , 774.8786    , 3.94        , 3           , 255         , 0           , 0
-0.156155169, 0.1464543   , -9.788408   , -0.000349377049, 8.33610247E-05, -0.000307107926, -0.0148192812, -0.0149053587, 0.000151162632, 923.5909    , 31.522625   , 774.8784    , 3.95        , 3           , 255         , 0           , 0
-0.14648895 , 0.148689866 , -9.79534    , -0.000129364838, 0.00023357704, -0.000115157891, -0.014820558, -0.0149030387, 0.000149976462, 923.5909    , 31.522625   , 774.878235  , 3.96        , 3           , 255         , 0           , 0
-0.141272575, 0.15035674  , -9.79027748 , -0.000278036459, 0.000170770363, -0.000173017208, -0.01482331 , -0.0149013568, 0.000148221 , 923.5909    , 31.522625   , 774.878052  , 3.97        , 3           , 255         , 0           , 0
-0.144734278, 0.149542361 , -9.784658   , -0.000165272038, 7.198454E-05, -0.000184345554, -0.0148249362, -0.0149006648, 0.000146366932, 923.5909    , 31.522625   , 774.877869  , 3.98        , 3           , 255         , 0           , 0
-0.14450857 , 0.148924559 , -9.791219   , 0.000125451945, 0.000234682564, 0.000109429355, -0.0148236966, -0.014898303, 0.000147426414, 923.5909    , 31.522625   , 774.8777    , 3.99        , 3           , 255         , 0           , 0
-0.136228725, 0.1421592   , -9.796585   , -0.000614356948, 7.869754E-05, 0.000332060532, -0.01482989 , -0.0148974648, 0.000150735272, 923.5909    , 31.522625   , 774.877563  , 4           , 3           , 0           , 9.454237    , 400
-0.145577878, 0.143341839 , -9.788626   , -0.0006482379, -0.000170796557, 0.001052764 , -0.0148366531, -0.0149009069, 0.00016128982, 923.5909    , 31.522625   , 774.8573    , 4.01        , 3           , 1           , 0           , 0
-0.151131079, 0.1392611   , -9.79501152 , -0.000200624636, -0.000117390853, 0.000430414919, -0.0148387235, -0.0149020171, 0.000165611287, 923.5909    , 31.522625   , 774.857056  , 4.02        , 3           , 2           , 0           , 0
-0.144777015, 0.141204461 , -9.788355   , -0.000362828723, -0.0005459713, 0.0002850291, -0.0148423957, -0.0149074346, 0.000168542538, 923.5783    , 31.5182152  , 774.8568    , 4.03        , 3           , 3           , 0           , 0
-0.144945085, 0.137895077 , -9.796778   , 6.03109365E-05, -9.249317E-05, 5.59542059E-05, -0.0148418006, -0.014908351, 0.0001691158, 923.5783    , 31.5182152  , 774.856567  , 4.04        , 3           , 4           , 0           , 0
-0.143948182, 0.131902948 , -9.793058   , -0.000162928249, -0.00014658508, 2.28306817E-06, -0.0148434294, -0.014909816, 0.000169160383, 923.5783    , 31.5182152  , 774.8563    , 4.05        , 3           , 5           , 0           , 0
-0.144051284, 0.131784111 , -9.789658   , -0.0005550581, 0.000435703027, 0.000404304184, -0.0148490388, -0.0149054006, 0.000173138615, 923.5783    , 31.5182152  , 774.8561    , 4.06        , 3           , 6           , 0           , 0
-0.147371426, 0.132924363 , -9.794125   , -0.000641647261, 0.0006692844, 0.0005790899, -0.0148555385, -0.01489862 , 0.000178829956, 923.5783    , 31.5182152  , 774.855835  , 4.07        , 3           , 7           , 0           , 0
-0.143821508, 0.148495853 , -9.799101   , -0.0002039104, -7.16245559E-05, 0.0005346899, -0.0148576582, -0.0148992566, 0.000184187375, 923.5783    , 31.5182152  , 774.8556    , 4.08        , 3           , 8           , 5           , 5
-0.142216742, 0.154976591 , -9.795466   , -0.000354748, -0.000390960457, 0.000261718757, -0.0148612456, -0.0149031272, 0.000186862613, 923.5783    , 31.5182152  , 774.855347  , 4.09        , 3           , 9           , 5           , 0.1
-0.139111355, 0.150614545 , -9.7882     , -0.000288406445, -0.000104468054, 8.32661462E-05, -0.01486414 , -0.0149041591, 0.000187710757, 923.5783    , 31.5182152  , 774.8551    , 4.1         , 3           , 10          , 0.1         , 0.1
-0.15156813 , 0.153857186 , -9.788813   , -0.000173330423, -0.000285792834, 2.092333E-05, -0.0148593178, -0.0149048911, 0.000187864673, 923.5783    , 31.5182152  , 774.855652  , 4.11        , 3           , 11          , 0.00686980924, 0.00686980551
-0.149565265, 0.14981246  , -9.79139    , 0.000229545636, 0.000159960444, 0.0006075934, -0.0148571134, -0.0149032  , 0.000193916712, 923.5783    , 31.5182152  , 774.8554    , 4.12        , 3           , 12          , 0.174648076 , 0
-0.14240025 , 0.144274592 , -9.78883648 , -0.000334657379, -9.129415E-05, -0.000112260474, -0.0148604419, -0.0149041293, 0.0001928077, 923.579     , 31.5224228  , 774.855164  , 4.13        , 3           , 13          , 0           , 0
-0.144129828, 0.142081261 , -9.78958    , -0.0002993344, -0.000188692735, -0.00079868926, -0.014863316, -0.0149061363, 0.000184849036, 923.579     , 31.5224228  , 774.8549    , 4.14        , 3           , 14          , -0.0006138524, -0.000400001038
-0.14444001 , 0.153073072 , -9.792845   , 0.000283603847, -0.000370495283, -0.000191630956, -0.0148604522, -0.0149098681, 0.000182987846, 923.579     , 31.5224228  , 774.8547    , 4.15        , 3           , 15          , 0           , 3.81508762E-05
-0.143387809, 0.150574535 , -9.78871    , -0.0003171754, -0.00041320626, -0.000233165338, -0.0148635888, -0.0149140339, 0.000180717645, 923.579     , 31.5224228  , 774.854431  , 4.16        , 3           , 16          , 0           , 1.401298E-45
-0.1527475  , 0.140931219 , -9.794428   , -0.000315200654, -0.000153265923, -9.35918652E-05, -0.0148667283, -0.01491558 , 0.000179804512, 923.579     , 31.5224228  , 774.8542    , 4.17        , 3           , 20          , 0           , 0
-0.146432057, 0.136555851 , -9.796981   , -0.00017230853, 7.550107E-05, 0.0002700834, -0.01486849 , -0.0149147846, 0.000182494055, 923.579     , 31.5224228  , 774.853943  , 4.18        , 3           , 21          , 0           , 0
-0.139528126, 0.146735027 , -9.799578   , 0.00028283344, 0.000580629858, -0.000299214735, -0.0148656173, -0.0149090244, 0.000179415671, 923.579     , 31.5224228  , 774.8537    , 4.19        , 3           , 22          , 0           , 0
-0.145154327, 0.145649627 , -9.789831   , 0.000227119221, 0.000158412 , -0.000126151135, -0.0148633271, -0.0149074588, 0.000178130635, 923.579     , 31.5224228  , 774.853455  , 4.2         , 3           , 40          , 0           , 0
-0.149196282, 0.136031    , -9.787369   , 0.000165702513, -0.000182959542, 0.00013540691, -0.0148630319, -0.0149091436, 0.000179531868, 923.579     , 31.5224228  , 774.8535    , 4.21        , 3           , 41          , 0           , 0
-0.157806441, 0.141263634 , -9.795604   , 0.00031461555, -3.520152E-05, -0.000160949872, -0.0148598617, -0.0149095189, 0.000177927635, 923.579     , 31.5224228  , 774.8533    , 4.22        , 3           , 42          , 0           , 0
-0.149981171, 0.14481993  , -9.795079   , -4.60630981E-05, -0.000142102421, -0.000240277237, -0.0148602882, -0.0149109755, 0.000175546069, 923.588135  , 31.5199127  , 774.853     , 4.23        , 3           , 255         , 0           , 0
-0.148995131, 0.14143841  , -9.795311   , -0.000147017126, 3.397424E-05, -0.000186152844, -0.0148617309, -0.0149106625, 0.000173679524, 923.588135  , 31.5199127  , 774.8528    , 4.24        , 3           , 255         , 0           , 0
-0.144189924, 0.146504521 , -9.798099   , -0.000326985784, 0.000280088454, 0.0006873563, -0.0148651013, -0.0149077615, 0.000180511284, 923.588135  , 31.5199127  , 774.852539  , 4.25        , 3           , 255         , 0           , 0
-0.140715271, 0.150394723 , -9.790408   , -0.0006270473, 2.66783754E-05, -7.085384E-05, -0.0148713607, -0.0149075054, 0.0001797988, 923.588135  , 31.5199127  , 774.8523    , 4.26        , 3           , 255         , 0           , 0
-0.127068251, 0.14522028  , -9.789877   , -0.000317321159, -0.000202634372, -0.0007114272, -0.0148744285, -0.0149096362, 0.000172714819, 923.588135  , 31.5199127  , 774.852051  , 4.27        , 3           , 255         , 0           , 0
-0.144633427, 0.152354747 , -9.796023   , -0.0001717176, -0.000144245569, -4.732785E-06, -0.0148761468, -0.0149110788, 0.00017268896, 923.588135  , 31.5199127  , 774.8518    , 4.28        , 3           , 255         , 0           , 0
-0.144235149, 0.157457918 , -9.791926   , 0.000100431847, -9.06047644E-05, 0.0001179839, -0.01487516 , -0.0149119664, 0.000173882232, 923.588135  , 31.5199127  , 774.851563  , 4.29        , 3           , 255         , 0           , 0
-0.1373117  , 0.15758422  , -9.795883   , -8.706137E-05, 1.1265889E-05, 0.000302146422, -0.0148760751, -0.014911809, 0.000176901944, 923.588135  , 31.5199127  , 774.8513    , 4.3         , 3           , 255         , 0           , 0
-0.1433212  , 0.159462765 , -9.790308   , 0.000179277762, -3.13165656E-05, 0.000202855037, -0.0148768453, -0.0149097089, 0.000178972885, 923.588135  , 31.5199127  , 774.8388    , 4.31        , 3           , 255         , 0           , 0
-0.147035256, 0.146155223 , -9.783655   , -0.000104630366, -2.879693E-05, 8.605154E-05, -0.0148779051, -0.0149099845, 0.000179837662, 923.588135  , 31.5199127  , 774.8385    , 4.32        , 3           , 255         , 0           , 0
-0.134852931, 0.14173542  , -9.78901    , -7.190072E-05, -0.000147614192, 0.0004683129, -0.014878693, -0.0149113871, 0.00018454263, 923.584961  , 31.51869    , 774.8382    , 4.33        , 3           , 255         , 0           , 0
-0.140923083, 0.143209323 , -9.7854805  , 0.000140156073, 0.00054838584, 0.000178174712, -0.0148773165, -0.0149058783, 0.000186242731, 923.584961  , 31.51869    , 774.8379    , 4.34        , 3           , 255         , 0           , 0
-0.141404867, 0.151510522 , -9.79096    , -0.000409170869, 0.0001295743, -0.0007327305, -0.0148812979, -0.0149046918, 0.000178896327, 923.584961  , 31.51869    , 774.8376    , 4.35        , 3           , 255         , 0           , 0
-0.136138156, 0.148574159 , -9.788898   , 0.0004566186, -6.053949E-05, 3.68041474E-05, -0.0148767373, -0.0149052953, 0.000179273367, 923.584961  , 31.51869    , 774.8373    , 4.36        , 3           , 255         , 0           , 0
-0.141227841, 0.146408647 , -9.795431   , 0.0001986406, 0.000202742871, -0.000222121133, -0.0148747182, -0.0149032986, 0.00017702207, 923.584961  , 31.51869    , 774.837     , 4.37        , 3           , 255         , 0           , 0
-0.140804335, 0.148830548 , -9.78911    , 1.38734467E-05, -8.5847656E-05, -0.00067187933, -0.01487448 , -0.014904256, 0.0001703162, 923.584961  , 31.51869    , 774.8367    , 4.38        , 3           , 255         , 0           , 0
-0.148464933, 0.141895011 , -9.791279   , -1.3091485E-06, 5.964673E-05, 9.479126E-05, -0.0148745067, -0.014903646, 0.000171255218, 923.584961  , 31.51869    , 774.836365  , 4.39        , 3           , 255         , 0           , 0
-0.1495355  , 0.140419692 , -9.788492   , 0.000707481 , 7.663417E-06, 0.0005718121, -0.0148675181, -0.0149034839, 0.000176972069, 923.584961  , 31.51869    , 774.83606   , 4.4         , 3           , 255         , 0           , 0
-0.145267338, 0.141284391 , -9.791196   , 1.854857E-05, 5.59140462E-05, 0.0007611705, -0.0148697486, -0.01489566 , 0.000184609584, 923.584961  , 31.51869    , 774.830444  , 4.41        , 3           , 255         , 0           , 0
-0.139792487, 0.147688523 , -9.793555   , -0.000349448645, 0.0004055672, -3.33815442E-05, -0.0148732355, -0.0148916105, 0.000184215431, 923.584961  , 31.51869    , 774.830139  , 4.42        , 3           , 255         , 0           , 0
-0.1480193  , 0.147727549 , -9.797995   , 7.315545E-05, 5.239353E-05, -0.000177009817, -0.0148724783, -0.0148911141, 0.0001824376, 923.5771    , 31.5222855  , 774.829834  , 4.43        , 3           , 255         , 0           , 0
-0.150359184, 0.150104374 , -9.789158   , 5.0309638E-05, 0.0002165348, -0.000354875025, -0.0148719233, -0.0148890009, 0.000178856732, 923.5771    , 31.5222855  , 774.8295    , 4.44        , 3           , 255         , 0           , 0
-0.153982073, 0.141441062 , -9.789966   , 0.000419778167, 2.00528011E-05, 0.000356056582, -0.0148677779, -0.0148887476, 0.000182414224, 923.5771    , 31.5222855  , 774.8292    , 4.45        , 3           , 255         , 0           , 0
-0.146918654, 0.140592813 , -9.790097   , 0.000519980968, -0.0003017955, 0.0006742542, -0.0148626789, -0.0148916636, 0.00018920147, 923.5771    , 31.5222855  , 774.8289    , 4.46        , 3           , 255         , 0           , 0
-0.148883745, 0.15225248  , -9.793486   , 0.000509469537, 2.94176571E-05, 0.000298577244, -0.01485763 , -0.0148913283, 0.000192182808, 923.5771    , 31.5222855  , 774.8286    , 4.47        , 3           , 255         , 0           , 0
-0.147924826, 0.151683956 , -9.796686   , -2.64760456E-05, 0.0001843806, 0.000161090255, -0.014857919, -0.01488946 , 0.00019376626, 923.5771    , 31.5222855  , 774.8283    , 4.48        , 3           , 255         , 0           , 0
-0.1440239  , 0.1380888   , -9.800069   , -0.00062175357, 0.000385814841, 0.00025735618, -0.0148641709, -0.0148855634, 0.000196282432, 923.5771    , 31.5222855  , 774.828     , 4.49        , 3           , 255         , 0           , 0
-0.154366463, 0.148772314 , -9.793814   , -0.000205218792, 0.00024378809, 7.93511863E-05, -0.0148662347, -0.0148831131, 0.00019703967, 923.5771    , 31.5222855  , 774.8277    , 4.5         , 3           , 255         , 0           , 0
-0.1508689  , 0.1545886   , -9.791563   , -0.0002591755, -9.652568E-05, 0.000269459269, -0.0148693323, -0.0148870274, 0.000199755465, 923.5771    , 31.5222855  , 774.834167  , 4.51        , 3           , 255         , 0           , 0
-0.148215815, 0.149891883 , -9.80192852 , 0.0004892199, 0.000797562068, -0.00012066427, -0.01486442 , -0.01487907 , 0.00019843028, 923.5771    , 31.5222855  , 774.8339    , 4.52        , 3           , 255         , 0           , 0
-0.1416564  , 0.141057968 , -9.796779   , -5.85225062E-05, 0.0004439799, 8.227502E-05, -0.0148650166, -0.01487462 , 0.000199187009, 923.586365  , 31.5211334  , 774.8337    , 4.53        , 3           , 255         , 0           , 0
-0.13958557 , 0.146218732 , -9.792816   , -0.0001486846, 0.0005926497, -0.000248953176, -0.0148664638, -0.0148687307, 0.000196609428, 923.586365  , 31.5211334  , 774.833435  , 4.54        , 3           , 255         , 0           , 0
-0.1500226  , 0.136186168 , -9.790767   , -0.000255442224, 0.000336910918, 0.00021006653, -0.0148690492, -0.0148653314, 0.000198659953, 923.586365  , 31.5211334  , 774.8332    , 4.55        , 3           , 255         , 0           , 0
-0.144522235, 0.150871277 , -9.788893   , -0.000336506928, 0.00016856406, -7.223194E-05, -0.0148724038, -0.0148636559, 0.0001979126, 923.586365  , 31.5211334  , 774.832947  , 4.56        , 3           , 255         , 0           , 0
-0.132073686, 0.152522385 , -9.790759   , 0.000123576785, 0.000172340573, -0.000181070238, -0.0148711409, -0.0148619628, 0.0001960763, 923.586365  , 31.5211334  , 774.8327    , 4.57        , 3           , 255         , 0           , 0
-0.148802847, 0.141231269 , -9.785223   , 0.000521457347, 0.000109648157, -0.0005223722, -0.0148658473, -0.014860942, 0.000190836377, 923.586365  , 31.5211334  , 774.832458  , 4.58        , 3           , 255         , 0           , 0
-0.148539215, 0.146035776 , -9.798071   , 0.000388892571, -1.93892338E-05, 0.000209075835, -0.01486199 , -0.0148611041, 0.000192929976, 923.586365  , 31.5211334  , 774.8322    , 4.59        , 3           , 255         , 0           , 0
-0.142994046, 0.143808648 , -9.788501   , 0.0003122072, -0.000138157018, -0.00018972109, -0.0148588419, -0.0148625141, 0.000191053376, 923.586365  , 31.5211334  , 774.832     , 4.6         , 3           , 255         , 0           , 0
-0.150976568, 0.1447189   , -9.791713   , 0.0003208444, 0.000329377071, 0.000311904529, -0.0148566356, -0.014857851, 0.0001941376, 923.586365  , 31.5211334  , 774.824951  , 4.61        , 3           , 255         , 0           , 0
-0.152986139, 0.1446977   , -9.800088   , -0.000337459263, 3.76107346E-05, -7.918814E-06, -0.014860007, -0.0148574747, 0.000194052816, 923.586365  , 31.5211334  , 774.824646  , 4.62        , 3           , 255         , 0           , 0
-0.148638159, 0.143869489 , -9.793337   , 8.09594058E-05, -0.000325218774, 0.000518952031, -0.0148592768, -0.0148606487, 0.000199290545, 923.557068  , 31.5182838  , 774.824341  , 4.63        , 3           , 255         , 0           , 0
-0.147030681, 0.147892728 , -9.796565   , 0.0002982317, 1.87685073E-05, 0.000361459766, -0.0148563469, -0.0148604074, 0.000202902273, 923.557068  , 31.5182838  , 774.8241    , 4.64        , 3           , 255         , 0           , 0
-0.152003676, 0.152820617 , -9.799776   , -0.00057435513, 0.000292439538, 0.000411240937, -0.0148621509, -0.0148574226, 0.000206971119, 923.557068  , 31.5182838  , 774.823853  , 4.65        , 3           , 255         , 0           , 0
-0.142084092, 0.1452755   , -9.79612    , 8.865609E-06, -0.000168995757, 0.000135592272, -0.0148620829, -0.0148590924, 0.000208352125, 923.557068  , 31.5182838  , 774.8236    , 4.66        , 3           , 255         , 0           , 0
-0.134686887, 0.147385135 , -9.788534   , 7.3403E-05  , -0.000213776773, -0.0005976746, -0.0148612605, -0.0148613183, 0.0002024073, 923.557068  , 31.5182838  , 774.823364  , 4.67        , 3           , 255         , 0           , 0
-0.125870436, 0.155447036 , -9.799837   , 0.0001548772, -0.000173958484, -0.000179035065, -0.0148596875, -0.014863085, 0.000200642869, 923.557068  , 31.5182838  , 774.8231    , 4.68        , 3           , 255         , 0           , 0
-0.140551373, 0.149001688 , -9.799553   , 0.0001874002, 0.000199879563, 0.0006925838, -0.0148579152, -0.014860983, 0.0002075388, 923.557068  , 31.5182838  , 774.8229    , 4.69        , 3           , 255         , 0           , 0
-0.147656754, 0.146697879 , -9.794374   , 0.00015977741, 5.84745139E-05, -4.944155E-05, -0.01485631 , -0.0148604056, 0.00020703573, 923.557068  , 31.5182838  , 774.822632  , 4.7         , 3           , 255         , 0           , 0
-0.150177777, 0.141301244 , -9.792501   , -3.59996338E-05, -2.10798171E-05, 8.071322E-05, -0.0148593262, -0.0148590049, 0.000207885241, 923.557068  , 31.5182838  , 774.8586    , 4.71        , 3           , 255         , 0           , 0
-0.1499888  , 0.14806205  , -9.790072   , -9.200722E-05, 0.0003433589, 0.0005360667, -0.0148603236, -0.0148554938, 0.000213194755, 923.557068  , 31.5182838  , 774.8585    , 4.72        , 3           , 255         , 0           , 0
-0.14519614 , 0.154086575 , -9.797784   , 0.0001909759, -0.00031213864, 0.000146991122, -0.0148584386, -0.0148585923, 0.000214711021, 923.603638  , 31.5181484  , 774.8585    , 4.73        , 3           , 255         , 0           , 0
-0.151153862, 0.143352419 , -9.796007   , -0.000413708156, -1.94570166E-05, -0.000210493919, -0.014862543, -0.0148588186, 0.000212609026, 923.603638  , 31.5181484  , 774.8585    , 4.74        , 3           , 255         , 0           , 0
-0.14360185 , 0.1411834   , -9.786685   , -0.000126448809, 8.382858E-05, -0.0006083455, -0.0148637164, -0.0148580708, 0.000206513272, 923.603638  , 31.5181484  , 774.8585    , 4.75        , 3           , 255         , 0           , 0
-0.142372459, 0.150488585 , -9.791555   , -2.124731E-05, -1.10804394E-05, 0.000111741218, -0.0148639455, -0.0148581648, 0.0002076323, 923.603638  , 31.5181484  , 774.8585    , 4.76        , 3           , 255         , 0           , 0
-0.145042419, 0.14154312  , -9.790396   , 0.0003386302, -0.000210349564, 4.1502306E-05, -0.0148605648, -0.0148602622, 0.000208078563, 923.603638  , 31.5181484  , 774.8585    , 4.77        , 3           , 255         , 0           , 0
-0.138302371, 0.14912048  , -9.784527   , -0.000106789754, -4.151702E-05, -0.0002881475, -0.01486159 , -0.01486072 , 0.000205203338, 923.603638  , 31.5181484  , 774.8585    , 4.78        , 3           , 255         , 0           , 0
-0.14383629 , 0.146785751 , -9.790333   , -0.000108692911, -0.000255160965, 7.885203E-05, -0.01486269 , -0.0148632592, 0.000206029756, 923.603638  , 31.5181484  , 774.8585    , 4.79        , 3           , 255         , 0           , 0
-0.152388   , 0.147148    , -9.798319   , -0.000603387831, 0.00010883066, 4.39628238E-05, -0.0148687307, -0.014862163, 0.000206453187, 923.603638  , 31.5181484  , 774.8585    , 4.8         , 3           , 255         , 0           , 0
-0.1478619  , 0.1482033   , -9.79439    , -0.000147413521, 0.000177556663, -4.66663623E-05, -0.0148713682, -0.0148614589, 0.000205977543, 923.603638  , 31.5181484  , 774.8234    , 4.81        , 3           , 255         , 0           , 0
-0.148409456, 0.148770124 , -9.790205   , 0.000118107069, 0.000278532127, 0.00048659445, -0.014870259, -0.0148586016, 0.000210801954, 923.603638  , 31.5181484  , 774.8232    , 4.82        , 3           , 255         , 0           , 0
-0.154033661, 0.151489466 , -9.786525   , -0.000180524308, 0.000235064042, 0.000108597145, -0.0148720816, -0.014856237, 0.000211852952, 923.562     , 31.519165   , 774.822937  , 4.83        , 3           , 255         , 0           , 0
-0.1522903  , 0.150732636 , -9.78824    , 0.000335201184, 0.000100153149, 0.00038256502, -0.0148687856, -0.0148551781, 0.000215663618, 923.562     , 31.519165   , 774.8227    , 4.84        , 3           , 255         , 0           , 0
-0.144772276, 0.14738512  , -9.792893   , 5.41025656E-05, 0.000303081935, 0.0009598421, -0.0148683861, -0.014852006, 0.000225216718, 923.562     , 31.519165   , 774.822449  , 4.85        , 3           , 255         , 0           , 0
-0.16036199 , 0.143963233 , -9.798788   , -0.000106655236, 0.000348289846, -0.0001484696, -0.01486943 , -0.0148485452, 0.000223680283, 923.562     , 31.519165   , 774.8222    , 4.86        , 3           , 255         , 0           , 0
-0.152319282, 0.1389589   , -9.802015   , 0.000163677789, -0.000223952637, 5.51528829E-05, -0.0148678031, -0.0148507757, 0.000224265081, 923.562     , 31.519165   , 774.82196   , 4.87        , 3           , 255         , 0           , 0
-0.14758575 , 0.139974669 , -9.796896   , -0.000161759846, 0.0003790256, 0.000128600048, -0.0148694385, -0.0148469666, 0.000225494718, 923.562     , 31.519165   , 774.8217    , 4.88        , 3           , 255         , 0           , 0
-0.154439837, 0.143290132 , -9.794364   , 8.879352E-05, 0.000296642946, 4.04203929E-05, -0.0148685547, -0.0148439938, 0.00022585479, 923.562     , 31.519165   , 774.8215    , 4.89        , 3           , 255         , 0           , 0
-0.14041236 , 0.1358603   , -9.790698   , 0.000372185023, 0.0006353287, 0.000257043983, -0.0148648694, -0.014837604, 0.000228330711, 923.562     , 31.519165   , 774.8212    , 4.9         , 3           , 255         , 0           , 0
-0.137720779, 0.142055809 , -9.783576   , -5.28038363E-05, 4.36694245E-06, -0.0005265075, -0.0148642836, -0.01484409 , 0.000223049748, 923.562     , 31.519165   , 774.850464  , 4.91        , 3           , 255         , 0           , 0
-0.141366646, 0.150915071 , -9.790647   , 0.000122260069, 0.0006181853, 0.000336945319, -0.014863112, -0.014837862, 0.000226327247, 923.562     , 31.519165   , 774.8504    , 4.92        , 3           , 255         , 0           , 0
-0.140058666, 0.1534162   , -9.794973   , -9.217416E-05, 0.000421004981, 1.78788032E-05, -0.0148640331, -0.0148336478, 0.000226443444, 923.5982    , 31.5204544  , 774.850342  , 4.93        , 3           , 255         , 0           , 0
-0.141537592, 0.149580285 , -9.792357   , 0.000193696469, 0.000278730236, 0.00018551643, -0.0148621248, -0.0148308333, 0.000228257137, 923.5982    , 31.5204544  , 774.8503    , 4.94        , 3           , 255         , 0           , 0
-0.147589892, 0.149215341 , -9.789446   , -0.000129364431, -0.00033957875, 1.38066462E-05, -0.01486342 , -0.014834227, 0.000228445657, 923.5982    , 31.5204544  , 774.8503    , 4.95        , 3           , 255         , 0           , 0
-0.143957615, 0.140070468 , -9.787931   , -0.000187471276, 6.327577E-05, -0.000125768129, -0.0148652764, -0.0148336133, 0.000227178592, 923.5982    , 31.5204544  , 774.8503    , 4.96        , 3           , 255         , 0           , 0
-0.141456887, 0.144520968 , -9.790659   , 0.000596115133, 0.000349997077, 0.000277067156, -0.0148593569, -0.0148300724, 0.0002298972, 923.5982    , 31.5204544  , 774.8503    , 4.97        , 3           , 255         , 0           , 0
-0.1468462  , 0.148117036 , -9.797086   , 0.0005790252, 0.0006656486, 8.46752E-05 , -0.0148535781, -0.0148234069, 0.000230645062, 923.5982    , 31.5204544  , 774.8503    , 4.98        , 3           , 255         , 0           , 0
-0.13912566 , 0.154064253 , -9.793395   , -0.000277527841, -5.33711864E-05, -0.000236437627, -0.0148563171, -0.0148239741, 0.000228288685, 923.5982    , 31.5204544  , 774.8503    , 4.99        , 3           , 255         , 0           , 0
-0.133846849, 0.152266935 , -9.793765   , 0.000213709893, -0.000251107238, 0.000327961025, -0.01485423 , -0.0148264356, 0.000231605489, 923.5982    , 31.5204544  , 774.8503    , 5           , 3           , 0           , -1          , 500
-0.1433037  , 0.143946379 , -9.800968   , -0.000253817823, 0.000182680757, -8.10945348E-05, -0.0148612577, -0.0148185138, 0.00023083415, 923.5982    , 31.5204544  , 774.8244    , 5.01        , 3           , 1           , 0           , 0
-0.14770706 , 0.146523356 , -9.799726   , 0.000335269724, -0.000313557, -0.000131909983, -0.0148578873, -0.0148216682, 0.000229561687, 923.5982    , 31.5204544  , 774.8242    , 5.02        , 3           , 2           , 0           , 0
-0.140281051, 0.146280482 , -9.795936   , -0.000181429437, -0.000118545024, -7.906939E-05, -0.01485969 , -0.0148228658, 0.000228788616, 923.5321    , 31.5181484  , 774.824036  , 5.03        , 3           , 3           , 0           , 0
-0.1492422  , 0.143523887 , -9.797146   , 5.126727E-05, -0.000120840734, 0.0006901396, -0.0148592805, -0.01482397 , 0.0002357078, 923.5321    , 31.5181484  , 774.823853  , 5.04        , 3           , 4           , 0           , 0
-0.1367137  , 0.147182092 , -9.781339   , -5.707849E-05, -0.0005082451, -0.000214199608, -0.01485982 , -0.0148290852, 0.0002336414, 923.5321    , 31.5181484  , 774.823669  , 5.05        , 3           , 5           , 0           , 0
-0.144406319, 0.157816708 , -9.785906   , 0.00017610623, -0.000275400351, -0.000371797039, -0.0148580056, -0.014831895, 0.00022996444, 923.5321    , 31.5181484  , 774.8235    , 5.06        , 3           , 6           , 0           , 0
-0.144444734, 0.153746039 , -9.794646   , 0.0004481352, -0.0003441  , 0.000145511964, -0.0148535473, -0.0148353139, 0.000231470651, 923.5321    , 31.5181484  , 774.8233    , 5.07        , 3           , 7           , 0           , 0
-0.148121163, 0.14192459  , -9.787563   , 0.0005116604, -0.00023636804, -0.000725247548, -0.0148483245, -0.0148377856, 0.000224253468, 923.5321    , 31.5181484  , 774.8231    , 5.08        , 3           , 8           , 5           , 5
