Acc X       , Acc Y       , Acc Z       , Gyro X      , Gyro Y      , Gyro Z      , Euler X     , Euler Y     , Euler Z     , Pres X      , Pres Y      , Pres Z      , Time        , Status      , LowRate X   , LowRate Y   , LowRate Z    
-0.09348984 , -0.09435376 , -9.78622    , 0           , 0           , 0           , 0.009641193 , -0.009552479, 0           , 919.5978    , 28.4304543  , 810.650452  , 0           , 2           , 0           , 5.440232    , 0
-0.0920411348, -0.0928429738, -9.767808   , 0.00047438388, 9.5426396E-05, 0.000159292176, 0.009645891 , -0.009551208, 1.60208617E-06, 919.5978    , 28.4304543  , 810.650452  , 0.01        , 3           , 1           , 0           , 0
-0.09663676 , -0.09481807 , -9.785006   , 0.000639173144, -2.54393672E-06, 0.000288449082, 0.009652254 , -0.009551259, 4.486258E-06, 919.5978    , 28.4304543  , 810.650452  , 0.02        , 3           , 2           , 0           , 0
-0.105525315, -0.09577594 , -9.801672   , 0.000846566458, 7.43324345E-05, -0.000118119206, 0.00966073  , -0.009550504, 3.312269E-06, 919.577454  , 28.0131588  , 810.650452  , 0.03        , 3           , 3           , 0           , 0
-0.104311869, -0.0908023342, -9.806216   , 3.77874821E-05, -0.0002530384, -0.000272668025, 0.009661134 , -0.009553009, 5.61212971E-07, 919.577454  , 28.0131588  , 810.650452  , 0.04        , 3           , 4           , 0           , 0
-0.104095235, -0.09770341 , -9.794953   , 0.000182977 , 0.0001749775, 0.00034647953, 0.009662933 , -0.009551292, 4.04282264E-06, 919.577454  , 28.0131588  , 810.650452  , 0.05        , 3           , 5           , 0           , 0
-0.102201447, -0.09198783 , -9.772259   , 0.000371270173, 9.342207E-05, 0.000485578523, 0.009666598 , -0.009550406, 8.907514E-06, 919.577454  , 28.0131588  , 810.650452  , 0.06        , 3           , 6           , 0           , 0
-0.09480985 , -0.09175517 , -9.782329   , -0.00040114834, -0.0001728015, 9.15310957E-05, 0.009662578 , -0.009552142, 9.80609548E-06, 919.577454  , 28.0131588  , 810.650452  , 0.07        , 3           , 7           , 0           , 0
-0.09042312 , -0.09903984 , -9.79865    , 0.0001242386, 9.38513E-05 , 8.76488557E-05, 0.009663813 , -0.009551212, 1.069163E-05, 919.577454  , 28.0131588  , 810.650452  , 0.08        , 3           , 8           , 5           , 5
-0.0885247439, -0.101179518, -9.805572   , 0.000312335615, 0.000248583819, -0.000270232675, 0.009666962 , -0.009548701, 8.013395E-06, 919.577454  , 28.0131588  , 810.650452  , 0.09        , 3           , 9           , 5           , 0.1
-0.09206562 , -0.0981225148, -9.793702   , 9.475922E-05, 0.000423227873, 0.000109022316, 0.00966789853, -0.009544481, 9.144502E-06, 919.577454  , 28.0131588  , 810.650452  , 0.1         , 3           , 10          , 0.1         , 0.1
-0.09216361 , -0.09365121 , -9.772381   , 0.0004999298, 0.000556095561, -0.00056240696, 0.009676936 , -0.00955649652, 3.5362732E-06, 919.577454  , 28.0131588  , 810.8329    , 0.11        , 3           , 11          , 0.0109544508, 0.0109544508
-0.08742571 , -0.08523071 , -9.779268   , 0.000715693051, 0.000360997918, -2.991032E-05, 0.009684095 , -0.009552883, 3.27211842E-06, 919.577454  , 28.0131588  , 810.8329    , 0.12        , 3           , 12          , 0.174642488 , 0
-0.0900244  , -0.09111024 , -9.786352   , 0.000181127631, -0.000647828, 0.0006070068, 0.009685848 , -0.00955942 , 9.279289E-06, 919.575745  , 28.051218   , 810.8329    , 0.13        , 3           , 13          , 0           , 0
-0.09357406 , -0.09608019 , -9.802018   , 0.000480588584, -8.260156E-05, 2.035986E-05, 0.009690652 , -0.009560246, 9.474879E-06, 919.575745  , 28.051218   , 810.8329    , 0.14        , 3           , 14          , 0.000739827 , 0.00027899933
-0.102854848, -0.08805208 , -9.787782   , -0.00031696618, -0.000388610351, -0.0008052722, 0.009687561 , -0.009564055, 1.38471819E-06, 919.575745  , 28.051218   , 810.8329    , 0.15        , 3           , 15          , 0           , -1.49195321E-05
-0.1034682  , -0.09804644 , -9.781967   , -0.000537558, -0.000280416, -0.000237505854, 0.009682206 , -0.009566835, -1.01743649E-06, 919.575745  , 28.051218   , 810.8329    , 0.16        , 3           , 16          , 0           , 1.401298E-45
-0.09069775 , -0.091752395, -9.773105   , -0.000414950133, -2.109696E-05, 0.000239234854, 0.009678035 , -0.00956707 , 1.3727996E-06, 919.575745  , 28.051218   , 810.8329    , 0.17        , 3           , 20          , 0           , 0
-0.100506045, -0.0864578  , -9.784775   , -0.000363879837, 0.0005544946, 0.0005880592, 0.00967434  , -0.009561581, 7.30689135E-06, 919.575745  , 28.051218   , 810.8329    , 0.18        , 3           , 21          , 0           , 0
-0.099057965, -0.08640178 , -9.79301    , -0.000244358147, 0.000253671664, 0.000419040036, 0.009671855 , -0.00955908652, 1.15217281E-05, 919.575745  , 28.051218   , 810.8329    , 0.19        , 3           , 22          , 0           , 0
-0.104559936, -0.086611256, -9.793033   , -0.00032136598, 0.0001181   , 0.0005905964, 0.009668585 , -0.00955796149, 1.7438957E-05, 919.575745  , 28.051218   , 810.8329    , 0.2         , 3           , 40          , 0           , 0
-0.09957151 , -0.0910321847, -9.783485   , -4.62226453E-05, -0.000169424748, 0.0001988916, 0.009628795 , -0.009584753, 1.97882309E-05, 919.575745  , 28.051218   , 810.8409    , 0.21        , 3           , 41          , 0           , 0
-0.09434037 , -0.10028474 , -9.77434    , -4.00482677E-05, 6.537358E-05, -9.958173E-05, 0.009628405 , -0.00958409 , 1.87987316E-05, 919.575745  , 28.051218   , 810.8409    , 0.22        , 3           , 42          , 0           , 0
-0.08740451 , -0.103033088, -9.781294   , -0.000399606535, -5.85752423E-06, -0.000192936364, 0.009624427 , -0.009584129, 1.68688566E-05, 919.5789    , 28.0786934  , 810.8409    , 0.23        , 3           , 255         , 0           , 0
-0.09205902 , -0.0925380141, -9.797592   , 8.812797E-05, -5.17417939E-05, 0.0001771695, 0.009625291 , -0.009584664, 1.86355246E-05, 919.5789    , 28.0786934  , 810.8409    , 0.24        , 3           , 255         , 0           , 0
-0.0903721154, -0.08722106 , -9.806059   , 0.0010972626, 0.000173433567, -0.0001089477, 0.009636273 , -0.009582917, 1.7562772E-05, 919.5789    , 28.0786934  , 810.8409    , 0.25        , 3           , 255         , 0           , 0
-0.100653626, -0.08821063 , -9.799681   , 6.742135E-06, -3.88462358E-05, -0.000195166809, 0.009636358 , -0.009583288, 1.56074184E-05, 919.5789    , 28.0786934  , 810.8409    , 0.26        , 3           , 255         , 0           , 0
-0.102519788, -0.09180546 , -9.788237   , -0.0007212684, 0.000195283326, 0.0008335326, 0.009629065 , -0.009581414, 2.39613382E-05, 919.5789    , 28.0786934  , 810.840942  , 0.27        , 3           , 255         , 0           , 0
-0.0949271  , -0.102004215, -9.778894   , -0.000452255015, 0.000151674321, 0.00085604  , 0.009624461 , -0.00957998 , 3.25361179E-05, 919.5789    , 28.0786934  , 810.841     , 0.28        , 3           , 255         , 0           , 0
-0.1075809  , -0.101321444, -9.799522   , -4.557497E-05, -5.26602671E-05, 1.33504846E-05, 0.009624003 , -0.009580507, 3.266456E-05, 919.5789    , 28.0786934  , 810.841064  , 0.29        , 3           , 255         , 0           , 0
-0.113928422, -0.100390449, -9.803035   , -0.000129458145, 0.000202455121, 0.000100897116, 0.0096227   , -0.009578492, 3.369299E-05, 919.5789    , 28.0786934  , 810.8411    , 0.3         , 3           , 255         , 0           , 0
-0.10681963 , -0.0952601954, -9.791281   , -0.000381103077, 0.000334308861, -2.37138E-06, 0.009625102 , -0.00959410053, 3.36418234E-05, 919.5789    , 28.0786934  , 810.834045  , 0.31        , 3           , 255         , 0           , 0
-0.113732576, -0.09231374 , -9.790068   , 8.3883584E-05, -0.000126448547, -0.0001268066, 0.009625955 , -0.009595353, 3.236161E-05, 919.5789    , 28.0786934  , 810.8341    , 0.32        , 3           , 255         , 0           , 0
-0.109877929, -0.0960483  , -9.780367   , 7.153553E-05, -0.000296203885, -0.0006375625, 0.009626731 , -0.009598253, 2.59576354E-05, 919.598     , 28.09579    , 810.834167  , 0.33        , 3           , 255         , 0           , 0
-0.09917429 , -0.0992369  , -9.797179   , 1.573353E-05, 7.62283453E-05, -0.0003326999, 0.00962692  , -0.009597459, 2.263806E-05, 919.598     , 28.09579    , 810.8342    , 0.34        , 3           , 255         , 0           , 0
-0.09447957 , -0.104369923, -9.793783   , -0.000185114681, 0.0004426746, -3.295264E-05, 0.009625072 , -0.009593029, 2.23511561E-05, 919.598     , 28.09579    , 810.8343    , 0.35        , 3           , 255         , 0           , 0
-0.0967216045, -0.09873219 , -9.797462   , -9.91328852E-05, -5.45341463E-05, -3.69527952E-05, 0.009624084 , -0.009593571, 2.19763879E-05, 919.598     , 28.09579    , 810.834351  , 0.36        , 3           , 255         , 0           , 0
-0.08762911 , -0.0946572945, -9.7955265  , 2.31520389E-05, -0.000475660316, 0.000402359641, 0.009624277 , -0.009598366, 2.5954103E-05, 919.598     , 28.09579    , 810.8344    , 0.37        , 3           , 255         , 0           , 0
-0.0897755846, -0.09319719 , -9.783812   , 2.69880984E-05, -7.056608E-05, 0.000143843354, 0.009624534 , -0.009599085, 2.73857077E-05, 919.598     , 28.09579    , 810.8345    , 0.38        , 3           , 255         , 0           , 0
-0.08442398 , -0.0980934948, -9.777816   , 9.535812E-05, -0.000214943764, -0.000252791127, 0.009625513 , -0.00960121 , 2.48371762E-05, 919.598     , 28.09579    , 810.834534  , 0.39        , 3           , 255         , 0           , 0
-0.08357577 , -0.0932213143, -9.787266   , 0.000211833569, -5.321551E-05, -0.000134502508, 0.009627644 , -0.009601729, 2.3487064E-05, 919.598     , 28.09579    , 810.8346    , 0.4         , 3           , 255         , 0           , 0
-0.09773567 , -0.09082493 , -9.792744   , -0.000178451242, 0.000232722989, 0.0004710688, 0.009636593 , -0.009612155, 2.81164139E-05, 919.598     , 28.09579    , 810.787354  , 0.41        , 3           , 255         , 0           , 0
-0.09122453 , -0.096065864, -9.798994   , 0.000164628087, 0.000111668953, 0.000275007857, 0.00963821448, -0.009611065, 3.08771741E-05, 919.598     , 28.09579    , 810.7874    , 0.42        , 3           , 255         , 0           , 0
-0.0962821  , -0.101001181, -9.770416   , 0.000105743937, -0.0001954191, -8.94071854E-05, 0.00963928  , -0.009613011, 2.99642852E-05, 919.62616   , 28.1065769  , 810.7875    , 0.43        , 3           , 255         , 0           , 0
-0.09956702 , -0.09324455 , -9.774516   , -0.000213535852, -0.00011252542, -1.11064364E-05, 0.009637147 , -0.009614135, 2.98423711E-05, 919.62616   , 28.1065769  , 810.787537  , 0.44        , 3           , 255         , 0           , 0
-0.09741737 , -0.09890658 , -9.785682   , 0.0001249169, -8.81112355E-05, 8.57481064E-05, 0.009638388 , -0.009615025, 3.06913425E-05, 919.62616   , 28.1065769  , 810.7876    , 0.45        , 3           , 255         , 0           , 0
-0.0949080139, -0.100969277, -9.79357    , 0.000188441772, 9.458285E-05, 0.0001672193, 0.009640255 , -0.009614094, 3.23726126E-05, 919.62616   , 28.1065769  , 810.787659  , 0.46        , 3           , 255         , 0           , 0
-0.105333209, -0.08806763 , -9.790285   , -0.0002661328, -0.0001809091, 7.43939163E-05, 0.009637588 , -0.00961591 , 3.30991E-05 , 919.62616   , 28.1065769  , 810.7877    , 0.47        , 3           , 255         , 0           , 0
-0.109180294, -0.09672764 , -9.784013   , 0.000371030939, 0.00038117  , -1.78027658E-05, 0.009641299 , -0.00961209647, 3.29578143E-05, 919.62616   , 28.1065769  , 810.7878    , 0.48        , 3           , 255         , 0           , 0
-0.09744607 , -0.09922977 , -9.782301   , 0.000139307056, 0.0002991497, 5.148765E-05, 0.009642687 , -0.009609111, 3.350152E-05, 919.62616   , 28.1065769  , 810.787842  , 0.49        , 3           , 255         , 0           , 0
-0.0932267457, -0.09278092 , -9.788763   , 4.64469776E-05, -0.0002662758, -0.000100523976, 0.009643161 , -0.009611764, 3.247063E-05, 919.62616   , 28.1065769  , 810.7879    , 0.5         , 3           , 255         , 0           , 0
-0.09267172 , -0.104316674, -9.791818   , 0.00050478807, -2.95910286E-06, 8.481122E-05, 0.009657846 , -0.009639085, 3.32254676E-05, 919.62616   , 28.1065769  , 810.7071    , 0.51        , 3           , 255         , 0           , 0
-0.08935976 , -0.0988563746, -9.797055   , 0.0002396793, -1.1201395E-05, 0.0006718594, 0.009660175 , -0.009639261, 3.99428172E-05, 919.62616   , 28.1065769  , 810.707153  , 0.52        , 3           , 255         , 0           , 0
-0.08492985 , -0.10045024 , -9.779844   , -0.000485569559, -0.0004630666, 0.0005504991, 0.009655268 , -0.009643945, 4.540295E-05, 919.5726    , 28.1147861  , 810.7072    , 0.53        , 3           , 255         , 0           , 0
-0.08514474 , -0.101184689, -9.784193   , 0.000381789 , 0.000129655353, 0.000470956 , 0.009659039 , -0.009642692, 5.012492E-05, 919.5726    , 28.1147861  , 810.7073    , 0.54        , 3           , 255         , 0           , 0
-0.0913371  , -0.101671241, -9.785332   , 0.0005088732, 0.000451143569, 0.000170075451, 0.009664113 , -0.009638199, 5.186922E-05, 919.5726    , 28.1147861  , 810.707336  , 0.55        , 3           , 255         , 0           , 0
-0.09425367 , -0.0977415  , -9.799009   , -0.000437210081, 6.96952338E-06, 0.000264462258, 0.009659714 , -0.009638154, 5.451445E-05, 919.5726    , 28.1147861  , 810.7074    , 0.56        , 3           , 255         , 0           , 0
-0.09051064 , -0.09613004 , -9.803475   , -0.000426333572, 6.738654E-05, -6.87036663E-05, 0.009655459 , -0.009637473, 5.383394E-05, 919.5726    , 28.1147861  , 810.707458  , 0.57        , 3           , 255         , 0           , 0
-0.09674895 , -0.08932035 , -9.79185    , 0.00031103153, -4.78759175E-05, 0.0003162979, 0.00965854  , -0.009637983, 5.699221E-05, 919.5726    , 28.1147861  , 810.7075    , 0.58        , 3           , 255         , 0           , 0
-0.09890577 , -0.08981831 , -9.77713    , -0.000188647129, 3.79650737E-05, -0.000359442027, 0.009656689 , -0.009637568, 5.340154E-05, 919.5726    , 28.1147861  , 810.7076    , 0.59        , 3           , 255         , 0           , 0
-0.0904373154, -0.103739366, -9.782625   , 0.0003102647, -0.0002493062, -0.0002659379, 0.00965981651, -0.009640035, 5.071815E-05, 919.5726    , 28.1147861  , 810.707642  , 0.6         , 3           , 255         , 0           , 0
-0.08797159 , -0.0950941741, -9.791271   , 0.000675064046, -0.000511958962, -0.000498441164, 0.0096828565, -0.009632299, 4.552793E-05, 919.5726    , 28.1147861  , 810.7375    , 0.61        , 3           , 255         , 0           , 0
-0.104696177, -0.08500818 , -9.79524    , 0.000339357648, -0.000390170782, -0.0006402741, 0.009686313 , -0.009636139, 3.908757E-05, 919.5726    , 28.1147861  , 810.737549  , 0.62        , 3           , 255         , 0           , 0
-0.096569106, -0.09785946 , -9.788245   , 0.000115237781, -0.000183084092, -5.36869375E-05, 0.009687471 , -0.009637964, 3.85329731E-05, 919.576355  , 28.1226559  , 810.7376    , 0.63        , 3           , 255         , 0           , 0
-0.0848258361, -0.09236116 , -9.781482   , 0.000490025035, -1.64437515E-05, 0.000512884057, 0.009692321 , -0.009638178, 4.36600967E-05, 919.576355  , 28.1226559  , 810.7377    , 0.64        , 3           , 255         , 0           , 0
-0.08063994 , -0.09577925 , -9.780608   , -0.000354933552, -0.000116365758, 0.0007304049, 0.009688701 , -0.009639412, 5.09526762E-05, 919.576355  , 28.1226559  , 810.737732  , 0.65        , 3           , 255         , 0           , 0
-0.0934374854, -0.09845877 , -9.784761   , -0.000171312946, 0.000397175027, 6.771799E-05, 0.009686981 , -0.009635447, 5.16683176E-05, 919.576355  , 28.1226559  , 810.7378    , 0.66        , 3           , 255         , 0           , 0
-0.09430796 , -0.0987461656, -9.798584   , -0.000512353552, 1.7755141E-05, 0.0005034746, 0.009681808 , -0.009635318, 5.670466E-05, 919.576355  , 28.1226559  , 810.737854  , 0.67        , 3           , 255         , 0           , 0
-0.0937227  , -0.09797302 , -9.794794   , -9.279826E-05, 0.00017949217, 0.00042291393, 0.00968084  , -0.009633564, 6.0951068E-05, 919.576355  , 28.1226559  , 810.7379    , 0.68        , 3           , 255         , 0           , 0
-0.09368373 , -0.0934383  , -9.785753   , 0.000465684454, 6.0891296E-05, -0.000279333355, 0.009685524 , -0.009632929, 5.81636923E-05, 919.576355  , 28.1226559  , 810.738     , 0.69        , 3           , 255         , 0           , 0
-0.101933494, -0.0936159045, -9.784471   , 0.0006028663, 0.00010392387, -0.00012426883, 0.009691563 , -0.009631879, 5.693111E-05, 919.576355  , 28.1226559  , 810.738037  , 0.7         , 3           , 255         , 0           , 0
-0.0967265  , -0.09283279 , -9.783366   , 0.000146731327, 9.480381E-05, -8.102541E-05, 0.009692941 , -0.009625628, 5.61310044E-05, 919.576355  , 28.1226559  , 810.754333  , 0.71        , 3           , 255         , 0           , 0
-0.09934192 , -0.09994282 , -9.79744148 , 0.000148948457, -0.0004488812, 0.000220708724, 0.009694409 , -0.009630136, 5.829453E-05, 919.576355  , 28.1226559  , 810.7544    , 0.72        , 3           , 255         , 0           , 0
-0.09551437 , -0.09246602 , -9.78924    , 0.000136225368, -0.00029753198, 9.611111E-05, 0.009695762 , -0.009633121, 5.92267643E-05, 919.599548  , 28.1249619  , 810.754456  , 0.73        , 3           , 255         , 0           , 0
-0.09582654 , -0.09729795 , -9.781      , 0.00011237018, 0.000339255 , 0.000317407335, 0.009696857 , -0.00962976 , 6.24336462E-05, 919.599548  , 28.1249619  , 810.7545    , 0.74        , 3           , 255         , 0           , 0
-0.09899777 , -0.09036319 , -9.791903   , -9.823882E-06, 0.000430684915, 7.927826E-05, 0.009696751 , -0.009625462, 6.326817E-05, 919.599548  , 28.1249619  , 810.754639  , 0.75        , 3           , 255         , 0           , 0
-0.0903954357, -0.09103944 , -9.793579   , 1.086964E-05, 0.000268956559, -0.000132270477, 0.009696873 , -0.009622759, 6.19715647E-05, 919.599548  , 28.1249619  , 810.754761  , 0.76        , 3           , 255         , 0           , 0
-0.0911914557, -0.0908386  , -9.792221   , 0.000185224751, 5.05620555E-05, 0.000508002238, 0.009698677 , -0.009622303, 6.705636E-05, 919.599548  , 28.1249619  , 810.7549    , 0.77        , 3           , 255         , 0           , 0
-0.09917687 , -0.09118932 , -9.796828   , 0.000161316129, -6.4430933E-06, 0.000328207068, 0.009700258 , -0.009622399, 7.03377154E-05, 919.599548  , 28.1249619  , 810.755     , 0.78        , 3           , 255         , 0           , 0
-0.0889050961, -0.0939369053, -9.78521    , 0.0007876195, -1.74038869E-05, 0.0004680504, 0.009708089 , -0.009622619, 7.50163963E-05, 919.599548  , 28.1249619  , 810.7551    , 0.79        , 3           , 255         , 0           , 0
-0.0860670656, -0.09692326 , -9.795646   , 6.666535E-05, -0.00026145333, -4.50555035E-06, 0.009708755 , -0.009625234, 7.4945965E-05, 919.599548  , 28.1249619  , 810.755249  , 0.8         , 3           , 255         , 0           , 0
-0.101575062, -0.106164552, -9.792041   , -0.0001273657, -6.602425E-05, -0.0002986902, 0.009703089 , -0.009625693, 7.199532E-05, 919.599548  , 28.1249619  , 810.7387    , 0.81        , 3           , 255         , 0           , 0
-0.0996935  , -0.09808389 , -9.788944   , -0.000281258457, 0.0006316458, -0.000405719533, 0.009700314 , -0.009619337, 6.799951E-05, 919.599548  , 28.1249619  , 810.7388    , 0.82        , 3           , 255         , 0           , 0
-0.09009875 , -0.09638973 , -9.7948     , 0.00051197526, 0.000274791528, -3.73664843E-05, 0.009705437 , -0.009616586, 6.765251E-05, 919.5905    , 28.1291676  , 810.738831  , 0.83        , 3           , 255         , 0           , 0
-0.09492069 , -0.07622512 , -9.786886   , 0.000118239957, -0.000157569826, 0.000213945139, 0.009706599 , -0.009618183, 6.977661E-05, 919.5905    , 28.1291676  , 810.7389    , 0.84        , 3           , 255         , 0           , 0
-0.100000724, -0.08571708 , -9.783251   , -1.870573E-05, 0.0004938418, 6.469815E-05, 0.009706406 , -0.00961325 , 7.04715058E-05, 919.5905    , 28.1291676  , 810.738953  , 0.85        , 3           , 255         , 0           , 0
-0.09396148 , -0.09325366 , -9.785289   , 0.000186953752, -0.000252025726, -3.50813425E-05, 0.009708278 , -0.009615768, 7.009623E-05, 919.5905    , 28.1291676  , 810.739     , 0.86        , 3           , 255         , 0           , 0
-0.08867772 , -0.09394301 , -9.790989   , -0.0001261456, -0.0003924815, 0.00058763643, 0.009706962 , -0.009619749, 7.593432E-05, 919.5905    , 28.1291676  , 810.739136  , 0.87        , 3           , 255         , 0           , 0
-0.100346945, -0.08436701 , -9.780199   , -0.000256757659, -0.000213996449, -0.000179203649, 0.009704411 , -0.009621871, 7.412157E-05, 919.5905    , 28.1291676  , 810.739258  , 0.88        , 3           , 255         , 0           , 0
-0.107715681, -0.09237515 , -9.784806   , -0.000252791331, 8.755771E-05, -0.0008758241, 0.009701967 , -0.00962091051, 6.537205E-05, 919.5905    , 28.1291676  , 810.7394    , 0.89        , 3           , 255         , 0           , 0
-0.102460779, -0.09753359 , -9.795439   , 0.000187577389, -5.599385E-05, -0.000447769446, 0.009703886 , -0.009621426, 6.088904E-05, 919.5905    , 28.1291676  , 810.7395    , 0.9         , 3           , 255         , 0           , 0
-0.104522631, -0.10102725 , -9.787954   , -0.000120167737, -5.73937723E-05, 0.0009392491, 0.009691467 , -0.009638403, 7.038299E-05, 919.5905    , 28.1291676  , 810.7364    , 0.91        , 3           , 255         , 0           , 0
-0.106126651, -0.106523849, -9.791121   , -0.000392338319, -9.52841947E-06, 0.000595258956, 0.009687486 , -0.009638555, 7.63344942E-05, 919.5905    , 28.1291676  , 810.7365    , 0.92        , 3           , 255         , 0           , 0
-0.09788326 , -0.09593566 , -9.79318    , -0.000513710256, 5.150956E-05, -0.000960475532, 0.009682441 , -0.009637947, 6.673498E-05, 919.604736  , 28.1335773  , 810.736633  , 0.93        , 3           , 255         , 0           , 0
-0.102312505, -0.09489465 , -9.795156   , 0.000157600793, 0.000118062366, -0.000184082746, 0.009684035 , -0.00963674951, 6.490563E-05, 919.604736  , 28.1335773  , 810.736755  , 0.94        , 3           , 255         , 0           , 0
-0.09429516 , -0.09851562 , -9.793364   , 3.14471545E-05, 0.000233896251, 0.0003455221, 0.009684316 , -0.00963444449, 6.83834151E-05, 919.604736  , 28.1335773  , 810.7369    , 0.95        , 3           , 255         , 0           , 0
-0.09845541 , -0.08834027 , -9.790209   , -0.000350742543, -0.000205331438, -0.000186120058, 0.009680827 , -0.009636479, 6.650237E-05, 919.604736  , 28.1335773  , 810.737     , 0.96        , 3           , 255         , 0           , 0
-0.0910670757, -0.09356231 , -9.787489   , -0.000244334224, -0.0003271983, -0.000395389477, 0.00967842247, -0.009639713, 6.251691E-05, 919.604736  , 28.1335773  , 810.7371    , 0.97        , 3           , 255         , 0           , 0
-0.09105944 , -0.0878300741, -9.790933   , 0.0002010538, 0.0002228514, -0.0001617956, 0.009680447 , -0.009637469, 6.09205672E-05, 919.604736  , 28.1335773  , 810.737244  , 0.98        , 3           , 255         , 0           , 0
-0.09886084 , -0.0925826  , -9.797055   , -0.0006792963, 0.000248324883, -0.00021585128, 0.00967367552, -0.009634965, 5.87861359E-05, 919.604736  , 28.1335773  , 810.737366  , 0.99        , 3           , 255         , 0           , 0
-0.10018529 , -0.08923526 , -9.798383   , 0.000517482171, 0.000359140744, -0.000394516479, 0.009678887 , -0.009631336, 5.487583E-05, 919.604736  , 28.1335773  , 810.7375    , 1           , 3           , 0           , 6.44023657  , 100
-0.09907715 , -0.09249312 , -9.786779   , 0.0005871175, 0.0001852879, -5.860067E-05, 0.009684789 , -0.009641018, 5.43075257E-05, 919.604736  , 28.1335773  , 810.7194    , 1.01        , 3           , 1           , 0           , 0
-0.09603766 , -0.09290999 , -9.790466   , 6.66409E-05 , 5.30387042E-05, -0.0001758354, 0.009685473 , -0.00964047 , 5.25543473E-05, 919.604736  , 28.1335773  , 810.7195    , 1.02        , 3           , 2           , 0           , 0
-0.09272571 , -0.09030595 , -9.781141   , -1.04702776E-05, 0.000299238949, -0.000199565678, 0.009685388 , -0.009637459, 5.05877324E-05, 919.597168  , 28.1364269  , 810.719543  , 1.03        , 3           , 3           , 0           , 0
-0.09249143 , -0.0954301953, -9.792543   , -0.0007461073, 1.485346E-05, 0.00025485392, 0.009677903 , -0.009637334, 5.313764E-05, 919.597168  , 28.1364269  , 810.7196    , 1.04        , 3           , 4           , 0           , 0
-0.0986053  , -0.09692359 , -9.792177   , 0.000245623523, 0.000314137258, -0.000165286139, 0.009680374 , -0.009634178, 5.15152169E-05, 919.597168  , 28.1364269  , 810.719666  , 1.05        , 3           , 5           , 0           , 0
-0.08750032 , -0.09701062 , -9.78141    , 0.0003387907, 9.20499151E-05, -5.60582557E-05, 0.009683768 , -0.009633252, 5.096356E-05, 919.597168  , 28.1364269  , 810.7197    , 1.06        , 3           , 6           , 0           , 0
-0.0976037  , -0.09013635 , -9.784345   , 0.000121328572, 0.000142941892, -0.0003597005, 0.009685017 , -0.009631789, 4.7380483E-05, 919.597168  , 28.1364269  , 810.7198    , 1.07        , 3           , 7           , 0           , 0
-0.103157565, -0.0811704248, -9.781209   , -1.49630941E-05, 0.000171462481, -0.000378852419, 0.009684904 , -0.00963003747, 4.36086666E-05, 919.597168  , 28.1364269  , 810.719849  , 1.08        , 3           , 8           , 5           , 5
-0.0915730447, -0.0993403643, -9.797682   , -0.000362196472, 7.596781E-05, -0.0002456159, 0.009681305 , -0.009629254, 4.115992E-05, 919.597168  , 28.1364269  , 810.7199    , 1.09        , 3           , 9           , 5           , 0.1
-0.09198074 , -0.09661304 , -9.8042345  , -1.28105748E-05, -0.000142774457, 0.001350149 , 0.009681046 , -0.009630813, 5.464726E-05, 919.597168  , 28.1364269  , 810.72      , 1.1         , 3           , 10          , 0.1         , 0.1
-0.102045536, -0.0886943042, -9.791353   , 0.000139221782, -0.000147375438, 0.000863936963, 0.009676826 , -0.009635076, 6.3325424E-05, 919.597168  , 28.1364269  , 810.712646  , 1.11        , 3           , 11          , 0.008579776 , 0.008579776
-0.09785876 , -0.09768731 , -9.791084   , 0.000705899 , -0.000345290871, -9.955547E-05, 0.009683893 , -0.009638518, 6.22964653E-05, 919.597168  , 28.1364269  , 810.7127    , 1.12        , 3           , 12          , 0.174642846 , 0
-0.08943923 , -0.098178   , -9.783954   , 0.000287020579, -0.000491208455, -0.000448221574, 0.009686807 , -0.009643386, 5.776679E-05, 919.628052  , 28.1380558  , 810.712769  , 1.13        , 3           , 13          , 0           , 0
-0.0943341851, -0.09968464 , -9.794312   , 0.000279861968, -0.000268007163, -0.000212044382, 0.009689625 , -0.009646047, 5.562043E-05, 919.628052  , 28.1380558  , 810.7128    , 1.14        , 3           , 14          , 0.0007398359, 0.000279051048
-0.09140941 , -0.100855529, -9.784363   , 0.000587305636, -0.000415609626, -0.000106507345, 0.00969551  , -0.009650193, 5.45150942E-05, 919.628052  , 28.1380558  , 810.7129    , 1.15        , 3           , 15          , 0           , -1.49201187E-05
-0.0867349654, -0.100564167, -9.788239   , 6.026344E-05, -0.000300910557, 0.000722189958, 0.009696043 , -0.00965327 , 6.170764E-05, 919.628052  , 28.1380558  , 810.712952  , 1.16        , 3           , 16          , 0           , 1.401298E-45
-0.0859551057, -0.105226457, -9.789385   , 0.0001473081, 0.000254898 , 0.00112893258, 0.009697407 , -0.009650832, 7.30214E-05 , 919.628052  , 28.1380558  , 810.713     , 1.17        , 3           , 20          , 0           , 0
-0.0968240947, -0.09658214 , -9.785902   , 0.0005061149, -8.09753838E-05, 0.0008372336, 0.009702386 , -0.009651721, 8.138566E-05, 919.628052  , 28.1380558  , 810.7131    , 1.18        , 3           , 21          , 0           , 0
-0.09543719 , -0.08340366 , -9.794053   , 0.000163111952, -0.000464933575, 0.000489467464, 0.00970397  , -0.009656417, 8.623509E-05, 919.628052  , 28.1380558  , 810.713135  , 1.19        , 3           , 22          , 0           , 0
-0.09525229 , -0.07898305 , -9.801217   , 0.000330161536, -0.0003054907, 0.000169090665, 0.009707255 , -0.009659489, 8.78963E-05 , 919.628052  , 28.1380558  , 810.7132    , 1.2         , 3           , 40          , 0           , 0
-0.0998724848, -0.08852617 , -9.799553   , -0.000239341112, -0.000406329054, -5.698534E-05, 0.009705127 , -0.009660591, 8.72845E-05 , 919.628052  , 28.1380558  , 810.674866  , 1.21        , 3           , 41          , 0           , 0
-0.09848435 , -0.09434889 , -9.787918   , -0.000569843338, -0.0003571142, 0.000222159084, 0.009699408 , -0.009664184, 8.94713958E-05, 919.628052  , 28.1380558  , 810.6748    , 1.22        , 3           , 42          , 0           , 0
-0.08750563 , -0.101226404, -9.791824   , -0.000257312728, -0.000164259938, -0.000148126986, 0.00969685  , -0.009665812, 8.797424E-05, 919.5843    , 28.1390743  , 810.674744  , 1.23        , 3           , 255         , 0           , 0
-0.0941531062, -0.0958315954, -9.788061   , 0.000112598354, -8.64173053E-05, -0.0003739258, 0.009698012 , -0.00966664 , 8.422669E-05, 919.5843    , 28.1390743  , 810.6747    , 1.24        , 3           , 255         , 0           , 0
-0.09379894 , -0.08437051 , -9.793204   , 0.000212477578, -9.329282E-05, 0.000115513139, 0.009700125 , -0.009667585, 8.537275E-05, 919.5843    , 28.1390743  , 810.6746    , 1.25        , 3           , 255         , 0           , 0
-0.09072201 , -0.08733055 , -9.789687   , -0.000309232681, -0.000191047584, -1.80896059E-05, 0.009697035 , -0.009669492, 8.517333E-05, 919.5843    , 28.1390743  , 810.674561  , 1.26        , 3           , 255         , 0           , 0
-0.0918523446, -0.08746725 , -9.795816   , -0.000178705959, -2.05503311E-05, 8.555068E-05, 0.009695238 , -0.009669706, 8.602683E-05, 919.5843    , 28.1390743  , 810.674561  , 1.27        , 3           , 255         , 0           , 0
-0.09994298 , -0.09211301 , -9.791086   , -1.30233238E-05, 0.0004056403, -0.000255695631, 0.009695133 , -0.009665625, 8.35092651E-05, 919.5843    , 28.1390743  , 810.674561  , 1.28        , 3           , 255         , 0           , 0
-0.09607558 , -0.09203611 , -9.790613   , 0.0002898774, -0.000190730483, -0.000182714939, 0.009698049 , -0.009667514, 8.166366E-05, 919.5843    , 28.1390743  , 810.674561  , 1.29        , 3           , 255         , 0           , 0
-0.100082979, -0.0900050253, -9.794724   , -0.000440907228, -9.119946E-05, -0.0005226456, 0.00969369  , -0.009668375, 7.64285141E-05, 919.5843    , 28.1390743  , 810.674561  , 1.3         , 3           , 255         , 0           , 0
-0.0949039161, -0.0923328549, -9.790413   , -3.338128E-05, -0.000435475085, -0.000114037386, 0.0096838   , -0.00967423152, 7.53385E-05 , 919.5843    , 28.1390743  , 810.6856    , 1.31        , 3           , 255         , 0           , 0
-0.09744899 , -0.0969284251, -9.798145   , -6.13365E-05, -0.0003080857, 0.000238619818, 0.009683164 , -0.009677335, 7.76948145E-05, 919.5843    , 28.1390743  , 810.6856    , 1.32        , 3           , 255         , 0           , 0
-0.100084327, -0.08868208 , -9.787512   , 0.000731207547, 5.32919366E-05, 1.43357174E-05, 0.009690475 , -0.009676805, 7.78433241E-05, 919.6163    , 28.14043    , 810.6856    , 1.33        , 3           , 255         , 0           , 0
-0.0958731  , -0.08937719 , -9.790961   , 0.000106244348, 0.00014830177, -0.000275939878, 0.009691563 , -0.009675295, 7.50983745E-05, 919.6163    , 28.14043    , 810.6856    , 1.34        , 3           , 255         , 0           , 0
-0.0989205241, -0.0885261446, -9.790413   , -0.000116006762, -0.00013263576, -0.0002173573, 0.009690424 , -0.0096766  , 7.2912E-05  , 919.6163    , 28.14043    , 810.6856    , 1.35        , 3           , 255         , 0           , 0
-0.106593087, -0.0942968  , -9.7897     , 1.34280417E-05, 0.000513360836, -0.000215233929, 0.009690578 , -0.009671446, 7.080947E-05, 919.6163    , 28.14043    , 810.6856    , 1.36        , 3           , 255         , 0           , 0
-0.09725613 , -0.0940517038, -9.787288   , 7.7195E-05  , 0.0003667447, 0.000361973362, 0.009691315 , -0.009667814, 7.44646459E-05, 919.6163    , 28.14043    , 810.6856    , 1.37        , 3           , 255         , 0           , 0
-0.09887542 , -0.0998113155, -9.789154   , -6.488175E-06, 0.000211713836, -2.51325382E-05, 0.009691252 , -0.009665695, 7.423385E-05, 919.6163    , 28.14043    , 810.6856    , 1.38        , 3           , 255         , 0           , 0
-0.08889558 , -0.100803889, -9.790073   , 0.000376883079, -8.291798E-05, -0.000113040274, 0.009695033 , -0.009666513, 7.30954343E-05, 919.6163    , 28.14043    , 810.6856    , 1.39        , 3           , 255         , 0           , 0
-0.091563724, -0.099178575, -9.786347   , -0.000338630663, 4.59170551E-05, 2.31211488E-05, 0.00969164353, -0.009666055, 7.333109E-05, 919.6163    , 28.14043    , 810.6856    , 1.4         , 3           , 255         , 0           , 0
-0.09378858 , -0.09954371 , -9.799163   , -0.000179047056, 0.000320127117, -0.000205218937, 0.009688408 , -0.009669906, 7.13241461E-05, 919.6163    , 28.14043    , 810.6625    , 1.41        , 3           , 255         , 0           , 0
-0.09083386 , -0.09990938 , -9.792      , -0.000300720072, 0.000118675292, 0.000171291525, 0.009685384 , -0.009668736, 7.304852E-05, 919.6163    , 28.14043    , 810.6624    , 1.42        , 3           , 255         , 0           , 0
-0.09282679 , -0.09512997 , -9.785276   , -9.998446E-05, 0.000398533535, 0.000196471432, 0.009684365 , -0.00966477 , 7.505178E-05, 919.623169  , 28.1414471  , 810.662354  , 1.43        , 3           , 255         , 0           , 0
-0.100208066, -0.0958411843, -9.786169   , -0.000368900422, 0.0005472221, 7.117387E-07, 0.009680676 , -0.009659297, 7.511187E-05, 919.623169  , 28.1414471  , 810.6623    , 1.44        , 3           , 255         , 0           , 0
-0.09818885 , -0.09029643 , -9.787985   , -0.000520118, 0.0005867476, 0.0003540211, 0.009675442 , -0.009653466, 7.87087847E-05, 919.623169  , 28.1414471  , 810.662231  , 1.45        , 3           , 255         , 0           , 0
-0.0909502  , -0.0856726542, -9.791486   , 0.00031606853, 5.32203121E-05, 0.000251957623, 0.009678577 , -0.009652958, 8.123345E-05, 919.623169  , 28.1414471  , 810.6622    , 1.46        , 3           , 255         , 0           , 0
-0.103935048, -0.100349009, -9.783235   , 0.000112116104, -0.0006010062, 0.000270405551, 0.009679672 , -0.009658994, 8.387924E-05, 919.623169  , 28.1414471  , 810.6621    , 1.47        , 3           , 255         , 0           , 0
-0.105209842, -0.0939331651, -9.794031   , -0.000165656267, -0.000346765621, -0.0006250429, 0.009678076 , -0.009662401, 7.7595425E-05, 919.623169  , 28.1414471  , 810.662048  , 1.48        , 3           , 255         , 0           , 0
-0.08936937 , -0.09304841 , -9.792415   , -0.0004372468, 0.000179593975, 0.000767622 , 0.009673629 , -0.00966068 , 8.528882E-05, 919.623169  , 28.1414471  , 810.662     , 1.49        , 3           , 255         , 0           , 0
-0.08635552 , -0.100368619, -9.79262352 , -0.000231774291, 0.000451284228, 0.0008068444, 0.009671233 , -0.009656245, 9.340072E-05, 919.623169  , 28.1414471  , 810.6619    , 1.5         , 3           , 255         , 0           , 0
-0.0967385843, -0.08843997 , -9.795027   , 0.000290876662, 0.0004441329, 0.000355357653, 0.009675996 , -0.009653632, 9.69789E-05 , 919.623169  , 28.1414471  , 810.6336    , 1.51        , 3           , 255         , 0           , 0
-0.09696712 , -0.0956607  , -9.790972   , -0.000100009551, 6.849249E-05, 0.0005838727, 0.00967494  , -0.009653004, 0.000102824117, 919.623169  , 28.1414471  , 810.6334    , 1.52        , 3           , 255         , 0           , 0
-0.09403743 , -0.08968748 , -9.792843   , 0.0001926581, 8.961282E-05, -1.60785366E-05, 0.009676869 , -0.009652106, 0.000102672 , 919.602356  , 28.14294    , 810.63324   , 1.53        , 3           , 255         , 0           , 0
-0.08793408 , -0.08516984 , -9.781887   , -0.000102436054, 0.0003086584, 0.000369152753, 0.009675808 , -0.009649055, 0.0001063933, 919.602356  , 28.14294    , 810.633057  , 1.54        , 3           , 255         , 0           , 0
-0.0873356462, -0.0877390951, -9.788397   , 4.261703E-05, 0.0005785712, 0.000432449626, 0.009676194 , -0.009643311, 0.000110773653, 919.602356  , 28.14294    , 810.6329    , 1.55        , 3           , 255         , 0           , 0
-0.100793108, -0.100460686, -9.79054451 , 0.000344532251, 0.000108365 , -9.52859336E-05, 0.009679648 , -0.009642218, 0.000109831315, 919.602356  , 28.14294    , 810.6327    , 1.56        , 3           , 255         , 0           , 0
-0.09972082 , -0.09335693 , -9.791666   , 0.0005470971, 5.17724839E-05, -0.000113707014, 0.00968513  , -0.00964169 , 0.000108699278, 919.602356  , 28.14294    , 810.6325    , 1.57        , 3           , 255         , 0           , 0
-0.09491885 , -0.09328363 , -9.789095   , 0.000867195369, -9.007602E-05, 0.0003560584, 0.009693768 , -0.009642625, 0.000112251022, 919.602356  , 28.14294    , 810.6323    , 1.58        , 3           , 255         , 0           , 0
-0.0931240544, -0.09847744 , -9.793327   , 0.000205834745, -0.000333030184, 0.0002324501, 0.009695804 , -0.00964598 , 0.000114543174, 919.602356  , 28.14294    , 810.632141  , 1.59        , 3           , 255         , 0           , 0
-0.0999922156, -0.09367944 , -9.788712   , 0.0002283061, -0.000166425045, 0.000564587 , 0.009698032 , -0.009647698, 0.000120172765, 919.602356  , 28.14294    , 810.631958  , 1.6         , 3           , 255         , 0           , 0
-0.09215555 , -0.09426043 , -9.791817   , 0.000139604032, 1.748107E-05, -0.000108014632, 0.009693355 , -0.009649551, 0.000119153017, 919.602356  , 28.14294    , 810.6287    , 1.61        , 3           , 255         , 0           , 0
-0.09061499 , -0.0952207  , -9.78535652 , 0.0003808732, -0.0005057829, -1.03135781E-05, 0.009697165 , -0.009654608, 0.000119000848, 919.602356  , 28.14294    , 810.62854   , 1.62        , 3           , 255         , 0           , 0
-0.0901858  , -0.0997182354, -9.78545952 , 0.000230929349, -0.000456034322, -0.000786017743, 0.00969954953, -0.009659091, 0.00011109664, 919.6189    , 28.14518    , 810.628357  , 1.63        , 3           , 255         , 0           , 0
-0.09723272 , -0.095006004, -9.793032   , 3.7336722E-06, -0.000424582249, -0.000292089157, 0.009699616 , -0.009663308, 0.000108134642, 919.6189    , 28.14518    , 810.6282    , 1.64        , 3           , 255         , 0           , 0
-0.0941338  , -0.0935282  , -9.787371   , 0.000150022737, -8.410556E-05, 4.47331477E-05, 0.009701112 , -0.009664155, 0.000108573811, 919.6189    , 28.14518    , 810.628     , 1.65        , 3           , 255         , 0           , 0
-0.08967431 , -0.09352015 , -9.780488   , 0.000103105674, 0.000248609867, 0.000840280263, 0.00970206  , -0.009661749, 0.000117000513, 919.6189    , 28.14518    , 810.6278    , 1.66        , 3           , 255         , 0           , 0
-0.09836565 , -0.09654746 , -9.785396   , 0.0004269064, 0.000360719336, -0.000438334129, 0.009706373 , -0.009658099, 0.000112652284, 919.6189    , 28.14518    , 810.6276    , 1.67        , 3           , 255         , 0           , 0
-0.0905178338, -0.09779352 , -9.799149   , 6.260036E-05, -0.000145592858, 5.94207631E-05, 0.009706994 , -0.00965956 , 0.000113232345, 919.6189    , 28.14518    , 810.627441  , 1.68        , 3           , 255         , 0           , 0
-0.0980985  , -0.09382441 , -9.789645   , -0.000492883, -0.000191146275, 5.004177E-05, 0.00970205851, -0.009661476, 0.0001137142, 919.6189    , 28.14518    , 810.627258  , 1.69        , 3           , 255         , 0           , 0
-0.100707427, -0.09252305 , -9.799632   , 8.95499252E-05, 0.0004442769, 0.000158821029, 0.009702939 , -0.00965705 , 0.000115345472, 919.6189    , 28.14518    , 810.6271    , 1.7         , 3           , 255         , 0           , 0
-0.0892265141, -0.0841060057, -9.793234   , 0.000486205448, 0.000339453632, 0.00025609514, 0.00970843  , -0.00965239 , 0.000117932977, 919.6189    , 28.14518    , 810.6062    , 1.71        , 3           , 255         , 0           , 0
-0.09775169 , -0.0934284255, -9.792154   , 9.176624E-05, 5.00680471E-05, -0.000211585939, 0.00970936753, -0.009651869, 0.00011582204, 919.6189    , 28.14518    , 810.6059    , 1.72        , 3           , 255         , 0           , 0
-0.0922024846, -0.08926734 , -9.77984    , -0.000160738244, -7.037769E-05, 0.000460856128, 0.009707716 , -0.009652617, 0.000120423654, 919.5738    , 28.1463318  , 810.6056    , 1.73        , 3           , 255         , 0           , 0
-0.09627543 , -0.08875152 , -9.788172   , -0.000102453516, -0.000243128685, 0.00118796027, 0.009706576 , -0.009655163, 0.000132279369, 919.5738    , 28.1463318  , 810.6053    , 1.74        , 3           , 255         , 0           , 0
-0.09382217 , -0.0903628841, -9.781065   , 0.00019142119, -0.0005909987, -0.000178822418, 0.009708506 , -0.009661053, 0.000130433807, 919.5738    , 28.1463318  , 810.605     , 1.75        , 3           , 255         , 0           , 0
-0.09073888 , -0.08705074 , -9.78142    , 0.0002495288, -0.000207934921, 0.000125923048, 0.00971099  , -0.009663145, 0.000131672816, 919.5738    , 28.1463318  , 810.6047    , 1.76        , 3           , 255         , 0           , 0
-0.09457491 , -0.0880516544, -9.784403   , 0.000270070625, 0.000129736378, 0.000192924068, 0.009713672 , -0.009661867, 0.000133614609, 919.5738    , 28.1463318  , 810.6044    , 1.77        , 3           , 255         , 0           , 0
-0.094988   , -0.0966698155, -9.78758    , 2.926396E-05, 0.00036554737, -0.000951455964, 0.009714056 , -0.009658121, 0.000124135782, 919.5738    , 28.1463318  , 810.604065  , 1.78        , 3           , 255         , 0           , 0
-0.09595056 , -0.09485327 , -9.78564    , 0.000144844817, 0.000431477034, -0.000273416517, 0.009715531 , -0.00965378 , 0.0001214436, 919.5738    , 28.1463318  , 810.60376   , 1.79        , 3           , 255         , 0           , 0
-0.0906587839, -0.09397273 , -9.79535    , 0.000263251131, 9.73561546E-05, 4.2409054E-05, 0.009718158 , -0.00965281 , 0.000121877136, 919.5738    , 28.1463318  , 810.603455  , 1.8         , 3           , 255         , 0           , 0
-0.09002683 , -0.09423225 , -9.795408   , 0.000384161482, -0.000428927131, -0.000304223271, 0.009705111 , -0.00965351053, 0.00011895661, 919.5738    , 28.1463318  , 810.6358    , 1.81        , 3           , 255         , 0           , 0
-0.0920037255, -0.09101138 , -9.78998852 , 0.0005508616, -0.000296250655, -6.71377638E-05, 0.009710627 , -0.009656467, 0.000118256488, 919.5738    , 28.1463318  , 810.635742  , 1.82        , 3           , 255         , 0           , 0
-0.0883156657, -0.0904386044, -9.786783   , 7.647538E-05, 0.000206630153, 6.436812E-05, 0.009711386 , -0.009654406, 0.000118920208, 919.594238  , 28.149725   , 810.6357    , 1.83        , 3           , 255         , 0           , 0
-0.09625269 , -0.0866183043, -9.786123   , -0.000487272337, -0.000102876991, -1.78232258E-05, 0.009706515 , -0.009655434, 0.000118731994, 919.594238  , 28.149725   , 810.6356    , 1.84        , 3           , 255         , 0           , 0
-0.0914947242, -0.0769701749, -9.784666   , -0.0004138802, -9.609983E-05, -0.00025330644, 0.009702399 , -0.00965637 , 0.00011618968, 919.594238  , 28.149725   , 810.635559  , 1.85        , 3           , 255         , 0           , 0
-0.0931146741, -0.0962372646, -9.789144   , -2.89117452E-05, -0.000149993924, -0.000122014979, 0.009702122 , -0.009657858, 0.000114955008, 919.594238  , 28.149725   , 810.6355    , 1.86        , 3           , 255         , 0           , 0
-0.09637218 , -0.104132995, -9.792384   , -0.0002655198, -0.0005258844, -0.000188808044, 0.009699485 , -0.00966309849, 0.000113015958, 919.594238  , 28.149725   , 810.635437  , 1.87        , 3           , 255         , 0           , 0
-0.09210418 , -0.101781711, -9.794899   , 0.000190126651, -4.883061E-05, 0.000139582873, 0.009701373 , -0.00966360047, 0.000114407 , 919.594238  , 28.149725   , 810.6354    , 1.88        , 3           , 255         , 0           , 0
-0.09857933 , -0.09419601 , -9.781191   , 0.000300567248, -2.93668418E-05, 0.0006313732, 0.009704317 , -0.009663956, 0.000120717727, 919.594238  , 28.149725   , 810.6353    , 1.89        , 3           , 255         , 0           , 0
-0.09156432 , -0.09516468 , -9.785893   , 0.000894109369, -0.000125510836, -0.0003689609, 0.009713293 , -0.00966517348, 0.000117016025, 919.594238  , 28.149725   , 810.635254  , 1.9         , 3           , 255         , 0           , 0
-0.08554431 , -0.09285046 , -9.77895451 , 0.000506968237, -0.0001337843, 0.0002662401, 0.009712519 , -0.009661846, 0.000119721568, 919.594238  , 28.149725   , 810.6412    , 1.91        , 3           , 255         , 0           , 0
-0.08020737 , -0.0951008648, -9.793503   , 0.000274932128, 0.0002621371, 0.000311312819, 0.009715239 , -0.009659256, 0.000122860074, 919.594238  , 28.149725   , 810.6411    , 1.92        , 3           , 255         , 0           , 0
-0.08264642 , -0.102489531, -9.78136    , 0.000353276031, 0.000111940783, 0.000378451135, 0.009718734 , -0.009658174, 0.000126655359, 919.5901    , 28.1484356  , 810.641052  , 1.93        , 3           , 255         , 0           , 0
-0.09772645 , -0.0919105262, -9.789197   , 2.50657322E-05, 6.950204E-05, -8.67659255E-05, 0.009718993 , -0.00965747 , 0.000125794468, 919.5901    , 28.1484356  , 810.641     , 1.94        , 3           , 255         , 0           , 0
-0.09873173 , -0.09642262 , -9.78307152 , 0.000244549 , 0.000218606147, 0.000596495 , 0.009721381 , -0.009655343, 0.000131780544, 919.5901    , 28.1484356  , 810.6409    , 1.95        , 3           , 255         , 0           , 0
-0.09566002 , -0.09393664 , -9.78825951 , 0.00046831544, -0.00043397097, 0.0002437936, 0.00972604  , -0.009659706, 0.000134176211, 919.5901    , 28.1484356  , 810.640869  , 1.96        , 3           , 255         , 0           , 0
-0.0969376  , -0.09394468 , -9.793775   , 0.000218321627, -9.23891057E-05, -9.296238E-05, 0.009728231 , -0.00966062 , 0.000133237627, 919.5901    , 28.1484356  , 810.6408    , 1.97        , 3           , 255         , 0           , 0
-0.09457968 , -0.101852879, -9.788724   , -0.000196691952, -0.000114063223, -0.000279325934, 0.00972629152, -0.009661733, 0.000130433356, 919.5901    , 28.1484356  , 810.640747  , 1.98        , 3           , 255         , 0           , 0
-0.1028802  , -0.09300729 , -9.791378   , -0.0003258184, -0.000174702524, -3.56254277E-05, 0.00972303748, -0.009663477, 0.000130060114, 919.5901    , 28.1484356  , 810.6407    , 1.99        , 3           , 255         , 0           , 0
-0.101383068, -0.093832165, -9.787427   , 5.52654965E-05, -0.00039908092, -8.42406E-05, 0.009723597 , -0.00966746 , 0.000129178923, 919.5901    , 28.1484356  , 810.6406    , 2           , 3           , 0           , 7.44023657  , 200
-0.09763118 , -0.0960187539, -9.788963   , -0.000115386909, -0.000228232937, 3.78849363E-05, 0.009723743 , -0.009666795, 0.000129522959, 919.5901    , 28.1484356  , 810.651062  , 2.01        , 3           , 1           , 0           , 0
-0.08558284 , -0.09305887 , -9.7946     , 0.000105642073, 4.2423344E-05, -0.0002760222, 0.009724827 , -0.009666343, 0.000126766958, 919.5901    , 28.1484356  , 810.6511    , 2.02        , 3           , 2           , 0           , 0
-0.0829825252, -0.08909454 , -9.787184   , 0.000182395626, 7.87701E-06 , -0.0003505041, 0.009726684 , -0.00966623053, 0.000123262755, 919.586243  , 28.1472816  , 810.6512    , 2.03        , 3           , 3           , 0           , 0
-0.100814238, -0.09947376 , -9.791397   , 4.059635E-06, 0.000202399213, -7.583334E-06, 0.00972672552, -0.009664206, 0.000123206613, 919.586243  , 28.1472816  , 810.651245  , 2.04        , 3           , 4           , 0           , 0
-0.0968826  , -0.105519667, -9.7960825  , 0.000256734842, -0.000119138189, -2.25922486E-06, 0.009729292 , -0.009665397, 0.000123172431, 919.586243  , 28.1472816  , 810.6513    , 2.05        , 3           , 5           , 0           , 0
-0.09190078 , -0.1003499  , -9.795081   , 0.000372516981, -0.000122212834, -0.000195048808, 0.009733036 , -0.009666599, 0.0001212101, 919.586243  , 28.1472816  , 810.651367  , 2.06        , 3           , 6           , 0           , 0
-0.0904584751, -0.09903888 , -9.790381   , 0.000469170918, -0.0002667924, -0.000318243459, 0.009737758 , -0.009669237, 0.000118001757, 919.586243  , 28.1472816  , 810.6514    , 2.07        , 3           , 7           , 0           , 0
-0.0939922854, -0.0900499  , -9.797211   , -6.607309E-05, -0.000259209948, 2.72655343E-05, 0.009737097 , -0.0096718315, 0.000118249161, 919.586243  , 28.1472816  , 810.6515    , 2.08        , 3           , 8           , 5           , 5
-0.087427035, -0.08530904 , -9.794876   , -0.000194056949, -0.000218068948, -0.000188644277, 0.009735173 , -0.009673993, 0.000116341536, 919.586243  , 28.1472816  , 810.65155   , 2.09        , 3           , 9           , 5           , 0.1
-0.08831091 , -0.09252627 , -9.792753   , -8.8331115E-05, -0.00023609979, -0.000179991039, 0.00973430648, -0.009676337, 0.000114518691, 919.586243  , 28.1472816  , 810.6516    , 2.1         , 3           , 10          , 0.1         , 0.1
-0.09631695 , -0.08811607 , -9.78982449 , 0.000143013371, -0.000146621169, 6.987195E-05, 0.00973528251, -0.009671761, 0.00011520744, 919.586243  , 28.1472816  , 810.6657    , 2.11        , 3           , 11          , 0.00736099947, 0.007360997
-0.105275847, -0.101091325, -9.784366   , -0.000463883276, 0.0002599935, 0.000493072439, 0.009730595 , -0.009669209, 0.000120163364, 919.586243  , 28.1472816  , 810.665833  , 2.12        , 3           , 12          , 0.174643889 , 0
-0.0976153538, -0.09750279 , -9.790342   , -9.74983E-05, 1.01217011E-05, 0.000197333735, 0.009729601 , -0.009669127, 0.000122137644, 919.5924    , 28.1521664  , 810.665955  , 2.13        , 3           , 13          , 0           , 0
-0.09688003 , -0.0929216743, -9.78533649 , -0.000274706021, -0.000274404825, -0.000281123444, 0.009726883 , -0.009671844, 0.000119299773, 919.5924    , 28.1521664  , 810.6661    , 2.14        , 3           , 14          , 0.000739924551, 0.0002790149
-0.100564167, -0.0987933055, -9.787867   , -2.08410784E-05, 0.000176246947, 0.000126523708, 0.009726662 , -0.009670093, 0.000120582125, 919.5924    , 28.1521664  , 810.6662    , 2.15        , 3           , 15          , 0           , -1.492062E-05
-0.09339334 , -0.09540151 , -9.788936   , -0.000490696169, -9.221495E-05, 0.0004980947, 0.009721706 , -0.009671063, 0.000125553983, 919.5924    , 28.1521664  , 810.6663    , 2.16        , 3           , 16          , 0           , 1.401298E-45
-0.08685476 , -0.0908421054, -9.797434   , -0.000275824917, -0.000259440043, -2.169346E-05, 0.009718949 , -0.009673653, 0.000125311853, 919.5924    , 28.1521664  , 810.666443  , 2.17        , 3           , 20          , 0           , 0
-0.08620038 , -0.0938151  , -9.788877   , 0.000363932631, 0.000198076363, 0.0008985121, 0.009722502 , -0.009671762, 0.000134315982, 919.5924    , 28.1521664  , 810.666565  , 2.18        , 3           , 21          , 0           , 0
-0.0927535146, -0.10202235 , -9.786907   , -4.962861E-05, 0.00030643362, 0.000381975959, 0.009721968 , -0.009668734, 0.000138165444, 919.5924    , 28.1521664  , 810.6667    , 2.19        , 3           , 22          , 0           , 0
-0.09418619 , -0.09790017 , -9.794291   , 0.00026981876, 0.0003573307, 0.000164409736, 0.009724651 , -0.009665178, 0.00013984424, 919.5924    , 28.1521664  , 810.6668    , 2.2         , 3           , 40          , 0           , 0
-0.0863713846, -0.09866416 , -9.798753   , 0.000230440754, 0.000589621952, 0.000664731255, 0.009728488 , -0.009660188, 0.000146533261, 919.5924    , 28.1521664  , 810.6716    , 2.21        , 3           , 41          , 0           , 0
-0.0868143  , -0.09637934 , -9.78953    , 0.000130322529, 0.00018088345, -7.15399347E-06, 0.009729791 , -0.009658379, 0.000146479331, 919.5924    , 28.1521664  , 810.671753  , 2.22        , 3           , 42          , 0           , 0
-0.0874388143, -0.09005038 , -9.78541    , 4.26801853E-06, -0.000264127419, 0.0006783616, 0.009729769 , -0.009661085, 0.000153237081, 919.6409    , 28.1527767  , 810.671936  , 2.23        , 3           , 255         , 0           , 0
-0.09508691 , -0.09296724 , -9.789354   , -4.737114E-05, -0.000150684267, -0.000220960457, 0.00972931553, -0.0096625695, 0.000151012864, 919.6409    , 28.1527767  , 810.6721    , 2.24        , 3           , 255         , 0           , 0
-0.08980985 , -0.08781396 , -9.78922749 , 6.805867E-05, 1.69333944E-05, -0.0005184359, 0.009730047 , -0.00966235 , 0.000145830287, 919.6409    , 28.1527767  , 810.6723    , 2.25        , 3           , 255         , 0           , 0
-0.09873804 , -0.0864791945, -9.79143    , 0.000136593473, -0.000420484, 2.5743735E-05, 0.00973141  , -0.009666557, 0.00014604679, 919.6409    , 28.1527767  , 810.6725    , 2.26        , 3           , 255         , 0           , 0
-0.105548479, -0.09673307 , -9.78863    , -0.000125442748, -0.000421072938, 0.000200538212, 0.009730136 , -0.009670787, 0.000148011139, 919.6409    , 28.1527767  , 810.672668  , 2.27        , 3           , 255         , 0           , 0
-0.0970801  , -0.09996767 , -9.784775   , 0.0005949086, 0.000369790854, 7.915058E-05, 0.009736079 , -0.009667097, 0.000148838619, 919.6409    , 28.1527767  , 810.672852  , 2.28        , 3           , 255         , 0           , 0
-0.09305663 , -0.08820981 , -9.779298   , 7.121428E-05, -0.000185398385, -5.03526553E-06, 0.009736791 , -0.00966895 , 0.000148770225, 919.6409    , 28.1527767  , 810.673035  , 2.29        , 3           , 255         , 0           , 0
-0.09822919 , -0.09322947 , -9.789775   , 0.0004860618, 0.0005082722, 2.19917674E-05, 0.009741648 , -0.00966387 , 0.000149039653, 919.6409    , 28.1527767  , 810.6732    , 2.3         , 3           , 255         , 0           , 0
-0.09625861 , -0.09094247 , -9.789273   , 0.0004588517, 0.00080747786, -0.0002195916, 0.009740224 , -0.009653651, 0.0001469807, 919.6409    , 28.1527767  , 810.6145    , 2.31        , 3           , 255         , 0           , 0
-0.09878971 , -0.08689411 , -9.797378   , -0.000191761064, -0.000141983561, -0.00018624455, 0.009738324 , -0.009655053, 0.000145104481, 919.6409    , 28.1527767  , 810.6143    , 2.32        , 3           , 255         , 0           , 0
-0.0868897438, -0.102677248, -9.791067   , 0.000822033151, -0.000239152723, 0.00131811737, 0.009746417 , -0.009657573, 0.000158262032, 919.5594    , 28.15495    , 810.614136  , 2.33        , 3           , 255         , 0           , 0
-0.0869725943, -0.09735341 , -9.786058   , 0.0004611524, -0.000322780019, 0.0006947943, 0.009750959 , -0.009660867, 0.000165178339, 919.5594    , 28.15495    , 810.613953  , 2.34        , 3           , 255         , 0           , 0
-0.09963223 , -0.0982000455, -9.786734   , 0.0002626694, 0.000431326131, 0.000379973644, 0.00975354947, -0.009656592, 0.000169020015, 919.5594    , 28.15495    , 810.6138    , 2.35        , 3           , 255         , 0           , 0
-0.0915882438, -0.09633068 , -9.788255   , 0.000171017076, -3.9336097E-05, -0.000675532152, 0.009755325 , -0.00965692 , 0.000162261043, 919.5594    , 28.15495    , 810.6136    , 2.36        , 3           , 255         , 0           , 0
-0.10047587 , -0.09018643 , -9.788257   , -0.0003166006, -0.000298499042, 0.000107736458, 0.009752148 , -0.009659915, 0.000163309276, 919.5594    , 28.15495    , 810.6134    , 2.37        , 3           , 255         , 0           , 0
-0.1050781  , -0.102887675, -9.787398   , 0.000535274041, -0.000141011042, -0.000383803417, 0.009757537 , -0.009661287, 0.0001594576, 919.5594    , 28.15495    , 810.6132    , 2.38        , 3           , 255         , 0           , 0
-0.0926813558, -0.09683643 , -9.786898   , 0.00012058072, -0.000335707358, -1.0478373E-05, 0.009758745 , -0.009664643, 0.000159320058, 919.5594    , 28.15495    , 810.613037  , 2.39        , 3           , 255         , 0           , 0
-0.09194172 , -0.0868149251, -9.779203   , 0.0006417483, -0.000292353478, 0.000129523629, 0.009765149 , -0.009667578, 0.000160586729, 919.5594    , 28.15495    , 810.612854  , 2.4         , 3           , 255         , 0           , 0
-0.09475881 , -0.09123339 , -9.791674   , 0.0003095339, -2.19124777E-05, 0.0004773586, 0.009766638 , -0.00966923 , 0.000165373131, 919.5594    , 28.15495    , 810.6687    , 2.41        , 3           , 255         , 0           , 0
-0.09188803 , -0.09209254 , -9.788487   , -0.000149546308, 0.0004675147, 0.000153246947, 0.009765126 , -0.00966457 , 0.000166951228, 919.5594    , 28.15495    , 810.6689    , 2.42        , 3           , 255         , 0           , 0
-0.095900476, -0.08903263 , -9.786929   , 0.000297539984, 0.000171617721, -5.00934875E-05, 0.009768107 , -0.009662849, 0.000166467056, 919.591248  , 28.1528454  , 810.669067  , 2.43        , 3           , 255         , 0           , 0
-0.08872011 , -0.09635401 , -9.793521   , -0.000284511741, 0.000380246755, 0.000170308951, 0.009765245 , -0.009659062, 0.000168207247, 919.591248  , 28.1528454  , 810.66925   , 2.44        , 3           , 255         , 0           , 0
-0.09021844 , -0.09450104 , -9.782718   , -0.000169941108, -0.000155319809, 0.0007875595, 0.00976347  , -0.009660692, 0.000176067479, 919.591248  , 28.1528454  , 810.669434  , 2.45        , 3           , 255         , 0           , 0
-0.09878296 , -0.09585316 , -9.788664   , 2.434454E-05, -0.00018859969, -0.000185933677, 0.009763732 , -0.009662559, 0.000174189787, 919.591248  , 28.1528454  , 810.6696    , 2.46        , 3           , 255         , 0           , 0
-0.0984931439, -0.09320533 , -9.783753   , 0.0002528003, -0.000197126225, 0.0002957496, 0.009766229 , -0.009664561, 0.000177127964, 919.591248  , 28.1528454  , 810.6698    , 2.47        , 3           , 255         , 0           , 0
-0.09392155 , -0.100635052, -9.792978   , 0.000302143628, 0.0001836119, 0.000617485144, 0.009769191 , -0.009662785, 0.00018332059, 919.591248  , 28.1528454  , 810.67      , 2.48        , 3           , 255         , 0           , 0
-0.08792898 , -0.09134554 , -9.78842    , 0.00050188764, 0.000109827874, 0.00087545265, 0.009774127 , -0.009661771, 0.000192085616, 919.591248  , 28.1528454  , 810.670166  , 2.49        , 3           , 255         , 0           , 0
-0.09966046 , -0.09557192 , -9.790186   , 0.000167093065, -2.455755E-05, 0.00034107067, 0.009775764 , -0.009662051, 0.00019549382, 919.591248  , 28.1528454  , 810.670349  , 2.5         , 3           , 255         , 0           , 0
-0.08768596 , -0.09014134 , -9.795183   , 2.363784E-05, -0.0002217254, -0.000467628357, 0.009771928 , -0.009662833, 0.000190835781, 919.591248  , 28.1528454  , 810.6765    , 2.51        , 3           , 255         , 0           , 0
-0.0901102051, -0.08963259 , -9.790735   , -0.000353702, -9.782474E-05, 0.0005846071, 0.009768334 , -0.009663868, 0.000196672132, 919.591248  , 28.1528454  , 810.676758  , 2.52        , 3           , 255         , 0           , 0
-0.09974307 , -0.08872725 , -9.792345   , 0.0003632835, 2.53808976E-05, -8.248862E-05, 0.009771976 , -0.009663605, 0.000195849745, 919.6279    , 28.1502666  , 810.677     , 2.53        , 3           , 255         , 0           , 0
-0.09690425 , -0.08360801 , -9.786005   , 0.000231546117, 0.00020979988, 0.000108119086, 0.009774281 , -0.009661519, 0.0001969514, 919.6279    , 28.1502666  , 810.677246  , 2.54        , 3           , 255         , 0           , 0
-0.09147706 , -0.0904056653, -9.794895   , -0.0004902793, 0.0002222239, -0.0001897275, 0.009769396 , -0.009659281, 0.000195075918, 919.6279    , 28.1502666  , 810.6775    , 2.55        , 3           , 255         , 0           , 0
-0.0988947749, -0.09538851 , -9.788698   , 0.000457882 , 0.0001735799, 0.000441042735, 0.00977393147, -0.009657586, 0.000199503193, 919.6279    , 28.1502666  , 810.677734  , 2.56        , 3           , 255         , 0           , 0
-0.09448403 , -0.09498549 , -9.801493   , 0.000809492252, 8.192644E-05, -9.34762938E-05, 0.009782035 , -0.009656757, 0.000198576483, 919.6279    , 28.1502666  , 810.678     , 2.57        , 3           , 255         , 0           , 0
-0.08768459 , -0.0943763  , -9.787833   , 0.000253427483, 6.739059E-05, -9.40463E-05, 0.009784579 , -0.00965607353, 0.0001976426, 919.6279    , 28.1502666  , 810.6782    , 2.58        , 3           , 255         , 0           , 0
-0.08371405 , -0.10022185 , -9.79932    , -4.28435742E-05, -7.379697E-05, -0.0004879342, 0.009784197 , -0.009656765, 0.000192756183, 919.6279    , 28.1502666  , 810.678467  , 2.59        , 3           , 255         , 0           , 0
-0.100853063, -0.086482   , -9.782285   , 0.000254564045, -0.000110862835, -0.0008490154, 0.009786823 , -0.00965779 , 0.0001842554, 919.6279    , 28.1502666  , 810.6787    , 2.6         , 3           , 255         , 0           , 0
-0.105787478, -0.09472886 , -9.787213   , 0.000224857184, 0.0003164896, -0.000180485848, 0.00978096947, -0.009651873, 0.000182559917, 919.6279    , 28.1502666  , 810.63385   , 2.61        , 3           , 255         , 0           , 0
-0.0936587453, -0.094972536, -9.798485   , -0.000268078264, -0.000278041029, 5.08971934E-05, 0.009778285 , -0.009654658, 0.0001830417, 919.6279    , 28.1502666  , 810.6338    , 2.62        , 3           , 255         , 0           , 0
-0.08792334 , -0.09793047 , -9.794807   , 0.000293256424, -8.056173E-06, 0.000333332253, 0.009781185 , -0.009654772, 0.00018637412, 919.577942  , 28.1544056  , 810.6337    , 2.63        , 3           , 255         , 0           , 0
-0.08642937 , -0.092453815, -9.791048   , 0.0004409061, 0.000156568189, -0.000931578048, 0.009785685 , -0.009653114, 0.0001770739, 919.577942  , 28.1544056  , 810.633667  , 2.64        , 3           , 255         , 0           , 0
-0.09245136 , -0.09481692 , -9.783734   , 0.000475123466, -0.0003582619, -0.0005074679, 0.009790482 , -0.009656645, 0.000171964333, 919.577942  , 28.1544056  , 810.6336    , 2.65        , 3           , 255         , 0           , 0
-0.0888423547, -0.09338802 , -9.789816   , 7.508503E-05, -0.000412482623, 0.000353749463, 0.009791199 , -0.009660805, 0.000175461333, 919.577942  , 28.1544056  , 810.633545  , 2.66        , 3           , 255         , 0           , 0
-0.0893363357, -0.09837486 , -9.787485   , -0.0005813035, 0.000100170728, 2.98735067E-05, 0.009785383 , -0.009659806, 0.000175769848, 919.577942  , 28.1544056  , 810.6335    , 2.67        , 3           , 255         , 0           , 0
-0.09623049 , -0.09836686 , -9.79423    , 7.667864E-05, -0.000115317773, -0.000119175827, 0.009786162 , -0.009660948, 0.000174566856, 919.577942  , 28.1544056  , 810.6334    , 2.68        , 3           , 255         , 0           , 0
-0.08534808 , -0.0954842046, -9.790276   , -0.000395956857, -1.0624266E-05, 0.0006268852, 0.00978214  , -0.009661115, 0.0001808345, 919.577942  , 28.1544056  , 810.633362  , 2.69        , 3           , 255         , 0           , 0
-0.093653366, -0.101645008, -9.789934   , -0.000373494375, -0.0002475305, 0.0006366287, 0.009778345 , -0.009663651, 0.000187176425, 919.577942  , 28.1544056  , 810.633362  , 2.7         , 3           , 255         , 0           , 0
-0.0970246345, -0.100545943, -9.792524   , -0.0004710406, 0.000123939419, 0.000215988533, 0.009774384 , -0.009657168, 0.0001893409, 919.577942  , 28.1544056  , 810.662964  , 2.71        , 3           , 255         , 0           , 0
-0.09853741 , -0.08759053 , -9.79318    , 7.2828494E-05, 5.66695235E-06, -0.000225654163, 0.009775134 , -0.00965709 , 0.000187085 , 919.577942  , 28.1544056  , 810.663147  , 2.72        , 3           , 255         , 0           , 0
-0.08773357 , -0.09726475 , -9.793116   , 0.00014160003, 0.00024282615, 0.0007887013, 0.009776474 , -0.009654738, 0.000194995533, 919.6067    , 28.1553555  , 810.6633    , 2.73        , 3           , 255         , 0           , 0
-0.08669416 , -0.0946797952, -9.79328    , 0.0007281852, 0.000483517448, 0.000128868924, 0.00978374  , -0.009649916, 0.000196331486, 919.6067    , 28.1553555  , 810.6635    , 2.74        , 3           , 255         , 0           , 0
-0.08854832 , -0.09247441 , -9.791023   , 0.0004248059, 0.000353995158, -0.000287254428, 0.009788017 , -0.009646348, 0.000193493659, 919.6067    , 28.1553555  , 810.6637    , 2.75        , 3           , 255         , 0           , 0
-0.09740019 , -0.101896822, -9.786765   , 0.000353326439, -9.114388E-06, -0.000534581544, 0.009791601 , -0.009646387, 0.000188147067, 919.6067    , 28.1553555  , 810.6639    , 2.76        , 3           , 255         , 0           , 0
-0.0935298055, -0.09786741 , -9.791932   , -6.402435E-05, -5.213011E-05, -0.0004867227, 0.009791008 , -0.009646861, 0.000183274853, 919.6067    , 28.1553555  , 810.664063  , 2.77        , 3           , 255         , 0           , 0
-0.08082496 , -0.09381063 , -9.779916   , 0.000143437181, -3.25049041E-06, 6.471434E-05, 0.009792437 , -0.009646899, 0.000183921671, 919.6067    , 28.1553555  , 810.664246  , 2.78        , 3           , 255         , 0           , 0
-0.09603877 , -0.09823908 , -9.784309   , -0.0005063179, -0.00033925593, 0.0008030104, 0.009787295 , -0.009650371, 0.000191918356, 919.6067    , 28.1553555  , 810.6644    , 2.79        , 3           , 255         , 0           , 0
-0.1020565  , -0.08959275 , -9.78842    , 0.000320224557, -7.01809768E-07, 0.000550562458, 0.009790445 , -0.009650432, 0.0001974238, 919.6067    , 28.1553555  , 810.6646    , 2.8         , 3           , 255         , 0           , 0
-0.10262195 , -0.093135424, -9.792197   , 0.0008200595, 0.0002514395, 0.000190657287, 0.00979770347, -0.009644296, 0.0001993638, 919.6067    , 28.1553555  , 810.6502    , 2.81        , 3           , 255         , 0           , 0
-0.101286605, -0.09357755 , -9.793483   , 0.00028496905, -1.77237089E-05, 7.09884E-05 , 0.009800546 , -0.009644479, 0.000200071911, 919.6067    , 28.1553555  , 810.650269  , 2.82        , 3           , 255         , 0           , 0
-0.102420926, -0.07901107 , -9.791146   , 0.0003893737, 0.000462754484, 0.0001257121, 0.009804426 , -0.009639863, 0.00020137438, 919.6447    , 28.15773    , 810.6503    , 2.83        , 3           , 255         , 0           , 0
-0.105407223, -0.09331028 , -9.798582   , 0.0005247697, 9.05904744E-05, 0.000418065261, 0.009809633 , -0.009638998, 0.0002055638, 919.6447    , 28.15773    , 810.6504    , 2.84        , 3           , 255         , 0           , 0
-0.0915746242, -0.0966582745, -9.782793   , 0.000418794749, -0.000130882938, -0.0002085754, 0.009813841 , -0.009640285, 0.000203465257, 919.6447    , 28.15773    , 810.650452  , 2.85        , 3           , 255         , 0           , 0
-0.08242882 , -0.0876971  , -9.788539   , 0.000976488052, 0.000141128345, 0.0007297277, 0.009823535 , -0.009638945, 0.0002107762, 919.6447    , 28.15773    , 810.6505    , 2.86        , 3           , 255         , 0           , 0
-0.09857788 , -0.08383189 , -9.786335   , 8.1666105E-05, 0.000301849068, 0.00031858377, 0.009824322 , -0.009635958, 0.0002139916, 919.6447    , 28.15773    , 810.6506    , 2.87        , 3           , 255         , 0           , 0
-0.1013011  , -0.08937931 , -9.783571   , -0.000784753, 0.000211631326, -0.000526712334, 0.009816524 , -0.00963379 , 0.00020874539, 919.6447    , 28.15773    , 810.650635  , 2.88        , 3           , 255         , 0           , 0
-0.09507851 , -0.09938475 , -9.787063   , -0.000346305547, -5.021492E-05, -0.00018717318, 0.009813081 , -0.009634273, 0.000206868746, 919.6447    , 28.15773    , 810.6507    , 2.89        , 3           , 255         , 0           , 0
-0.10233108 , -0.09877285 , -9.780764   , 0.000451717351, 0.000618803431, -3.52712232E-05, 0.009817599 , -0.009628082, 0.0002065768, 919.6447    , 28.15773    , 810.650757  , 2.9         , 3           , 255         , 0           , 0
-0.100774027, -0.09860303 , -9.790021   , 0.000357722631, -0.000122794852, -0.0006529645, 0.009810065 , -0.00963886548, 0.000200142968, 919.6447    , 28.15773    , 810.585266  , 2.91        , 3           , 255         , 0           , 0
-0.09490792 , -0.09048736 , -9.784184   , 0.0004654586, -0.000599737745, 6.09623E-05 , 0.009814716 , -0.00964487 , 0.0002006937, 919.6447    , 28.15773    , 810.584961  , 2.92        , 3           , 255         , 0           , 0
-0.09393834 , -0.09681161 , -9.79912    , 0.000450494234, 0.000214692787, 0.000118423173, 0.009819208 , -0.009642733, 0.000201898976, 919.614868  , 28.1587467  , 810.584656  , 2.93        , 3           , 255         , 0           , 0
-0.0969948  , -0.09565032 , -9.787125   , 0.000242242008, 0.000117441785, -0.000290166849, 0.009821659 , -0.009641531, 0.000199008937, 919.614868  , 28.1587467  , 810.584351  , 2.94        , 3           , 255         , 0           , 0
-0.0908077061, -0.09131308 , -9.787448   , -0.000496330729, -0.0002033138, -0.00124821917, 0.009816815 , -0.009643439, 0.0001865071, 919.614868  , 28.1587467  , 810.584045  , 2.95        , 3           , 255         , 0           , 0
-0.08529111 , -0.0967115  , -9.789999   , 9.038183E-05, -9.58662858E-05, -1.20118075E-05, 0.00981772  , -0.00964439847, 0.000186377569, 919.614868  , 28.1587467  , 810.58374   , 2.96        , 3           , 255         , 0           , 0
-0.09004708 , -0.09096067 , -9.795512   , -0.0006637742, 8.476866E-05, -5.43723654E-05, 0.009811088 , -0.009643547, 0.000185842175, 919.614868  , 28.1587467  , 810.583435  , 2.97        , 3           , 255         , 0           , 0
-0.0970716253, -0.09631717 , -9.788241   , 5.62586356E-05, -0.0003501847, 0.000142421457, 0.009811637 , -0.009647062, 0.000187232 , 919.614868  , 28.1587467  , 810.5831    , 2.98        , 3           , 255         , 0           , 0
-0.103977785, -0.104673527, -9.786235   , 9.671855E-05, 6.703817E-05, -0.000260766683, 0.00981263  , -0.009646365, 0.000184630975, 919.614868  , 28.1587467  , 810.5828    , 2.99        , 3           , 255         , 0           , 0
-0.0972395241, -0.0919343755, -9.795256   , 0.000346695073, 0.000228101737, -0.000293708261, 0.009816124 , -0.009644056, 0.000181716387, 919.614868  , 28.1587467  , 810.5825    , 3           , 3           , 0           , 8.440237    , 300
-0.09748177 , -0.09018492 , -9.78767    , 0.000258997257, -8.722913E-05, -0.0006727377, 0.009817218 , -0.009646239, 0.000174995643, 919.614868  , 28.1587467  , 810.567932  , 3.01        , 3           , 1           , 0           , 0
-0.09626955 , -0.0893723  , -9.793431   , 0.0002997885, -0.000417042756, 0.000304309448, 0.009820186 , -0.009650437, 0.000177997717, 919.614868  , 28.1587467  , 810.5675    , 3.02        , 3           , 2           , 0           , 0
-0.09561036 , -0.09458166 , -9.790842   , 0.0005983016, -0.000367534929, -6.607418E-05, 0.009826174 , -0.009654107, 0.0001773009, 919.5673    , 28.1599     , 810.5671    , 3.03        , 3           , 3           , 0           , 0
-0.0929881  , -0.09090148 , -9.789652   , 0.000224448508, -0.0003721721, -0.000226117991, 0.009828441 , -0.009657806, 0.000175003181, 919.5673    , 28.1599     , 810.56665   , 3.04        , 3           , 4           , 0           , 0
-0.08439593 , -0.0901543051, -9.787664   , -0.000347711757, -8.282464E-05, -2.49873519E-05, 0.009824967 , -0.009658631, 0.00017474519, 919.5673    , 28.1599     , 810.5662    , 3.05        , 3           , 5           , 0           , 0
-0.09053997 , -0.10395664 , -9.79412651 , 0.000142131117, 0.000288633135, -0.000833936, 0.009826467 , -0.009655663, 0.000166434387, 919.5673    , 28.1599     , 810.5658    , 3.06        , 3           , 6           , 0           , 0
-0.08891591 , -0.09702798 , -9.782596   , 2.28528515E-05, 7.581012E-05, -0.000207389414, 0.009826716 , -0.009654884, 0.000164368015, 919.5673    , 28.1599     , 810.565369  , 3.07        , 3           , 7           , 0           , 0
-0.0925804153, -0.09807213 , -9.791396   , -0.000451406668, -0.0001474708, -0.0001777634, 0.00982222  , -0.009656342, 0.000162575947, 919.5673    , 28.1599     , 810.565     , 3.08        , 3           , 8           , 5           , 5
-0.09880556 , -0.08360772 , -9.795698   , 0.000218115572, 0.000335946825, -0.000495510467, 0.009824449 , -0.009652935, 0.000157653951, 919.5673    , 28.1599     , 810.564636  , 3.09        , 3           , 9           , 5           , 0.1
-0.0983873457, -0.105277658, -9.788164   , 0.000362076622, 0.000268800621, -0.000938429032, 0.00982816  , -0.009650156, 0.000148296342, 919.5673    , 28.1599     , 810.5643    , 3.1         , 3           , 10          , 0.1         , 0.1
-0.09134409 , -0.101182126, -9.78808    , 3.90126952E-05, 0.0002878483, -3.214819E-05, 0.009824793 , -0.009645352, 0.000148039428, 919.5673    , 28.1599     , 810.6195    , 3.11        , 3           , 11          , 0.00658743363, 0.0065874313
-0.08702634 , -0.102839015, -9.793724   , -0.0004957868, 0.0004492345, -0.000179586423, 0.009819853 , -0.009640842, 0.000146287726, 919.5673    , 28.1599     , 810.619446  , 3.12        , 3           , 12          , 0.174645633 , 0
-0.100645937, -0.09352611 , -9.78243    , 0.000584502064, 0.000449284038, 0.0004651308, 0.009825652 , -0.009636396, 0.000150983062, 919.618042  , 28.1578655  , 810.6194    , 3.13        , 3           , 13          , 0           , 0
-0.09074827 , -0.09848569 , -9.779677   , 0.0009978991, 0.000218784437, 0.0001880946, 0.009835611 , -0.00963422749, 0.000152885448, 919.618042  , 28.1578655  , 810.6193    , 3.14        , 3           , 14          , 0.000740094867, 0.000279000844
-0.08116167 , -0.10001757 , -9.789385   , 8.081552E-05, -0.000286996743, 0.00012604786, 0.009836407 , -0.009637108, 0.000154117661, 919.618042  , 28.1578655  , 810.619263  , 3.15        , 3           , 15          , 0           , -1.4922126E-05
-0.09129483 , -0.09025113 , -9.788819   , -0.000437112234, -4.288656E-05, -0.000300670858, 0.00983206648, -0.009637508, 0.000151106811, 919.618042  , 28.1578655  , 810.6192    , 3.16        , 3           , 16          , 0           , 1.401298E-45
-0.09202979 , -0.0945327  , -9.786096   , -0.0003181798, -6.45444961E-05, 5.639182E-05, 0.009828879 , -0.009638158, 0.000151664382, 919.618042  , 28.1578655  , 810.619141  , 3.17        , 3           , 20          , 0           , 0
-0.09325399 , -0.0832416639, -9.790621   , -0.000417114235, 0.0004036817, 0.00027470995, 0.009824682 , -0.009634147, 0.00015445106, 919.618042  , 28.1578655  , 810.6191    , 3.18        , 3           , 21          , 0           , 0
-0.08758396 , -0.101799048, -9.793535   , 3.125152E-05, 0.000184501725, 0.0001294021, 0.009824983 , -0.00963231549, 0.000155763177, 919.618042  , 28.1578655  , 810.6191    , 3.19        , 3           , 22          , 0           , 0
-0.08853445 , -0.09953093 , -9.794159   , 0.000327299756, -0.00040622885, 4.662751E-05, 0.00982825  , -0.009636383, 0.000156189519, 919.618042  , 28.1578655  , 810.6191    , 3.2         , 3           , 40          , 0           , 0
-0.08994506 , -0.09451727 , -9.792456   , -0.000370060938, 4.36438422E-05, 0.000462934 , 0.009825084 , -0.009627021, 0.00016081745, 919.618042  , 28.1578655  , 810.5952    , 3.21        , 3           , 41          , 0           , 0
-0.094555296, -0.09351777 , -9.79245949 , 9.041437E-05, -0.0002765732, 0.000442264281, 0.009825944 , -0.009629828, 0.0001652128, 919.618042  , 28.1578655  , 810.595032  , 3.22        , 3           , 42          , 0           , 0
-0.0868030861, -0.09748523 , -9.785185   , -0.000122019206, -9.762423E-05, 0.0005316493, 0.009824675 , -0.009630856, 0.000170519561, 919.604736  , 28.1632252  , 810.594849  , 3.23        , 3           , 255         , 0           , 0
-0.08440206 , -0.0943296552, -9.790871   , 0.000644429 , -9.075625E-05, -0.000104556362, 0.009831127 , -0.009631753, 0.0001694651, 919.604736  , 28.1632252  , 810.594666  , 3.24        , 3           , 255         , 0           , 0
-0.0913422555, -0.0933453  , -9.793509   , 0.0003728551, -0.000169566018, -0.000237248561, 0.009834877 , -0.009633425, 0.000167076 , 919.604736  , 28.1632252  , 810.5945    , 3.25        , 3           , 255         , 0           , 0
-0.09136409 , -0.101310991, -9.788675   , 0.0004088832, 0.000382693484, -0.000271988363, 0.009838992 , -0.009629573, 0.000164393859, 919.604736  , 28.1632252  , 810.5943    , 3.26        , 3           , 255         , 0           , 0
-0.08613841 , -0.09569444 , -9.779163   , 0.000377142918, 0.000477450434, -0.0002648516, 0.009842788 , -0.009624773, 0.0001617924, 919.604736  , 28.1632252  , 810.5941    , 3.27        , 3           , 255         , 0           , 0
-0.08857803 , -0.10623046 , -9.790382   , 0.0004014679, 2.81723333E-05, -0.000259376655, 0.009846828 , -0.009624466, 0.00015920146, 919.604736  , 28.1632252  , 810.593933  , 3.28        , 3           , 255         , 0           , 0
-0.0837167948, -0.09570183 , -9.79212    , -0.000484958116, -0.0003604781, -0.000247580261, 0.009842002 , -0.009628046, 0.000156690236, 919.604736  , 28.1632252  , 810.59375   , 3.29        , 3           , 255         , 0           , 0
-0.093616046, -0.09449158 , -9.788636   , -3.710977E-05, -0.000176672009, 0.000421987759, 0.00984159  , -0.009629855, 0.00016089261, 919.604736  , 28.1632252  , 810.593567  , 3.3         , 3           , 255         , 0           , 0
-0.0951933861, -0.107873283, -9.789886   , 0.000342028856, -4.414009E-05, -9.5403404E-05, 0.00984584  , -0.009619423, 0.000159926378, 919.604736  , 28.1632252  , 810.5921    , 3.31        , 3           , 255         , 0           , 0
-0.09129154 , -0.103480734, -9.78225    , 0.000236582535, -3.50192277E-05, 0.000239678251, 0.009848182 , -0.009619798, 0.000162319644, 919.604736  , 28.1632252  , 810.5919    , 3.32        , 3           , 255         , 0           , 0
-0.09270306 , -0.09380515 , -9.787634   , 1.17008458E-05, -2.46788841E-05, 0.0002469612, 0.009848275 , -0.009620069, 0.000164786732, 919.605652  , 28.1603088  , 810.591736  , 3.33        , 3           , 255         , 0           , 0
-0.09064986 , -0.0864713  , -9.782904   , -0.000104073668, -0.0001743647, -5.7536774E-05, 0.00984724052, -0.009621806, 0.000164194222, 919.605652  , 28.1603088  , 810.591553  , 3.34        , 3           , 255         , 0           , 0
-0.100951   , -0.0955476537, -9.793414   , -0.000179371156, 0.000414789 , 1.15248222E-05, 0.009845446 , -0.009617659, 0.00016435032, 919.605652  , 28.1603088  , 810.5914    , 3.35        , 3           , 255         , 0           , 0
-0.109007217, -0.0855681449, -9.78726    , -0.000129423628, 0.000602978631, -0.000168744, 0.009844167 , -0.009611613, 0.00016272231, 919.605652  , 28.1603088  , 810.5912    , 3.36        , 3           , 255         , 0           , 0
-0.0953962  , -0.08699296 , -9.793132   , -0.000557379564, 0.000311533455, 4.69953156E-05, 0.009838589 , -0.009608506, 0.00016322291, 919.605652  , 28.1603088  , 810.591     , 3.37        , 3           , 255         , 0           , 0
-0.09314785 , -0.093881   , -9.787113   , 0.0004105367, 0.0001185328, 0.000329788716, 0.009842662 , -0.009607352, 0.000166532365, 919.605652  , 28.1603088  , 810.5908    , 3.38        , 3           , 255         , 0           , 0
-0.09122752 , -0.0903193355, -9.791681   , 0.000186844729, -0.0004235145, 0.000695602444, 0.009844464 , -0.009611656, 0.000173446519, 919.605652  , 28.1603088  , 810.590637  , 3.39        , 3           , 255         , 0           , 0
-0.09744235 , -0.0939612538, -9.794943   , -3.00954562E-05, -2.15384352E-05, 0.000439669326, 0.009844121 , -0.009611914, 0.000177840979, 919.605652  , 28.1603088  , 810.590454  , 3.4         , 3           , 255         , 0           , 0
-0.09347013 , -0.08802302 , -9.788642   , -4.545867E-05, -0.000196606808, -8.924028E-05, 0.009838254 , -0.009617065, 0.000176981383, 919.605652  , 28.1603088  , 810.588257  , 3.41        , 3           , 255         , 0           , 0
-0.10735742 , -0.0908396  , -9.790007   , -3.65481828E-05, 0.000109234068, 0.0002500484, 0.009837865 , -0.009615997, 0.000179492534, 919.605652  , 28.1603088  , 810.5881    , 3.42        , 3           , 255         , 0           , 0
-0.102674268, -0.101069734, -9.78465    , -0.0001530078, 0.0004876214, -0.000216826913, 0.009836354 , -0.009611099, 0.00017737232, 919.5903    , 28.161665   , 810.5879    , 3.43        , 3           , 255         , 0           , 0
-0.09387261 , -0.0969847739, -9.787582   , -0.00042844814, 0.000201191113, -0.0002958041, 0.0098321   , -0.0096090585, 0.000174434128, 919.5903    , 28.161665   , 810.5877    , 3.44        , 3           , 255         , 0           , 0
-0.08952236 , -0.097706   , -9.787428   , -5.342462E-05, 5.72159479E-05, 0.000299801322, 0.009831536 , -0.00960851647, 0.000177437687, 919.5903    , 28.161665   , 810.5875    , 3.45        , 3           , 255         , 0           , 0
-0.101234116, -0.09667762 , -9.795347   , -0.000312223623, 0.000113801216, -9.57288E-05, 0.009828423 , -0.009607368, 0.0001764916, 919.5903    , 28.161665   , 810.587341  , 3.46        , 3           , 255         , 0           , 0
-0.0986634046, -0.08989561 , -9.784378   , -0.000275454862, 0.000241874543, -0.000158326584, 0.009825683 , -0.009604935, 0.000174932153, 919.5903    , 28.161665   , 810.587158  , 3.47        , 3           , 255         , 0           , 0
-0.09679757 , -0.08618386 , -9.780882   , -0.0006110587, 2.957473E-06, -0.0001007573, 0.009819583 , -0.009604897, 0.000173924913, 919.5903    , 28.161665   , 810.587     , 3.48        , 3           , 255         , 0           , 0
-0.08542745 , -0.09455093 , -9.79215    , -0.000464093464, -7.914758E-06, 0.000431960361, 0.0098149   , -0.009605018, 0.000178243616, 919.5903    , 28.161665   , 810.5868    , 3.49        , 3           , 255         , 0           , 0
-0.090057686, -0.09511101 , -9.7929945  , 0.0002047465, -2.0486943E-05, 0.0002063466, 0.009816927 , -0.009605244, 0.000180305011, 919.5903    , 28.161665   , 810.5866    , 3.5         , 3           , 255         , 0           , 0
-0.105484761, -0.09187434 , -9.792094   , 0.000534747436, 0.0001015187, 0.000247071264, 0.00981671  , -0.0096082855, 0.000182838863, 919.5903    , 28.161665   , 810.6067    , 3.51        , 3           , 255         , 0           , 0
-0.100248732, -0.0833521038, -9.785419   , 0.000750406238, -0.0004837089, -4.642334E-05, 0.009824218 , -0.009613117, 0.00018232716, 919.5903    , 28.161665   , 810.6066    , 3.52        , 3           , 255         , 0           , 0
-0.09452527 , -0.09678176 , -9.795921   , 0.000428935571, -0.000278707419, 0.000354636868, 0.00982847251, -0.009615937, 0.000185846045, 919.592834  , 28.1638355  , 810.606567  , 3.53        , 3           , 255         , 0           , 0
-0.09755749 , -0.0993280262, -9.797333   , -0.000279148575, 9.31628456E-05, 0.000226294389, 0.009825658 , -0.009615028, 0.00018811808, 919.592834  , 28.1638355  , 810.606567  , 3.54        , 3           , 255         , 0           , 0
-0.101325236, -0.09318356 , -9.786478   , -0.00022309518, -0.0002074655, -0.000197386922, 0.009823448 , -0.009617083, 0.000186123885, 919.592834  , 28.1638355  , 810.606567  , 3.55        , 3           , 255         , 0           , 0
-0.09394766 , -0.09207898 , -9.787014   , -0.0004856994, 0.000106540829, 0.0007535647, 0.009818519 , -0.009616092, 0.000193669781, 919.592834  , 28.1638355  , 810.606567  , 3.56        , 3           , 255         , 0           , 0
-0.0885800347, -0.105912849, -9.791143   , 0.000233787636, 0.0005379482, 0.0004462623, 0.009820812 , -0.009610757, 0.0001981851, 919.592834  , 28.1638355  , 810.606567  , 3.57        , 3           , 255         , 0           , 0
-0.09804597 , -0.0900869  , -9.790307   , -0.000158139039, 0.000351980561, 0.000768037164, 0.009819157 , -0.009607314, 0.000205899851, 919.592834  , 28.1638355  , 810.606567  , 3.58        , 3           , 255         , 0           , 0
-0.102778554, -0.08768208 , -9.786927   , -7.41271651E-05, 1.81808718E-05, 1.28541706E-05, 0.009818413 , -0.00960713252, 0.000206030178, 919.592834  , 28.1638355  , 810.606567  , 3.59        , 3           , 255         , 0           , 0
-0.102573358, -0.09310804 , -9.787571   , -0.000201627554, -9.78429E-05, -4.33136156E-05, 0.009816401 , -0.009608106, 0.000205587436, 919.592834  , 28.1638355  , 810.606567  , 3.6         , 3           , 255         , 0           , 0
-0.09530698 , -0.0887496546, -9.779887   , -0.000428039, -0.000201534087, 4.76217174E-05, 0.009806944 , -0.009618044, 0.000206093624, 919.592834  , 28.1638355  , 810.620544  , 3.61        , 3           , 255         , 0           , 0
-0.093020834, -0.08381015 , -9.794153   , 0.000135927869, -4.34494577E-05, 0.000653797644, 0.00980824  , -0.009618543, 0.000212627143, 919.592834  , 28.1638355  , 810.6206    , 3.62        , 3           , 255         , 0           , 0
-0.09618287 , -0.09075779 , -9.788678   , 0.000382239756, 0.000229866157, 0.000119682438, 0.009812051 , -0.009616256, 0.0002138465, 919.596558  , 28.16153    , 810.620667  , 3.63        , 3           , 255         , 0           , 0
-0.08389586 , -0.0919731855, -9.788711   , 0.000120374432, 0.000131888752, -0.000360291218, 0.009813289 , -0.009614902, 0.000210256621, 919.596558  , 28.16153    , 810.6207    , 3.64        , 3           , 255         , 0           , 0
-0.09227659 , -0.1027385  , -9.78208    , -0.000173397886, 6.13404554E-05, 2.29535217E-05, 0.009811553 , -0.009614291, 0.000210492173, 919.596558  , 28.16153    , 810.6208    , 3.65        , 3           , 255         , 0           , 0
-0.09268474 , -0.108372048, -9.790266   , 0.000262886577, 0.0004213175, -0.000135353, 0.009814195 , -0.009610065, 0.000209180042, 919.596558  , 28.16153    , 810.62085   , 3.66        , 3           , 255         , 0           , 0
-0.08733841 , -0.0894461349, -9.789813   , -0.000143756333, -0.000196863926, -0.000152960085, 0.009812771 , -0.009612018, 0.00020763115, 919.596558  , 28.16153    , 810.6209    , 3.67        , 3           , 255         , 0           , 0
-0.08634722 , -0.08952472 , -9.787381   , -0.000135604118, -0.000378246419, 0.0007182479, 0.009811347 , -0.009615871, 0.00021477633, 919.596558  , 28.16153    , 810.621     , 3.68        , 3           , 255         , 0           , 0
-0.09792862 , -0.0919126943, -9.788267   , -0.000513578765, -0.000230770558, 0.000117378273, 0.009806201 , -0.00961819 , 0.000215927459, 919.596558  , 28.16153    , 810.621033  , 3.69        , 3           , 255         , 0           , 0
-0.0961856246, -0.09359567 , -9.782757   , -7.453072E-05, -3.76619864E-05, -0.000144712525, 0.009805469 , -0.009618552, 0.000214476677, 919.596558  , 28.16153    , 810.6211    , 3.7         , 3           , 255         , 0           , 0
-0.09888007 , -0.102578387, -9.799045   , 0.000137583876, 0.0004273103, 2.99266E-05 , 0.009799645 , -0.009609428, 0.000214887012, 919.596558  , 28.16153    , 810.6276    , 3.71        , 3           , 255         , 0           , 0
-0.08974855 , -0.08554099 , -9.809178   , -0.0005518506, 0.000336846628, 0.000216832865, 0.009794107 , -0.009606085, 0.00021708828, 919.596558  , 28.16153    , 810.627747  , 3.72        , 3           , 255         , 0           , 0
-0.0825648159, -0.07180838 , -9.795697   , 4.834187E-05, 4.44897742E-05, -0.0005142913, 0.009794639 , -0.009605587, 0.000211949839, 919.601563  , 28.1637     , 810.627869  , 3.73        , 3           , 255         , 0           , 0
-0.080545485, -0.07044177 , -9.790664   , 0.0004747634, 0.000193849759, -0.0006692394, 0.00979945  , -0.009603583, 0.000205276636, 919.601563  , 28.1637     , 810.628     , 3.74        , 3           , 255         , 0           , 0
-0.10512618 , -0.137873769, -9.767757   , -0.0002984116, 0.000347179652, -0.000106099062, 0.009796476 , -0.0096001  , 0.0002042497, 919.601563  , 28.1637     , 810.6281    , 3.75        , 3           , 255         , 0           , 0
-0.12855491 , -0.166406929, -9.768426   , -0.000450950436, 0.000114290073, 0.00130223285, 0.009791842 , -0.009599085, 0.000217282883, 919.601563  , 28.1637     , 810.628235  , 3.76        , 3           , 255         , 0           , 0
-0.124078609, -0.12519601 , -9.785242   , -0.000688191561, 0.000152665452, 0.000835808052, 0.009784881 , -0.009597639, 0.000225655647, 919.601563  , 28.1637     , 810.628357  , 3.77        , 3           , 255         , 0           , 0
-0.106324911, -0.07180752 , -9.797644   , -0.000606291054, 0.0003125866, 4.47098573E-05, 0.00977881253, -0.009594521, 0.0002261333, 919.601563  , 28.1637     , 810.6285    , 3.78        , 3           , 255         , 0           , 0
-0.08241208 , -0.05646936 , -9.80646    , -0.0001817274, 0.000118969736, -0.0002205978, 0.009777016 , -0.009593307, 0.000223939 , 919.601563  , 28.1637     , 810.6286    , 3.79        , 3           , 255         , 0           , 0
-0.0666387  , -0.0794271752, -9.798502   , -0.00018110231, -0.000226832344, 0.000190214108, 0.009775187 , -0.00959559251, 0.00022581892, 919.601563  , 28.1637     , 810.6287    , 3.8         , 3           , 255         , 0           , 0
-0.0587344877, -0.09321869 , -9.769007   , 0.000242219481, 0.000390561734, 6.43325038E-05, 0.009778819 , -0.009595373, 0.00022648873, 919.601563  , 28.1637     , 810.6271    , 3.81        , 3           , 255         , 0           , 0
-0.0776192546, -0.08417693 , -9.789825   , 0.000368499139, 6.914057E-05, 0.000244302151, 0.00978248  , -0.009594705, 0.000228938457, 919.601563  , 28.1637     , 810.6272    , 3.82        , 3           , 255         , 0           , 0
-0.09978053 , -0.090327546, -9.800262   , 0.0007803718, -0.000286775175, -0.000198553651, 0.009790303 , -0.009597554, 0.000226924909, 919.586853  , 28.1670914  , 810.6273    , 3.83        , 3           , 255         , 0           , 0
-0.120925464, -0.09169173 , -9.797239   , 0.0006929759, -0.000359367055, -0.000175676541, 0.009797248 , -0.009601128, 0.000225133 , 919.586853  , 28.1670914  , 810.627441  , 3.84        , 3           , 255         , 0           , 0
-0.1181682  , -0.0999577641, -9.78108    , -0.0001754341, -0.00010290627, 0.000131161039, 0.009795481 , -0.00960216951, 0.0002264345, 919.586853  , 28.1670914  , 810.627563  , 3.85        , 3           , 255         , 0           , 0
-0.09200287 , -0.104480445, -9.784443   , -0.000192420674, 0.000225980388, 0.000216935339, 0.009793537 , -0.009599931, 0.000228625941, 919.586853  , 28.1670914  , 810.6277    , 3.86        , 3           , 255         , 0           , 0
-0.08393146 , -0.09314257 , -9.780742   , 0.000720972137, -0.000250565819, 0.000240148249, 0.009800723 , -0.00960246 , 0.000231002763, 919.586853  , 28.1670914  , 810.6278    , 3.87        , 3           , 255         , 0           , 0
-0.08702971 , -0.09010847 , -9.792879   , 4.396477E-05, -9.900365E-05, 0.00028200497, 0.00980113447, -0.009603479, 0.000233813043, 919.586853  , 28.1670914  , 810.6279    , 3.88        , 3           , 255         , 0           , 0
-0.0942225158, -0.0861471742, -9.814501   , 0.000723160862, 0.000122735975, 0.000722967437, 0.009808297 , -0.00960232 , 0.000241054513, 919.586853  , 28.1670914  , 810.628052  , 3.89        , 3           , 255         , 0           , 0
-0.102043331, -0.08511015 , -9.789841   , 0.0004796271, 0.000145670958, 8.55448E-05 , 0.009813086 , -0.009600872, 0.000241924252, 919.586853  , 28.1670914  , 810.6282    , 3.9         , 3           , 255         , 0           , 0
-0.109369658, -0.09285749 , -9.777223   , 0.000145137077, 0.000246453739, -2.05845154E-05, 0.00980744  , -0.009597424, 0.000241810718, 919.586853  , 28.1670914  , 810.647461  , 3.91        , 3           , 255         , 0           , 0
-0.114994779, -0.09108494 , -9.774082   , -0.000209890713, 0.0003418915, -0.0006139079, 0.009805401 , -0.009593948, 0.000235705316, 919.586853  , 28.1670914  , 810.6477    , 3.92        , 3           , 255         , 0           , 0
-0.109101236, -0.08571853 , -9.795249   , 0.0003660436, -7.486546E-05, -0.0002734711, 0.009809086 , -0.009594667, 0.000232963313, 919.5799    , 28.1626148  , 810.647949  , 3.93        , 3           , 255         , 0           , 0
-0.09358847 , -0.0875341743, -9.791316   , 7.617328E-05, 1.830727E-05, -0.000407178653, 0.009809887 , -0.009594443, 0.000228893477, 919.5799    , 28.1626148  , 810.6482    , 3.94        , 3           , 255         , 0           , 0
-0.08235334 , -0.08821827 , -9.788168   , 0.000516309 , -0.0003942495, 0.000105574851, 0.009815042 , -0.009598397, 0.000229910511, 919.5799    , 28.1626148  , 810.648438  , 3.95        , 3           , 255         , 0           , 0
-0.08510874 , -0.09078113 , -9.790397   , -0.000114425668, 0.0004563243, 0.0004823043, 0.009813849 , -0.009593881, 0.000234778185, 919.5799    , 28.1626148  , 810.6487    , 3.96        , 3           , 255         , 0           , 0
-0.09053336 , -0.112690017, -9.77790451 , 4.717172E-05, 0.000253189239, 0.000721472956, 0.009814252 , -0.009591421, 0.000242017573, 919.5799    , 28.1626148  , 810.6489    , 3.97        , 3           , 255         , 0           , 0
-0.09172694 , -0.108509675, -9.786311   , -0.0004456985, 3.20190447E-05, 0.000588912459, 0.009809738 , -0.009591159, 0.0002479097, 919.5799    , 28.1626148  , 810.6492    , 3.98        , 3           , 255         , 0           , 0
-0.094950445, -0.09992687 , -9.803044   , -0.00039762925, 4.194153E-07, 0.0005501856, 0.00980571  , -0.009591209, 0.000253411446, 919.5799    , 28.1626148  , 810.6494    , 3.99        , 3           , 255         , 0           , 0
-0.09529009 , -0.1002361  , -9.797618   , 3.135047E-05, -0.000161183445, -0.000288981333, 0.009806051 , -0.009592792, 0.000250505924, 919.5799    , 28.1626148  , 810.649658  , 4           , 3           , 0           , 9.440237    , 400
-0.09050328 , -0.0876399055, -9.783966   , 5.05347271E-05, 0.0002457331, 0.0004239836, 0.009805903 , -0.009596061, 0.0002547756, 919.5799    , 28.1626148  , 810.6759    , 4.01        , 3           , 1           , 0           , 0
-0.09923254 , -0.09176028 , -9.781835   , 0.0005455814, -5.899764E-05, 0.000143285317, 0.00981134549, -0.009596665, 0.000256202678, 919.5799    , 28.1626148  , 810.676331  , 4.02        , 3           , 2           , 0           , 0
-0.105989419, -0.09266879 , -9.785833   , 0.000339551072, -0.0004325257, -0.000373859366, 0.00981477648, -0.009600951, 0.0002524217, 919.5943    , 28.164175   , 810.676758  , 4.03        , 3           , 3           , 0           , 0
-0.09598307 , -0.09781677 , -9.799322   , 0.000460683776, -0.000142935081, -1.06978532E-05, 0.009819385 , -0.00960238 , 0.0002523007, 919.5943    , 28.164175   , 810.6772    , 4.04        , 3           , 4           , 0           , 0
-0.082522586, -0.09072769 , -9.796926   , 0.000284240756, 0.000184497214, 0.000412551628, 0.009822187 , -0.009600576, 0.00025644424, 919.5943    , 28.164175   , 810.6776    , 4.05        , 3           , 5           , 0           , 0
-0.0830356553, -0.09084602 , -9.79395    , -0.000638972, 0.0001990649, -0.000345346285, 0.009815831 , -0.009598551, 0.000253010425, 919.5943    , 28.164175   , 810.67804   , 4.06        , 3           , 6           , 0           , 0
-0.090948984, -0.0908550844, -9.784362   , 0.0002834667, -0.000253077742, -0.0004562245, 0.009818709 , -0.009601037, 0.0002484234, 919.5943    , 28.164175   , 810.678467  , 4.07        , 3           , 7           , 0           , 0
-0.08866841 , -0.08839543 , -9.786258   , -0.0005935846, -0.0001454559, 0.00011987731, 0.009812764 , -0.009602503, 0.000249607838, 919.5943    , 28.164175   , 810.6789    , 4.08        , 3           , 8           , 5           , 5
-0.09383798 , -0.09744964 , -9.796223   , -0.00013052125, 0.000122576166, 0.000318093924, 0.009811427 , -0.009601309, 0.000252800732, 919.5943    , 28.164175   , 810.6793    , 4.09        , 3           , 9           , 5           , 0.1
-0.09892799 , -0.0903194547, -9.786219   , -2.51745223E-05, 0.00025033913, -2.8005903E-05, 0.009811179 , -0.009598803, 0.000252545258, 919.5943    , 28.164175   , 810.679749  , 4.1         , 3           , 10          , 0.1         , 0.1
-0.104146659, -0.09298773 , -9.792379   , -0.000104440027, -0.000253252336, -0.000338678627, 0.009802564 , -0.009599473, 0.0002492067, 919.5943    , 28.164175   , 810.6812    , 4.11        , 3           , 11          , 0.006007158 , 0.006007154
-0.09258248 , -0.08742111 , -9.782865   , -0.000293590623, -0.000372532464, -0.000159373274, 0.009799643 , -0.009603182, 0.0002475765, 919.5943    , 28.164175   , 810.681641  , 4.12        , 3           , 12          , 0.174648076 , 0
-0.09585719 , -0.08480148 , -9.783724   , -0.0002165183, -0.000251585268, -0.0007765761, 0.00979755353, -0.009605622, 0.0002397863, 919.621643  , 28.1660748  , 810.682068  , 4.13        , 3           , 13          , 0           , 0
-0.0914224163, -0.08808209 , -9.794947   , -0.000416334573, 9.790191E-05, 0.000867674535, 0.009793306 , -0.009604729, 0.0002484724, 919.621643  , 28.1660748  , 810.6825    , 4.14        , 3           , 14          , 0.000740375952, 0.000278999854
-0.09740214 , -0.0915695056, -9.800829   , -0.0005684693, -7.23025441E-05, 0.000108781474, 0.009787611 , -0.00960546 , 0.0002495531, 919.621643  , 28.1660748  , 810.6829    , 4.15        , 3           , 15          , 0           , -1.49248272E-05
-0.101796553, -0.09830909 , -9.79758    , -0.0003724686, -5.20167232E-05, -0.0001695744, 0.009783904 , -0.009605965, 0.000247852266, 919.621643  , 28.1660748  , 810.68335   , 4.16        , 3           , 16          , 0           , 1.401298E-45
-0.105007827, -0.09370273 , -9.779929   , 0.000157079659, 1.1018361E-05, -0.0001958741, 0.009785494 , -0.009605835, 0.000245894684, 919.621643  , 28.1660748  , 810.6838    , 4.17        , 3           , 20          , 0           , 0
-0.09867348 , -0.09688922 , -9.782145   , 0.000367741915, 0.000333018717, 0.0002843326, 0.009789141 , -0.009602532, 0.00024877055, 919.621643  , 28.1660748  , 810.6842    , 4.18        , 3           , 21          , 0           , 0
-0.09314079 , -0.09236348 , -9.783987   , -7.885089E-05, 0.0003640232, -0.000307769427, 0.009788382 , -0.00959886052, 0.000245728559, 919.621643  , 28.1660748  , 810.684631  , 4.19        , 3           , 22          , 0           , 0
-0.08853853 , -0.0868555  , -9.79361248 , 0.000817731 , -5.62171044E-05, 0.000282358815, 0.00979653  , -0.009599451, 0.000248546567, 919.621643  , 28.1660748  , 810.685059  , 4.2         , 3           , 40          , 0           , 0
-0.08798978 , -0.08398338 , -9.78918648 , 0.000115835108, 0.000224803749, 5.67309E-05 , 0.009789571 , -0.009602252, 0.000249213772, 919.621643  , 28.1660748  , 810.6466    , 4.21        , 3           , 41          , 0           , 0
-0.08675732 , -0.09240409 , -9.788352   , 2.45976262E-05, 0.000174893066, 0.00042571465, 0.009789776 , -0.009600545, 0.000253487931, 919.621643  , 28.1660748  , 810.646851  , 4.22        , 3           , 42          , 0           , 0
-0.08752088 , -0.0891519338, -9.788381   , 0.000119132746, 0.0003897426, 0.0004696992, 0.00979092252, -0.009596694, 0.000258222979, 919.596436  , 28.1682453  , 810.6471    , 4.23        , 3           , 255         , 0           , 0
-0.09409485 , -0.09455421 , -9.794358   , -0.0003444003, 0.0005512484, -0.000528096163, 0.009787528 , -0.009591134, 0.0002529961, 919.596436  , 28.1682453  , 810.647339  , 4.24        , 3           , 255         , 0           , 0
-0.104007162, -0.0977151543, -9.789397   , -0.0005709118, 0.000117214135, -0.0003273309, 0.00978185  , -0.009589928, 0.000249734352, 919.596436  , 28.1682453  , 810.6476    , 4.25        , 3           , 255         , 0           , 0
-0.105080985, -0.0971278  , -9.795097   , -0.0003591039, -0.000482761447, 0.000182012926, 0.009778243 , -0.009594774, 0.000251507183, 919.596436  , 28.1682453  , 810.6478    , 4.26        , 3           , 255         , 0           , 0
-0.09791814 , -0.09487859 , -9.792065   , -0.000482420146, -0.000105172876, -0.000443550758, 0.009773462 , -0.0095957825, 0.000247061544, 919.596436  , 28.1682453  , 810.6481    , 4.27        , 3           , 255         , 0           , 0
-0.0905991  , -0.09711359 , -9.786773   , -0.000300763, -0.000244482653, -0.000621294952, 0.00977051351, -0.009598165, 0.000240824884, 919.596436  , 28.1682453  , 810.6483    , 4.28        , 3           , 255         , 0           , 0
-0.0984301344, -0.09430778 , -9.781005   , 0.000312765653, -0.0003554484, -0.000445209676, 0.009773685 , -0.009601676, 0.000236338135, 919.596436  , 28.1682453  , 810.64856   , 4.29        , 3           , 255         , 0           , 0
-0.08998022 , -0.09410769 , -9.784037   , -0.000166204991, 0.000215091626, -2.02641168E-05, 0.009772024 , -0.009599524, 0.000236156557, 919.596436  , 28.1682453  , 810.6488    , 4.3         , 3           , 255         , 0           , 0
-0.09587427 , -0.102868237, -9.801302   , 0.0005084687, 3.92782676E-05, 0.000188496124, 0.009773003 , -0.00959979 , 0.00023808454, 919.596436  , 28.1682453  , 810.6513    , 4.31        , 3           , 255         , 0           , 0
-0.09388499 , -0.09732716 , -9.792655   , -4.515896E-05, 0.000119592441, 0.0002430438, 0.009772528 , -0.009598618, 0.000240526613, 919.596436  , 28.1682453  , 810.65155   , 4.32        , 3           , 255         , 0           , 0
-0.09446766 , -0.09148785 , -9.794257   , -0.000165681122, -3.76120443E-06, 0.0003924051, 0.009770834 , -0.009598694, 0.000244450173, 919.6768    , 28.1667538  , 810.6518    , 4.33        , 3           , 255         , 0           , 0
-0.0953526348, -0.0897643343, -9.783494   , 0.000267350231, -0.000242886876, 0.000216062152, 0.009773486 , -0.009601144, 0.000246587 , 919.6768    , 28.1667538  , 810.652039  , 4.34        , 3           , 255         , 0           , 0
-0.09051523 , -0.08432229 , -9.788233   , 5.62600326E-05, -0.0002944442, -0.000143884638, 0.009774062 , -0.009604076, 0.000245119416, 919.6768    , 28.1667538  , 810.6523    , 4.35        , 3           , 255         , 0           , 0
-0.08759189 , -0.0905164257, -9.802319   , -3.348186E-05, -0.000124208833, -0.000537169, 0.009773781 , -0.009605264, 0.000239735731, 919.6768    , 28.1667538  , 810.6525    , 4.36        , 3           , 255         , 0           , 0
-0.09451135 , -0.09776248 , -9.797987   , 2.079329E-05, 0.000403233629, -0.000325414556, 0.009774018 , -0.009601199, 0.000236521068, 919.6768    , 28.1667538  , 810.6528    , 4.37        , 3           , 255         , 0           , 0
-0.0899008662, -0.08701931 , -9.795839   , 0.0006918537, 0.000515272142, -0.000107639891, 0.009780945 , -0.009596037, 0.00023549507, 919.6768    , 28.1667538  , 810.653     , 4.38        , 3           , 255         , 0           , 0
-0.09372306 , -0.0885683745, -9.785781   , 0.000168761238, 0.000151171727, 8.823683E-05, 0.009782624 , -0.00959453452, 0.0002363922, 919.6768    , 28.1667538  , 810.653259  , 4.39        , 3           , 255         , 0           , 0
-0.09654084 , -0.101358317, -9.777402   , 1.01302867E-05, -3.39377148E-05, 1.38956193E-05, 0.009782724 , -0.009594875, 0.000236527834, 919.6768    , 28.1667538  , 810.6535    , 4.4         , 3           , 255         , 0           , 0
-0.0900763646, -0.1043243  , -9.787106   , 0.000279816973, -1.45777885E-05, -0.000136297458, 0.00978198647, -0.009593916, 0.000235197527, 919.6768    , 28.1667538  , 810.5413    , 4.41        , 3           , 255         , 0           , 0
-0.08867557 , -0.107490063, -9.792467   , 0.000283687084, -0.000276282663, -0.000287005038, 0.009784851 , -0.00959665049, 0.000232300546, 919.6768    , 28.1667538  , 810.5409    , 4.42        , 3           , 255         , 0           , 0
-0.08451158 , -0.100465633, -9.79865    , 0.000152559311, -1.40207121E-05, -7.115616E-05, 0.009786384 , -0.009596785, 0.0002315876, 919.620544  , 28.1663456  , 810.540466  , 4.43        , 3           , 255         , 0           , 0
-0.09924023 , -0.09077664 , -9.807363   , 1.86307E-05 , 7.096655E-05, -0.000306935, 0.0097866   , -0.009596045, 0.0002285253, 919.620544  , 28.1663456  , 810.540039  , 4.44        , 3           , 255         , 0           , 0
-0.09722325 , -0.09209959 , -9.796222   , 0.000118796248, 7.859248E-05, 0.000533869956, 0.009787737 , -0.009595311, 0.000233871513, 919.620544  , 28.1663456  , 810.5396    , 4.45        , 3           , 255         , 0           , 0
-0.08433236 , -0.09116173 , -9.777151   , 3.185199E-05, 0.000222759263, 0.0007823701, 0.009787981 , -0.00959316 , 0.000241716785, 919.620544  , 28.1663456  , 810.5392    , 4.46        , 3           , 255         , 0           , 0
-0.0891101062, -0.09092401 , -9.77738    , 0.0002480775, -5.75913728E-05, 0.0005447464, 0.00979041  , -0.00959378947, 0.0002471585, 919.620544  , 28.1663456  , 810.538757  , 4.47        , 3           , 255         , 0           , 0
-0.103170477, -0.09697135 , -9.789174   , 0.000423132151, -3.98142438E-05, 0.00104524812, 0.00979454  , -0.009594288, 0.000257606764, 919.620544  , 28.1663456  , 810.5383    , 4.48        , 3           , 255         , 0           , 0
-0.0965678841, -0.0971756056, -9.79515648 , 0.000327426533, -0.0001622302, 0.000553945836, 0.00979776  , -0.009595964, 0.000263130176, 919.620544  , 28.1663456  , 810.5379    , 4.49        , 3           , 255         , 0           , 0
-0.0873047  , -0.0930849  , -9.791845   , 8.943642E-05, 0.0001353304, 0.00054565887, 0.009798603 , -0.009594664, 0.000268599862, 919.620544  , 28.1663456  , 810.5375    , 4.5         , 3           , 255         , 0           , 0
-0.100211941, -0.09505748 , -9.787599   , -0.000402690581, 2.86861032E-05, 0.0007299923, 0.009795378 , -0.0095917  , 0.000275894039, 919.620544  , 28.1663456  , 810.5217    , 4.51        , 3           , 255         , 0           , 0
-0.09157314 , -0.09634367 , -9.782143   , 0.000235091429, -6.876218E-05, 4.34853064E-05, 0.009797724 , -0.00959239248, 0.0002763221, 919.620544  , 28.1663456  , 810.5212    , 4.52        , 3           , 255         , 0           , 0
-0.08896068 , -0.09523776 , -9.78536    , -0.000365610875, -0.000105830957, 0.000736286864, 0.009793997 , -0.009593523, 0.000283674453, 919.614     , 28.1697388  , 810.5206    , 4.53        , 3           , 255         , 0           , 0
-0.0949877948, -0.0985517949, -9.802874   , 2.97976658E-06, -0.000201618866, -0.000286637282, 0.009794055 , -0.009595511, 0.00028078843, 919.614     , 28.1697388  , 810.520142  , 4.54        , 3           , 255         , 0           , 0
-0.102109611, -0.100854874, -9.789297   , 0.0002572756, 1.163999E-05, -0.000225262222, 0.009796648 , -0.009595372, 0.000278536958, 919.614     , 28.1697388  , 810.519653  , 4.55        , 3           , 255         , 0           , 0
-0.103949569, -0.09953756 , -9.788974   , 0.000359339581, 0.000196289882, -0.000463564822, 0.009800286 , -0.009593365, 0.000273920683, 919.614     , 28.1697388  , 810.519165  , 4.56        , 3           , 255         , 0           , 0
-0.09089992 , -0.0961978957, -9.78047    , -0.000135286245, 5.85868838E-06, -0.000353078824, 0.009798967 , -0.009593272, 0.000270390563, 919.614     , 28.1697388  , 810.5187    , 4.57        , 3           , 255         , 0           , 0
-0.09839926 , -0.100547969, -9.792168   , 0.000218501256, -9.471696E-06, -0.000237533561, 0.00980117451, -0.009593343, 0.000268014352, 919.614     , 28.1697388  , 810.5182    , 4.58        , 3           , 255         , 0           , 0
-0.101016544, -0.08217989 , -9.795057   , 0.0001190537, -0.000561482157, 3.03417182E-05, 0.009802362 , -0.00959896 , 0.000268262724, 919.614     , 28.1697388  , 810.5177    , 4.59        , 3           , 255         , 0           , 0
-0.09217118 , -0.09235178 , -9.797814   , -0.00023369072, -0.000220879156, -0.000537610438, 0.00980007648, -0.009601115, 0.000262865127, 919.614     , 28.1697388  , 810.5172    , 4.6         , 3           , 255         , 0           , 0
-0.087295495, -0.08980407 , -9.787546   , -0.0007919514, -1.765386E-05, 3.82159378E-05, 0.009791819 , -0.009605104, 0.000263248745, 919.614     , 28.1697388  , 810.5136    , 4.61        , 3           , 255         , 0           , 0
-0.08559207 , -0.0894968957, -9.782663   , 9.2834176E-05, 3.92523943E-05, 5.0786E-06  , 0.009792748 , -0.009604713, 0.000263303373, 919.614     , 28.1697388  , 810.513062  , 4.62        , 3           , 255         , 0           , 0
-0.09462349 , -0.0987442657, -9.790873   , -0.0002476098, 0.000335403776, -0.000116115938, 0.009790283 , -0.009601346, 0.0002621751, 919.605652  , 28.1700764  , 810.5125    , 4.63        , 3           , 255         , 0           , 0
-0.08985535 , -0.09820936 , -9.78687    , -0.000150165113, 0.0003149932, -0.000132050322, 0.009788794 , -0.009598183, 0.000260885456, 919.605652  , 28.1700764  , 810.511963  , 4.64        , 3           , 255         , 0           , 0
-0.09388912 , -0.09327562 , -9.801157   , 0.000153748668, -0.000115237111, 0.00037966817, 0.009790294 , -0.009599373, 0.000264670758, 919.605652  , 28.1700764  , 810.5114    , 4.65        , 3           , 255         , 0           , 0
-0.102317534, -0.103254139, -9.806173   , 2.3941684E-05, -2.17690249E-05, -8.390355E-05, 0.009790541 , -0.009599582, 0.000263829628, 919.605652  , 28.1700764  , 810.510864  , 4.66        , 3           , 255         , 0           , 0
-0.09691992 , -0.08955631 , -9.785849   , -0.000474455883, 0.000415859977, -0.000174947345, 0.009785814 , -0.009595407, 0.0002621209, 919.605652  , 28.1700764  , 810.5104    , 4.67        , 3           , 255         , 0           , 0
-0.080980435, -0.0881776139, -9.789212   , -0.000161060947, -0.000299614068, 7.71188643E-05, 0.0097841965, -0.009598411, 0.0002628627, 919.605652  , 28.1700764  , 810.5099    , 4.68        , 3           , 255         , 0           , 0
-0.0934318751, -0.107145861, -9.799049   , -4.435476E-05, -0.000264474424, 2.66571587E-05, 0.00978375  , -0.00960105751, 0.000263103429, 919.605652  , 28.1700764  , 810.5094    , 4.69        , 3           , 255         , 0           , 0
-0.09350993 , -0.09645896 , -9.798693   , -0.0005074804, 0.000160639756, 0.000183269774, 0.009778657 , -0.009599472, 0.000264951785, 919.605652  , 28.1700764  , 810.5089    , 4.7         , 3           , 255         , 0           , 0
-0.09354215 , -0.0979311  , -9.796949   , -0.0004297881, 0.0004141692, -0.000624732231, 0.009773856 , -0.009592611, 0.0002587505, 919.605652  , 28.1700764  , 810.5187    , 4.71        , 3           , 255         , 0           , 0
-0.08780587 , -0.09396183 , -9.799242   , -5.25658834E-05, 4.88852966E-05, -0.000603768858, 0.0097733885, -0.009592063, 0.000252717728, 919.605652  , 28.1700764  , 810.51825   , 4.72        , 3           , 255         , 0           , 0
-0.09504862 , -0.096495904, -9.781984   , 0.000128142652, -0.0006613736, 0.000593592064, 0.009774612 , -0.009598734, 0.000258588872, 919.5988    , 28.16906    , 810.5178    , 4.73        , 3           , 255         , 0           , 0
-0.09772872 , -0.09031323 , -9.797369   , -3.902259E-05, -0.00055205106, -0.000246461277, 0.009774247 , -0.00960423052, 0.000256070372, 919.5988    , 28.16906    , 810.5174    , 4.74        , 3           , 255         , 0           , 0
-0.09769715 , -0.0950995758, -9.792938   , 5.843595E-05, -1.06659427E-05, -0.000138978634, 0.009774843 , -0.009604324, 0.0002546796, 919.5988    , 28.16906    , 810.516968  , 4.75        , 3           , 255         , 0           , 0
-0.09198892 , -0.08931986 , -9.798757   , 0.000101251295, -0.000313171768, 0.0002460549, 0.009775833 , -0.009607479, 0.000257109466, 919.5988    , 28.16906    , 810.516541  , 4.76        , 3           , 255         , 0           , 0
-0.089163065, -0.09373729 , -9.791785   , -5.37833548E-05, -0.0003425492, 0.000701792655, 0.009775229 , -0.009610973, 0.000264093658, 919.5988    , 28.16906    , 810.5161    , 4.77        , 3           , 255         , 0           , 0
-0.100182079, -0.0930604562, -9.78269    , 0.000424455444, -0.0003288332, 0.000575960032, 0.009779418 , -0.009614316, 0.000269820943, 919.5988    , 28.16906    , 810.5157    , 4.78        , 3           , 255         , 0           , 0
-0.08804705 , -0.0871754  , -9.782819   , 0.000200967246, -0.000227700075, 0.000221417577, 0.009781406 , -0.009616614, 0.0002720128, 919.5988    , 28.16906    , 810.515259  , 4.79        , 3           , 255         , 0           , 0
-0.0917371958, -0.098430194, -9.788724   , -0.000203657371, 2.67244468E-05, -0.000447267055, 0.009779412 , -0.009616303, 0.00026754287, 919.5988    , 28.16906    , 810.514832  , 4.8         , 3           , 255         , 0           , 0
-0.08916098 , -0.102787815, -9.792511   , -0.0007792855, 0.0001964966, 0.000466438039, 0.009768631 , -0.00961335748, 0.000272254634, 919.5988    , 28.16906    , 810.5334    , 4.81        , 3           , 255         , 0           , 0
-0.09682032 , -0.08629435 , -9.790117   , -0.0002798619, 0.000178041169, -0.000116204545, 0.009765844 , -0.00961156748, 0.00027111  , 919.5988    , 28.16906    , 810.5331    , 4.82        , 3           , 255         , 0           , 0
-0.09470018 , -0.08508564 , -9.78945    , 0.000303643523, 3.95044626E-05, 2.35853222E-05, 0.009768878 , -0.009611173, 0.00027134968, 919.5845    , 28.1700764  , 810.5328    , 4.83        , 3           , 255         , 0           , 0
-0.09100413 , -0.08925774 , -9.783838   , 0.000519768 , 0.000168488186, 0.000534084567, 0.009774025 , -0.009609541, 0.000276706851, 919.5845    , 28.1700764  , 810.5325    , 4.84        , 3           , 255         , 0           , 0
-0.0891909152, -0.08248554 , -9.786058   , 1.854176E-05, 0.000151444983, -7.790523E-05, 0.009774218 , -0.009608019, 0.0002759426, 919.5845    , 28.1700764  , 810.532166  , 4.85        , 3           , 255         , 0           , 0
-0.09305773 , -0.09047568 , -9.780138   , -8.385279E-06, 0.000295366044, -0.000950878835, 0.009774224 , -0.009604971, 0.000266462943, 919.5845    , 28.1700764  , 810.53186   , 4.86        , 3           , 255         , 0           , 0
-0.09734861 , -0.0894653648, -9.793838   , -5.62894274E-05, -0.000175631052, -0.000951783, 0.009773753 , -0.009606635, 0.0002569282, 919.5845    , 28.1700764  , 810.531555  , 4.87        , 3           , 255         , 0           , 0
-0.09478925 , -0.09607013 , -9.789789   , -8.237804E-05, -0.000451941421, -0.000173721055, 0.009772946 , -0.009611136, 0.000255146879, 919.5845    , 28.1700764  , 810.53125   , 4.88        , 3           , 255         , 0           , 0
-0.0912223  , -0.100152925, -9.791274   , -0.000166692073, -0.000296228274, -4.467534E-05, 0.009771283 , -0.009614094, 0.0002546712, 919.5845    , 28.1700764  , 810.530945  , 4.89        , 3           , 255         , 0           , 0
-0.0953774  , -0.09387048 , -9.801767   , -0.000311496115, -1.54745067E-07, -0.000358159421, 0.009768201 , -0.009614061, 0.000251089717, 919.5845    , 28.1700764  , 810.53064   , 4.9         , 3           , 255         , 0           , 0
-0.0862831  , -0.100385487, -9.793406   , -0.0003586974, -0.000180167262, 0.000245495874, 0.009758293 , -0.009614645, 0.000253587583, 919.5845    , 28.1700764  , 810.5674    , 4.91        , 3           , 255         , 0           , 0
-0.09339537 , -0.103410579, -9.798671   , 0.000128561864, -1.21473568E-05, 2.65669587E-06, 0.009759579 , -0.00961476751, 0.000253612932, 919.5845    , 28.1700764  , 810.5673    , 4.92        , 3           , 255         , 0           , 0
-0.09390659 , -0.0941421539, -9.778266   , -0.000502903364, 0.00018527222, 0.000185041339, 0.009754532 , -0.009612933, 0.0002554814, 919.606262  , 28.1729259  , 810.567261  , 4.93        , 3           , 255         , 0           , 0
-0.0981818  , -0.0928666145, -9.785574   , -0.000533359067, 0.000225329626, -0.000477783, 0.009749244 , -0.009610633, 0.000250725658, 919.606262  , 28.1729259  , 810.5672    , 4.94        , 3           , 255         , 0           , 0
-0.0971703157, -0.0932811052, -9.782512   , -0.000307528477, 0.000473500375, -0.0009890575, 0.009746264 , -0.009605801, 0.000240881476, 919.606262  , 28.1729259  , 810.567139  , 4.95        , 3           , 255         , 0           , 0
-0.101730183, -0.0912338346, -9.776996   , 9.657355E-05, 0.000568442163, -0.00068960496, 0.009747296 , -0.009600051, 0.000234041014, 919.606262  , 28.1729259  , 810.5671    , 4.96        , 3           , 255         , 0           , 0
-0.0984557644, -0.09286846 , -9.776079   , -0.0005980581, 0.000101767509, -7.843581E-05, 0.009741322 , -0.009599025, 0.00023326659, 919.606262  , 28.1729259  , 810.567     , 4.97        , 3           , 255         , 0           , 0
-0.09972432 , -0.102763951, -9.764594   , -0.0006291916, 0.000383826351, 0.0004441684, 0.009734987 , -0.009595232, 0.000237745509, 919.606262  , 28.1729259  , 810.566956  , 4.98        , 3           , 255         , 0           , 0
-0.1020834  , -0.09094307 , -9.686618   , -0.00198290125, 0.00122660457, -0.0001738173, 0.009715174 , -0.009582948, 0.000236126711, 919.606262  , 28.1729259  , 810.5669    , 4.99        , 3           , 255         , 0           , 0
-0.116600752, -0.0896979  , -9.701555   , -0.0044518197, 0.0017643848, 0.000262664136, 0.009670628 , -0.009565333, 0.000238924375, 919.606262  , 28.1729259  , 810.566833  , 5           , 3           , 0           , -1          , 500
-0.113596931, -0.09902896 , -10.0148544 , 0.00248439633, -0.00222914 , 1.35398177E-05, 0.00969545  , -0.009592867, 0.000238844237, 919.606262  , 28.1729259  , 810.567749  , 5.01        , 3           , 1           , 0           , 0
-0.09045587 , -0.09138949 , -9.961161   , 0.00392100029, -0.0007899199, -0.0004887601, 0.009734706 , -0.00960071851, 0.000233880113, 919.606262  , 28.1729259  , 810.5677    , 5.02        , 3           , 2           , 0           , 0
-0.06287886 , -0.08986263 , -9.77566    , -0.00217434461, 0.000470595842, -0.000105687475, 0.009712971 , -0.009596   , 0.000232869 , 919.6067    , 28.1714344  , 810.5676    , 5.03        , 3           , 3           , 0           , 0
-0.0683099255, -0.08422813 , -9.648077   , -0.0005877655, 0.000438335759, -0.000352237956, 0.009707126 , -0.009591586, 0.000229389276, 919.6067    , 28.1714344  , 810.567566  , 5.04        , 3           , 4           , 0           , 0
-0.07291098 , -0.08544247 , -9.629693   , 0.0027843772, -0.00123558473, -0.000510111742, 0.009735019 , -0.00960389 , 0.000224168165, 919.6067    , 28.1714344  , 810.5675    , 5.05        , 3           , 5           , 0           , 0
-0.0858924761, -0.110764146, -9.772505   , 0.000411959481, -0.0008079088, 0.0002178011, 0.009739118 , -0.009611989, 0.000226267424, 919.6067    , 28.1714344  , 810.567444  , 5.06        , 3           , 6           , 0           , 0
-0.09667455 , -0.109382555, -9.998584   , -0.00108614808, -0.0002476037, -0.0006731337, 0.009728321 , -0.009614401, 0.000219512163, 919.6067    , 28.1714344  , 810.5674    , 5.07        , 3           , 7           , 0           , 0
-0.115931787, -0.0941119641, -9.89815    , -9.442854E-05, 4.877671E-05, -0.000630073249, 0.009727438 , -0.009613851, 0.000213216335, 919.6067    , 28.1714344  , 810.5673    , 5.08        , 3           , 8           , 5           , 5
-0.101822652, -0.09661603 , -9.649748   , 0.00104158372, -0.000107430868, -0.000510230544, 0.0097379   , -0.009614875, 0.00020810368, 919.6067    , 28.1714344  , 810.567261  , 5.09        , 3           , 9           , 5           , 0.1
-0.094082   , -0.0900466442, -9.61521149 , -0.00101962092, -9.819986E-05, -0.000103894388, 0.009727715 , -0.009615847, 0.000207055185, 919.6067    , 28.1714344  , 810.5672    , 5.1         , 3           , 10          , 0.1         , 0.1
-0.09484961 , -0.0782764  , -9.818682   , -0.000186505029, -0.000548016164, 0.000695336144, 0.009725622 , -0.00961786 , 0.00021395665, 919.6067    , 28.1714344  , 810.567261  , 5.11        , 3           , 11          , 0.00564124761, 0.005641243
