Acc X       , Acc Y       , Acc Z       , Gyro X      , Gyro Y      , Gyro Z      , Euler X     , Euler Y     , Euler Z     , Pres X      , Pres Y      , Pres Z      , Time        , Status      , LowRate X   , LowRate Y   , LowRate Z    
-0.09398122 , -0.0954822451, -9.786857   , 0           , 0           , 0           , 0.009755862 , -0.0096020475, 0           , 918.508     , 33.723896   , 820.4693    , 0           , 2           , 0           , 5.03823137  , 0
-0.0845291  , -0.09954947 , -9.670069   , 0.00109555107, 8.534174E-06, 0.000790593 , 0.009766712 , -0.009602321, 7.906548E-06, 918.508     , 33.723896   , 820.4693    , 0.01        , 3           , 1           , 0           , 0
-0.103305951, -0.1250689  , -9.7661     , -0.000514128, -2.16680346E-05, 0.0007103598, 0.009761502 , -0.009602607, 1.50078413E-05, 918.508     , 33.723896   , 820.4693    , 0.02        , 3           , 2           , 0           , 0
-0.134508461, -0.131884024, -9.87005    , -0.0009575696, 0.000134098227, 0.00023020053, 0.009751904 , -0.009601289, 1.73228727E-05, 918.444641  , 33.28638    , 820.4693    , 0.03        , 3           , 3           , 0           , 0
-0.13277851 , -0.122556105, -9.867918   , 0.0007775123, -0.0003805108, 0.000562256144, 0.009759625 , -0.009605149, 2.2908167E-05, 918.444641  , 33.28638    , 820.4693    , 0.04        , 3           , 4           , 0           , 0
-0.09863458 , -0.0868123  , -9.757113   , -0.00025494 , 0.000192253909, 0.000381140475, 0.00975704  , -0.009603262, 2.67382347E-05, 918.444641  , 33.28638    , 820.4693    , 0.05        , 3           , 5           , 0           , 0
-0.0645497  , -0.070401825, -9.741335   , -0.00103706587, 0.000476221234, -0.000256068655, 0.009746691 , -0.009598476, 2.42240585E-05, 918.444641  , 33.28638    , 820.4693    , 0.06        , 3           , 6           , 0           , 0
-0.04904914 , -0.0728067  , -9.757505   , 0.0009984791, -0.000364782522, -0.000532445265, 0.009756728 , -0.00960207 , 1.88641643E-05, 918.444641  , 33.28638    , 820.4693    , 0.07        , 3           , 7           , 0           , 0
-0.0609745868, -0.104782507, -9.812523   , 0.000157593575, -0.000348237576, 0.000163005534, 0.009758288 , -0.00960557 , 2.04601874E-05, 918.444641  , 33.28638    , 820.4693    , 0.08        , 3           , 8           , 5           , 5
-0.0899444446, -0.121264957, -9.879654   , -0.00075089233, 4.239881E-05, 0.000205305725, 0.009750759 , -0.009605166, 2.25173262E-05, 918.444641  , 33.28638    , 820.4693    , 0.09        , 3           , 9           , 5           , 0.1
-0.09950431 , -0.102192327, -9.841017   , 0.0009798083, -0.000214034459, -0.000219014488, 0.009760577 , -0.009607284, 2.0306361E-05, 918.444641  , 33.28638    , 820.4693    , 0.1         , 3           , 10          , 0.1         , 0.1
-0.112128869, -0.0864618  , -9.726736   , 0.0002678071, 0.000178414513, -0.0002665248, 0.009791029 , -0.00959758 , 1.739228E-05, 918.444641  , 33.28638    , 821.040161  , 0.11        , 3           , 11          , 0.0109544508, 0.0109544508
-0.111907065, -0.08482285 , -9.719431   , -0.0008613996, 6.73465547E-05, -0.000772490457, 0.009782488 , -0.009596831, 9.674181E-06, 918.444641  , 33.28638    , 821.040161  , 0.12        , 3           , 12          , 0.174642488 , 0
-0.0934387445, -0.072434105, -9.803345   , 0.0008145168, 0.0002116891, -0.0002460195, 0.009790658 , -0.009594691, 7.234763E-06, 918.422852  , 33.3261375  , 821.040161  , 0.13        , 3           , 13          , 0           , 0
-0.0966283  , -0.09020598 , -9.856069   , 0.00121908169, -7.35608046E-05, -0.0007784071, 0.009802923 , -0.009595351, -5.56298E-07, 918.422852  , 33.3261375  , 821.040161  , 0.14        , 3           , 14          , -0.0009160832, -0.000841118745
-0.10303241 , -0.101102427, -9.839372   , 0.0002911602, 0.000272888457, -6.620379E-05, 0.00980583951, -0.009592615, -1.19155845E-06, 918.422852  , 33.3261375  , 821.040161  , 0.15        , 3           , 15          , 0           , -6.56617431E-06
-0.107782267, -0.09223841 , -9.796698   , -2.050423E-06, 0.00043905343, 0.0005906982, 0.009805763 , -0.00958828349, 4.758317E-06, 918.422852  , 33.3261375  , 821.040161  , 0.16        , 3           , 16          , 0           , 1.401298E-45
-0.112629011, -0.0902036  , -9.741737   , 0.000308620045, 0.000562522851, 0.000400721678, 0.0098088095, -0.00958269648, 8.820583E-06, 918.422852  , 33.3261375  , 821.040161  , 0.17        , 3           , 20          , 0           , 0
-0.100595929, -0.100659169, -9.740824   , 0.000348138623, -2.63352413E-05, 0.00058174727, 0.009812236 , -0.009583017, 1.46353186E-05, 918.422852  , 33.3261375  , 821.040161  , 0.18        , 3           , 21          , 0           , 0
-0.08730456 , -0.111264512, -9.817523   , -0.00115327269, 0.0001414438, 0.0001642501, 0.009800687 , -0.009581618, 1.62916531E-05, 918.422852  , 33.3261375  , 821.040161  , 0.19        , 3           , 22          , 0           , 0
-0.08060505 , -0.09315115 , -9.871425   , 0.000438558578, -1.43332873E-05, -0.0005895258, 0.009805129 , -0.009581704, 1.03951506E-05, 918.422852  , 33.3261375  , 821.0402    , 0.2         , 3           , 40          , 0           , 0
-0.08036124 , -0.08044167 , -9.808113   , -2.65101553E-05, 0.0003796653, -0.000510819, 0.009787534 , -0.009608735, 5.491306E-06, 918.422852  , 33.3261375  , 821.1383    , 0.21        , 3           , 41          , 0           , 0
-0.08656185 , -0.08476783 , -9.760558   , -0.0008488147, 0.000531882746, 0.000129672626, 0.009779032 , -0.009603429, 6.84003953E-06, 918.422852  , 33.3261375  , 821.138367  , 0.22        , 3           , 42          , 0           , 0
-0.09291331 , -0.08931472 , -9.766609   , -0.000130051048, 0.000181703537, -0.00016184854, 0.009777747 , -0.009601597, 5.23936069E-06, 918.49585   , 33.3528     , 821.1384    , 0.23        , 3           , 255         , 0           , 0
-0.08842153 , -0.0981916562, -9.785833   , 0.0008659387, -7.16629438E-05, -0.0008728823, 0.009786491 , -0.009602226, -3.49623724E-06, 918.49585   , 33.3528     , 821.1385    , 0.24        , 3           , 255         , 0           , 0
-0.0911087841, -0.112579226, -9.830265   , -0.000422994839, -0.000157379836, -0.00067535683, 0.00978232548, -0.009603735, -1.0265021E-05, 918.49585   , 33.3528     , 821.13855   , 0.25        , 3           , 255         , 0           , 0
-0.09662215 , -0.09799138 , -9.839864   , -0.000394543749, -0.00045884162, 6.98321E-05 , 0.009778373 , -0.009608329, -9.611588E-06, 918.49585   , 33.3528     , 821.1386    , 0.26        , 3           , 255         , 0           , 0
-0.09403168 , -0.08279647 , -9.781792   , 0.0006514201, -7.571565E-05, -0.00024840876, 0.009784912 , -0.009609062, -1.21030125E-05, 918.49585   , 33.3528     , 821.1387    , 0.27        , 3           , 255         , 0           , 0
-0.08888531 , -0.08525051 , -9.753102   , -0.000278113876, 0.00013969728, 2.7427468E-05, 0.009782128 , -0.009607669, -1.18150829E-05, 918.49585   , 33.3528     , 821.138733  , 0.28        , 3           , 255         , 0           , 0
-0.08383405 , -0.08326406 , -9.784754   , -0.000481578056, -0.000103244442, -0.000843899848, 0.009777391 , -0.009608619, -2.0263944E-05, 918.49585   , 33.3528     , 821.1388    , 0.29        , 3           , 255         , 0           , 0
-0.0967849642, -0.09241605 , -9.822032   , 0.0007090136, 4.928588E-05, -0.0004369341, 0.009784526 , -0.009608084, -2.46283435E-05, 918.49585   , 33.3528     , 821.138855  , 0.3         , 3           , 255         , 0           , 0
-0.108660243, -0.121839419, -9.818645   , 0.0003294162, 0.000478375761, 1.531333E-05, 0.009768066 , -0.00958748 , -2.423903E-05, 918.49585   , 33.3528     , 820.950745  , 0.31        , 3           , 255         , 0           , 0
-0.10612236 , -0.102407813, -9.803728   , -0.0006080127, 0.000594719 , -0.000302123924, 0.009762015 , -0.009581503, -2.72021116E-05, 918.49585   , 33.3528     , 820.9508    , 0.32        , 3           , 255         , 0           , 0
-0.08601772 , -0.0797998458, -9.780226   , -0.000431079, 0.000312938937, 0.000182328688, 0.009757687 , -0.009578392, -2.53483431E-05, 918.448     , 33.3679962  , 820.950867  , 0.33        , 3           , 255         , 0           , 0
-0.08701766 , -0.0851501  , -9.764552   , -0.000215759908, 0.000481850962, -8.831863E-05, 0.009755539 , -0.009573567, -2.61844925E-05, 918.448     , 33.3679962  , 820.9509    , 0.34        , 3           , 255         , 0           , 0
-0.0938164741, -0.0809923559, -9.799719   , -0.000707025349, 0.000245970557, -0.00028647884, 0.009748495 , -0.009571079, -2.90252137E-05, 918.448     , 33.3679962  , 820.951     , 0.35        , 3           , 255         , 0           , 0
-0.09632684 , -0.100752637, -9.8261385  , -0.000116120267, 0.000467242382, 0.0003039064, 0.009747306 , -0.009566437, -2.594069E-05, 918.448     , 33.3679962  , 820.95105   , 0.36        , 3           , 255         , 0           , 0
-0.09701695 , -0.09708314 , -9.803869   , 0.0005812342, 0.00058648  , -0.000699300435, 0.009753183 , -0.009560502, -3.287632E-05, 918.448     , 33.3679962  , 820.9511    , 0.37        , 3           , 255         , 0           , 0
-0.09523378 , -0.0936167  , -9.7811985  , 7.13377958E-05, 0.000184777658, -0.0006346402, 0.009753958 , -0.009558593, -3.92045331E-05, 918.448     , 33.3679962  , 820.9512    , 0.38        , 3           , 255         , 0           , 0
-0.106098473, -0.0943381041, -9.77006149 , -0.0002513851, 0.000257454929, -0.000760715164, 0.009751517 , -0.009555946, -4.678637E-05, 918.448     , 33.3679962  , 820.951233  , 0.39        , 3           , 255         , 0           , 0
-0.102345645, -0.106304027, -9.78797    , -0.000418377982, -0.0006267382, -0.0008039765, 0.009747411 , -0.009562134, -5.48870121E-05, 918.448     , 33.3679962  , 820.9513    , 0.4         , 3           , 255         , 0           , 0
-0.0988129  , -0.100435376, -9.801587   , 0.000215228938, -0.0003083772, -0.0002586522, 0.009752202 , -0.009580022, -5.752857E-05, 918.448     , 33.3679962  , 820.9667    , 0.41        , 3           , 255         , 0           , 0
-0.09841658 , -0.104490712, -9.799868   , -0.000391277252, -0.0002442333, -0.000454106659, 0.009748331 , -0.00958242 , -6.209333E-05, 918.448     , 33.3679962  , 820.966736  , 0.42        , 3           , 255         , 0           , 0
-0.100292876, -0.1088918  , -9.785138   , -0.000276165665, 4.05639876E-05, -0.0006197313, 0.00974563  , -0.009581954, -6.828653E-05, 918.517334  , 33.3792572  , 820.9668    , 0.43        , 3           , 255         , 0           , 0
-0.0892931446, -0.100901783, -9.770433   , 4.716433E-05, 0.000125593564, -0.0006867779, 0.009746167 , -0.009580632, -7.51418847E-05, 918.517334  , 33.3792572  , 820.966858  , 0.44        , 3           , 255         , 0           , 0
-0.09017036 , -0.09042524 , -9.785125   , -0.000145434053, 0.000349859823, -0.000405305, 0.009744751 , -0.009577094, -7.916073E-05, 918.517334  , 33.3792572  , 820.9669    , 0.45        , 3           , 255         , 0           , 0
-0.09802616 , -0.08758728 , -9.811966   , 0.000399462238, -0.000195653411, -0.000526967167, 0.009748795 , -0.009578998, -8.444933E-05, 918.517334  , 33.3792572  , 820.967     , 0.46        , 3           , 255         , 0           , 0
-0.08714497 , -0.09641189 , -9.81807    , 0.0007991566, -0.000307473354, -0.000857769162, 0.009756869 , -0.009581987, -9.305677E-05, 918.517334  , 33.3792572  , 820.967041  , 0.47        , 3           , 255         , 0           , 0
-0.07842603 , -0.107641   , -9.804458   , 0.000123687845, 0.0004409024, -0.000311249547, 0.009758135 , -0.009577548, -9.612616E-05, 918.517334  , 33.3792572  , 820.9671    , 0.48        , 3           , 255         , 0           , 0
-0.08229343 , -0.08749972 , -9.79389    , 0.000254043145, 0.000376981276, 0.000377211953, 0.00976064  , -0.009573815, -9.23173357E-05, 918.517334  , 33.3792572  , 820.967163  , 0.49        , 3           , 255         , 0           , 0
-0.07491452 , -0.08280766 , -9.785742   , 0.0003794771, 0.00018386048, 0.000246920245, 0.009764409 , -0.009572001, -8.983026E-05, 918.517334  , 33.3792572  , 820.9672    , 0.5         , 3           , 255         , 0           , 0
-0.08492336 , -0.09535392 , -9.798917   , 0.000242126 , 9.097427E-05, -0.000455125817, 0.009770703 , -0.0095585715, -9.440911E-05, 918.517334  , 33.3792572  , 820.847656  , 0.51        , 3           , 255         , 0           , 0
-0.08630375 , -0.112296417, -9.803835   , 0.000582303037, -3.64452135E-05, 0.0002974695, 0.009776497 , -0.00955896452, -9.143805E-05, 918.517334  , 33.3792572  , 820.8477    , 0.52        , 3           , 255         , 0           , 0
-0.08979659 , -0.11794956 , -9.804135   , 1.90811115E-05, -9.788922E-05, -0.0002254772, 0.00977671053, -0.009559921, -9.370233E-05, 918.455139  , 33.3856354  , 820.8478    , 0.53        , 3           , 255         , 0           , 0
-0.103059411, -0.112820044, -9.792107   , 0.0003760833, -0.000392487971, 0.000176784219, 0.009780454 , -0.009563864, -9.197292E-05, 918.455139  , 33.3856354  , 820.847839  , 0.54        , 3           , 255         , 0           , 0
-0.08655081 , -0.08482737 , -9.793744   , -7.837539E-05, 0.000207476842, -0.0006227456, 0.009779729 , -0.009561728, -9.817992E-05, 918.455139  , 33.3856354  , 820.8479    , 0.55        , 3           , 255         , 0           , 0
-0.07508331 , -0.08379386 , -9.794049   , 0.000209522783, 0.0001385209, 0.000134638132, 0.009781812 , -0.009560356, -9.682002E-05, 918.455139  , 33.3856354  , 820.847961  , 0.56        , 3           , 255         , 0           , 0
-0.0786418244, -0.083139725, -9.797273   , -0.000149428437, -0.0003598925, -4.0451192E-05, 0.009780322 , -0.009563952, -9.72597263E-05, 918.455139  , 33.3856354  , 820.848     , 0.57        , 3           , 255         , 0           , 0
-0.1069695  , -0.08842684 , -9.805629   , -0.000134256145, 3.199908E-06, 0.0002321183, 0.009778958 , -0.009563942, -9.49383E-05, 918.455139  , 33.3856354  , 820.8481    , 0.58        , 3           , 255         , 0           , 0
-0.107874312, -0.09759303 , -9.804791   , 0.000292770332, -4.851632E-05, -0.00112872187, 0.009781993 , -0.009564316, -0.000106229949, 918.455139  , 33.3856354  , 820.848145  , 0.59        , 3           , 255         , 0           , 0
-0.09926586 , -0.09860385 , -9.788984   , 0.000527987 , 9.789091E-05, -0.000728320854, 0.009787342 , -0.009563266, -0.000113503367, 918.455139  , 33.3856354  , 820.8482    , 0.6         , 3           , 255         , 0           , 0
-0.09567861 , -0.0878262445, -9.79473    , -0.0003390971, 0.0005800122, -0.0005489659, 0.00978823  , -0.00955265 , -0.000118976524, 918.455139  , 33.3856354  , 820.865356  , 0.61        , 3           , 255         , 0           , 0
-0.0898165256, -0.0818836  , -9.79842949 , -0.000443544472, 7.52401538E-05, -0.000391724636, 0.009783833 , -0.00955186 , -0.000122886311, 918.455139  , 33.3856354  , 820.8655    , 0.62        , 3           , 255         , 0           , 0
-0.0794712454, -0.08944793 , -9.803043   , -0.000329514733, 9.028101E-05, -0.00104535837, 0.009780638 , -0.0095508555, -0.000133330774, 918.438538  , 33.3899078  , 820.8656    , 0.63        , 3           , 255         , 0           , 0
-0.07261266 , -0.09540311 , -9.79668    , -1.31531851E-06, -5.86168026E-05, -0.000156324008, 0.00978064  , -0.009551426, -0.0001348997, 918.438538  , 33.3899078  , 820.8657    , 0.64        , 3           , 255         , 0           , 0
-0.08559142 , -0.109012172, -9.800838   , -0.000313505763, 0.000620035629, 6.41516745E-05, 0.009777498 , -0.009545234, -0.000134197573, 918.438538  , 33.3899078  , 820.865845  , 0.65        , 3           , 255         , 0           , 0
-0.09928626 , -0.111444041, -9.799471   , -0.00029752194, 0.000500708935, -0.000377495948, 0.009774559 , -0.009540189, -0.000137923475, 918.438538  , 33.3899078  , 820.865967  , 0.66        , 3           , 255         , 0           , 0
-0.11138384 , -0.0880092159, -9.794153   , 0.000419835444, 0.000190229213, -0.000284836337, 0.009778785 , -0.009538259, -0.000140753182, 918.438538  , 33.3899078  , 820.8661    , 0.67        , 3           , 255         , 0           , 0
-0.104490772, -0.08538299 , -9.802451   , -2.48485012E-05, 0.000336039 , -0.000325808476, 0.009778566 , -0.00953486748, -0.000143978308, 918.438538  , 33.3899078  , 820.8662    , 0.68        , 3           , 255         , 0           , 0
-0.100144468, -0.09470104 , -9.797854   , -0.00037755887, -5.88744879E-05, -9.793612E-05, 0.009774801 , -0.009535447, -0.000144963386, 918.438538  , 33.3899078  , 820.866333  , 0.69        , 3           , 255         , 0           , 0
-0.09740152 , -0.09773622 , -9.794115   , -2.47182325E-05, -6.358157E-05, -0.000357745565, 0.009774588 , -0.00953604747, -0.000148546969, 918.438538  , 33.3899078  , 820.866455  , 0.7         , 3           , 255         , 0           , 0
-0.0961608738, -0.102206327, -9.789278   , 0.000644464046, 0.000240061723, 8.914845E-05, 0.009776647 , -0.009533734, -0.000147590326, 918.438538  , 33.3899078  , 820.901855  , 0.71        , 3           , 255         , 0           , 0
-0.0913204551, -0.09572895 , -9.800146   , 0.0004751006, 0.000394271 , 2.09423688E-05, 0.009781394 , -0.009529795, -0.000147342347, 918.438538  , 33.3899078  , 820.902     , 0.72        , 3           , 255         , 0           , 0
-0.08919333 , -0.0843441039, -9.7948885  , 0.0007133356, 0.000300736981, -0.0005327777, 0.009788577 , -0.009526735, -0.000152640539, 918.4748    , 33.3937759  , 820.9021    , 0.73        , 3           , 255         , 0           , 0
-0.09432621 , -0.09744324 , -9.790703   , 0.000165137521, 0.00026347884, -0.000913423137, 0.009790315 , -0.009524009, -0.000161748729, 918.4748    , 33.3937759  , 820.9022    , 0.74        , 3           , 255         , 0           , 0
-0.0960677043, -0.107316092, -9.790069   , 6.926706E-05, 0.000235528511, -0.0007482028, 0.009791079 , -0.00952158 , -0.000169207458, 918.4748    , 33.3937759  , 820.902344  , 0.75        , 3           , 255         , 0           , 0
-0.07945959 , -0.1097639  , -9.794314   , 0.000156835071, -0.000343055639, 9.74242648E-05, 0.009792639 , -0.009525021, -0.000168266852, 918.4748    , 33.3937759  , 820.902466  , 0.76        , 3           , 255         , 0           , 0
-0.07429643 , -0.09801258 , -9.794006   , -0.000131868816, 0.0002524904, -0.0001682323, 0.009791335 , -0.009522479, -0.000169924373, 918.4748    , 33.3937759  , 820.9026    , 0.77        , 3           , 255         , 0           , 0
-0.0822424144, -0.0877211243, -9.803385   , -0.000278596242, -0.0001261679, 0.000717045041, 0.00978848152, -0.009523811, -0.00016276649, 918.4748    , 33.3937759  , 820.9027    , 0.78        , 3           , 255         , 0           , 0
-0.08393212 , -0.0830579251, -9.794322   , -0.0006027128, -8.99169245E-05, 2.76040264E-05, 0.009782454 , -0.009524714, -0.000162499273, 918.4748    , 33.3937759  , 820.902832  , 0.79        , 3           , 255         , 0           , 0
-0.09092797 , -0.08944504 , -9.783133   , -4.86999052E-05, -0.000189398008, -0.000813994033, 0.009782044 , -0.009526528, -0.000170657513, 918.4748    , 33.3937759  , 820.902954  , 0.8         , 3           , 255         , 0           , 0
-0.104131661, -0.0888226  , -9.793114   , 4.90872771E-05, -0.000170404965, -0.0006846712, 0.009781337 , -0.00951018 , -0.000177508686, 918.4748    , 33.3937759  , 820.8846    , 0.81        , 3           , 255         , 0           , 0
-0.112509117, -0.103370309, -9.808397   , 4.931586E-05, 0.0001249605, -0.000297362742, 0.009781859 , -0.009508902, -0.00018047 , 918.4748    , 33.3937759  , 820.8847    , 0.82        , 3           , 255         , 0           , 0
-0.111458123, -0.111163259, -9.805665   , 0.000348038273, 0.000218496018, -0.000106715292, 0.00978534948, -0.009506706, -0.00018151573, 918.456238  , 33.4013748  , 820.8848    , 0.83        , 3           , 255         , 0           , 0
-0.107966483, -0.102700852, -9.797833   , -0.000351567636, -0.000180780131, -0.000294234138, 0.009781861 , -0.009508486, -0.0001844757, 918.456238  , 33.4013748  , 820.884949  , 0.84        , 3           , 255         , 0           , 0
-0.109265968, -0.105843581, -9.797707   , -0.0005411096, 0.000261523 , -0.000153134737, 0.009776465 , -0.009505856, -0.000185981437, 918.456238  , 33.4013748  , 820.8851    , 0.85        , 3           , 255         , 0           , 0
-0.100753531, -0.0936808363, -9.788394   , 0.00019892538, 0.0009873573, 0.0005364488, 0.009778402 , -0.009496035, -0.000180520554, 918.456238  , 33.4013748  , 820.8852    , 0.86        , 3           , 255         , 0           , 0
-0.08749696 , -0.08720555 , -9.785887   , -8.200295E-07, 0.000359126745, -0.00104023842, 0.009778491 , -0.0094923405, -0.000190887513, 918.456238  , 33.4013748  , 820.8853    , 0.87        , 3           , 255         , 0           , 0
-0.100000322, -0.0986732  , -9.80039    , -0.000477422378, -6.63433457E-06, -0.000804008334, 0.009773794 , -0.009492328, -0.000198928043, 918.456238  , 33.4013748  , 820.885437  , 0.88        , 3           , 255         , 0           , 0
-0.107201219, -0.09952817 , -9.803534   , 9.868579E-05, 0.0005033999, 0.000502799 , 0.009774732 , -0.009487343, -0.000193850981, 918.456238  , 33.4013748  , 820.885559  , 0.89        , 3           , 255         , 0           , 0
-0.108783819, -0.094380565, -9.803704   , -2.53402977E-05, 0.000154110661, -0.0003241947, 0.009774511 , -0.00948577 , -0.000197077767, 918.456238  , 33.4013748  , 820.885742  , 0.9         , 3           , 255         , 0           , 0
-0.105192065, -0.0997295752, -9.795362   , 0.000643469 , -9.813206E-05, -0.0003807613, 0.009787326 , -0.009514246, -0.000200955255, 918.456238  , 33.4013748  , 820.8927    , 0.91        , 3           , 255         , 0           , 0
-0.09843462 , -0.100329161, -9.79893    , -0.0004405505, 0.000174714893, -0.0008167887, 0.009782997 , -0.009512419, -0.000209105841, 918.456238  , 33.4013748  , 820.8929    , 0.92        , 3           , 255         , 0           , 0
-0.09071202 , -0.09042608 , -9.793708   , -0.0008502817, 0.0004957473, 0.000238565786, 0.009774473 , -0.009507486, -0.000206671742, 918.494568  , 33.4002876  , 820.893066  , 0.93        , 3           , 255         , 0           , 0
-0.08626215 , -0.105329916, -9.79330349 , -0.0004847485, 0.000481570634, -0.0001132029, 0.009769634 , -0.00950266 , -0.00020775669, 918.494568  , 33.4002876  , 820.89325   , 0.94        , 3           , 255         , 0           , 0
-0.08033459 , -0.09943532 , -9.800609   , 0.0001148638, 6.19795755E-05, -0.000165726291, 0.0097707985, -0.009502023, -0.000209407866, 918.494568  , 33.4002876  , 820.893433  , 0.95        , 3           , 255         , 0           , 0
-0.09301994 , -0.09484776 , -9.795698   , -3.72382347E-05, 0.0006684041, 0.000188030914, 0.009770406 , -0.009495357, -0.00020746229, 918.494568  , 33.4002876  , 820.8936    , 0.96        , 3           , 255         , 0           , 0
-0.101047494, -0.105580747, -9.804118   , -0.0006777034, 0.000469815859, -2.340414E-05, 0.009763633 , -0.00949065853, -0.000207650432, 918.494568  , 33.4002876  , 820.8938    , 0.97        , 3           , 255         , 0           , 0
-0.09968634 , -0.09772358 , -9.801041   , 0.000106027466, 0.000447936327, 0.000606397167, 0.009764634 , -0.009486237, -0.000201542891, 918.494568  , 33.4002876  , 820.894     , 0.98        , 3           , 255         , 0           , 0
-0.09401512 , -0.0944498554, -9.799692   , 0.000651759561, 0.0005339519, 0.00024806743, 0.009771125 , -0.00948092248, -0.0001990101, 918.494568  , 33.4002876  , 820.894165  , 0.99        , 3           , 255         , 0           , 0
-0.104045674, -0.10089387 , -9.798025   , 3.83030274E-05, 0.000150215114, 0.0006993462, 0.009771441 , -0.009479488, -0.00019200216, 918.494568  , 33.4002876  , 820.894348  , 1           , 3           , 0           , 6.038236    , 100
-0.1104676  , -0.08557899 , -9.79153    , 0.000479538256, -0.000251021527, 0.000478946924, 0.009783554 , -0.009487113, -0.000187307174, 918.494568  , 33.4002876  , 820.8579    , 1.01        , 3           , 1           , 0           , 0
-0.104767144, -0.08957939 , -9.78713    , 0.000532546255, 0.000263718423, -0.0005197246, 0.009788928 , -0.009484425, -0.00019247843, 918.494568  , 33.4002876  , 820.858032  , 1.02        , 3           , 2           , 0           , 0
-0.10123308 , -0.0946744159, -9.802107   , 0.000207007222, 0.0002385067, 0.000552246463, 0.009790945 , -0.009482093, -0.000186932783, 918.46106   , 33.400898   , 820.858154  , 1.03        , 3           , 3           , 0           , 0
-0.101063177, -0.08711679 , -9.807276   , -2.61688838E-05, -0.0003056861, 0.00017963814, 0.009790667 , -0.009485168, -0.000185166384, 918.46106   , 33.400898   , 820.8583    , 1.04        , 3           , 4           , 0           , 0
-0.101077653, -0.09789449 , -9.79994    , 7.86428E-05 , 0.000254256534, -0.0002890946, 0.00979148  , -0.009482598, -0.00018803234, 918.46106   , 33.400898   , 820.8584    , 1.05        , 3           , 5           , 0           , 0
-0.09255545 , -0.09196459 , -9.787761   , 0.000244137889, 1.09137618E-05, -0.000377307442, 0.009793957 , -0.009482452, -0.00019180424, 918.46106   , 33.400898   , 820.8585    , 1.06        , 3           , 6           , 0           , 0
-0.09963462 , -0.08561899 , -9.785519   , 0.000673141563, -0.000150034728, -0.000270158169, 0.00980071351, -0.009483926, -0.000194520457, 918.46106   , 33.400898   , 820.858643  , 1.07        , 3           , 7           , 0           , 0
-0.0909007043, -0.0913874358, -9.787485   , 0.000846472161, 0.0001290366, 6.60004E-05 , 0.00980917  , -0.009482643, -0.000193847824, 918.46106   , 33.400898   , 820.858765  , 1.08        , 3           , 8           , 5           , 5
-0.10944356 , -0.09388503 , -9.792274   , 0.000333651784, -9.186537E-05, -0.000294918718, 0.009812535 , -0.009483531, -0.000196805908, 918.46106   , 33.400898   , 820.8589    , 1.09        , 3           , 9           , 5           , 0.1
-0.104281843, -0.093432   , -9.802042   , 0.000205968972, -0.0002677312, -0.00137299031, 0.009814724 , -0.009486074, -0.000210561688, 918.46106   , 33.400898   , 820.859     , 1.1         , 3           , 10          , 0.1         , 0.1
-0.0957164  , -0.0976388454, -9.804208   , -0.0003843702, -0.000125822669, -0.00024964902, 0.009797244 , -0.009511986, -0.000212940533, 918.46106   , 33.400898   , 820.863159  , 1.11        , 3           , 11          , 0.009365692 , 0.009365692
-0.08197588 , -0.103742719, -9.803606   , -0.000148444669, -0.0002620006, 0.00013998762, 0.009795749 , -0.00951462 , -0.000211566352, 918.46106   , 33.400898   , 820.8633    , 1.12        , 3           , 12          , 0.174642846 , 0
-0.06768531 , -0.0937462449, -9.795761   , 0.000214120955, 0.000383404375, 0.00131889246, 0.009797762 , -0.009510913, -0.000198340189, 918.5277    , 33.4059868  , 820.8634    , 1.13        , 3           , 13          , 0           , 0
-0.0633004457, -0.09860871 , -9.797361   , -0.0005031278, -2.76622013E-05, 0.0001815544, 0.009792714 , -0.009511211, -0.000196527413, 918.5277    , 33.4059868  , 820.8635    , 1.14        , 3           , 14          , -0.00091607403, -0.0008410724
-0.0769117549, -0.09432224 , -9.791113   , 0.0003508089, -0.000210292987, -2.74151971E-05, 0.00979622547, -0.009513308, -0.000196822162, 918.5277    , 33.4059868  , 820.863647  , 1.15        , 3           , 15          , 0           , -6.56671637E-06
-0.09993094 , -0.10279119 , -9.795588   , 0.000681237 , 0.0002996223, 1.53708934E-05, 0.009803034 , -0.009510315, -0.000196639085, 918.5277    , 33.4059868  , 820.863831  , 1.16        , 3           , 16          , 0           , 1.401298E-45
-0.09361386 , -0.101036385, -9.796416   , 0.0006239988, 2.089981E-05, 0.000313280267, 0.009809244 , -0.009510137, -0.000193504326, 918.5277    , 33.4059868  , 820.864     , 1.17        , 3           , 20          , 0           , 0
-0.0923455358, -0.0960433856, -9.801313   , 0.000336739817, -1.77923357E-05, -0.00044594577, 0.009812655 , -0.009510269, -0.00019796539, 918.5277    , 33.4059868  , 820.8642    , 1.18        , 3           , 21          , 0           , 0
-0.100677311, -0.09416803 , -9.795252   , 0.000330819574, 0.000424892234, -0.00013815485, 0.009815974 , -0.009506008, -0.0001993052, 918.5277    , 33.4059868  , 820.8644    , 1.19        , 3           , 22          , 0           , 0
-0.0972689539, -0.0934300944, -9.799904   , 0.000266162038, 0.000159399468, -0.000454512221, 0.00981868  , -0.00950437 , -0.000203834556, 918.5277    , 33.4059868  , 820.864563  , 1.2         , 3           , 40          , 0           , 0
-0.1047246  , -0.0909615  , -9.79272652 , 0.0006776869, 0.000181105861, -0.000256433268, 0.009829017 , -0.009488495, -0.000206414581, 918.5277    , 33.4059868  , 820.7992    , 1.21        , 3           , 41          , 0           , 0
-0.1101896  , -0.0842774  , -9.791639   , -9.51334951E-05, 3.759173E-05, -0.0003165965, 0.009828095 , -0.009488088, -0.00020957677, 918.5277    , 33.4059868  , 820.799133  , 1.22        , 3           , 42          , 0           , 0
-0.110088192, -0.07609317 , -9.794317   , 0.000148564635, -0.000204149052, -0.0001279095, 0.009829594 , -0.009490115, -0.000210875878, 918.4779    , 33.4062576  , 820.7991    , 1.23        , 3           , 255         , 0           , 0
-0.101435766, -0.08919745 , -9.807967   , -0.000227485027, -5.27112861E-05, 0.0005079908, 0.009827271 , -0.009490692, -0.000205801291, 918.4779    , 33.4062576  , 820.799     , 1.24        , 3           , 255         , 0           , 0
-0.0945358649, -0.0832114443, -9.805389   , -0.000207615492, 0.0001271618, -0.000194598964, 0.009825215 , -0.009489401, -0.000207734731, 918.4779    , 33.4062576  , 820.799     , 1.25        , 3           , 255         , 0           , 0
-0.09433111 , -0.100714348, -9.808306   , 0.000197185844, 5.59673645E-05, 0.000114676826, 0.009827174 , -0.009488853, -0.00020658251, 918.4779    , 33.4062576  , 820.799     , 1.26        , 3           , 255         , 0           , 0
-0.08864791 , -0.08890131 , -9.793097   , 0.000244847266, 4.488585E-05, -0.000784852833, 0.009829697 , -0.009488327, -0.000214426414, 918.4779    , 33.4062576  , 820.799     , 1.27        , 3           , 255         , 0           , 0
-0.08766182 , -0.0935091749, -9.793517   , -0.0001452943, 0.000474251166, -0.000558631844, 0.009828296 , -0.00948353 , -0.000219965965, 918.4779    , 33.4062576  , 820.799     , 1.28        , 3           , 255         , 0           , 0
-0.08556976 , -0.103127338, -9.806104   , 0.000150142529, 0.000268566073, -0.0005702457, 0.00982985  , -0.009480788, -0.000225641867, 918.4779    , 33.4062576  , 820.799     , 1.29        , 3           , 255         , 0           , 0
-0.09816556 , -0.08400681 , -9.800049   , 9.772985E-05, -1.82493823E-05, 0.000245314732, 0.009830805 , -0.009480995, -0.000223190567, 918.4779    , 33.4062576  , 820.799     , 1.3         , 3           , 255         , 0           , 0
-0.0988293141, -0.0947330445, -9.799716   , -0.000566144, 0.000238712528, -0.0005325876, 0.009811041 , -0.009487867, -0.000228358535, 918.4779    , 33.4062576  , 820.792358  , 1.31        , 3           , 255         , 0           , 0
-0.09358592 , -0.101251386, -9.800189   , 0.000118910277, 0.000265886716, 9.61898841E-05, 0.00981222  , -0.009485219, -0.000227370576, 918.4779    , 33.4062576  , 820.7923    , 1.32        , 3           , 255         , 0           , 0
-0.08794389 , -0.0992480144, -9.795833   , 0.000124113 , -0.000177451875, -0.000263718423, 0.009813487 , -0.009486966, -0.000230025093, 918.4525    , 33.4068031  , 820.792236  , 1.33        , 3           , 255         , 0           , 0
-0.08707238 , -0.106417492, -9.797931   , 0.00023207604, 0.000254755258, -0.0004391741, 0.0098158475, -0.009484376, -0.000234391715, 918.4525    , 33.4068031  , 820.7922    , 1.34        , 3           , 255         , 0           , 0
-0.0881991759, -0.09477718 , -9.800579   , 8.06002063E-05, 0.000559517939, -0.0003673248, 0.00981668849, -0.009478744, -0.000238009932, 918.4525    , 33.4068031  , 820.7922    , 1.35        , 3           , 255         , 0           , 0
-0.0805613548, -0.079997085, -9.798747   , -0.000107951579, 0.000471259526, -0.000176869449, 0.009815625 , -0.009474015, -0.000239732326, 918.4525    , 33.4068031  , 820.7922    , 1.36        , 3           , 255         , 0           , 0
-0.08713655 , -0.0820858  , -9.789594   , 0.000402017555, 0.000238954613, -0.000111442547, 0.009819655 , -0.009471614, -0.000240823269, 918.4525    , 33.4068031  , 820.7922    , 1.37        , 3           , 255         , 0           , 0
-0.106133461, -0.105105892, -9.793625   , 0.0007705669, -0.000112222158, -3.36561425E-05, 0.009827364 , -0.009472732, -0.000241170826, 918.4525    , 33.4068031  , 820.7922    , 1.38        , 3           , 255         , 0           , 0
-0.106395259, -0.103859879, -9.794049   , 0.0006521518, 0.000371147849, 0.000146631908, 0.009833872 , -0.009469037, -0.000239668036, 918.4525    , 33.4068031  , 820.7922    , 1.39        , 3           , 255         , 0           , 0
-0.0838372558, -0.09376446 , -9.80293    , -0.000212436542, 0.0005645382, 9.09344453E-05, 0.009831739 , -0.009463401, -0.000238703215, 918.4525    , 33.4068031  , 820.7922    , 1.4         , 3           , 255         , 0           , 0
-0.0853179544, -0.09559216 , -9.80068    , -0.000147432438, -7.53888744E-05, 0.000121394689, 0.009830134 , -0.00946209952, -0.0002374956, 918.4525    , 33.4068031  , 820.812439  , 1.41        , 3           , 255         , 0           , 0
-0.106223084, -0.09609725 , -9.790727   , 0.000153504545, 0.000267929048, -0.00015740766, 0.009831684 , -0.009459404, -0.000239043307, 918.4525    , 33.4068031  , 820.8125    , 1.42        , 3           , 255         , 0           , 0
-0.105068758, -0.102415189, -9.791059   , 0.0006447265, 8.537137E-05, -6.439813E-05, 0.009838136 , -0.009458545, -0.000239678848, 918.467     , 33.4078865  , 820.812561  , 1.43        , 3           , 255         , 0           , 0
-0.0945417061, -0.093975395, -9.787035   , 0.000115849252, 3.3499382E-05, -2.36929873E-06, 0.00983929448, -0.009458209, -0.000239699235, 918.467     , 33.4078865  , 820.8126    , 1.44        , 3           , 255         , 0           , 0
-0.09077235 , -0.0925218  , -9.795923   , 8.43499438E-05, -0.000142926874, -0.00112680928, 0.0098402435, -0.009459528, -0.000250981073, 918.467     , 33.4078865  , 820.8127    , 1.45        , 3           , 255         , 0           , 0
-0.0935973153, -0.102648541, -9.789991   , 0.000424145081, 0.000180946488, -0.000197594622, 0.009844504 , -0.009457697, -0.00025293912, 918.467     , 33.4078865  , 820.812744  , 1.46        , 3           , 255         , 0           , 0
-0.1006151  , -0.0966447443, -9.793064   , -0.000420272, -0.000394763134, -9.815325E-05, 0.00984031148, -0.009461636, -0.0002539595, 918.467     , 33.4078865  , 820.8128    , 1.47        , 3           , 255         , 0           , 0
-0.08428256 , -0.09634568 , -9.795519   , -1.366745E-05, -0.0001063454, 6.91053E-05 , 0.009840167 , -0.009462706, -0.000253278937, 918.467     , 33.4078865  , 820.812866  , 1.48        , 3           , 255         , 0           , 0
-0.0876876861, -0.09798084 , -9.797243   , 4.833116E-05, 0.000286277325, 0.000522594259, 0.0098406   , -0.009459894, -0.000248024939, 918.467     , 33.4078865  , 820.8129    , 1.49        , 3           , 255         , 0           , 0
-0.100131251, -0.0948264748, -9.800047   , 0.000210119179, 0.000599299266, -0.000458788476, 0.009842746 , -0.009453855, -0.000252553727, 918.467     , 33.4078865  , 820.813     , 1.5         , 3           , 255         , 0           , 0
-0.101906933, -0.09212545 , -9.803569   , 0.0004460206, 1.12680718E-05, -0.001111275, 0.009848706 , -0.009459375, -0.000263678259, 918.467     , 33.4078865  , 820.8162    , 1.51        , 3           , 255         , 0           , 0
-0.113835119, -0.0851732045, -9.800253   , -2.78947409E-05, 1.46667589E-05, -0.000428536179, 0.009848468 , -0.009459187, -0.000267962052, 918.467     , 33.4078865  , 820.816345  , 1.52        , 3           , 255         , 0           , 0
-0.106452808, -0.0889779553, -9.799723   , -0.0002566952, 0.000417741423, -0.000730717147, 0.009845969 , -0.00945493951, -0.0002752279, 918.4533    , 33.4080925  , 820.816467  , 1.53        , 3           , 255         , 0           , 0
-0.105307981, -0.09214504 , -9.795831   , -0.000204605167, 0.000172780128, -0.00108407927, 0.00984402653, -0.009453104, -0.000286051363, 918.4533    , 33.4080925  , 820.8166    , 1.54        , 3           , 255         , 0           , 0
-0.08928571 , -0.08997714 , -9.803167   , 0.000175556168, 0.000300848857, -0.0004900219, 0.009845826 , -0.009450047, -0.0002909218, 918.4533    , 33.4080925  , 820.8167    , 1.55        , 3           , 255         , 0           , 0
-0.08094943 , -0.08631936 , -9.806452   , 0.000424433849, 0.000547389849, -0.000474876317, 0.00985011552, -0.009444529, -0.0002956165, 918.4533    , 33.4080925  , 820.816833  , 1.56        , 3           , 255         , 0           , 0
-0.08704496 , -0.08212429 , -9.797676   , -2.816075E-05, 0.000363946165, 0.000475306937, 0.00984979  , -0.009440936, -0.000290827738, 918.4533    , 33.4080925  , 820.816956  , 1.57        , 3           , 255         , 0           , 0
-0.0835301653, -0.08676509 , -9.790262   , -0.000115443487, 6.60845544E-05, 2.77764648E-05, 0.009848632 , -0.009440279, -0.000290543481, 918.4533    , 33.4080925  , 820.8171    , 1.58        , 3           , 255         , 0           , 0
-0.08743086 , -0.09985174 , -9.791412   , -0.000186389429, 8.27397453E-05, -0.00016127828, 0.009846783 , -0.009439435, -0.000292148063, 918.4533    , 33.4080925  , 820.8172    , 1.59        , 3           , 255         , 0           , 0
-0.102665521, -0.107792556, -9.804862   , -0.0001976788, -0.000352111645, 0.000162808981, 0.009844791 , -0.009442972, -0.0002905547, 918.4533    , 33.4080925  , 820.8173    , 1.6         , 3           , 255         , 0           , 0
-0.09663348 , -0.107168674, -9.815931   , -0.000154071371, 7.283047E-05, -0.000146096048, 0.009832978 , -0.009448414, -0.000291911274, 918.4533    , 33.4080925  , 820.834656  , 1.61        , 3           , 255         , 0           , 0
-0.0900743  , -0.0947250947, -9.7996645  , 6.675086E-05, -0.000289496849, -0.00044117737, 0.009833689 , -0.00945126452, -0.000296351383, 918.4533    , 33.4080925  , 820.834839  , 1.62        , 3           , 255         , 0           , 0
-0.08456652 , -0.08918543 , -9.788834   , 0.000701861 , -0.000146822073, -3.53641335E-05, 0.009840711 , -0.00945272949, -0.00029671946, 918.4676    , 33.4103966  , 820.8351    , 1.63        , 3           , 255         , 0           , 0
-0.092331484, -0.08349245 , -9.785922   , 2.75240745E-05, 4.32268134E-05, -9.127381E-05, 0.009840995 , -0.009452289, -0.000297627936, 918.4676    , 33.4103966  , 820.8353    , 1.64        , 3           , 255         , 0           , 0
-0.09977734 , -0.09670083 , -9.792546   , -0.000308547867, -0.000307986047, -9.783233E-06, 0.009837911 , -0.009455367, -0.000297756051, 918.4676    , 33.4103966  , 820.8356    , 1.65        , 3           , 255         , 0           , 0
-0.09965726 , -0.102359153, -9.797594   , -0.0004654457, 0.0001836844, 0.000280644977, 0.009833231 , -0.009453558, -0.0002949316, 918.4676    , 33.4103966  , 820.8358    , 1.66        , 3           , 255         , 0           , 0
-0.0890026838, -0.0925446153, -9.801911   , -0.000605309266, 8.047873E-05, -0.000253927283, 0.009827201 , -0.009452728, -0.0002974629, 918.4676    , 33.4103966  , 820.83606   , 1.67        , 3           , 255         , 0           , 0
-0.09831458 , -0.09560092 , -9.802191   , -0.0006446203, 0.00038685248, 0.000525194162, 0.009820706 , -0.009448913, -0.000292173121, 918.4676    , 33.4103966  , 820.8363    , 1.68        , 3           , 255         , 0           , 0
-0.0906598  , -0.0948265642, -9.79591    , 0.000366521883, 0.0003461443, -0.000421096425, 0.00982441  , -0.009445408, -0.000296349957, 918.4676    , 33.4103966  , 820.836548  , 1.69        , 3           , 255         , 0           , 0
-0.08207759 , -0.0870448  , -9.789207   , 0.00076744426, -0.0002569044, -0.0005994477, 0.009832139 , -0.009447917, -0.000302369532, 918.4676    , 33.4103966  , 820.8368    , 1.7         , 3           , 255         , 0           , 0
-0.07778424 , -0.09450984 , -9.790682   , 0.000253897451, -1.05511863E-05, -0.000211611725, 0.00983036  , -0.009447319, -0.000304445624, 918.4676    , 33.4103966  , 820.837     , 1.71        , 3           , 255         , 0           , 0
-0.09538446 , -0.09282134 , -9.796915   , 0.0007230098, 6.978819E-05, 0.000954432762, 0.009837499 , -0.009446714, -0.000294894679, 918.4676    , 33.4103966  , 820.8372    , 1.72        , 3           , 255         , 0           , 0
-0.121534646, -0.08744098 , -9.794795   , 0.0009959688, 0.000322455424, 0.000270946184, 0.009847432 , -0.009443516, -0.0002921535, 918.4719    , 33.4100571  , 820.837463  , 1.73        , 3           , 255         , 0           , 0
-0.117697932, -0.103444435, -9.80201    , 0.000335580029, -0.000166971586, 1.47988294E-05, 0.009850786 , -0.009445187, -0.000292021956, 918.4719    , 33.4100571  , 820.8377    , 1.74        , 3           , 255         , 0           , 0
-0.09370274 , -0.09752824 , -9.794161   , 0.0005654333, -0.000207316014, -0.000123685779, 0.00985645  , -0.009447248, -0.000293279183, 918.4719    , 33.4100571  , 820.837952  , 1.75        , 3           , 255         , 0           , 0
-0.09479193 , -0.0752628  , -9.802324   , 0.000394960225, -8.292147E-06, 7.751678E-05, 0.009860394 , -0.009447338, -0.000292504876, 918.4719    , 33.4100571  , 820.8382    , 1.76        , 3           , 255         , 0           , 0
-0.07684927 , -0.08782995 , -9.802321   , 0.000438480318, -0.000113581773, -0.000385817, 0.009864815 , -0.009448436, -0.000296374143, 918.4719    , 33.4100571  , 820.83844   , 1.77        , 3           , 255         , 0           , 0
-0.0790036246, -0.08663919 , -9.786316   , 0.0005667681, 9.615021E-05, -0.000698498741, 0.009870548 , -0.009447405, -0.0003033494, 918.4719    , 33.4100571  , 820.8387    , 1.78        , 3           , 255         , 0           , 0
-0.08739028 , -0.0983656049, -9.782249   , 0.00111240277, 0.00028051337, 0.000329929549, 0.00988164  , -0.009444634, -0.0003000225, 918.4719    , 33.4100571  , 820.8389    , 1.79        , 3           , 255         , 0           , 0
-0.0988032743, -0.09902896 , -9.789915   , 0.0005321846, 0.000339928432, 7.93968138E-05, 0.009886952 , -0.009441242, -0.0002991949, 918.4719    , 33.4100571  , 820.8392    , 1.8         , 3           , 255         , 0           , 0
-0.100460924, -0.09449397 , -9.790477   , 0.000116114737, 2.569094E-05, -0.000579768035, 0.00987767  , -0.009445313, -0.0003048907, 918.4719    , 33.4100571  , 820.8341    , 1.81        , 3           , 255         , 0           , 0
-0.08745356 , -0.09972331 , -9.808117   , -0.000335062039, -2.77959625E-05, -0.0009101724, 0.00987440348, -0.009445502, -0.000313994882, 918.4719    , 33.4100571  , 820.834351  , 1.82        , 3           , 255         , 0           , 0
-0.08711213 , -0.0852175  , -9.802829   , -0.000197539688, -0.000173268316, 4.34898866E-05, 0.009872424 , -0.00944723748, -0.000313577126, 918.4826    , 33.4091759  , 820.8346    , 1.83        , 3           , 255         , 0           , 0
-0.09905336 , -0.0920728  , -9.79212952 , -0.000242258073, -0.000143204292, 0.000247348682, 0.009869978 , -0.009448695, -0.000311117852, 918.4826    , 33.4091759  , 820.834839  , 1.84        , 3           , 255         , 0           , 0
-0.100648604, -0.0905349255, -9.790525   , -0.000285129878, -7.188058E-05, -0.0002087236, 0.009867148 , -0.00944939349, -0.0003132121, 918.4826    , 33.4091759  , 820.8351    , 1.85        , 3           , 255         , 0           , 0
-0.09739087 , -0.08557769 , -9.795223   , -9.544892E-05, -8.39630957E-05, 0.00026421572, 0.009866169 , -0.009450259, -0.000310578325, 918.4826    , 33.4091759  , 820.8353    , 1.86        , 3           , 255         , 0           , 0
-0.102671742, -0.09665748 , -9.805452   , -0.000222206814, 1.63389486E-05, 0.000549617456, 0.009863895 , -0.00945015 , -0.000305080641, 918.4826    , 33.4091759  , 820.8356    , 1.87        , 3           , 255         , 0           , 0
-0.102065243, -0.1029312  , -9.809332   , -0.0004360834, 6.317039E-05, 0.000269977347, 0.009859509 , -0.009449544, -0.000302374741, 918.4826    , 33.4091759  , 820.8358    , 1.88        , 3           , 255         , 0           , 0
-0.09200569 , -0.08646004 , -9.7975235  , -0.000668345951, -0.000417064817, 4.088842E-05, 0.009852823 , -0.009453719, -0.000302006985, 918.4826    , 33.4091759  , 820.83606   , 1.89        , 3           , 255         , 0           , 0
-0.07866855 , -0.08974484 , -9.794183   , -0.000308935763, -0.000235337473, -0.000369863876, 0.009849768 , -0.009456036, -0.0003057287, 918.4826    , 33.4091759  , 820.8363    , 1.9         , 3           , 255         , 0           , 0
-0.06919764 , -0.0866441056, -9.797247   , 0.000270044722, -0.000439300959, 0.000301596767, 0.009844272 , -0.009464503, -0.00030267876, 918.4826    , 33.4091759  , 820.819031  , 1.91        , 3           , 255         , 0           , 0
-0.0825787559, -0.09366311 , -9.7976     , 0.00050690677, 3.968872E-05, 2.29718826E-05, 0.009849341 , -0.009464108, -0.000302445143, 918.4826    , 33.4091759  , 820.819153  , 1.92        , 3           , 255         , 0           , 0
-0.103710115, -0.107899264, -9.79884    , -3.97246331E-05, 0.000104824605, 0.0009910223, 0.009848848 , -0.0094631575, -0.00029252487, 918.442     , 33.408226   , 820.8193    , 1.93        , 3           , 255         , 0           , 0
-0.107729651, -0.104554549, -9.800105   , -4.66828351E-05, 1.14832656E-05, 0.000304057758, 0.00984835252, -0.009463073, -0.000289483229, 918.442     , 33.408226   , 820.8194    , 1.94        , 3           , 255         , 0           , 0
-0.102194034, -0.09915545 , -9.793084   , 1.74542656E-05, -0.000133518944, 0.00032671087, 0.009848497 , -0.00946444 , -0.000286229362, 918.442     , 33.408226   , 820.8195    , 1.95        , 3           , 255         , 0           , 0
-0.09449311 , -0.08568226 , -9.788505   , 0.000206447323, -0.0008388339, 0.000379821082, 0.009850526 , -0.009472865, -0.00028251388, 918.442     , 33.408226   , 820.819641  , 1.96        , 3           , 255         , 0           , 0
-0.08190714 , -0.08732864 , -9.795507   , -0.000351188, -0.000109822256, -9.09766241E-05, 0.00984702352, -0.009473953, -0.000283434463, 918.442     , 33.408226   , 820.819763  , 1.97        , 3           , 255         , 0           , 0
-0.07699933 , -0.08635847 , -9.79509    , -0.000183958677, -0.0001348714, 0.000324003777, 0.0098451525, -0.009475335, -0.00028020778, 918.442     , 33.408226   , 820.8199    , 1.98        , 3           , 255         , 0           , 0
-0.08378768 , -0.0982876  , -9.791159   , 5.845446E-05, -0.000146996172, 0.0002827357, 0.009845711 , -0.009476832, -0.000277395, 918.442     , 33.408226   , 820.82      , 1.99        , 3           , 255         , 0           , 0
-0.09322791 , -0.0902529657, -9.788795   , 0.0006944172, -0.000102830352, 7.1257E-05  , 0.00985265  , -0.009477868, -0.000276692561, 918.442     , 33.408226   , 820.8201    , 2           , 3           , 0           , 7.038236    , 200
-0.104331911, -0.100104794, -9.79336    , 0.000443461555, 5.63087524E-05, -0.000212938568, 0.009851342 , -0.009470044, -0.000278761756, 918.442     , 33.408226   , 820.8531    , 2.01        , 3           , 1           , 0           , 0
-0.0971586555, -0.102345005, -9.794422   , 4.32650559E-05, -0.000221289927, -0.000164112411, 0.009851791 , -0.00947224 , -0.000280424661, 918.442     , 33.408226   , 820.853455  , 2.02        , 3           , 2           , 0           , 0
-0.0928577  , -0.09450623 , -9.790163   , 0.000479283073, -0.000207610079, -0.00073553354, 0.009856653 , -0.009474243, -0.0002878002, 918.444458  , 33.4095154  , 820.8538    , 2.03        , 3           , 3           , 0           , 0
-0.0795146  , -0.0874519646, -9.797668   , -9.829074E-05, 0.00036696234, -0.000291737233, 0.009855697 , -0.009470546, -0.000290681375, 918.444458  , 33.4095154  , 820.8542    , 2.04        , 3           , 4           , 0           , 0
-0.08091539 , -0.09541852 , -9.80177    , -0.000703329, 0.000359003578, -0.000151120665, 0.00984867848, -0.009466941, -0.000292157143, 918.444458  , 33.4095154  , 820.854553  , 2.05        , 3           , 5           , 0           , 0
-0.09723133 , -0.0880792439, -9.798796   , -5.505234E-05, 6.640522E-05, -0.0002059399, 0.009848147 , -0.009466256, -0.000294209924, 918.444458  , 33.4095154  , 820.8549    , 2.06        , 3           , 6           , 0           , 0
-0.105405286, -0.0897790641, -9.789657   , 0.0006371659, 0.0005322374, 0.000327724032, 0.009854486 , -0.009460968, -0.0002908804, 918.444458  , 33.4095154  , 820.8553    , 2.07        , 3           , 7           , 0           , 0
-0.104972757, -0.09021291 , -9.795233   , 0.00101649738, -0.000166146667, 0.000183285752, 0.009864633 , -0.009462648, -0.00028906393, 918.444458  , 33.4095154  , 820.855652  , 2.08        , 3           , 8           , 5           , 5
-0.09579572 , -0.0981869  , -9.791258   , -0.000154419569, -0.000115441275, -6.25038738E-05, 0.009863096 , -0.00946379453, -0.000289700343, 918.444458  , 33.4095154  , 820.856     , 2.09        , 3           , 9           , 5           , 0.1
-0.09158726 , -0.0955139846, -9.787714   , -0.0005147214, 3.82391154E-05, -0.000405142375, 0.009857986 , -0.009463372, -0.0002937479, 918.444458  , 33.4095154  , 820.8564    , 2.1         , 3           , 10          , 0.1         , 0.1
-0.0909699351, -0.099716   , -9.786852   , -1.3817742E-05, -0.000200067472, -0.000437503681, 0.009852412 , -0.009470591, -0.000298090628, 918.444458  , 33.4095154  , 820.8829    , 2.11        , 3           , 11          , 0.00838535  , 0.008385349
-0.08968571 , -0.0879016  , -9.791661   , 0.0005555981, -0.000607498048, -0.000118719268, 0.009857978 , -0.009476654, -0.000299337669, 918.444458  , 33.4095154  , 820.8834    , 2.12        , 3           , 12          , 0.174643889 , 0
-0.09236775 , -0.09852749 , -9.79569    , 0.0006095937, -4.27496852E-05, -1.058475E-05, 0.009864075 , -0.00947708 , -0.0002994477, 918.489746  , 33.4103279  , 820.884     , 2.13        , 3           , 13          , 0           , 0
-0.10038165 , -0.0882974  , -9.802468   , 0.000243392424, 0.000362851977, -7.72046042E-05, 0.009866514 , -0.009473444, -0.00030018395, 918.489746  , 33.4103279  , 820.8845    , 2.14        , 3           , 14          , -0.0009159531, -0.0008410436
-0.111931756, -0.08774454 , -9.805224   , -0.0006056363, 8.766679E-05, -0.000114549635, 0.00986047  , -0.00947255548, -0.000301320746, 918.489746  , 33.4103279  , 820.8851    , 2.15        , 3           , 15          , 0           , -6.568149E-06
-0.100856841, -0.08627953 , -9.798839   , 1.52320135E-05, -0.000168574334, -8.61560547E-05, 0.009860631 , -0.009474233, -0.000302198867, 918.489746  , 33.4103279  , 820.8856    , 2.16        , 3           , 16          , 0           , 1.401298E-45
-0.08613571 , -0.09174427 , -9.79244    , -4.90167877E-05, 0.000122082711, -0.0001227484, 0.009860152 , -0.009473   , -0.0003034143, 918.489746  , 33.4103279  , 820.886169  , 2.17        , 3           , 20          , 0           , 0
-0.07902427 , -0.102377735, -9.797404   , -0.000408675638, -0.000166615529, -0.0005360072, 0.009856115 , -0.009474613, -0.000308790652, 918.489746  , 33.4103279  , 820.8867    , 2.18        , 3           , 21          , 0           , 0
-0.0948777  , -0.09767459 , -9.795774   , -0.000441559474, -0.000193007349, -0.00101032085, 0.009851796 , -0.009476443, -0.000318912527, 918.489746  , 33.4103279  , 820.887268  , 2.19        , 3           , 22          , 0           , 0
-0.09838642 , -0.09134821 , -9.800435   , 0.0005393338, 0.0006592223, -1.63954955E-05, 0.009857191 , -0.00946985 , -0.000319011568, 918.489746  , 33.4103279  , 820.8878    , 2.2         , 3           , 40          , 0           , 0
-0.0955971  , -0.105409518, -9.794878   , 0.0006370543, 0.000382976781, 0.000734593137, 0.009856724 , -0.009469318, -0.000311563956, 918.489746  , 33.4103279  , 820.8532    , 2.21        , 3           , 41          , 0           , 0
-0.103662834, -0.101996735, -9.786192   , 0.0001897685, 0.0001918003, -0.0006488173, 0.009858684 , -0.00946733449, -0.000318033039, 918.489746  , 33.4103279  , 820.8535    , 2.22        , 3           , 42          , 0           , 0
-0.09756086 , -0.088622734, -9.796845   , 0.000172629079, 0.000119219534, 0.000228360266, 0.00986039  , -0.009466165, -0.000315737736, 918.481934  , 33.4114151  , 820.8538    , 2.23        , 3           , 255         , 0           , 0
-0.09143427 , -0.09371522 , -9.785667   , -1.18970056E-05, 0.0001473747, 0.000409533473, 0.009860232 , -0.009464732, -0.000311627984, 918.481934  , 33.4114151  , 820.8541    , 2.24        , 3           , 255         , 0           , 0
-0.09279611 , -0.08373964 , -9.800991   , -0.00035189843, -0.000247693853, -0.0003827085, 0.009856747 , -0.00946717 , -0.000315479381, 918.481934  , 33.4114151  , 820.854431  , 2.25        , 3           , 255         , 0           , 0
-0.100718141, -0.07909869 , -9.801649   , -6.57886849E-05, -0.000328119262, -0.0003409245, 0.009856122 , -0.009470417, -0.00031892088, 918.481934  , 33.4114151  , 820.8548    , 2.26        , 3           , 255         , 0           , 0
-0.105034091, -0.0970086455, -9.798665   , 0.000197352259, 0.00016168633, 2.75086713E-05, 0.009858094 , -0.009468802, -0.000318629871, 918.481934  , 33.4114151  , 820.855164  , 2.27        , 3           , 255         , 0           , 0
-0.101132132, -0.09321076 , -9.791086   , 2.49361619E-05, 5.65903028E-05, -0.000141620141, 0.009858357 , -0.009468222, -0.0003200405, 918.481934  , 33.4114151  , 820.8555    , 2.28        , 3           , 255         , 0           , 0
-0.10004928 , -0.09347914 , -9.804263   , -1.33222784E-05, 0.000194336637, 8.515445E-05, 0.009858215 , -0.009466288, -0.000319169776, 918.481934  , 33.4114151  , 820.8559    , 2.29        , 3           , 255         , 0           , 0
-0.104086615, -0.0962641239, -9.798741   , -0.000387055741, 0.000222254777, 0.0002138327, 0.009854323 , -0.009464087, -0.0003170096, 918.481934  , 33.4114151  , 820.856262  , 2.3         , 3           , 255         , 0           , 0
-0.08810363 , -0.09518812 , -9.799595   , 8.741801E-05, 0.0003797688, 3.01447035E-05, 0.009848557 , -0.009473234, -0.000316607853, 918.481934  , 33.4114151  , 820.8352    , 2.31        , 3           , 255         , 0           , 0
-0.08014466 , -0.09798678 , -9.791185   , -0.00043466466, 6.267778E-05, -6.38103156E-05, 0.00984421652, -0.009472601, -0.000317239785, 918.481934  , 33.4114151  , 820.8354    , 2.32        , 3           , 255         , 0           , 0
-0.07969292 , -0.0954802558, -9.780943   , -0.0005218078, 0.00022580236, 0.0008118733, 0.009838921 , -0.009470424, -0.000309099036, 918.545166  , 33.4138565  , 820.8356    , 2.33        , 3           , 255         , 0           , 0
-0.09313436 , -0.08438711 , -9.802589   , 0.000199847971, -0.000162185112, -0.000207570934, 0.00984094  , -0.009472024, -0.0003111906, 918.545166  , 33.4138565  , 820.8358    , 2.34        , 3           , 255         , 0           , 0
-0.10038694 , -0.08370344 , -9.803815   , -0.000326268375, 4.977733E-05, -0.0001599769, 0.009837693 , -0.009471511, -0.000312785443, 918.545166  , 33.4138565  , 820.83606   , 2.35        , 3           , 255         , 0           , 0
-0.101591393, -0.101582266, -9.805391   , -0.000123989885, -0.000195426925, -0.0008004445, 0.009836529 , -0.009473386, -0.000320808875, 918.545166  , 33.4138565  , 820.8363    , 2.36        , 3           , 255         , 0           , 0
-0.08717128 , -0.0987200961, -9.799011   , -5.23442868E-05, 0.000202046358, 0.0002228181, 0.009835985 , -0.009471388, -0.000318560866, 918.545166  , 33.4138565  , 820.836548  , 2.37        , 3           , 255         , 0           , 0
-0.0920583159, -0.0947843045, -9.790164   , 0.000338597631, -5.25687938E-05, -0.0005841726, 0.009839426 , -0.009471856, -0.000324407622, 918.545166  , 33.4138565  , 820.8368    , 2.38        , 3           , 255         , 0           , 0
-0.08755848 , -0.101080313, -9.790616   , -0.000310656265, 0.000295140257, -0.0004391278, 0.009836361 , -0.009468862, -0.000328769733, 918.545166  , 33.4138565  , 820.837036  , 2.39        , 3           , 255         , 0           , 0
-0.0885316357, -0.0918781757, -9.79169    , 1.69675332E-06, 0.0002848956, 1.37678207E-05, 0.009836376 , -0.009466015, -0.000328604045, 918.545166  , 33.4138565  , 820.8373    , 2.4         , 3           , 255         , 0           , 0
-0.08610111 , -0.09603928 , -9.809282   , -0.000190497609, 0.000178764109, 0.000392187765, 0.00983059  , -0.009458303, -0.000324628374, 918.545166  , 33.4138565  , 820.7346    , 2.41        , 3           , 255         , 0           , 0
-0.09441857 , -0.09705879 , -9.805456   , -0.000620722771, 0.00010674994, -0.000250960031, 0.009824406 , -0.009457212, -0.000327127374, 918.545166  , 33.4138565  , 820.7342    , 2.42        , 3           , 255         , 0           , 0
-0.09044434 , -0.0991465151, -9.792203   , -8.51670047E-05, -0.000326663256, -9.319637E-05, 0.009823565 , -0.00946047 , -0.000328091381, 918.4754    , 33.4127731  , 820.733765  , 2.43        , 3           , 255         , 0           , 0
-0.09124401 , -0.104829982, -9.785821   , 0.000465081452, 3.08496528E-05, 0.000469818217, 0.009828172 , -0.009460208, -0.000323390326, 918.4754    , 33.4127731  , 820.733337  , 2.44        , 3           , 255         , 0           , 0
-0.100418612, -0.0888498649, -9.787418   , 0.000300836633, -1.89498533E-05, 0.0005267623, 0.00983113  , -0.009460449, -0.000318124745, 918.4754    , 33.4127731  , 820.7329    , 2.45        , 3           , 255         , 0           , 0
-0.0896213353, -0.09198068 , -9.796409   , -8.547038E-06, -0.000130684115, 0.000295706443, 0.009831016 , -0.009461785, -0.0003151806, 918.4754    , 33.4127731  , 820.7325    , 2.46        , 3           , 255         , 0           , 0
-0.08371607 , -0.07937533 , -9.804052   , 0.0004953958, 0.000327092363, -0.0007263449, 0.009836038 , -0.009458442, -0.000322411681, 918.4754    , 33.4127731  , 820.732056  , 2.47        , 3           , 255         , 0           , 0
-0.09126611 , -0.08987479 , -9.799706   , 0.000357309065, 6.831961E-05, 0.000117440439, 0.009839599 , -0.009457772, -0.0003212306, 918.4754    , 33.4127731  , 820.7316    , 2.48        , 3           , 255         , 0           , 0
-0.105781004, -0.08645008 , -9.79068851 , 7.378205E-05, -0.00047347194, 0.0002725074, 0.009840311 , -0.00946253352, -0.000318552164, 918.4754    , 33.4127731  , 820.7312    , 2.49        , 3           , 255         , 0           , 0
-0.09413336 , -0.0912803262, -9.786807   , 0.000866133 , 1.94599852E-06, 0.0004634977, 0.009848927 , -0.00946256 , -0.0003139171, 918.4754    , 33.4127731  , 820.7308    , 2.5         , 3           , 255         , 0           , 0
-0.08682309 , -0.100406326, -9.80132    , 0.00017718412, -0.000119907025, -8.863743E-05, 0.009843293 , -0.009463819, -0.0003147451, 918.4754    , 33.4127731  , 820.7345    , 2.51        , 3           , 255         , 0           , 0
-0.093385905, -0.09504146 , -9.80092049 , -0.000271949, 5.70724951E-05, 0.0004442994, 0.00984053  , -0.009463293, -0.000310296571, 918.4754    , 33.4127731  , 820.734131  , 2.52        , 3           , 255         , 0           , 0
-0.08840853 , -0.0911288  , -9.794402   , -5.23817725E-05, 0.000355388445, 0.0002557323, 0.009839983 , -0.009459766, -0.00030770438, 918.452332  , 33.4106026  , 820.733765  , 2.53        , 3           , 255         , 0           , 0
-0.09413774 , -0.0831780359, -9.794706   , -0.00025466294, 6.978988E-05, 0.000315460347, 0.009837406 , -0.009459097, -0.000304542977, 918.452332  , 33.4106026  , 820.7334    , 2.54        , 3           , 255         , 0           , 0
-0.0907817557, -0.08764303 , -9.791361   , 5.05484641E-05, 0.000357603771, 9.04838453E-05, 0.009837902 , -0.009455529, -0.000303602981, 918.452332  , 33.4106026  , 820.733032  , 2.55        , 3           , 255         , 0           , 0
-0.09402938 , -0.102814816, -9.799393   , 0.0005522124, 0.000177943031, 0.000601596432, 0.009843367 , -0.00945381 , -0.0002975697, 918.452332  , 33.4106026  , 820.732666  , 2.56        , 3           , 255         , 0           , 0
-0.0991233438, -0.09230217 , -9.797927   , -0.0006466721, 0.000157315 , -4.066402E-05, 0.009836904 , -0.009452232, -0.000297960854, 918.452332  , 33.4106026  , 820.7323    , 2.57        , 3           , 255         , 0           , 0
-0.0970029458, -0.0962404758, -9.798052   , -0.0004941063, 0.000159765827, 0.000386651576, 0.009831926 , -0.009450672, -0.000294078753, 918.452332  , 33.4106026  , 820.731934  , 2.58        , 3           , 255         , 0           , 0
-0.09229558 , -0.0983769  , -9.796544   , 0.0002796803, 0.000281769724, -0.000343166, 0.009834754 , -0.009447822, -0.0002974826, 918.452332  , 33.4106026  , 820.731567  , 2.59        , 3           , 255         , 0           , 0
-0.0983751044, -0.09316025 , -9.796165   , 0.000395187817, 7.108506E-05, -0.0009231948, 0.009838792 , -0.009447021, -0.000306707225, 918.452332  , 33.4106026  , 820.7312    , 2.6         , 3           , 255         , 0           , 0
-0.09562521 , -0.08927343 , -9.795942   , -0.000295757141, 0.000203742529, -0.00011479832, 0.009831673 , -0.009446355, -0.000307795766, 918.452332  , 33.4106026  , 820.7666    , 2.61        , 3           , 255         , 0           , 0
-0.09613558 , -0.09086451 , -9.79966    , -0.000426033919, 0.0001984302, 0.0003842649, 0.009827376 , -0.009444408, -0.000303933717, 918.452332  , 33.4106026  , 820.7665    , 2.62        , 3           , 255         , 0           , 0
-0.0937168151, -0.09982012 , -9.800261   , 0.000437059178, 0.000179230934, -0.000119724056, 0.009831758 , -0.009442604, -0.000305113266, 918.4978    , 33.4110756  , 820.766357  , 2.63        , 3           , 255         , 0           , 0
-0.101939581, -0.0906801  , -9.801484   , 0.00123356911, 0.000194099965, -0.000474287, 0.009844137 , -0.009440617, -0.000309836963, 918.4978    , 33.4110756  , 820.766235  , 2.64        , 3           , 255         , 0           , 0
-0.09391167 , -0.08065347 , -9.793048   , 0.000358465069, 0.000188292528, 0.000152084031, 0.009847706 , -0.00943874847, -0.0003082976, 918.4978    , 33.4110756  , 820.7661    , 2.65        , 3           , 255         , 0           , 0
-0.09560876 , -0.08475651 , -9.796025   , -3.90743953E-05, 9.608653E-05, 0.00059691316, 0.009847259 , -0.009437847, -0.000302319182, 918.4978    , 33.4110756  , 820.766     , 2.66        , 3           , 255         , 0           , 0
-0.091139555, -0.09120941 , -9.801382   , 8.71814E-05 , 4.58484865E-05, 0.00012181991, 0.009848119 , -0.0094374  , -0.0003010965, 918.4978    , 33.4110756  , 820.765869  , 2.67        , 3           , 255         , 0           , 0
-0.0865050554, -0.101020947, -9.800596   , -0.000170472369, 0.000104760344, -0.0002848359, 0.009846441 , -0.009436324, -0.000303934416, 918.4978    , 33.4110756  , 820.765747  , 2.68        , 3           , 255         , 0           , 0
-0.107916161, -0.0951338559, -9.798729   , 0.000139341515, 0.0003811314, -0.000315995625, 0.00984786451, -0.00943248253, -0.00030705682, 918.4978    , 33.4110756  , 820.7656    , 2.69        , 3           , 255         , 0           , 0
-0.09486191 , -0.08888358 , -9.795385   , 0.00048690557, 0.000484100048, -0.0005499483, 0.009852787 , -0.009427588, -0.0003125084, 918.4978    , 33.4110756  , 820.7655    , 2.7         , 3           , 255         , 0           , 0
-0.09838164 , -0.08999595 , -9.798259   , 0.000374526659, 4.414702E-05, -1.61114858E-05, 0.009847938 , -0.009432446, -0.0003125841, 918.4978    , 33.4110756  , 820.7341    , 2.71        , 3           , 255         , 0           , 0
-0.107459322, -0.08903483 , -9.808378   , 0.000243442657, 0.000239719753, 0.000203198273, 0.009850353 , -0.00943006948, -0.0003105286, 918.4978    , 33.4110756  , 820.733765  , 2.72        , 3           , 255         , 0           , 0
-0.09900761 , -0.0966772661, -9.812038   , -0.0001986819, 7.25335558E-05, -0.0002877576, 0.009848394 , -0.009429316, -0.000313398952, 918.452454  , 33.4124336  , 820.733459  , 2.73        , 3           , 255         , 0           , 0
-0.08531059 , -0.08838926 , -9.796449   , 8.4897445E-05, 0.000206470722, -0.0005075612, 0.009849291 , -0.009427201, -0.0003184541, 918.452454  , 33.4124336  , 820.733154  , 2.74        , 3           , 255         , 0           , 0
-0.0857824  , -0.0951417238, -9.785442   , 0.000445088634, -0.000226098928, -3.33844328E-05, 0.009853747 , -0.00942945853, -0.0003188102, 918.452454  , 33.4124336  , 820.732849  , 2.75        , 3           , 255         , 0           , 0
-0.09340996 , -0.101479068, -9.78919    , -0.000396256859, -0.000164456433, 0.0002539452, 0.009849759 , -0.009431127, -0.000316287, 918.452454  , 33.4124336  , 820.732544  , 2.76        , 3           , 255         , 0           , 0
-0.09735723 , -0.08525876 , -9.796597   , -0.000261518, -0.000364331645, 0.000320396677, 0.009847114 , -0.009434802, -0.000313119061, 918.452454  , 33.4124336  , 820.732239  , 2.77        , 3           , 255         , 0           , 0
-0.09267202 , -0.09248576 , -9.804949   , -0.000223668467, -0.000424739439, 0.0001809366, 0.009844859 , -0.009439067, -0.000311351556, 918.452454  , 33.4124336  , 820.731934  , 2.78        , 3           , 255         , 0           , 0
-0.09743397 , -0.08284129 , -9.797151   , -0.000207653677, -5.95074962E-05, -0.000146724284, 0.009842797 , -0.009439649, -0.000312824617, 918.452454  , 33.4124336  , 820.7316    , 2.79        , 3           , 255         , 0           , 0
-0.0959436148, -0.1020339  , -9.791601   , 0.000357597775, -0.000296371523, 0.0004204899, 0.009846333 , -0.00944265351, -0.000308649, 918.452454  , 33.4124336  , 820.7313    , 2.8         , 3           , 255         , 0           , 0
-0.09663035 , -0.103020176, -9.79136    , 0.0008456369, 0.000121595454, -0.000150083841, 0.009847947 , -0.009446138, -0.000310073054, 918.452454  , 33.4124336  , 820.7672    , 2.81        , 3           , 255         , 0           , 0
-0.09932165 , -0.09286507 , -9.79553    , -5.14422427E-05, -3.539957E-05, -0.0005913409, 0.009847489 , -0.009446434, -0.000315989775, 918.452454  , 33.4124336  , 820.767151  , 2.82        , 3           , 255         , 0           , 0
-0.09677412 , -0.082163766, -9.800811   , 0.000229067169, 3.85252642E-05, -0.00017465053, 0.009849796 , -0.00944603048, -0.000317732483, 918.474548  , 33.4131775  , 820.7671    , 2.83        , 3           , 255         , 0           , 0
-0.104112722, -0.09865457 , -9.802201   , 0.0001552758, -0.000139031152, 9.993324E-05, 0.009851339 , -0.00944743 , -0.000316746882, 918.474548  , 33.4131775  , 820.767     , 2.84        , 3           , 255         , 0           , 0
-0.100645818, -0.1035437  , -9.791647   , 0.0003887742, 4.97813453E-05, -0.000175988753, 0.00985524151, -0.009446915, -0.000318501785, 918.474548  , 33.4131775  , 820.766968  , 2.85        , 3           , 255         , 0           , 0
-0.0922317356, -0.0999579951, -9.778488   , 0.0002134695, 0.000165326113, -0.000279939821, 0.009857402 , -0.009445234, -0.0003212848, 918.474548  , 33.4131775  , 820.7669    , 2.86        , 3           , 255         , 0           , 0
-0.08882114 , -0.100785315, -9.790036   , -0.000115711475, -0.000327522459, 0.0006464399, 0.009856185 , -0.009448574, -0.0003148529, 918.474548  , 33.4131775  , 820.766846  , 2.87        , 3           , 255         , 0           , 0
-0.0960628837, -0.09706634 , -9.793875   , 1.95015455E-05, -0.0009178104, 0.000117622214, 0.00985637  , -0.009457762, -0.000313767174, 918.474548  , 33.4131775  , 820.7668    , 2.88        , 3           , 255         , 0           , 0
-0.09330636 , -0.09158988 , -9.79822    , 0.000450944935, 5.4787437E-05, 3.06604452E-05, 0.009860877 , -0.009457217, -0.000313455152, 918.474548  , 33.4131775  , 820.7667    , 2.89        , 3           , 255         , 0           , 0
-0.09448711 , -0.09106235 , -9.802061   , 0.000618049933, 3.03267734E-06, 0.0001563377, 0.009867041 , -0.009457202, -0.0003118915, 918.474548  , 33.4131775  , 820.766663  , 2.9         , 3           , 255         , 0           , 0
-0.0907506347, -0.0955716744, -9.795186   , 6.0620252E-05, -0.000417174539, -3.831093E-06, 0.00986677  , -0.009468708, -0.000311962649, 918.474548  , 33.4131775  , 820.767151  , 2.91        , 3           , 255         , 0           , 0
-0.08383542 , -0.0919265747, -9.801867   , 0.000335501274, 0.000274782069, -0.000296969723, 0.009870152 , -0.009465931, -0.000314905134, 918.474548  , 33.4131775  , 820.7671    , 2.92        , 3           , 255         , 0           , 0
-0.08435281 , -0.09400554 , -9.785928   , 0.0001432352, 0.0006226415, -0.000793650746, 0.009871659 , -0.009459625, -0.000322779961, 918.470337  , 33.4118233  , 820.767     , 2.93        , 3           , 255         , 0           , 0
-0.08064254 , -0.09167329 , -9.788478   , 0.0002494729, -0.000101702579, -2.66285351E-05, 0.009874156 , -0.00946064 , -0.000323056272, 918.470337  , 33.4118233  , 820.766968  , 2.94        , 3           , 255         , 0           , 0
-0.09409785 , -0.08427658 , -9.793798   , -0.0001733246, 5.07043442E-05, 0.0009343273, 0.009872335 , -0.009460226, -0.000313708268, 918.470337  , 33.4118233  , 820.7669    , 2.95        , 3           , 255         , 0           , 0
-0.10786517 , -0.0905960351, -9.799871   , 0.000263541 , -3.58827529E-05, -0.000256729574, 0.009874994 , -0.009460559, -0.000316279038, 918.470337  , 33.4118233  , 820.766846  , 2.96        , 3           , 255         , 0           , 0
-0.097106576, -0.09421952 , -9.786973   , 9.44979256E-05, 0.000130448141, -0.000897049147, 0.009876025 , -0.009459165, -0.0003252364, 918.470337  , 33.4118233  , 820.7668    , 2.97        , 3           , 255         , 0           , 0
-0.09246361 , -0.0829545856, -9.794171   , 0.000108084234, -2.46043783E-07, -0.0001897728, 0.009877123 , -0.009459149, -0.000327134068, 918.470337  , 33.4118233  , 820.7667    , 2.98        , 3           , 255         , 0           , 0
-0.0874976  , -0.09146253 , -9.794406   , -2.452149E-05, 0.00036808307, 0.0001614329, 0.009876863 , -0.009455484, -0.000325483445, 918.470337  , 33.4118233  , 820.7667    , 2.99        , 3           , 255         , 0           , 0
-0.09946556 , -0.08285185 , -9.784325   , 0.000241153466, 0.000535238069, 0.00030181394, 0.009879246 , -0.009450162, -0.000322412554, 918.470337  , 33.4118233  , 820.7667    , 3           , 3           , 0           , 8.038237    , 300
-0.09847821 , -0.08822517 , -9.7919     , 0.0009427994, 0.0001581512, 0.0004647097, 0.00987354  , -0.009446747, -0.0003176074, 918.470337  , 33.4118233  , 820.773     , 3.01        , 3           , 1           , 0           , 0
-0.0991728753, -0.08171925 , -9.801102   , -9.44592757E-05, -7.61591946E-05, -0.000397493975, 0.009872634 , -0.00944746751, -0.0003215897, 918.470337  , 33.4118233  , 820.773     , 3.02        , 3           , 2           , 0           , 0
-0.09533661 , -0.08668289 , -9.799059   , -0.000154650188, 3.190129E-06, -0.0009677311, 0.009871179 , -0.009447341, -0.000331266376, 918.4883    , 33.4121628  , 820.773     , 3.03        , 3           , 3           , 0           , 0
-0.1084033  , -0.09579729 , -9.792875   , -0.000361792161, -0.00013265945, -0.000473370863, 0.009867604 , -0.009448618, -0.000336013065, 918.4883    , 33.4121628  , 820.773     , 3.04        , 3           , 4           , 0           , 0
-0.0984487161, -0.09969872 , -9.789471   , -7.537892E-06, 8.780393E-06, -0.000372927927, 0.009867564 , -0.009448493, -0.000339741353, 918.4883    , 33.4121628  , 820.773     , 3.05        , 3           , 5           , 0           , 0
-0.0900015756, -0.09080057 , -9.792112   , 0.0002088736, -0.00019450573, -0.0002860735, 0.009869681 , -0.00945041 , -0.000342621177, 918.4883    , 33.4121628  , 820.773     , 3.06        , 3           , 6           , 0           , 0
-0.08499999 , -0.09388159 , -9.792058   , 0.000331991876, 0.0003359691, -0.0004854776, 0.009873048 , -0.009447003, -0.000347442663, 918.4883    , 33.4121628  , 820.773     , 3.07        , 3           , 7           , 0           , 0
-0.09419253 , -0.09328931 , -9.80359    , -3.509404E-05, 0.000298143132, -0.000529607933, 0.009872747 , -0.00944396947, -0.000352709118, 918.4883    , 33.4121628  , 820.773     , 3.08        , 3           , 8           , 5           , 5
-0.08981325 , -0.09851859 , -9.807514   , 0.0001358508, 0.000216711778, -0.0002839121, 0.009874131 , -0.009441774, -0.000355526747, 918.4883    , 33.4121628  , 820.773     , 3.09        , 3           , 9           , 5           , 0.1
-0.09439721 , -0.103004359, -9.797831   , 0.000612873351, -0.0002655058, 0.000171943553, 0.009880244 , -0.009444446, -0.0003538336, 918.4883    , 33.4121628  , 820.7731    , 3.1         , 3           , 10          , 0.1         , 0.1
-0.09097137 , -0.0991970748, -9.794877   , 0.000248188677, 7.03232363E-05, 3.960203E-06, 0.009876909 , -0.009448302, -0.0003537321, 918.4883    , 33.4121628  , 820.753235  , 3.11        , 3           , 11          , 0.00764249032, 0.00764248939
-0.0852488354, -0.09379872 , -9.787429   , 0.0006571855, 0.000107103318, -0.000332590862, 0.009883511 , -0.009447198, -0.000357047335, 918.4883    , 33.4121628  , 820.7531    , 3.12        , 3           , 12          , 0.174645633 , 0
-0.0910793841, -0.09678473 , -9.793033   , 0.000293192279, -0.00022351474, -0.000141547673, 0.009886457 , -0.009449419, -0.00035848486, 918.4695    , 33.4105339  , 820.753052  , 3.13        , 3           , 13          , 0           , 0
-0.09989299 , -0.08367503 , -9.799487   , -0.000164339726, -0.0001464258, 6.514527E-05, 0.009884807 , -0.009450889, -0.0003578479, 918.4695    , 33.4105339  , 820.753     , 3.14        , 3           , 14          , -0.000915694342, -0.0008409219
-0.09750468 , -0.106014431, -9.799687   , -9.37581644E-05, -5.38402237E-05, 0.000131897978, 0.009883856 , -0.009451441, -0.000356534263, 918.4695    , 33.4105339  , 820.7529    , 3.15        , 3           , 15          , 0           , -6.5718E-06
-0.086348936, -0.105019428, -9.790758   , -0.000120302953, 0.0005804255, 0.0002167523, 0.009882633 , -0.009445659, -0.000354309479, 918.4695    , 33.4105339  , 820.752869  , 3.16        , 3           , 16          , 0           , 1.401298E-45
-0.0864527151, -0.100436807, -9.786827   , 6.73192553E-05, 0.000336112571, -0.000180092335, 0.009883324 , -0.009442281, -0.0003560771, 918.4695    , 33.4105339  , 820.7528    , 3.17        , 3           , 20          , 0           , 0
-0.10037756 , -0.093872495, -9.794249   , 0.0006467131, 1.964363E-05, -0.000546389143, 0.009889842 , -0.00944203 , -0.00036153887, 918.4695    , 33.4105339  , 820.752747  , 3.18        , 3           , 21          , 0           , 0
-0.10158632 , -0.08155681 , -9.799868   , 0.0001350317, 0.0003851192, -0.000330039678, 0.009891224 , -0.009438145, -0.000364801119, 918.4695    , 33.4105339  , 820.7527    , 3.19        , 3           , 22          , 0           , 0
-0.08703494 , -0.07901396 , -9.800605   , -0.000340031285, 0.00042038114, -0.000332416443, 0.0098878555, -0.009433908, -0.0003680836, 918.4695    , 33.4105339  , 820.7526    , 3.2         , 3           , 40          , 0           , 0
-0.09436889 , -0.08967189 , -9.791578   , 0.000143397134, 0.000129206339, -8.137408E-05, 0.009883965 , -0.00943274 , -0.0003688342, 918.4695    , 33.4105339  , 820.7623    , 3.21        , 3           , 41          , 0           , 0
-0.107660428, -0.09754263 , -9.793438   , 0.000340620347, -0.000160021707, 6.282177E-05, 0.009887367 , -0.009434345, -0.000368221838, 918.4695    , 33.4105339  , 820.7623    , 3.22        , 3           , 42          , 0           , 0
-0.106238879, -0.09543336 , -9.797005   , -3.80566344E-05, -0.000112896727, 0.0005657135, 0.009886933 , -0.00943553 , -0.000362576, 918.472     , 33.4127045  , 820.7623    , 3.23        , 3           , 255         , 0           , 0
-0.09067775 , -0.09860156 , -9.803833   , -0.000257893815, -0.00046287966, 0.000167477614, 0.009884337 , -0.009440177, -0.000360947044, 918.472     , 33.4127045  , 820.7623    , 3.24        , 3           , 255         , 0           , 0
-0.08400025 , -0.09092291 , -9.793169   , -0.0006699789, 0.000212998246, 0.000124545055, 0.009877627 , -0.009438058, -0.00035968062, 918.472     , 33.4127045  , 820.7623    , 3.25        , 3           , 255         , 0           , 0
-0.0882361159, -0.09196918 , -9.792472   , 0.000164359633, 0.00034830306, 0.000128417247, 0.00987925753, -0.009434588, -0.0003583621, 918.472     , 33.4127045  , 820.7623    , 3.26        , 3           , 255         , 0           , 0
-0.09389945 , -0.09827832 , -9.791152   , 0.000342066225, 0.000191267463, 0.000713103451, 0.009882612 , -0.009432746, -0.0003512124, 918.472     , 33.4127045  , 820.7623    , 3.27        , 3           , 255         , 0           , 0
-0.0887990743, -0.0936002  , -9.794909   , 0.000189799117, 5.816773E-05, 0.000143385885, 0.009884495 , -0.009432179, -0.000349772832, 918.472     , 33.4127045  , 820.7623    , 3.28        , 3           , 255         , 0           , 0
-0.0876667947, -0.09800397 , -9.803839   , 0.0005780862, 0.000352361239, 0.00026616425, 0.009890253 , -0.009428682, -0.00034707642, 918.472     , 33.4127045  , 820.7623    , 3.29        , 3           , 255         , 0           , 0
-0.08557608 , -0.10176295 , -9.800898   , 0.0003809117, -3.37011879E-05, -3.66931545E-07, 0.009894061 , -0.009429019, -0.0003470834, 918.472     , 33.4127045  , 820.7623    , 3.3         , 3           , 255         , 0           , 0
-0.0943803  , -0.09057252 , -9.796356   , 3.93245136E-05, 0.000189040962, 0.000113789778, 0.009892435 , -0.009427536, -0.0003459079, 918.472     , 33.4127045  , 820.7674    , 3.31        , 3           , 255         , 0           , 0
-0.101023294, -0.0912016556, -9.791826   , 3.850402E-05, 0.000211769482, 0.0004938574, 0.009892773 , -0.009425467, -0.000340948522, 918.472     , 33.4127045  , 820.767456  , 3.32        , 3           , 255         , 0           , 0
-0.09804726 , -0.09536523 , -9.79927349 , 0.000423038262, 7.86468154E-05, 0.000435355323, 0.009896962 , -0.009424726, -0.000336587284, 918.497     , 33.4119568  , 820.7675    , 3.33        , 3           , 255         , 0           , 0
-0.09415865 , -0.0974459052, -9.798117   , 0.000995676 , -0.000199610542, 0.000661129 , 0.009906856 , -0.009426786, -0.000329995964, 918.497     , 33.4119568  , 820.7676    , 3.34        , 3           , 255         , 0           , 0
-0.0936716  , -0.0980087  , -9.80421448 , 0.0007467093, -4.21626028E-05, -7.21795368E-06, 0.009914323 , -0.009427206, -0.0003300723, 918.497     , 33.4119568  , 820.767639  , 3.35        , 3           , 255         , 0           , 0
-0.0945497155, -0.09475146 , -9.797943   , 0.000410859822, 0.000234320934, -0.0004077602, 0.009918469 , -0.009424822, -0.000334126555, 918.497     , 33.4119568  , 820.7677    , 3.36        , 3           , 255         , 0           , 0
-0.0870084  , -0.0953505  , -9.792687   , 0.00058793783, 4.32933448E-05, -0.0003149968, 0.009924377 , -0.009424358, -0.0003372721, 918.497     , 33.4119568  , 820.767761  , 3.37        , 3           , 255         , 0           , 0
-0.09078927 , -0.0977283642, -9.803682   , -0.0001860921, 0.000554872269, -0.0004859047, 0.009922563 , -0.009418762, -0.000342075975, 918.497     , 33.4119568  , 820.7678    , 3.38        , 3           , 255         , 0           , 0
-0.0914856046, -0.09233071 , -9.798689   , -4.018651E-05, -0.000170465268, -5.73986981E-05, 0.009922167 , -0.009420461, -0.0003426669, 918.497     , 33.4119568  , 820.7679    , 3.39        , 3           , 255         , 0           , 0
-0.09514292 , -0.0889588445, -9.80382    , 0.0003460165, -0.000228673161, 0.000799435657, 0.009925553 , -0.00942282751, -0.000334695418, 918.497     , 33.4119568  , 820.767944  , 3.4         , 3           , 255         , 0           , 0
-0.09303329 , -0.09594853 , -9.793769   , -0.000216891058, -0.000263312832, 0.0006507032, 0.009919119 , -0.00942787249, -0.000328175083, 918.497     , 33.4119568  , 820.7364    , 3.41        , 3           , 255         , 0           , 0
-0.09094051 , -0.09905898 , -9.789879   , -1.06464722E-05, 0.000119297882, -0.000383962528, 0.009919047 , -0.009426641, -0.000332002732, 918.497     , 33.4119568  , 820.736267  , 3.42        , 3           , 255         , 0           , 0
-0.08958922 , -0.103344992, -9.7929     , -0.000409090659, 0.000216778542, -0.00072836 , 0.009915024 , -0.009424401, -0.0003392647, 918.470764  , 33.4094467  , 820.736145  , 3.43        , 3           , 255         , 0           , 0
-0.08324398 , -0.10408821 , -9.79028    , -0.000323807937, -0.00017016544, -0.000519702851, 0.009911835 , -0.009426051, -0.0003444784, 918.470764  , 33.4094467  , 820.736     , 3.44        , 3           , 255         , 0           , 0
-0.08897771 , -0.102137662, -9.800982   , 0.000259653083, -0.000102179591, -0.0008224573, 0.00991451  , -0.00942699052, -0.000352712843, 918.470764  , 33.4094467  , 820.7359    , 3.45        , 3           , 255         , 0           , 0
-0.09771885 , -0.101098433, -9.795236   , -2.27878336E-05, 0.0006533633, -0.000430375454, 0.009914322 , -0.009420414, -0.0003569517, 918.470764  , 33.4094467  , 820.7358    , 3.46        , 3           , 255         , 0           , 0
-0.102530085, -0.105023362, -9.7871685  , 0.000341655337, 0.000471028558, -8.13226E-05, 0.009917746 , -0.009415695, -0.0003577182, 918.470764  , 33.4094467  , 820.735657  , 3.47        , 3           , 255         , 0           , 0
-0.0922121853, -0.09394386 , -9.792113   , -0.0004712839, 0.000181415468, 0.000454575173, 0.009912989 , -0.009413926, -0.000353154581, 918.470764  , 33.4094467  , 820.735535  , 3.48        , 3           , 255         , 0           , 0
-0.09412519 , -0.08965486 , -9.790743   , 0.000148269872, 0.000161518983, 0.000476715039, 0.009914428 , -0.009412358, -0.00034837157, 918.470764  , 33.4094467  , 820.7354    , 3.49        , 3           , 255         , 0           , 0
-0.09328808 , -0.103035212, -9.80032349 , -2.89730378E-05, 1.68361E-05 , 1.35934752E-05, 0.00991413649, -0.009412191, -0.000348234, 918.470764  , 33.4094467  , 820.7353    , 3.5         , 3           , 255         , 0           , 0
-0.0966999  , -0.08734499 , -9.794225   , -0.000170672545, -0.000275695638, 0.000100771867, 0.009917529 , -0.009415423, -0.000347301742, 918.470764  , 33.4094467  , 820.746     , 3.51        , 3           , 255         , 0           , 0
-0.08850436 , -0.0903646  , -9.795441   , 0.000215085456, -0.00014751585, -0.000117392075, 0.009919691 , -0.009416886, -0.000348490226, 918.470764  , 33.4094467  , 820.7459    , 3.52        , 3           , 255         , 0           , 0
-0.0961200744, -0.09825432 , -9.794658   , 0.000108548673, 0.00047262045, 0.000847683346, 0.009920695 , -0.009412245, -0.000339966762, 918.48      , 33.4091072  , 820.74585   , 3.53        , 3           , 255         , 0           , 0
-0.08724725 , -0.098140195, -9.792042   , 0.000183280208, 0.000233060855, -0.000310302159, 0.009922556 , -0.009409884, -0.000343046559, 918.48      , 33.4091072  , 820.7458    , 3.54        , 3           , 255         , 0           , 0
-0.0854204744, -0.0992815346, -9.805203   , 0.000287203933, -0.000206027, -0.0001719776, 0.009925444 , -0.00941192452, -0.0003447867, 918.48      , 33.4091072  , 820.7457    , 3.55        , 3           , 255         , 0           , 0
-0.08077155 , -0.102809265, -9.805018   , -7.467414E-05, 0.000188877631, 7.819428E-05, 0.009924689 , -0.009410043, -0.0003439861, 918.48      , 33.4091072  , 820.745667  , 3.56        , 3           , 255         , 0           , 0
-0.0855008662, -0.09239904 , -9.798927   , 3.98402335E-05, 0.000236915133, -0.000843614864, 0.009925167 , -0.00940759 , -0.000352398463, 918.48      , 33.4091072  , 820.7456    , 3.57        , 3           , 255         , 0           , 0
-0.09107852 , -0.0975472853, -9.79281    , 9.835174E-06, 8.59058346E-05, -0.0004302733, 0.009925307 , -0.009406689, -0.0003566925, 918.48      , 33.4091072  , 820.745544  , 3.58        , 3           , 255         , 0           , 0
-0.08987487 , -0.09120628 , -9.793563   , -5.47517557E-05, 0.0002810564, 0.000314823934, 0.009924728 , -0.00940391 , -0.000353516458, 918.48      , 33.4091072  , 820.7455    , 3.59        , 3           , 255         , 0           , 0
-0.08833994 , -0.09116093 , -9.796743   , 0.000354827731, -9.910384E-05, 0.000123170263, 0.00992826652, -0.00940491352, -0.000352294679, 918.48      , 33.4091072  , 820.7454    , 3.6         , 3           , 255         , 0           , 0
-0.0875905752, -0.103298381, -9.7964735  , 1.10026449E-05, 2.50826124E-05, -0.00043734978, 0.009924784 , -0.009399658, -0.000356631383, 918.48      , 33.4091072  , 820.741333  , 3.61        , 3           , 255         , 0           , 0
-0.0934364349, -0.08976658 , -9.790355   , 0.000375374919, 0.0003363093, -0.000247188669, 0.00992856  , -0.00939627 , -0.000359069818, 918.48      , 33.4091072  , 820.7413    , 3.62        , 3           , 255         , 0           , 0
-0.09602089 , -0.0859035552, -9.789988   , -3.867375E-06, 1.91465952E-05, -4.61630334E-05, 0.009928525 , -0.009396074, -0.0003595295, 918.476135  , 33.4105339  , 820.7412    , 3.63        , 3           , 255         , 0           , 0
-0.0948269  , -0.0772316754, -9.794246   , 0.000104267092, 0.000272958539, -0.000190723149, 0.009929586 , -0.009393325, -0.00036140962, 918.476135  , 33.4105339  , 820.74115   , 3.64        , 3           , 255         , 0           , 0
-0.09575895 , -0.0805164352, -9.788361   , 0.000113610178, 0.000378303637, 0.000278993859, 0.009930696 , -0.009389572, -0.000358582183, 918.476135  , 33.4105339  , 820.7411    , 3.65        , 3           , 255         , 0           , 0
-0.09329603 , -0.09521939 , -9.787134   , -0.000184386387, 0.00047647825, -5.02883777E-05, 0.009928856 , -0.009384802, -0.000359037746, 918.476135  , 33.4105339  , 820.741     , 3.66        , 3           , 255         , 0           , 0
-0.0972554  , -0.0871801153, -9.793332   , -3.90997157E-05, 0.000192054547, 0.000223969721, 0.009928444 , -0.009382904, -0.000356779026, 918.476135  , 33.4105339  , 820.740967  , 3.67        , 3           , 255         , 0           , 0
-0.09922241 , -0.0932420343, -9.793041   , 5.196809E-05, 0.000389345747, -0.000181789932, 0.009928981 , -0.009378992, -0.000358558231, 918.476135  , 33.4105339  , 820.7409    , 3.68        , 3           , 255         , 0           , 0
-0.09974022 , -0.0949170142, -9.792264   , 0.000232747232, 0.000166506972, -0.000258877175, 0.009931332 , -0.009377301, -0.000361130369, 918.476135  , 33.4105339  , 820.740845  , 3.69        , 3           , 255         , 0           , 0
-0.0884019  , -0.093255274, -9.79961    , 0.0002445372, -0.000865158741, -0.000457047718, 0.009933821 , -0.009385906, -0.0003657866, 918.476135  , 33.4105339  , 820.7408    , 3.7         , 3           , 255         , 0           , 0
-0.07637135 , -0.102185056, -9.799454   , 0.000388448418, -5.62788919E-05, -0.0007013448, 0.00992335752, -0.009391581, -0.000372670038, 918.476135  , 33.4105339  , 820.7433    , 3.71        , 3           , 255         , 0           , 0
-0.0833217055, -0.09921986 , -9.798334   , 0.000720166368, -0.000364655745, -8.18120243E-05, 0.009930566 , -0.009395219, -0.000373524352, 918.476135  , 33.4105339  , 820.7433    , 3.72        , 3           , 255         , 0           , 0
-0.08319851 , -0.09642671 , -9.800652   , 0.000949351 , 6.197108E-05, 0.000313545985, 0.009940029 , -0.00939463 , -0.000370382739, 918.4739    , 33.4106674  , 820.7433    , 3.73        , 3           , 255         , 0           , 0
-0.0842476562, -0.09314784 , -9.795885   , -3.647612E-05, -0.000126467145, -0.0004011092, 0.009939702 , -0.009395855, -0.000374406285, 918.4739    , 33.4106674  , 820.7433    , 3.74        , 3           , 255         , 0           , 0
-0.088875   , -0.09255841 , -9.795371   , 6.30279537E-05, 0.000131861423, 0.000228495584, 0.00994031  , -0.009394558, -0.000372108276, 918.4739    , 33.4106674  , 820.7433    , 3.75        , 3           , 255         , 0           , 0
-0.0939128846, -0.0782023743, -9.800642   , 0.000110884779, 7.936172E-05, -0.000133494032, 0.009941432 , -0.009393751, -0.000373435265, 918.4739    , 33.4106674  , 820.7433    , 3.76        , 3           , 255         , 0           , 0
-0.09374726 , -0.08330786 , -9.79467    , 5.74096339E-06, 0.000346933724, -0.0007943  , 0.009941564 , -0.009390203, -0.000381343532, 918.4739    , 33.4106674  , 820.7433    , 3.77        , 3           , 255         , 0           , 0
-0.09502498 , -0.0959293842, -9.794898   , 0.000440336327, 0.000229512341, 0.000380996236, 0.009945932 , -0.009387947, -0.000377510849, 918.4739    , 33.4106674  , 820.7433    , 3.78        , 3           , 255         , 0           , 0
-0.0991142243, -0.09292318 , -9.794342   , -7.66034354E-05, 0.0008875383, -0.0002673364, 0.00994519051, -0.009379045, -0.000380095938, 918.4739    , 33.4106674  , 820.7433    , 3.79        , 3           , 255         , 0           , 0
-0.105005339, -0.0945833251, -9.79412651 , 0.000237426546, 0.0002894639, 0.000730865053, 0.00994749647, -0.009376223, -0.000372758717, 918.4739    , 33.4106674  , 820.7433    , 3.8         , 3           , 255         , 0           , 0
-0.102658823, -0.102630362, -9.793722   , 0.000186566671, -0.000193518528, 0.000502159935, 0.009942592 , -0.009375588, -0.000367693428, 918.4739    , 33.4106674  , 820.748352  , 3.81        , 3           , 255         , 0           , 0
-0.106474794, -0.09345039 , -9.794344   , -4.04182356E-06, 0.00016340107, 0.000668373657, 0.009942489 , -0.009374021, -0.000360993668, 918.4739    , 33.4106674  , 820.748352  , 3.82        , 3           , 255         , 0           , 0
-0.0969886556, -0.0956396  , -9.792161   , -0.000122522644, 0.000426674727, 0.000307987357, 0.009941233 , -0.009369785, -0.000357871468, 918.4589    , 33.4114838  , 820.748352  , 3.83        , 3           , 255         , 0           , 0
-0.0959405154, -0.09841336 , -9.789717   , -0.0003275149, 0.0003436121, -0.000436724542, 0.009938002 , -0.009366305, -0.000362204446, 918.4589    , 33.4114838  , 820.748352  , 3.84        , 3           , 255         , 0           , 0
-0.09299462 , -0.08413513 , -9.79865    , -0.000202301482, -0.000452625856, -7.910818E-05, 0.009935985 , -0.009370823, -0.000363040454, 918.4589    , 33.4114838  , 820.748352  , 3.85        , 3           , 255         , 0           , 0
-0.08975395 , -0.08785633 , -9.804239   , 0.0004867512, -0.0001929056, 0.000319710729, 0.009940823 , -0.009372784, -0.000359862635, 918.4589    , 33.4114838  , 820.7484    , 3.86        , 3           , 255         , 0           , 0
-0.0869957  , -0.0947880149, -9.79497051 , -0.000143660873, 0.00017881149, 2.20466591E-05, 0.009939385 , -0.00937099848, -0.0003596244, 918.4589    , 33.4114838  , 820.7485    , 3.87        , 3           , 255         , 0           , 0
-0.0943013355, -0.09334234 , -9.787443   , 0.000440852629, 0.0007087327, -0.00046656272, 0.009943834 , -0.009363866, -0.000364219362, 918.4589    , 33.4114838  , 820.748535  , 3.88        , 3           , 255         , 0           , 0
-0.0905856043, -0.09757113 , -9.781385   , 6.665656E-05, -0.000110926863, -0.000231974511, 0.009944524 , -0.009364951, -0.000366550026, 918.4589    , 33.4114838  , 820.7486    , 3.89        , 3           , 255         , 0           , 0
-0.07827815 , -0.0920325145, -9.802085   , 3.561203E-06, 0.0006984826, -0.0004022596, 0.009944596 , -0.009357927, -0.000370503054, 918.4589    , 33.4114838  , 820.748657  , 3.9         , 3           , 255         , 0           , 0
-0.08437685 , -0.0871498138, -9.802004   , -0.000440529082, 0.00109623768, -0.000138525749, 0.009934346 , -0.009349987, -0.000371724571, 918.4589    , 33.4114838  , 820.7743    , 3.91        , 3           , 255         , 0           , 0
-0.08266051 , -0.09278353 , -9.80044    , 0.000832981837, -0.0002822724, -0.000237052431, 0.009942699 , -0.00935278647, -0.000374123047, 918.4589    , 33.4114838  , 820.7745    , 3.92        , 3           , 255         , 0           , 0
-0.0904369  , -0.0929495841, -9.795646   , 0.000731257955, -0.000174145855, 0.000198239286, 0.009949993 , -0.009354547, -0.000372158, 918.4647    , 33.4101944  , 820.774658  , 3.93        , 3           , 255         , 0           , 0
-0.09844389 , -0.0883155838, -9.79307    , 0.000304726826, 0.000244383642, 0.000662827457, 0.009952978 , -0.009352169, -0.000365505635, 918.4647    , 33.4101944  , 820.774841  , 3.94        , 3           , 255         , 0           , 0
-0.103919879, -0.10157752 , -9.799886   , 2.74442136E-05, 0.0004377129, -0.000284201524, 0.009953279 , -0.009347764, -0.000368304027, 918.4647    , 33.4101944  , 820.775     , 3.95        , 3           , 255         , 0           , 0
-0.104795836, -0.08834441 , -9.791011   , -2.705882E-05, 0.0002943186, -0.0007404302, 0.009953078 , -0.009344746, -0.0003756788, 918.4647    , 33.4101944  , 820.7752    , 3.96        , 3           , 255         , 0           , 0
-0.105081365, -0.09220363 , -9.7944     , -0.000154248788, 3.684021E-05, -0.000702429563, 0.009951601 , -0.009344309, -0.000382699218, 918.4647    , 33.4101944  , 820.7754    , 3.97        , 3           , 255         , 0           , 0
-0.09664774 , -0.0881593749, -9.795825   , 0.000226695847, -4.71359235E-05, -0.000308812421, 0.009953896 , -0.009344749, -0.000385791936, 918.4647    , 33.4101944  , 820.7756    , 3.98        , 3           , 255         , 0           , 0
-0.0979838148, -0.08901726 , -9.795062   , -0.0002071365, 0.000227295968, 2.39121327E-05, 0.009951822 , -0.00934247952, -0.000385530235, 918.4647    , 33.4101944  , 820.7758    , 3.99        , 3           , 255         , 0           , 0
-0.0870757848, -0.08513727 , -9.788095   , 0.0004519709, 9.783491E-05, 0.000341645646, 0.0099563105, -0.009341536, -0.0003821041, 918.4647    , 33.4101944  , 820.776062  , 4           , 3           , 0           , 9.038237    , 400
-0.09276023 , -0.084795   , -9.794174   , -0.000128876942, 0.000306702743, -0.0005681434, 0.009944313 , -0.009343925, -0.0003876543, 918.4647    , 33.4101944  , 820.7899    , 4.01        , 3           , 1           , 0           , 0
-0.09610747 , -0.09412171 , -9.788834   , -0.000373837946, 0.000300272659, -0.000844277733, 0.009940653 , -0.00934083853, -0.000396066956, 918.4647    , 33.4101944  , 820.7902    , 4.02        , 3           , 2           , 0           , 0
-0.09664877 , -0.09365833 , -9.797193   , -0.00055805716, 0.000420242868, 0.0006492779, 0.00993501  , -0.009336702, -0.0003895326, 918.4863    , 33.4111443  , 820.7905    , 4.03        , 3           , 3           , 0           , 0
-0.1035856  , -0.08325654 , -9.796837   , -0.000214724045, 0.000160044583, 0.000525134732, 0.009932815 , -0.009335154, -0.0003842655, 918.4863    , 33.4111443  , 820.790833  , 4.04        , 3           , 4           , 0           , 0
-0.08903657 , -0.08702649 , -9.792089   , 0.00105973869, 0.000380396174, -0.000497366942, 0.009943458 , -0.009331298, -0.0003892012, 918.4863    , 33.4111443  , 820.791138  , 4.05        , 3           , 5           , 0           , 0
-0.0839329138, -0.102120876, -9.797949   , 0.0004836494, 0.0001344087, 0.000131998866, 0.0099482825, -0.009329968, -0.0003878679, 918.4863    , 33.4111443  , 820.791443  , 4.06        , 3           , 6           , 0           , 0
-0.0785935149, -0.09253501 , -9.801918   , 0.0003568055, -0.000241655216, 0.0007513978, 0.009951779 , -0.009332459, -0.000380378217, 918.4863    , 33.4111443  , 820.791748  , 4.07        , 3           , 7           , 0           , 0
-0.08747785 , -0.0959414244, -9.794711   , 0.00042394764, -0.000107508036, 0.000391876529, 0.009955983 , -0.009333574, -0.000376470241, 918.4863    , 33.4111443  , 820.792053  , 4.08        , 3           , 8           , 5           , 5
-0.08335794 , -0.1018963  , -9.798413   , 0.000276551174, 0.0002390694, 0.00022600418, 0.009958725 , -0.009331205, -0.0003741865, 918.4863    , 33.4111443  , 820.792358  , 4.09        , 3           , 9           , 5           , 0.1
-0.07430553 , -0.0977792  , -9.790122   , 0.000331266783, 0.000496938243, 8.853318E-05, 0.009962032 , -0.009326247, -0.000373251678, 918.4863    , 33.4111443  , 820.792664  , 4.1         , 3           , 10          , 0.1         , 0.1
-0.0840591341, -0.09407897 , -9.794977   , 3.882451E-08, -9.00312443E-05, -0.0007401764, 0.009955768 , -0.009322623, -0.0003806031, 918.4863    , 33.4111443  , 820.7733    , 4.11        , 3           , 11          , 0.00707424572, 0.00707424339
-0.101121761, -0.101137578, -9.795785   , 0.000295779551, 5.439011E-05, -0.000557098247, 0.009958778 , -0.009322024, -0.00038616854, 918.4863    , 33.4111443  , 820.7735    , 4.12        , 3           , 12          , 0.174648076 , 0
-0.0898212641, -0.09258191 , -9.802206   , 0.0001600195, -5.22125047E-05, 0.000778115646, 0.009960305 , -0.009322623, -0.000378392782, 918.496155  , 33.4119568  , 820.7737    , 4.13        , 3           , 13          , 0           , 0
-0.0963012949, -0.09045984 , -9.806478   , 0.000215176377, 0.000175122 , 0.000107732012, 0.009962446 , -0.009320882, -0.000377298071, 918.496155  , 33.4119568  , 820.773865  , 4.14        , 3           , 14          , -0.0009153597, -0.000840892142
-0.0862277448, -0.0996072739, -9.800966   , 0.0004322518, 9.710831E-05, 0.000251486752, 0.009966744 , -0.009319937, -0.0003747736, 918.496155  , 33.4119568  , 820.774048  , 4.15        , 3           , 15          , 0           , -6.57525925E-06
-0.095611915, -0.0923904  , -9.798624   , 5.769136E-05, 0.000191555882, -0.000638125, 0.009967381 , -0.009317957, -0.000381135527, 918.496155  , 33.4119568  , 820.774231  , 4.16        , 3           , 16          , 0           , 1.401298E-45
-0.08927838 , -0.09886495 , -9.801737   , -2.82924739E-05, 0.0002510653, -0.000258520129, 0.009967121 , -0.009315422, -0.000383695646, 918.496155  , 33.4119568  , 820.7744    , 4.17        , 3           , 20          , 0           , 0
-0.09539585 , -0.0955563039, -9.786943   , 0.0005867563, -0.000144737482, -0.000472665037, 0.009973032 , -0.009316822, -0.000388436572, 918.496155  , 33.4119568  , 820.774658  , 4.18        , 3           , 21          , 0           , 0
-0.09943186 , -0.09154451 , -9.787241   , 0.0004380735, 0.0005976799, -0.000365923916, 0.009977445 , -0.009310808, -0.000392036047, 918.496155  , 33.4119568  , 820.7749    , 4.19        , 3           , 22          , 0           , 0
-0.09748294 , -0.0929390043, -9.803674   , 0.00107808842, -9.845436E-05, -0.0007560104, 0.009988296 , -0.009311716, -0.000399605749, 918.496155  , 33.4119568  , 820.775146  , 4.2         , 3           , 40          , 0           , 0
-0.0991023257, -0.100312449, -9.798334   , 0.000152515364, 1.91502622E-05, -0.0005499406, 0.00998627953, -0.009314304, -0.0004050696, 918.496155  , 33.4119568  , 820.744141  , 4.21        , 3           , 41          , 0           , 0
-0.07987628 , -0.0863249749, -9.785868   , 0.00046892598, -3.91046051E-05, -0.000128123778, 0.009990981 , -0.009314682, -0.0004063547, 918.496155  , 33.4119568  , 820.744141  , 4.22        , 3           , 42          , 0           , 0
-0.0942806453, -0.09442439 , -9.794302   , 0.0004988588, -0.000198594062, -0.000869641139, 0.009996049 , -0.009316583, -0.000415070652, 918.4933    , 33.409584   , 820.744141  , 4.23        , 3           , 255         , 0           , 0
-0.09207065 , -0.0914477855, -9.79458    , 0.000167721068, -0.00013736554, 9.52409E-05 , 0.009997717 , -0.009317964, -0.000414131966, 918.4933    , 33.409584   , 820.7442    , 4.24        , 3           , 255         , 0           , 0
-0.08089737 , -0.09638162 , -9.794637   , -0.000134571921, -0.00027713133, 0.000344340078, 0.009996339 , -0.009320769, -0.0004107164, 918.4933    , 33.409584   , 820.744263  , 4.25        , 3           , 255         , 0           , 0
-0.09280537 , -0.101250544, -9.800246   , -0.000116165262, -5.93728619E-05, -0.000465381425, 0.009995221 , -0.009321317, -0.00041537598, 918.4933    , 33.409584   , 820.7443    , 4.26        , 3           , 255         , 0           , 0
-0.087481156, -0.08887797 , -9.794827   , -0.000456967275, 0.00012050115, 0.0004170364, 0.009990612 , -0.009320155, -0.000411193731, 918.4933    , 33.409584   , 820.7444    , 4.27        , 3           , 255         , 0           , 0
-0.0935692042, -0.08705165 , -9.790961   , -0.000806672964, -0.000176367466, 0.0004587647, 0.009982505 , -0.009321963, -0.000406623847, 918.4933    , 33.409584   , 820.744446  , 4.28        , 3           , 255         , 0           , 0
-0.09336617 , -0.09748991 , -9.785819   , -0.0005303138, -9.815011E-05, -0.0003103596, 0.009977231 , -0.009322913, -0.0004097371, 918.4933    , 33.409584   , 820.7445    , 4.29        , 3           , 255         , 0           , 0
-0.0928626657, -0.0903770849, -9.791454   , 6.01155334E-05, -0.000479293638, -3.608253E-05, 0.009977835 , -0.009327702, -0.00041014576, 918.4933    , 33.409584   , 820.744568  , 4.3         , 3           , 255         , 0           , 0
-0.101190068, -0.09415914 , -9.799653   , 0.000156613067, -6.474659E-05, 0.00015328436, 0.009971461 , -0.009327231, -0.0004085455, 918.4933    , 33.409584   , 820.7221    , 4.31        , 3           , 255         , 0           , 0
-0.111538395, -0.102255583, -9.798994   , 0.000117797463, 0.000208473415, 0.000186335586, 0.009972622 , -0.009325165, -0.00040666142, 918.4933    , 33.409584   , 820.722     , 4.32        , 3           , 255         , 0           , 0
-0.09586777 , -0.08843417 , -9.788637   , -5.16584842E-05, -1.83281954E-05, 1.29662658E-06, 0.009972105 , -0.009325349, -0.0004066503, 918.4904    , 33.4106674  , 820.721863  , 4.33        , 3           , 255         , 0           , 0
-0.08836506 , -0.09603944 , -9.792704   , -0.00013587228, 0.000176060654, 0.000178391259, 0.009970729 , -0.009323606, -0.000404848834, 918.4904    , 33.4106674  , 820.721741  , 4.34        , 3           , 255         , 0           , 0
-0.0955505744, -0.08908781 , -9.795793   , -0.000191641855, 0.000275779865, -2.93536777E-05, 0.009968814 , -0.009320848, -0.0004051149, 918.4904    , 33.4106674  , 820.7217    , 4.35        , 3           , 255         , 0           , 0
-0.0916280448, -0.0935465246, -9.803894   , -0.000351660769, 0.000155792921, -0.000409320754, 0.009965335 , -0.009319248, -0.000409192464, 918.4904    , 33.4106674  , 820.7216    , 4.36        , 3           , 255         , 0           , 0
-0.08538523 , -0.09637871 , -9.797952   , -0.000108972774, -0.000164586352, -0.000405741564, 0.009964284 , -0.009320852, -0.0004132661, 918.4904    , 33.4106674  , 820.721558  , 4.37        , 3           , 255         , 0           , 0
-0.0867952853, -0.100207284, -9.790022   , 0.0001637754, 0.000161177362, -0.000221323964, 0.009965941 , -0.009319219, -0.0004154632, 918.4904    , 33.4106674  , 820.7215    , 4.38        , 3           , 255         , 0           , 0
-0.08676975 , -0.099915944, -9.78716    , 3.666454E-05, 0.000428075757, -4.178255E-05, 0.009966312 , -0.009314935, -0.000415838382, 918.4904    , 33.4106674  , 820.721436  , 4.39        , 3           , 255         , 0           , 0
-0.08452042 , -0.09356208 , -9.793507   , -0.000361453742, 2.89523741E-05, 0.000576140359, 0.0099626435, -0.009314702, -0.000410074252, 918.4904    , 33.4106674  , 820.7214    , 4.4         , 3           , 255         , 0           , 0
-0.07980446 , -0.09158616 , -9.80286    , -0.000435949827, 0.0005108181, 0.000484664837, 0.009954715 , -0.009311865, -0.000405144063, 918.4904    , 33.4106674  , 820.7064    , 4.41        , 3           , 255         , 0           , 0
-0.08874792 , -0.08427391 , -9.810218   , -0.000103599334, 0.000116662995, -6.646795E-05, 0.009953686 , -0.009310692, -0.0004057971, 918.4904    , 33.4106674  , 820.706238  , 4.42        , 3           , 255         , 0           , 0
-0.102198049, -0.08939979 , -9.800551   , 0.00063647714, -0.000154126668, -0.0005061047, 0.009960097 , -0.009312183, -0.000410873326, 918.4718    , 33.4108734  , 820.706055  , 4.43        , 3           , 255         , 0           , 0
-0.102172688, -0.08895968 , -9.797727   , 0.000158127281, 0.000118010328, 0.000337888458, 0.009961646 , -0.009311035, -0.0004074828, 918.4718    , 33.4108734  , 820.7059    , 4.44        , 3           , 255         , 0           , 0
-0.09505987 , -0.07971315 , -9.798691   , 0.000338435755, -0.000156264985, 0.000296482234, 0.00996500347, -0.009312629, -0.000404533581, 918.4718    , 33.4108734  , 820.7057    , 4.45        , 3           , 255         , 0           , 0
-0.101446413, -0.084521994, -9.803945   , -0.000353789364, 0.000290833472, 0.000419985852, 0.009961426 , -0.009309762, -0.000400304882, 918.4718    , 33.4108734  , 820.7055    , 4.46        , 3           , 255         , 0           , 0
-0.107204221, -0.0927597061, -9.796049   , -0.000167410763, -1.788803E-05, -1.789966E-05, 0.00995975453, -0.009309939, -0.000400485646, 918.4718    , 33.4108734  , 820.7053    , 4.47        , 3           , 255         , 0           , 0
-0.09897168 , -0.09486611 , -9.789646   , 0.000282445748, -0.0001912847, -0.000495788932, 0.009962626 , -0.009311803, -0.000405462459, 918.4718    , 33.4108734  , 820.705139  , 4.48        , 3           , 255         , 0           , 0
-0.0849868059, -0.0946573  , -9.794381   , -0.0002616365, -0.0001290245, -0.000385049265, 0.009960046 , -0.009313054, -0.000409325672, 918.4718    , 33.4108734  , 820.704956  , 4.49        , 3           , 255         , 0           , 0
-0.08488576 , -0.0888510644, -9.797621   , -0.0003324807, 0.000218655216, 0.000238372144, 0.0099567   , -0.009310891, -0.00040692027, 918.4718    , 33.4108734  , 820.704834  , 4.5         , 3           , 255         , 0           , 0
-0.08841786 , -0.0898015648, -9.797949   , -8.26391042E-05, -0.000176583184, -0.00016685731, 0.009945582 , -0.009316549, -0.000408510357, 918.4718    , 33.4108734  , 820.718567  , 4.51        , 3           , 255         , 0           , 0
-0.09004007 , -0.100814365, -9.79438    , -0.0002679837, 0.000321084284, 0.000254779356, 0.009942877 , -0.009313363, -0.0004059307, 918.4718    , 33.4108734  , 820.7185    , 4.52        , 3           , 255         , 0           , 0
-0.100074269, -0.09943285 , -9.79282951 , 0.00022844685, 0.000244412 , 0.0003396684, 0.009945131 , -0.009310952, -0.000402509759, 918.468262  , 33.4094467  , 820.718445  , 4.53        , 3           , 255         , 0           , 0
-0.09458692 , -0.09469573 , -9.797943   , 0.000142575765, 6.577722E-05, 0.000245927571, 0.00994653348, -0.009310318, -0.000400044024, 918.468262  , 33.4094467  , 820.7184    , 4.54        , 3           , 255         , 0           , 0
-0.09204863 , -0.0930326357, -9.800993   , 0.000231487036, 0.000109260436, -0.000115445982, 0.009948859 , -0.009309215, -0.00040118763, 918.468262  , 33.4094467  , 820.7183    , 4.55        , 3           , 255         , 0           , 0
-0.09017334 , -0.0830142051, -9.800104   , -0.000230967707, 2.14802567E-05, -0.000267259515, 0.00994657353, -0.009308973, -0.000403857965, 918.468262  , 33.4094467  , 820.718262  , 4.56        , 3           , 255         , 0           , 0
-0.0977171138, -0.09153095 , -9.792875   , -0.000135947659, 3.08730523E-05, -0.000307177, 0.009945243 , -0.009308634, -0.0004069266, 918.468262  , 33.4094467  , 820.7182    , 4.57        , 3           , 255         , 0           , 0
-0.09725714 , -0.0919884  , -9.78734    , 0.000173703826, 0.000272632577, -0.000410391658, 0.009947018 , -0.009305867, -0.000411003275, 918.468262  , 33.4094467  , 820.71814   , 4.58        , 3           , 255         , 0           , 0
-0.102692306, -0.09572161 , -9.791033   , 0.000454911846, 0.0002737448, -0.000198716472, 0.009951585 , -0.00930311 , -0.000412963156, 918.468262  , 33.4094467  , 820.7181    , 4.59        , 3           , 255         , 0           , 0
-0.09187528 , -0.0975899249, -9.799332   , 0.000280947075, -0.000183807686, -0.000122758618, 0.009954407 , -0.009304936, -0.000414209, 918.468262  , 33.4094467  , 820.718     , 4.6         , 3           , 255         , 0           , 0
-0.099390626, -0.0926653743, -9.793319   , 0.000188147416, 1.35711161E-05, -0.00030754687, 0.009951009 , -0.009309504, -0.0004172336, 918.468262  , 33.4094467  , 820.734863  , 4.61        , 3           , 255         , 0           , 0
-0.08992855 , -0.0887209  , -9.79982    , -8.929771E-05, -0.000264766975, -1.34937964E-05, 0.009950117 , -0.009312151, -0.000417394884, 918.468262  , 33.4094467  , 820.7349    , 4.62        , 3           , 255         , 0           , 0
-0.08749433 , -0.0849621445, -9.791958   , 9.06635541E-05, 0.000131103618, -0.000286851166, 0.009951049 , -0.009310811, -0.0004202502, 918.4921    , 33.4098549  , 820.735     , 4.63        , 3           , 255         , 0           , 0
-0.0814750046, -0.08350463 , -9.792974   , -0.000189513376, -0.000213314313, -0.00086186477, 0.009949235 , -0.009312859, -0.000428889849, 918.4921    , 33.4098549  , 820.735046  , 4.64        , 3           , 255         , 0           , 0
-0.08138366 , -0.09558053 , -9.795711   , 0.000139140408, -0.00024440675, -0.000703556056, 0.009950692 , -0.009315232, -0.0004359495, 918.4921    , 33.4098549  , 820.7351    , 4.65        , 3           , 255         , 0           , 0
-0.09185545 , -0.09954193 , -9.799168   , 0.000188286649, -0.000366426539, -9.761928E-05, 0.009952585 , -0.009318885, -0.000436962117, 918.4921    , 33.4098549  , 820.735168  , 4.66        , 3           , 255         , 0           , 0
-0.0961872861, -0.0924474  , -9.798287   , -8.767686E-05, 0.0002076925, -0.000204611511, 0.00995172653, -0.009316789, -0.000438987481, 918.4921    , 33.4098549  , 820.7352    , 4.67        , 3           , 255         , 0           , 0
-0.09196376 , -0.09010847 , -9.803756   , -0.000222316186, -0.000443254947, -0.0004099333, 0.009949543 , -0.00932118 , -0.0004431308, 918.4921    , 33.4098549  , 820.7353    , 4.68        , 3           , 255         , 0           , 0
-0.08930781 , -0.09558288 , -9.798033   , 0.000484122662, 5.80463675E-05, -5.19344649E-05, 0.009954388 , -0.009320595, -0.000443644356, 918.4921    , 33.4098549  , 820.735352  , 4.69        , 3           , 255         , 0           , 0
-0.09730497 , -0.09335421 , -9.791895   , 0.000222378643, 0.0002834677, -0.0001814697, 0.009956631 , -0.009317742, -0.000445430778, 918.4921    , 33.4098549  , 820.7354    , 4.7         , 3           , 255         , 0           , 0
-0.095148325, -0.0980189145, -9.800049   , 0.000171760446, 0.000439035357, -0.0006386377, 0.009950574 , -0.00931245 , -0.0004517003, 918.4921    , 33.4098549  , 820.7162    , 4.71        , 3           , 255         , 0           , 0
-0.09410083 , -0.09991883 , -9.797714   , 0.000226222386, 0.000424155616, 0.000470400642, 0.009952791 , -0.009308254, -0.000446954247, 918.4921    , 33.4098549  , 820.7161    , 4.72        , 3           , 255         , 0           , 0
-0.09841359 , -0.08769648 , -9.795745   , 0.000218090252, 2.24435353E-05, 0.000187252328, 0.009954956 , -0.009308048, -0.0004450796, 918.5171    , 33.4116859  , 820.716064  , 4.73        , 3           , 255         , 0           , 0
-0.09562162 , -0.09353147 , -9.795225   , -0.000311676646, 0.00025183527, -0.000748929451, 0.009951909 , -0.009305455, -0.0004525436, 918.5171    , 33.4116859  , 820.716     , 4.74        , 3           , 255         , 0           , 0
-0.08936049 , -0.08572191 , -9.802602   , -0.0003080942, 0.000108524691, -0.0002870148, 0.009948855 , -0.00930434 , -0.000455402827, 918.5171    , 33.4116859  , 820.715942  , 4.75        , 3           , 255         , 0           , 0
-0.07799644 , -0.0937813148, -9.801217   , 0.000230172591, -0.0005143005, -2.45826377E-05, 0.0099511575, -0.009309481, -0.0004556998, 918.5171    , 33.4116859  , 820.715942  , 4.76        , 3           , 255         , 0           , 0
-0.08669163 , -0.09797073 , -9.792823   , 0.000641287246, -0.000133180467, 0.0007898226, 0.009957498 , -0.009310889, -0.00044781508, 918.5171    , 33.4116859  , 820.715942  , 4.77        , 3           , 255         , 0           , 0
-0.102932349, -0.09973661 , -9.791077   , 0.0005692708, -0.000130545, 0.000170933912, 0.009963173 , -0.00931221247, -0.000446118822, 918.5171    , 33.4116859  , 820.715942  , 4.78        , 3           , 255         , 0           , 0
-0.09842946 , -0.107930467, -9.790622   , 0.00036941393, -0.000273370941, -0.000645858468, 0.009966928 , -0.009314883, -0.000452604436, 918.5171    , 33.4116859  , 820.715942  , 4.79        , 3           , 255         , 0           , 0
-0.09341288 , -0.09345235 , -9.796514   , 0.000197951857, -9.150023E-05, -0.000140160919, 0.00996892  , -0.009315783, -0.0004540151, 918.5171    , 33.4116859  , 820.715942  , 4.8         , 3           , 255         , 0           , 0
-0.0896544  , -0.100812577, -9.80380249 , 0.000245292031, 0.0001296163, -0.000174588247, 0.009969121 , -0.009317204, -0.0004557268, 918.5171    , 33.4116859  , 820.664246  , 4.81        , 3           , 255         , 0           , 0
-0.0877996758, -0.100488923, -9.797861   , 9.00276355E-05, 0.000222453091, 0.000683547347, 0.009969957 , -0.009315047, -0.0004488694, 918.5171    , 33.4116859  , 820.6639    , 4.82        , 3           , 255         , 0           , 0
-0.09565107 , -0.07871346 , -9.797052   , 0.000264298345, -0.000216939545, 0.0005412959, 0.009972551 , -0.009317271, -0.000443478231, 918.4555    , 33.4114151  , 820.6635    , 4.83        , 3           , 255         , 0           , 0
-0.08712355 , -0.08057854 , -9.799123   , 0.000313946279, -0.0007127226, -0.000136093251, 0.0099757025, -0.009324385, -0.0004449102, 918.4555    , 33.4114151  , 820.6632    , 4.84        , 3           , 255         , 0           , 0
-0.09528717 , -0.08452205 , -9.801248   , 9.286619E-05, 9.979209E-05, 0.000384795974, 0.009976595 , -0.009323425, -0.0004410524, 918.4555    , 33.4114151  , 820.6629    , 4.85        , 3           , 255         , 0           , 0
-0.09732832 , -0.08794579 , -9.800413   , 0.000382381317, 0.000241403759, 0.0006604022, 0.009980358 , -0.009321077, -0.0004344245, 918.4555    , 33.4114151  , 820.6626    , 4.86        , 3           , 255         , 0           , 0
-0.09832078 , -0.106069863, -9.791454   , 0.000227681652, -4.768232E-05, 0.000258628977, 0.009982612 , -0.009321577, -0.000431843044, 918.4555    , 33.4114151  , 820.6623    , 4.87        , 3           , 255         , 0           , 0
-0.09698006 , -0.110309623, -9.79875    , 0.000435920665, -0.0002676426, 0.000127053761, 0.009986958 , -0.009324266, -0.0004305993, 918.4555    , 33.4114151  , 820.662     , 4.88        , 3           , 255         , 0           , 0
-0.0946816951, -0.100085177, -9.807152   , -6.62790262E-05, -5.92528959E-05, 0.000110789108, 0.009986284 , -0.009324869, -0.000429497333, 918.4555    , 33.4114151  , 820.6617    , 4.89        , 3           , 255         , 0           , 0
-0.09245559 , -0.09377793 , -9.800325   , 0.00020360417, 0.000272953941, -0.000143392957, 0.009988332 , -0.009322125, -0.00043090395, 918.4555    , 33.4114151  , 820.6614    , 4.9         , 3           , 255         , 0           , 0
-0.089110665, -0.09728323 , -9.793764   , 0.000467744656, -0.000149347761, 0.000211437655, 0.009989199 , -0.009326012, -0.000428769272, 918.4555    , 33.4114151  , 820.7047    , 4.91        , 3           , 255         , 0           , 0
-0.09198696 , -0.100631937, -9.784863   , 0.0004200064, -0.000310132455, -0.000126522791, 0.00999341253, -0.0093291  , -0.0004300654, 918.4555    , 33.4114151  , 820.704651  , 4.92        , 3           , 255         , 0           , 0
-0.09837215 , -0.101022363, -9.79633    , -0.000290493132, -0.000110040477, -8.341978E-05, 0.009990514 , -0.009330192, -0.0004309106, 918.5151    , 33.412365   , 820.7046    , 4.93        , 3           , 255         , 0           , 0
-0.0955295  , -0.0937562138, -9.80312252 , -0.0003189562, -1.39321783E-05, 6.01572428E-05, 0.009987319 , -0.009330337, -0.0004303104, 918.5151    , 33.412365   , 820.7045    , 4.94        , 3           , 255         , 0           , 0
-0.08959498 , -0.08621394 , -9.807322   , 6.547285E-05, 0.000371930248, -0.000399651326, 0.009988011 , -0.009326578, -0.0004342697, 918.5151    , 33.412365   , 820.704468  , 4.95        , 3           , 255         , 0           , 0
-0.0888728052, -0.0876922  , -9.79363251 , -0.0004586347, -0.00018372474, 5.373579E-05, 0.009983421 , -0.00932842 , -0.000433750683, 918.5151    , 33.412365   , 820.7044    , 4.96        , 3           , 255         , 0           , 0
-0.08716933 , -0.08623051 , -9.780998   , 0.000141123892, -2.73779151E-05, 0.0006487448, 0.009984773 , -0.009328759, -0.0004272662, 918.5151    , 33.412365   , 820.704346  , 4.97        , 3           , 255         , 0           , 0
-0.0934231654, -0.086099036, -9.784346   , -0.000248880358, -0.000242605514, -0.000376365817, 0.00998232  , -0.009331147, -0.000431053923, 918.5151    , 33.412365   , 820.7043    , 4.98        , 3           , 255         , 0           , 0
-0.09541805 , -0.09695191 , -9.803706   , 1.06787775E-06, -0.000394636358, -0.0004862666, 0.009982375 , -0.009335046, -0.000435955852, 918.5151    , 33.412365   , 820.7042    , 4.99        , 3           , 255         , 0           , 0
-0.106639013, -0.100221649, -9.809333   , 8.959847E-05, -0.000366845925, -0.000768597238, 0.009983343 , -0.009338637, -0.0004436782, 918.5151    , 33.412365   , 820.704163  , 5           , 3           , 0           , -1          , 500
-0.1156057  , -0.09427266 , -9.796218   , 0.000249981531, 2.54479237E-05, -0.0001653048, 0.009980118 , -0.009341392, -0.000445275044, 918.5151    , 33.412365   , 820.6572    , 5.01        , 3           , 1           , 0           , 0
-0.10275694 , -0.0916051641, -9.786379   , -0.000127008767, 0.000409551169, -0.000558104133, 0.009978899 , -0.009337242, -0.0004508151, 918.5151    , 33.412365   , 820.6569    , 5.02        , 3           , 2           , 0           , 0
-0.100603484, -0.08794304 , -9.794384   , -0.000215499313, 3.8328988E-05, 0.000604685163, 0.009976688 , -0.00933691952, -0.0004447646, 918.4945    , 33.4106674  , 820.6566    , 5.03        , 3           , 3           , 0           , 0
-0.09724922 , -0.07756587 , -9.804219   , -0.000128873275, 0.000167560123, 5.24789757E-05, 0.009975393 , -0.00933525 , -0.000444223115, 918.4945    , 33.4106674  , 820.6563    , 5.04        , 3           , 4           , 0           , 0
-0.09765398 , -0.08394295 , -9.803637   , 0.000324508175, 0.000265420065, -0.000133575784, 0.00997865  , -0.009332581, -0.00044553238, 918.4945    , 33.4106674  , 820.656     , 5.05        , 3           , 5           , 0           , 0
-0.0901631  , -0.0882095546, -9.804388   , -0.000116898678, -2.4588313E-05, -0.0005982777, 0.009977537 , -0.009332768, -0.0004515174, 918.4945    , 33.4106674  , 820.6557    , 5.06        , 3           , 6           , 0           , 0
-0.0968299657, -0.09544884 , -9.803142   , -0.000250643, -3.75675736E-05, -0.00148355472, 0.00997517  , -0.009332995, -0.000466356229, 918.4945    , 33.4106674  , 820.6554    , 5.07        , 3           , 7           , 0           , 0
-0.100304484, -0.0965840742, -9.79523849 , 4.35404363E-05, -0.000238527951, -0.00012078054, 0.009975616 , -0.009335369, -0.0004675878, 918.4945    , 33.4106674  , 820.6551    , 5.08        , 3           , 8           , 5           , 5
-0.0857085139, -0.09531364 , -9.800716   , 0.0006203505, -0.000100396283, -1.70717958E-05, 0.009981821 , -0.009336371, -0.0004677685, 918.4945    , 33.4106674  , 820.6548    , 5.09        , 3           , 9           , 5           , 0.1
