Acc X       , Acc Y       , Acc Z       , Gyro X      , Gyro Y      , Gyro Z      , Euler X     , Euler Y     , Euler Z     , Pres X      , Pres Y      , Pres Z      , Time        , Status      , LowRate X   , LowRate Y   , LowRate Z    
-0.137991846, 0.105849035 , -9.786543   , 0           , 0           , 0           , -0.0108153522, -0.014098404, 0           , 918.2913    , 32.86997    , 822.421936  , 0           , 2           , 0           , 5.88823175  , 0
-0.14710544 , 0.1060971   , -9.773853   , 0.0006486692, -0.00039416668, -0.000516650442, -0.0108084371, -0.0141027113, -5.12397037E-06, 918.2913    , 32.86997    , 822.421936  , 0.01        , 3           , 1           , 0           , 0
-0.13304773 , 0.1164151   , -9.777453   , 0.000211173552, -0.000419681775, 0.000399676355, -0.0108063836, -0.0141068632, -1.081788E-06, 918.2913    , 32.86997    , 822.421936  , 0.02        , 3           , 2           , 0           , 0
-0.1294509  , 0.11649809  , -9.788704   , -0.0001326144, 3.77392862E-05, -0.000318690552, -0.0108076641, -0.01410652 , -4.27283157E-06, 918.277161  , 32.43164    , 822.421936  , 0.03        , 3           , 3           , 0           , 0
-0.136992171, 0.108810164 , -9.795371   , -0.0002663089, 0.000471932464, -0.000153649831, -0.0108103044, -0.0141018191, -5.860363E-06, 918.277161  , 32.43164    , 822.421936  , 0.04        , 3           , 4           , 0           , 0
-0.134786144, 0.106847748 , -9.798113   , -0.000313104363, 0.000663622341, -0.0002758358, -0.0108133964, -0.014095217, -8.690517E-06, 918.277161  , 32.43164    , 822.421936  , 0.05        , 3           , 5           , 0           , 0
-0.131750777, 0.10773766  , -9.795721   , 0.000159614661, 0.000704993261, -0.0007237158, -0.0108116968, -0.0140882432, -1.60040181E-05, 918.277161  , 32.43164    , 822.421936  , 0.06        , 3           , 6           , 0           , 0
-0.13482371 , 0.106109992 , -9.783342   , -0.000407482381, 0.000438963645, 0.0006774339, -0.0108158663, -0.0140837813, -9.277039E-06, 918.277161  , 32.43164    , 822.421936  , 0.07        , 3           , 7           , 0           , 0
-0.139105231, 0.115842536 , -9.799273   , -0.000156588852, 4.599127E-05, 0.000191392508, -0.0108174589, -0.0140833007, -7.36806032E-06, 918.277161  , 32.43164    , 822.421936  , 0.08        , 3           , 8           , 5           , 5
-0.142583191, 0.105733275 , -9.801847   , -0.000209358055, -0.000290502328, 0.00015195075, -0.0108195739, -0.0140861887, -5.81710128E-06, 918.277161  , 32.43164    , 822.421936  , 0.09        , 3           , 9           , 5           , 0.1
-0.147642165, 0.100178242 , -9.79651451 , 0.000104430481, 0.000108635286, -0.0008441712, -0.0108184107, -0.0140851941, -1.42706895E-05, 918.277161  , 32.43164    , 822.421936  , 0.1         , 3           , 10          , 0.1         , 0.1
-0.132394165, 0.09439262  , -9.787591   , 0.000338512473, -1.52974389E-05, -0.000484388147, -0.0108296992, -0.014083907, -1.890535E-05, 918.277161  , 32.43164    , 822.5516    , 0.11        , 3           , 11          , 0.0109544508, 0.0109544508
-0.130865619, 0.10126251  , -9.79217    , 0.0003636405, 0.000146789185, -3.04547139E-05, -0.01082606 , -0.0140824411, -1.922578E-05, 918.277161  , 32.43164    , 822.5516    , 0.12        , 3           , 12          , 0.174642488 , 0
-0.137476534, 0.1015085   , -9.797076   , -0.0002674535, -3.68662877E-05, -1.4093268E-05, -0.0108287325, -0.0140828118, -1.936272E-05, 918.2791    , 32.46943    , 822.5516    , 0.13        , 3           , 13          , 0           , 0
-0.14913179 , 0.097392045 , -9.798059   , 2.87959119E-05, -0.000324331457, 0.000515314 , -0.0108285174, -0.0140859988, -1.41743822E-05, 918.2791    , 32.46943    , 822.5516    , 0.14        , 3           , 14          , -0.0010299813, -0.0010955981
-0.132204711, 0.09735744  , -9.800684   , 0.000292913523, 0.000421658973, 0.000390294561, -0.0108256442, -0.01408174 , -1.03170214E-05, 918.2791    , 32.46943    , 822.5516    , 0.15        , 3           , 15          , 0           , -0.000247526623
-0.135618851, 0.09614137  , -9.798449   , 0.000262893154, -3.71995848E-05, 0.0002646493, -0.0108230514, -0.0140820825, -7.666463E-06, 918.2791    , 32.46943    , 822.5516    , 0.16        , 3           , 16          , 0           , 1.401298E-45
-0.137964457, 0.117361225 , -9.796206   , 5.4479402E-05, -0.000102599384, 0.000500820635, -0.0108225774, -0.0140830539, -2.64708137E-06, 918.2791    , 32.46943    , 822.5516    , 0.17        , 3           , 20          , 0           , 0
-0.144884735, 0.115076862 , -9.791344   , -0.000435409485, 0.000238908746, 0.000270320976, -0.0108269695, -0.0140806362, 3.03000931E-08, 918.2791    , 32.46943    , 822.5516    , 0.18        , 3           , 21          , 0           , 0
-0.149055511, 0.1087669   , -9.780253   , 0.000147195184, 0.000281953719, 0.00102571142, -0.0108256424, -0.0140777063, 1.025706E-05, 918.2791    , 32.46943    , 822.5516    , 0.19        , 3           , 22          , 0           , 0
-0.147834   , 0.113693856 , -9.789072   , 0.000213932886, 0.000516485365, -0.000410632754, -0.0108234445, -0.0140725868, 6.094757E-06, 918.2791    , 32.46943    , 822.551636  , 0.2         , 3           , 40          , 0           , 0
-0.136541724, 0.1054732   , -9.816785   , -0.000267291325, -0.000104108592, -0.000432258646, -0.0108193774, -0.0140806222, 1.68933923E-06, 918.2791    , 32.46943    , 822.5425    , 0.21        , 3           , 41          , 0           , 0
-0.134863824, 0.108961008 , -9.821687   , 0.000584698 , -0.000829843455, 0.000107317028, -0.0108135436, -0.0140889063, 2.85229135E-06, 918.2791    , 32.46943    , 822.542542  , 0.22        , 3           , 42          , 0           , 0
-0.126094416, 0.120091453 , -9.798813   , 0.0005471505, -0.0002557541, 0.0007092133, -0.0108081736, -0.0140913874, 9.972188E-06, 918.277832  , 32.4968376  , 822.5426    , 0.23        , 3           , 255         , 0           , 0
-0.135377362, 0.116139546 , -9.779993   , 0.000220469839, -0.000372075476, -0.0003322856, -0.0108059226, -0.0140951434, 6.68949633E-06, 918.277832  , 32.4968376  , 822.542664  , 0.24        , 3           , 255         , 0           , 0
-0.135639817, 0.1103281   , -9.774376   , 0.0002771882, -0.000371229718, 0.000274910883, -0.01080319 , -0.0140988268, 9.478766E-06, 918.277832  , 32.4968376  , 822.5427    , 0.25        , 3           , 255         , 0           , 0
-0.140012786, 0.10345342  , -9.777519   , -0.000140691642, 1.997163E-05, -3.117026E-05, -0.0108045945, -0.01409863 , 9.164893E-06, 918.277832  , 32.4968376  , 822.5428    , 0.26        , 3           , 255         , 0           , 0
-0.126785636, 0.103891574 , -9.803025   , -0.000111022266, -6.238127E-05, -0.0003931634, -0.0108056478, -0.0140992962, 5.23994549E-06, 918.277832  , 32.4968376  , 822.542847  , 0.27        , 3           , 255         , 0           , 0
-0.133311614, 0.100075386 , -9.811879   , -0.000319825485, -0.000160755822, -0.000319226354, -0.0108088022, -0.014100939, 2.06500567E-06, 918.277832  , 32.4968376  , 822.5429    , 0.28        , 3           , 255         , 0           , 0
-0.134205788, 0.107956991 , -9.803778   , 0.000220597431, -0.0003783889, 0.000653845258, -0.0108066881, -0.0141046513, 8.644457E-06, 918.277832  , 32.4968376  , 822.542969  , 0.29        , 3           , 255         , 0           , 0
-0.133052289, 0.114428326 , -9.787176   , -0.000116046984, 0.0003079006, 2.23183888E-05, -0.0108078523, -0.0141015714, 8.834371E-06, 918.277832  , 32.4968376  , 822.543     , 0.3         , 3           , 255         , 0           , 0
-0.131963626, 0.115362667 , -9.797786   , -0.000357644516, -0.00017606758, 0.0005199557, -0.0108207185, -0.0140902605, 1.4182905E-05, 918.277832  , 32.4968376  , 822.543457  , 0.31        , 3           , 255         , 0           , 0
-0.140600115, 0.109957896 , -9.80348    , -0.000194482389, -0.000174792716, 0.000489326252, -0.01082273 , -0.0140919555, 1.909515E-05, 918.277832  , 32.4968376  , 822.5435    , 0.32        , 3           , 255         , 0           , 0
-0.145337477, 0.1142992   , -9.801693   , 8.754665E-06, -0.000370088266, -0.000460880867, -0.0108225774, -0.0140957059, 1.45263275E-05, 918.29425   , 32.5145454  , 822.5436    , 0.33        , 3           , 255         , 0           , 0
-0.138269231, 0.122121334 , -9.805895   , 0.00105981051, -0.000181622687, -0.000662748, -0.0108118877, -0.0140975947, 7.918389E-06, 918.29425   , 32.5145454  , 822.54364   , 0.34        , 3           , 255         , 0           , 0
-0.141532689, 0.116372645 , -9.796124   , -0.000187733793, -9.599759E-05, -0.0005494582, -0.0108136861, -0.0140986135, 2.43410068E-06, 918.29425   , 32.5145454  , 822.5437    , 0.35        , 3           , 255         , 0           , 0
-0.132162765, 0.117199957 , -9.787786   , -0.000448895735, -0.0003664894, -8.266739E-05, -0.0108181648, -0.0141022876, 1.64705489E-06, 918.29425   , 32.5145454  , 822.543762  , 0.36        , 3           , 255         , 0           , 0
-0.12259151 , 0.117356122 , -9.795891   , -0.000471047126, -0.0003631633, 0.00068507  , -0.0108229723, -0.0141058424, 8.537156E-06, 918.29425   , 32.5145454  , 822.5438    , 0.37        , 3           , 255         , 0           , 0
-0.134878784, 0.111843005 , -9.804661   , -0.000124634476, 0.000183394586, 0.00055336114, -0.0108242957, -0.01410395 , 1.405101E-05, 918.29425   , 32.5145454  , 822.5439    , 0.38        , 3           , 255         , 0           , 0
-0.140438735, 0.1051322   , -9.80670452 , 0.000288457959, 0.00047381036, -0.0004382712, -0.010821349, -0.0140992589, 9.616942E-06, 918.29425   , 32.5145454  , 822.543945  , 0.39        , 3           , 255         , 0           , 0
-0.129358366, 0.0916935056, -9.793159   , 0.0002388967, 3.00636748E-05, -0.000625955639, -0.0108188735, -0.0140990261, 3.3540407E-06, 918.29425   , 32.5145454  , 822.544     , 0.4         , 3           , 255         , 0           , 0
-0.127931267, 0.09404214  , -9.786914   , -0.00020591612, 7.226039E-05, -0.000269392738, -0.0108365361, -0.0140921045, 8.72685E-07 , 918.29425   , 32.5145454  , 822.5066    , 0.41        , 3           , 255         , 0           , 0
-0.141236633, 0.10258989  , -9.791527   , 6.070826E-06, 0.000449348881, 0.0002822981, -0.0108365146, -0.01408758 , 3.64701373E-06, 918.29425   , 32.5145454  , 822.506653  , 0.42        , 3           , 255         , 0           , 0
-0.141791254, 0.0964500457, -9.806421   , -0.000427023042, 0.000242244161, 0.0005742364, -0.0108408639, -0.0140850963, 9.36321E-06 , 918.244568  , 32.5226173  , 822.5067    , 0.43        , 3           , 255         , 0           , 0
-0.1369771  , 0.106875673 , -9.812191   , 0.000339103863, 8.564594E-05, -0.0006927796, -0.0108373761, -0.0140843149, 2.42603051E-06, 918.244568  , 32.5226173  , 822.5068    , 0.44        , 3           , 255         , 0           , 0
-0.135464877, 0.101581059 , -9.795371   , 0.0002809466, -2.8839102E-05, -0.000961006735, -0.0108344313, -0.01408471 , -7.18105639E-06, 918.244568  , 32.5226173  , 822.506836  , 0.45        , 3           , 255         , 0           , 0
-0.132217765, 0.107781492 , -9.78158    , 0.000456530019, -0.0001962923, -0.000288487528, -0.010829824, -0.0140867028, -1.00447278E-05, 918.244568  , 32.5226173  , 822.5069    , 0.46        , 3           , 255         , 0           , 0
-0.135680765, 0.107987583 , -9.783837   , 0.000254893326, 8.17118E-05 , 0.0003806991, -0.01082733 , -0.0140858451, -6.246527E-06, 918.244568  , 32.5226173  , 822.506958  , 0.47        , 3           , 255         , 0           , 0
-0.140396446, 0.115556657 , -9.787768   , 3.1544012E-05, 7.52412E-05 , 5.886478E-05, -0.0108270226, -0.0140850861, -5.666023E-06, 918.244568  , 32.5226173  , 822.507     , 0.48        , 3           , 255         , 0           , 0
-0.1453776  , 0.1148777   , -9.802789   , 8.690171E-06, -0.0001339477, 0.0002677812, -0.0108269732, -0.0140863974, -2.97365864E-06, 918.244568  , 32.5226173  , 822.5071    , 0.49        , 3           , 255         , 0           , 0
-0.142558441, 0.10405574  , -9.799641   , 7.23137055E-06, 4.70062951E-05, -4.18524141E-05, -0.010826895, -0.0140859317, -3.39727785E-06, 918.244568  , 32.5226173  , 822.5072    , 0.5         , 3           , 255         , 0           , 0
-0.136714563, 0.0986479   , -9.797623   , 0.000288837356, 0.000245787029, -0.00033304494, -0.0108209364, -0.0140834795, -6.796957E-06, 918.244568  , 32.5226173  , 822.5769    , 0.51        , 3           , 255         , 0           , 0
-0.143959135, 0.09774533  , -9.795878   , 9.778305E-06, 0.00020686991, 7.011874E-05, -0.0108208489, -0.0140814036, -6.118145E-06, 918.244568  , 32.5226173  , 822.577     , 0.52        , 3           , 255         , 0           , 0
-0.12230067 , 0.09943698  , -9.786601   , 6.38482161E-05, -6.28609E-05, -0.000435518828, -0.0108201494, -0.0140820788, -1.04666087E-05, 918.265564  , 32.52845    , 822.577148  , 0.53        , 3           , 255         , 0           , 0
-0.124405667, 0.107067846 , -9.809713   , -0.000135554932, -8.751801E-05, -0.000812439364, -0.010821389, -0.0140830427, -1.85816571E-05, 918.265564  , 32.52845    , 822.5773    , 0.54        , 3           , 255         , 0           , 0
-0.148098961, 0.106146239 , -9.81487751 , -4.57919668E-06, 0.000193844666, -3.8210128E-05, -0.01082143 , -0.0140811084, -1.89847415E-05, 918.265564  , 32.52845    , 822.5774    , 0.55        , 3           , 255         , 0           , 0
-0.137948424, 0.108068034 , -9.813914   , 0.00124002562, -1.58181647E-05, 0.00028935587, -0.0108090695, -0.0140812378, -1.60894415E-05, 918.265564  , 32.52845    , 822.5775    , 0.56        , 3           , 255         , 0           , 0
-0.146635666, 0.102594867 , -9.787462   , 0.00066284166, -7.1047456E-05, 5.395488E-05, -0.0108024487, -0.01408194 , -1.55422022E-05, 918.265564  , 32.52845    , 822.577637  , 0.57        , 3           , 255         , 0           , 0
-0.140200824, 0.118017077 , -9.790922   , 0.0005809089, 0.0005244739, 0.000522402057, -0.0107967127, -0.0140766427, -1.03747379E-05, 918.265564  , 32.52845    , 822.577759  , 0.58        , 3           , 255         , 0           , 0
-0.130319759, 0.114130877 , -9.794708   , 0.0006491847, -3.27659072E-05, 0.0007040065, -0.0107903192, -0.0140768914, -3.33103071E-06, 918.265564  , 32.52845    , 822.5779    , 0.59        , 3           , 255         , 0           , 0
-0.135887057, 0.1182005   , -9.805389   , 6.73884642E-05, -0.0005891613, 0.0006315955, -0.0107897343, -0.0140827149, 3.04858668E-06, 918.265564  , 32.52845    , 822.578     , 0.6         , 3           , 255         , 0           , 0
-0.144943252, 0.112902664 , -9.80036    , -0.0002058685, -5.40866749E-05, 0.000191368046, -0.0107940733, -0.0140800057, 4.99987846E-06, 918.265564  , 32.52845    , 822.5917    , 0.61        , 3           , 255         , 0           , 0
-0.13464734 , 0.109348789 , -9.794168   , -8.64662E-05, 0.000131661131, 0.000779316761, -0.0107950475, -0.0140786041, 1.27789535E-05, 918.265564  , 32.52845    , 822.5918    , 0.62        , 3           , 255         , 0           , 0
-0.136463732, 0.108559668 , -9.799721   , -0.000153658446, 0.000355292461, 0.000491456 , -0.0107966531, -0.0140749989, 1.76552385E-05, 918.2726    , 32.5377464  , 822.5919    , 0.63        , 3           , 255         , 0           , 0
-0.14104864 , 0.112138629 , -9.789019   , -2.69664451E-06, 0.000188088627, 0.000477689318, -0.0107967472, -0.0140730673, 2.24118976E-05, 918.2726    , 32.5377464  , 822.592041  , 0.64        , 3           , 255         , 0           , 0
-0.141262814, 0.130239084 , -9.804867   , 9.605271E-05, 0.000103653874, 0.00026611553, -0.0107958242, -0.0140720028, 2.50619069E-05, 918.2726    , 32.5377464  , 822.592163  , 0.65        , 3           , 255         , 0           , 0
-0.146931022, 0.125179023 , -9.805308   , -0.0003771271, -4.56623966E-05, 3.93096125E-05, -0.0107996007, -0.0140724555, 2.54599381E-05, 918.2726    , 32.5377464  , 822.5923    , 0.66        , 3           , 255         , 0           , 0
-0.146592408, 0.117894873 , -9.797409   , 7.797399E-05, -0.000202633091, 0.000485490775, -0.01079889 , -0.0140744289, 3.03368142E-05, 918.2726    , 32.5377464  , 822.5924    , 0.67        , 3           , 255         , 0           , 0
-0.133161232, 0.112958133 , -9.786379   , 0.0003240243, 0.000390062865, -8.58502463E-05, -0.010795638, -0.0140705379, 2.94361889E-05, 918.2726    , 32.5377464  , 822.5925    , 0.68        , 3           , 255         , 0           , 0
-0.138227224, 0.112516239 , -9.790548   , -5.819695E-05, -0.000106223626, -0.000407895684, -0.0107961623, -0.0140716434, 2.53686376E-05, 918.2726    , 32.5377464  , 822.592651  , 0.69        , 3           , 255         , 0           , 0
-0.1381834  , 0.10342209  , -9.796959   , -0.0002691272, 4.511606E-05, 4.10189241E-05, -0.0107988594, -0.0140711879, 2.57739648E-05, 918.2726    , 32.5377464  , 822.592834  , 0.7         , 3           , 255         , 0           , 0
-0.133929163, 0.104205847 , -9.805311   , 0.000566051 , 0.000380723563, 0.000662847247, -0.0108169075, -0.0140734306, 3.269379E-05, 918.2726    , 32.5377464  , 822.592957  , 0.71        , 3           , 255         , 0           , 0
-0.13251102 , 0.10126932  , -9.796086   , 0.000156444963, 0.000409110216, -0.000166462065, -0.0108153187, -0.014069357, 3.09848947E-05, 918.2726    , 32.5377464  , 822.59314   , 0.72        , 3           , 255         , 0           , 0
-0.132442623, 0.102707781 , -9.790713   , 0.0003374414, -0.000380420242, -0.0009783279, -0.0108118076, -0.0140732685, 2.12425985E-05, 918.291931  , 32.5397148  , 822.5933    , 0.73        , 3           , 255         , 0           , 0
-0.138888687, 0.102677308 , -9.796661   , 0.000887531263, -0.00012595614, -3.183208E-05, -0.0108029284, -0.01407453 , 2.09378886E-05, 918.291931  , 32.5397148  , 822.5935    , 0.74        , 3           , 255         , 0           , 0
-0.136112526, 0.09717437  , -9.794951   , -0.000174611108, 4.460814E-05, 3.915785E-05, -0.0108046811, -0.0140740806, 2.13246585E-05, 918.291931  , 32.5397148  , 822.5937    , 0.75        , 3           , 255         , 0           , 0
-0.149228   , 0.107481442 , -9.805173   , -0.000304378453, -0.0003861821, 0.0004178389, -0.0108077824, -0.0140778944, 2.55448431E-05, 918.291931  , 32.5397148  , 822.5939    , 0.76        , 3           , 255         , 0           , 0
-0.149516523, 0.1114869   , -9.800871   , 0.000273402373, -0.000177989015, -0.000481516356, -0.0108049819, -0.0140797263, 2.07488465E-05, 918.291931  , 32.5397148  , 822.594055  , 0.77        , 3           , 255         , 0           , 0
-0.152394459, 0.116333604 , -9.791212   , 1.59756746E-05, -0.00046650786, 6.606779E-05, -0.010804832, -0.0140843848, 2.14599422E-05, 918.291931  , 32.5397148  , 822.594238  , 0.78        , 3           , 255         , 0           , 0
-0.1401627  , 0.117105864 , -9.790701   , -0.0005900514, -0.000796785345, 0.00068134605, -0.0108108288, -0.0140922777, 2.83596219E-05, 918.291931  , 32.5397148  , 822.5944    , 0.79        , 3           , 255         , 0           , 0
-0.13803035 , 0.110163227 , -9.794027   , 0.000126257539, -0.0002870903, 0.0002938828, -0.0108096069, -0.0140951155, 3.132953E-05, 918.291931  , 32.5397148  , 822.5946    , 0.8         , 3           , 255         , 0           , 0
-0.133872822, 0.112399437 , -9.80365849 , -0.000170625281, 0.000184404547, 1.993918E-05, -0.0108145094, -0.0140996445, 3.15540165E-05, 918.291931  , 32.5397148  , 822.5703    , 0.81        , 3           , 255         , 0           , 0
-0.140698031, 0.112897813 , -9.804979   , 1.65667152E-05, -0.000202307361, -0.000109987595, -0.0108143277, -0.01410168 , 3.04760033E-05, 918.291931  , 32.5397148  , 822.5705    , 0.82        , 3           , 255         , 0           , 0
-0.1361012  , 0.107715786 , -9.796063   , 0.0003232392, 0.000156216032, 0.0004966299, -0.0108111659, -0.0141000645, 3.54254953E-05, 918.2552    , 32.54419    , 822.5707    , 0.83        , 3           , 255         , 0           , 0
-0.137241885, 0.112832867 , -9.790421   , -2.41769012E-05, -4.47093043E-05, 0.0005349176, -0.0108114835, -0.0141004538, 4.07795851E-05, 918.2552    , 32.54419    , 822.570862  , 0.84        , 3           , 255         , 0           , 0
-0.146205336, 0.110744536 , -9.799971   , -0.000204690965, 0.0002637066, 0.000735631853, -0.0108136339, -0.0140977362, 4.81075149E-05, 918.2552    , 32.54419    , 822.571045  , 0.85        , 3           , 255         , 0           , 0
-0.147073552, 0.107076146 , -9.805941   , 0.0004093547, -7.945928E-06, 0.0006158662, -0.0108096283, -0.0140977493, 5.42671369E-05, 918.2552    , 32.54419    , 822.5712    , 0.86        , 3           , 255         , 0           , 0
-0.138874948, 0.10513413  , -9.798199   , 0.000241619069, -0.000192633481, 0.00042324586, -0.010807272, -0.0140996315, 5.852048E-05, 918.2552    , 32.54419    , 822.5714    , 0.87        , 3           , 255         , 0           , 0
-0.140333652, 0.103173457 , -9.794594   , -0.0003236679, 8.4618805E-05, 0.000318680715, -0.0108105531, -0.01409875 , 6.169819E-05, 918.2552    , 32.54419    , 822.5716    , 0.88        , 3           , 255         , 0           , 0
-0.136914954, 0.107549444 , -9.779376   , 0.0003113264, -2.00268114E-05, 0.0003922688, -0.0108074956, -0.0140989078, 6.56231059E-05, 918.2552    , 32.54419    , 822.5718    , 0.89        , 3           , 255         , 0           , 0
-0.1365329  , 0.113261148 , -9.781744   , 0.0005013087, -0.000356207369, -1.92906882E-05, -0.01080248 , -0.014102472, 6.546868E-05, 918.2552    , 32.54419    , 822.57196   , 0.9         , 3           , 255         , 0           , 0
-0.131107658, 0.102396034 , -9.79212952 , -0.000433299574, -0.00040932023, -0.0001805117, -0.0108159287, -0.0141100185, 6.383671E-05, 918.2552    , 32.54419    , 822.5948    , 0.91        , 3           , 255         , 0           , 0
-0.142638892, 0.109974682 , -9.786028   , -0.000444056466, 0.000174875837, -0.000366842985, -0.0108203171, -0.01410831 , 6.014932E-05, 918.2552    , 32.54419    , 822.595     , 0.92        , 3           , 255         , 0           , 0
-0.143007591, 0.1026484   , -9.793585   , -0.0003886032, 0.00019701873, -2.54868064E-05, -0.0108241979, -0.0141063426, 5.987312E-05, 918.261841  , 32.5446663  , 822.595154  , 0.93        , 3           , 255         , 0           , 0
-0.1375914  , 0.09560523  , -9.791923   , 0.000155551243, -7.618102E-05, -0.000385854772, -0.0108225886, -0.0141071454, 5.60227527E-05, 918.261841  , 32.5446663  , 822.595337  , 0.94        , 3           , 255         , 0           , 0
-0.13823007 , 0.0993476659, -9.78645    , 0.000550213968, -0.000235830783, -0.000157449133, -0.0108170658, -0.0141095212, 5.4473745E-05, 918.261841  , 32.5446663  , 822.5955    , 0.95        , 3           , 255         , 0           , 0
-0.135250643, 0.104338787 , -9.79847    , 0.000154150533, -0.00031065743, -0.0002911722, -0.0108154835, -0.0141126588, 5.15955835E-05, 918.261841  , 32.5446663  , 822.5957    , 0.96        , 3           , 255         , 0           , 0
-0.13301836 , 0.106810555 , -9.797336   , 0.000180854346, 0.00012988667, 0.000147168 , -0.0108136944, -0.0141113438, 5.305324E-05, 918.261841  , 32.5446663  , 822.5959    , 0.97        , 3           , 255         , 0           , 0
-0.141314432, 0.1103037   , -9.791586   , -0.00016342767, -0.000175432651, -0.000459951727, -0.0108152647, -0.0141131477, 4.847262E-05, 918.261841  , 32.5446663  , 822.5961    , 0.98        , 3           , 255         , 0           , 0
-0.137865752, 0.103476681 , -9.796272   , -0.000142323785, -0.0005753711, 0.0001446257, -0.0108167091, -0.0141188856, 4.998113E-05, 918.261841  , 32.5446663  , 822.5964    , 0.99        , 3           , 255         , 0           , 0
-0.130787954, 0.117977045 , -9.802986   , -0.000189627754, -7.973169E-06, -0.000335645484, -0.0108185587, -0.014119002, 4.6625486E-05, 918.261841  , 32.5446663  , 822.5966    , 1           , 3           , 0           , 6.88823652  , 100
-0.132200927, 0.114987113 , -9.796095   , -8.920289E-05, -0.000265666516, -0.0006187998, -0.0108173462, -0.0141184144, 4.04376478E-05, 918.261841  , 32.5446663  , 822.6083    , 1.01        , 3           , 1           , 0           , 0
-0.12843816 , 0.106842816 , -9.801788   , 0.000132658635, -0.000257298932, -0.00018745687, -0.0108159939, -0.0141210062, 3.85908825E-05, 918.261841  , 32.5446663  , 822.6085    , 1.02        , 3           , 2           , 0           , 0
-0.1301653  , 0.113863349 , -9.799949   , 0.000403686077, -0.0001298968, -2.8374081E-05, -0.0108119529, -0.0141223082, 3.83211845E-05, 918.3183    , 32.5500946  , 822.608765  , 1.03        , 3           , 3           , 0           , 0
-0.136342317, 0.103032827 , -9.796667   , -8.998625E-05, 6.69282163E-05, -0.0003930841, -0.0108127967, -0.0141216815, 3.43830434E-05, 918.3183    , 32.5500946  , 822.609     , 1.04        , 3           , 4           , 0           , 0
-0.131695539, 0.111215293 , -9.787799   , 2.8557959E-05, 0.000124347163, -0.000408394815, -0.010812453, -0.0141204819, 3.02855788E-05, 918.3183    , 32.5500946  , 822.609253  , 1.05        , 3           , 5           , 0           , 0
-0.130430192, 0.1015348   , -9.788918   , 0.000154503039, 0.000457278278, -0.000458632043, -0.0108108427, -0.0141159585, 2.56497424E-05, 918.3183    , 32.5500946  , 822.6095    , 1.06        , 3           , 6           , 0           , 0
-0.139831975, 0.0928804651, -9.796457   , 0.000281047658, 5.055708E-05, -0.00019089118, -0.010808005, -0.0141154733, 2.37353343E-05, 918.3183    , 32.5500946  , 822.609741  , 1.07        , 3           , 7           , 0           , 0
-0.1430167  , 0.1002805   , -9.790153   , 0.0006500849, -0.000152894645, 0.000112463851, -0.0108015221, -0.0141169894, 2.48765209E-05, 918.3183    , 32.5500946  , 822.61      , 1.08        , 3           , 8           , 5           , 5
-0.144331619, 0.100678757 , -9.803192   , -0.000919011538, 0.000130053377, 0.0001243705, -0.0108107282, -0.0141156754, 2.610618E-05, 918.3183    , 32.5500946  , 822.6102    , 1.09        , 3           , 9           , 5           , 0.1
-0.1387206  , 0.109049916 , -9.795237   , -0.0007460583, 0.000268758275, 4.640568E-05, -0.0108181946, -0.0141129838, 2.654118E-05, 918.3183    , 32.5500946  , 822.6105    , 1.1         , 3           , 10          , 0.1         , 0.1
-0.13148275 , 0.100336134 , -9.793841   , -1.20605109E-05, -9.62958438E-05, 0.000440583535, -0.0108171329, -0.0141066359, 3.09399547E-05, 918.3183    , 32.5500946  , 822.5605    , 1.11        , 3           , 11          , 0.009421798 , 0.009421798
-0.126936585, 0.100068353 , -9.797068   , -0.000553971855, -6.720447E-05, 0.000239174478, -0.0108227059, -0.0141072832, 3.333901E-05, 918.3183    , 32.5500946  , 822.5606    , 1.12        , 3           , 12          , 0.174642846 , 0
-0.138597757, 0.107795395 , -9.790874   , 4.5415014E-05, 8.77205748E-05, -0.00025091815, -0.010822216, -0.0141064329, 3.082029E-05, 918.264832  , 32.5475159  , 822.5607    , 1.13        , 3           , 13          , 0           , 0
-0.144037038, 0.1045488   , -9.796144   , -0.0005648531, 0.000260610948, -5.04228519E-05, -0.010827858, -0.0141038345, 3.02878379E-05, 918.264832  , 32.5475159  , 822.560852  , 1.14        , 3           , 14          , -0.00102994859, -0.00109560438
-0.1329799  , 0.108890511 , -9.796458   , -0.0006560355, 0.0006530805, -0.0005032608, -0.0108343465, -0.01409736 , 2.51844085E-05, 918.264832  , 32.5475159  , 822.561     , 1.15        , 3           , 15          , 0           , -0.0002475272
-0.132090047, 0.1091509   , -9.804896   , -0.000230837031, 0.0006643646, 0.000230025675, -0.0108366851, -0.0140906908, 2.74127033E-05, 918.264832  , 32.5475159  , 822.5611    , 1.16        , 3           , 16          , 0           , 1.401298E-45
-0.141274184, 0.111113489 , -9.80526    , 0.0003055308, -0.0005076978, 0.00102491514, -0.0108337747, -0.0140956575, 3.771703E-05, 918.264832  , 32.5475159  , 822.5612    , 1.17        , 3           , 20          , 0           , 0
-0.147669718, 0.104257658 , -9.791917   , 0.000320997264, -0.000209493679, -3.75081436E-06, -0.0108305644, -0.01409775 , 3.770222E-05, 918.264832  , 32.5475159  , 822.56134   , 1.18        , 3           , 21          , 0           , 0
-0.147416785, 0.104678109 , -9.779746   , 0.000373057381, 0.00020273315, 0.000237194821, -0.0108268689, -0.0140956976, 4.005225E-05, 918.264832  , 32.5475159  , 822.561462  , 1.19        , 3           , 22          , 0           , 0
-0.137383878, 0.09521259  , -9.790753   , 0.000359427184, -0.000211356557, 0.00033467717, -0.0108233206, -0.0140977744, 4.342196E-05, 918.264832  , 32.5475159  , 822.561646  , 1.2         , 3           , 40          , 0           , 0
-0.1287197  , 0.09566458  , -9.78977    , -0.000189098064, -0.000234715058, 0.0002925148, -0.0108212987, -0.0140997348, 4.63168035E-05, 918.264832  , 32.5475159  , 822.573547  , 1.21        , 3           , 41          , 0           , 0
-0.134226233, 0.113941491 , -9.803488   , 2.00630166E-06, -0.000176778063, 0.000176988455, -0.0108213034, -0.0141014839, 4.81058378E-05, 918.264832  , 32.5475159  , 822.5737    , 1.22        , 3           , 42          , 0           , 0
-0.136861473, 0.105353795 , -9.795732   , 0.000472510932, 0.00018504163, -0.000384241226, -0.0108165247, -0.0140996752, 4.4243352E-05, 918.317749  , 32.5515175  , 822.5739    , 1.23        , 3           , 255         , 0           , 0
-0.133819714, 0.1081334   , -9.79042    , 0.000304983172, 0.000410992245, -0.000173651322, -0.0108134495, -0.0140955867, 4.246236E-05, 918.317749  , 32.5515175  , 822.5741    , 1.24        , 3           , 255         , 0           , 0
-0.126037508, 0.10993211  , -9.785048   , -0.0002552655, 0.000199260248, 0.0006917176, -0.0108160991, -0.0140935173, 4.93580956E-05, 918.317749  , 32.5515175  , 822.5743    , 1.25        , 3           , 255         , 0           , 0
-0.140136153, 0.102606215 , -9.789988   , -0.0002539775, 4.03971644E-05, 1.17864693E-06, -0.01081864 , -0.0140931131, 4.936551E-05, 918.317749  , 32.5515175  , 822.574463  , 1.26        , 3           , 255         , 0           , 0
-0.14580825 , 0.107691884 , -9.797768   , -0.000385311549, -3.54134245E-05, -0.000170314685, -0.0108224675, -0.0140934857, 4.766617E-05, 918.317749  , 32.5515175  , 822.574646  , 1.27        , 3           , 255         , 0           , 0
-0.138165444, 0.101192974 , -9.797596   , -2.29250873E-05, -0.00023752288, -0.0001773148, -0.0108226705, -0.01409588 , 4.59187031E-05, 918.317749  , 32.5515175  , 822.5748    , 1.28        , 3           , 255         , 0           , 0
-0.140778407, 0.09688909  , -9.80267048 , 0.000225523952, 0.00020514091, -5.77788451E-05, -0.01082041 , -0.0140938358, 4.53187058E-05, 918.317749  , 32.5515175  , 822.575     , 1.29        , 3           , 255         , 0           , 0
-0.146881491, 0.09918199  , -9.782213   , 3.94127565E-05, 0.000182474556, 0.000183086377, -0.0108200423, -0.0140919909, 4.71298554E-05, 918.317749  , 32.5515175  , 822.5752    , 1.3         , 3           , 255         , 0           , 0
-0.136843875, 0.101030543 , -9.781824   , -0.0001964703, 0.000634402153, 0.000107575528, -0.0108168125, -0.0140831005, 4.80636227E-05, 918.317749  , 32.5515175  , 822.531     , 1.31        , 3           , 255         , 0           , 0
-0.147159338, 0.110881492 , -9.794859   , -0.00021229405, -8.36032E-05, 0.000437300478, -0.0108189955, -0.0140838893, 5.24457319E-05, 918.317749  , 32.5515175  , 822.531067  , 1.32        , 3           , 255         , 0           , 0
-0.133287862, 0.122999348 , -9.805812   , 0.0006576335, -5.60341869E-05, 0.0007953313, -0.0108125312, -0.0140843643, 6.04052366E-05, 918.3002    , 32.55138    , 822.5311    , 1.33        , 3           , 255         , 0           , 0
-0.132888645, 0.132300928 , -9.80061    , 0.00053132826, 0.000183667638, -0.0005828226, -0.0108071351, -0.014082591, 5.4557062E-05, 918.3002    , 32.55138    , 822.5312    , 1.34        , 3           , 255         , 0           , 0
-0.132040873, 0.13647     , -9.802833   , 0.00018635497, 0.000203690317, -0.000694860355, -0.0108051728, -0.0140806288, 4.75863235E-05, 918.3002    , 32.55138    , 822.53125   , 1.35        , 3           , 255         , 0           , 0
-0.138124391, 0.122668788 , -9.792311   , 0.000486687873, -0.000346845249, -0.0004654878, -0.0108002415, -0.0140841473, 4.296885E-05, 918.3002    , 32.55138    , 822.5313    , 1.36        , 3           , 255         , 0           , 0
-0.136901334, 0.101621374 , -9.797467   , 0.000146106759, 0.000174842018, -0.000359880476, -0.01079873 , -0.0140824383, 3.935111E-05, 918.3002    , 32.55138    , 822.5314    , 1.37        , 3           , 255         , 0           , 0
-0.127961352, 0.08996428  , -9.792274   , 0.000409425527, 5.37963351E-05, -4.87313664E-05, -0.0107946284, -0.0140819047, 3.88579756E-05, 918.3002    , 32.55138    , 822.531433  , 1.38        , 3           , 255         , 0           , 0
-0.129329413, 0.08670761  , -9.7823     , 0.000285111077, 0.000109618064, -0.000671619666, -0.0107916826, -0.0140808811, 3.2129843E-05, 918.3002    , 32.55138    , 822.5315    , 1.39        , 3           , 255         , 0           , 0
-0.133701026, 0.09963862  , -9.781463   , -0.00012814498, -7.41519034E-06, -0.0004112541, -0.0107929064, -0.0140809994, 2.80180375E-05, 918.3002    , 32.55138    , 822.531555  , 1.4         , 3           , 255         , 0           , 0
-0.1435854  , 0.09585134  , -9.787875   , 0.0007168674, -0.000109610148, -0.000406994775, -0.0107984226, -0.0140735693, 2.41391772E-05, 918.3002    , 32.55138    , 822.51      , 1.41        , 3           , 255         , 0           , 0
-0.153154686, 0.09041403  , -9.787416   , 1.656136E-05, -0.0001361476, -9.295283E-05, -0.0107982438, -0.0140749393, 2.32243347E-05, 918.3002    , 32.55138    , 822.51      , 1.42        , 3           , 255         , 0           , 0
-0.151838809, 0.103998363 , -9.794155   , 0.0004438131, -0.0007608745, -0.0003135128, -0.0107937623, -0.0140825817, 2.01712955E-05, 918.287964  , 32.55362    , 822.51      , 1.43        , 3           , 255         , 0           , 0
-0.134064287, 0.105643317 , -9.799565   , -4.75684647E-05, -0.000310073723, -0.000179686787, -0.010794213, -0.0140857017, 1.84078654E-05, 918.287964  , 32.55362    , 822.51      , 1.44        , 3           , 255         , 0           , 0
-0.122664712, 0.09998227  , -9.798436   , -0.00033991423, 0.0004993387, 0.0002546109, -0.0107976468, -0.0140806818, 2.09001173E-05, 918.287964  , 32.55362    , 822.51      , 1.45        , 3           , 255         , 0           , 0
-0.116914138, 0.113359571 , -9.793314   , -0.000396299525, -0.000267632538, -0.000146476115, -0.0108015891, -0.0140833715, 1.9464238E-05, 918.287964  , 32.55362    , 822.51      , 1.46        , 3           , 255         , 0           , 0
-0.118372604, 0.118865468 , -9.795843   , -0.000122672762, -0.000338785816, -0.000163230172, -0.0108027933, -0.0140867773, 1.78685023E-05, 918.287964  , 32.55362    , 822.51      , 1.47        , 3           , 255         , 0           , 0
-0.131336808, 0.124472186 , -9.798307   , 6.26794645E-05, -0.000181308133, -0.000210157537, -0.0108021367, -0.014088613, 1.57864779E-05, 918.287964  , 32.55362    , 822.51      , 1.48        , 3           , 255         , 0           , 0
-0.1533677  , 0.127930135 , -9.799434   , 0.000126312021, 0.000359303958, 0.000223536132, -0.0108009055, -0.0140849957, 1.79830586E-05, 918.287964  , 32.55362    , 822.51      , 1.49        , 3           , 255         , 0           , 0
-0.151185676, 0.122946337 , -9.797369   , 0.000131607987, 0.000238514389, 0.000905063469, -0.0107997162, -0.0140825128, 2.70080818E-05, 918.287964  , 32.55362    , 822.51      , 1.5         , 3           , 255         , 0           , 0
-0.138604134, 0.117016815 , -9.791858   , -0.000382564962, 0.0001948161, 5.00466558E-05, -0.010814433, -0.0140798241, 2.764078E-05, 918.287964  , 32.55362    , 822.5034    , 1.51        , 3           , 255         , 0           , 0
-0.133034959, 0.08310265  , -9.793112   , -0.000409270753, 0.000229171477, -5.5303215E-05, -0.0108185187, -0.0140775377, 2.706295E-05, 918.287964  , 32.55362    , 822.503357  , 1.52        , 3           , 255         , 0           , 0
-0.134566337, 0.0750037059, -9.804942   , -0.000397990458, 0.000147318584, -2.31727026E-05, -0.0108224936, -0.014076069, 2.68152762E-05, 918.2663    , 32.5543671  , 822.5033    , 1.53        , 3           , 255         , 0           , 0
-0.138210058, 0.09430598  , -9.801809   , 4.023593E-05, 0.000804978 , 0.000187090322, -0.0108221173, -0.0140679982, 2.85990918E-05, 918.2663    , 32.5543671  , 822.503235  , 1.54        , 3           , 255         , 0           , 0
-0.157721266, 0.1055452   , -9.789882   , -0.000103274127, -0.000154408859, -0.000108060369, -0.0108231353, -0.0140695535, 2.75351831E-05, 918.2663    , 32.5543671  , 822.5032    , 1.55        , 3           , 255         , 0           , 0
-0.155691415, 0.09394956  , -9.790357   , 0.000257256324, -0.00019329926, -0.000118443219, -0.0108205462, -0.0140715  , 2.63716483E-05, 918.2663    , 32.5543671  , 822.5032    , 1.56        , 3           , 255         , 0           , 0
-0.135915622, 0.08551765  , -9.78498    , 0.000432433444, 0.000337730569, 7.034282E-05, -0.0108162323, -0.0140681146, 2.70385535E-05, 918.2663    , 32.5543671  , 822.5032    , 1.57        , 3           , 255         , 0           , 0
-0.122696683, 0.08628133  , -9.8062315  , -9.823835E-05, 0.0006144129, -4.597276E-05, -0.0108172074, -0.0140619762, 2.65123635E-05, 918.2663    , 32.5543671  , 822.5032    , 1.58        , 3           , 255         , 0           , 0
-0.119477853, 0.0998825356, -9.802607   , -0.000240385765, 0.000202840776, -0.0006194345, -0.0108195245, -0.0140600139, 2.02959745E-05, 918.2663    , 32.5543671  , 822.5032    , 1.59        , 3           , 255         , 0           , 0
-0.126420811, 0.130486637 , -9.801224   , 0.000233012659, 8.1048E-05  , -0.000128155341, -0.0108171757, -0.01405922 , 1.90056289E-05, 918.2663    , 32.5543671  , 822.5032    , 1.6         , 3           , 255         , 0           , 0
-0.143705457, 0.144998938 , -9.79788    , 0.000818497967, -7.580535E-05, 0.000313782715, -0.0107899113, -0.01405649 , 2.188289E-05, 918.2663    , 32.5543671  , 822.520569  , 1.61        , 3           , 255         , 0           , 0
-0.148241892, 0.145964384 , -9.790585   , 3.93386E-05 , -0.000154919573, -0.000153308793, -0.0107894959, -0.0140580544, 2.03664877E-05, 918.2663    , 32.5543671  , 822.5206    , 1.62        , 3           , 255         , 0           , 0
-0.1468177  , 0.134717122 , -9.780336   , -0.000295853, 0.000188313774, -0.000511636434, -0.0107923821, -0.0140562272, 1.52297143E-05, 918.2667    , 32.5524     , 822.5207    , 1.63        , 3           , 255         , 0           , 0
-0.146651238, 0.124026455 , -9.805108   , -0.000393026159, 0.0002887881, 0.000331801362, -0.0107963588, -0.0140533037, 1.85166045E-05, 918.2667    , 32.5524     , 822.520752  , 1.64        , 3           , 255         , 0           , 0
-0.14304468 , 0.110163108 , -9.82237    , 0.0002878048, -0.000135286362, 0.000820857 , -0.0107935956, -0.0140545685, 2.67399155E-05, 918.2667    , 32.5524     , 822.5208    , 1.65        , 3           , 255         , 0           , 0
-0.134694725, 0.08857933  , -9.816954   , 0.0008939651, -0.0003687326, 0.0008428433, -0.010784776, -0.0140581653, 3.52082643E-05, 918.2667    , 32.5524     , 822.5209    , 1.66        , 3           , 255         , 0           , 0
-0.128751546, 0.08526571  , -9.811996   , 0.00137360266, -0.000974871335, 0.00137882447, -0.0107712364, -0.0140677625, 4.91017927E-05, 918.2667    , 32.5524     , 822.520935  , 1.67        , 3           , 255         , 0           , 0
-0.1391828  , 0.09580714  , -9.7739315  , 0.00123107759, -0.0007786222, 0.00078241853, -0.0107590342, -0.0140754627, 5.70099219E-05, 918.2667    , 32.5524     , 822.521     , 1.68        , 3           , 255         , 0           , 0
-0.139425114, 0.101684093 , -9.758125   , 4.469196E-05, -5.829276E-05, 0.000362667459, -0.0107586375, -0.0140760066, 6.06429276E-05, 918.2667    , 32.5524     , 822.521057  , 1.69        , 3           , 255         , 0           , 0
-0.139141485, 0.09309088  , -9.77273    , 0.000525304349, -0.00040331576, -0.000296924321, -0.0107533447, -0.0140800718, 5.7717014E-05, 918.2667    , 32.5524     , 822.5211    , 1.7         , 3           , 255         , 0           , 0
-0.130449727, 0.09551291  , -9.797869   , 0.000149744912, -0.000422247569, -0.000188776437, -0.0107692536, -0.0140929241, 5.61203124E-05, 918.2667    , 32.5524     , 822.5364    , 1.71        , 3           , 255         , 0           , 0
-0.127223879, 0.09758045  , -9.815989   , 0.00018251955, -0.000402934966, 0.000240441223, -0.0107674627, -0.0140969269, 5.85681519E-05, 918.2667    , 32.5524     , 822.53656   , 1.72        , 3           , 255         , 0           , 0
-0.131127149, 0.0935287252, -9.80909252 , -0.0001763918, 0.000226930715, 0.000318045582, -0.0107692713, -0.0140946237, 6.172422E-05, 918.3141    , 32.5547752  , 822.536743  , 1.73        , 3           , 255         , 0           , 0
-0.140169472, 0.0976976   , -9.789273   , 0.0002890433, 0.0003609386, 2.89418967E-05, -0.0107663842, -0.0140910111, 6.197477E-05, 918.3141    , 32.5547752  , 822.5369    , 1.74        , 3           , 255         , 0           , 0
-0.14363341 , 0.09684797  , -9.784565   , -0.000238954322, -0.000361442915, -0.0004014555, -0.010768719, -0.0140946684, 5.79990738E-05, 918.3141    , 32.5547752  , 822.5371    , 1.75        , 3           , 255         , 0           , 0
-0.136536211, 0.11175897  , -9.783345   , -1.64064113E-05, -1.91824511E-05, -9.458102E-05, -0.010768869, -0.0140948705, 5.70553129E-05, 918.3141    , 32.5547752  , 822.5373    , 1.76        , 3           , 255         , 0           , 0
-0.139576137, 0.108303763 , -9.803096   , 0.000243597664, -0.0001237652, -0.000165220874, -0.0107664093, -0.014096125, 5.54164071E-05, 918.3141    , 32.5547752  , 822.5375    , 1.77        , 3           , 255         , 0           , 0
-0.134168833, 0.11429061  , -9.810307   , 0.00012808881, 0.000167062273, -3.72054055E-05, -0.0107651232, -0.014094458, 5.502636E-05, 918.3141    , 32.5547752  , 822.537659  , 1.78        , 3           , 255         , 0           , 0
-0.136093915, 0.1138597   , -9.792056   , 0.000199307047, -0.000193574349, -0.000280003, -0.010763092, -0.014096424, 5.224712E-05, 918.3141    , 32.5547752  , 822.537842  , 1.79        , 3           , 255         , 0           , 0
-0.134496421, 0.11068739  , -9.785507   , -0.000120351557, -0.00015443319, 0.0003405213, -0.0107643446, -0.0140979318, 5.56690175E-05, 918.3141    , 32.5547752  , 822.538     , 1.8         , 3           , 255         , 0           , 0
-0.130670547, 0.106067106 , -9.787607   , 0.000394755218, -0.000208038138, 0.000147837563, -0.0107574407, -0.0140945176, 5.71278433E-05, 918.3141    , 32.5547752  , 822.497742  , 1.81        , 3           , 255         , 0           , 0
-0.146819   , 0.09861368  , -9.794642   , 0.000224566553, -0.0004326041, -0.0005630598, -0.0107551171, -0.0140989032, 5.154368E-05, 918.3141    , 32.5547752  , 822.4977    , 1.82        , 3           , 255         , 0           , 0
-0.14422062 , 0.100719057 , -9.795872   , 0.000716066337, -8.396525E-05, -0.000481929252, -0.0107478891, -0.0140997944, 4.673335E-05, 918.331665  , 32.55233    , 822.4976    , 1.83        , 3           , 255         , 0           , 0
-0.1417964  , 0.09942995  , -9.80047    , 0.000385847758, 0.00022553216, 0.00019913564, -0.0107440576, -0.01409752 , 4.87004945E-05, 918.331665  , 32.55233    , 822.497559  , 1.84        , 3           , 255         , 0           , 0
-0.130435318, 0.104644753 , -9.782928   , 0.0007923498, -0.0001901231, -0.000290608645, -0.0107360939, -0.0140994508, 4.5814777E-05, 918.331665  , 32.55233    , 822.4975    , 1.85        , 3           , 255         , 0           , 0
-0.136851743, 0.108766809 , -9.783666   , 0.0007711441, -0.00017992151, -8.093551E-05, -0.0107283713, -0.0141012575, 4.502471E-05, 918.331665  , 32.55233    , 822.497437  , 1.86        , 3           , 255         , 0           , 0
-0.142486662, 0.112496153 , -9.791689   , 0.000237048022, -7.958396E-05, 0.0005076657, -0.0107260719, -0.0141019989, 5.010999E-05, 918.331665  , 32.55233    , 822.4974    , 1.87        , 3           , 255         , 0           , 0
-0.152728349, 0.115085244 , -9.798682   , 0.000192465726, -0.000254017417, 2.03653035E-05, -0.0107241515, -0.0141045367, 5.03408919E-05, 918.331665  , 32.55233    , 822.4973    , 1.88        , 3           , 255         , 0           , 0
-0.143418491, 0.119831547 , -9.806462   , 0.00016581564, 0.000470256084, -0.0008544936, -0.0107223717, -0.0140999276, 4.17453957E-05, 918.331665  , 32.55233    , 822.4973    , 1.89        , 3           , 255         , 0           , 0
-0.1411937  , 0.119193412 , -9.793852   , 2.576108E-05, 0.000178880931, -0.000333978183, -0.0107220663, -0.0140981739, 3.83863735E-05, 918.331665  , 32.55233    , 822.4973    , 1.9         , 3           , 255         , 0           , 0
-0.145316511, 0.107743382 , -9.786806   , 0.000466005527, -0.00020525849, 1.94914173E-06, -0.0107253315, -0.0141073409, 3.85396525E-05, 918.331665  , 32.55233    , 822.440063  , 1.91        , 3           , 255         , 0           , 0
-0.139184862, 0.105630279 , -9.795651   , -0.000304447254, -0.000408115564, 0.0006391759, -0.0107284663, -0.014111354, 4.49753024E-05, 918.331665  , 32.55233    , 822.4397    , 1.92        , 3           , 255         , 0           , 0
-0.141545355, 0.10603416  , -9.80304    , 0.000183923868, -0.000372659881, 0.000577764236, -0.0107267089, -0.0141150178, 5.079302E-05, 918.23      , 32.5560646  , 822.439331  , 1.93        , 3           , 255         , 0           , 0
-0.133790746, 0.112167314 , -9.8081     , -0.000106275082, -0.00012313365, 0.000111564354, -0.0107277883, -0.0141162379, 5.19218956E-05, 918.23      , 32.5560646  , 822.438965  , 1.94        , 3           , 255         , 0           , 0
-0.130568847, 0.107413486 , -9.791359   , 0.0003179392, -0.000442136778, 0.000148908977, -0.0107246274, -0.014120643, 5.3458436E-05, 918.23      , 32.5560646  , 822.4386    , 1.95        , 3           , 255         , 0           , 0
-0.132270634, 0.103019774 , -9.788762   , 0.000332594442, 0.000136315473, 2.63746188E-05, -0.0107213063, -0.0141192786, 5.370757E-05, 918.23      , 32.5560646  , 822.438232  , 1.96        , 3           , 255         , 0           , 0
-0.1358038  , 0.104504243 , -9.789103   , -0.000103592989, 8.096942E-05, 5.31631376E-05, -0.0107223494, -0.0141184637, 5.42305279E-05, 918.23      , 32.5560646  , 822.437866  , 1.97        , 3           , 255         , 0           , 0
-0.139002   , 0.104329847 , -9.804629   , 0.000501625531, -0.000588048948, -0.000157672708, -0.0107173119, -0.014124359, 5.27168158E-05, 918.23      , 32.5560646  , 822.4375    , 1.98        , 3           , 255         , 0           , 0
-0.149052322, 0.10039518  , -9.802996   , 0.0003847839, -8.8112196E-05, -0.000283051981, -0.0107134245, -0.01412527 , 4.989569E-05, 918.23      , 32.5560646  , 822.437134  , 1.99        , 3           , 255         , 0           , 0
-0.145297974, 0.109614924 , -9.801555   , 9.35421558E-05, 2.07852572E-05, -2.38139764E-05, -0.0107124858, -0.0141250649, 4.96553221E-05, 918.23      , 32.5560646  , 822.436768  , 2           , 3           , 0           , 7.88823652  , 200
-0.141869724, 0.108145833 , -9.791013   , 0.000558743137, 0.000231664977, 0.000314311648, -0.0107088368, -0.01412431 , 5.28004457E-05, 918.23      , 32.5560646  , 822.50824   , 2.01        , 3           , 1           , 0           , 0
-0.142235711, 0.101302885 , -9.789854   , 2.00393843E-05, -0.00016046816, -0.000335410441, -0.01070859 , -0.01412595 , 4.946347E-05, 918.23      , 32.5560646  , 822.508362  , 2.02        , 3           , 2           , 0           , 0
-0.130834118, 0.103351012 , -9.786573   , 4.82709147E-05, -0.000133471447, 0.000157062052, -0.01070813 , -0.0141272685, 5.104841E-05, 918.2835    , 32.55776    , 822.5085    , 2.03        , 3           , 3           , 0           , 0
-0.136259228, 0.112068966 , -9.806627   , 0.000401251542, -0.000418692362, 0.000128339991, -0.0107041383, -0.0141314417, 5.237666E-05, 918.2835    , 32.55776    , 822.5086    , 2.04        , 3           , 4           , 0           , 0
-0.143139   , 0.10890846  , -9.800558   , 0.000147043727, -0.0005962369, -0.000358731922, -0.0107026165, -0.0141374422, 4.885309E-05, 918.2835    , 32.55776    , 822.5087    , 2.05        , 3           , 5           , 0           , 0
-0.145654723, 0.103228547 , -9.796588   , 6.315694E-05, -0.0002758887, -0.000493073, -0.0107019152, -0.014140253, 4.3951808E-05, 918.2835    , 32.55776    , 822.50885   , 2.06        , 3           , 6           , 0           , 0
-0.14386341 , 0.106866047 , -9.793165   , 0.00060521  , 9.681727E-05, -0.000385042018, -0.0106958095, -0.0141393263, 4.009097E-05, 918.2835    , 32.55776    , 822.509     , 2.07        , 3           , 7           , 0           , 0
-0.139450535, 0.101140819 , -9.791109   , 0.000206906057, 7.557636E-05, -0.0006984968, -0.0106936414, -0.0141386455, 3.30977928E-05, 918.2835    , 32.55776    , 822.5091    , 2.08        , 3           , 8           , 5           , 5
-0.144133   , 0.095967114 , -9.798854   , 0.00012134877, 8.907844E-05, -0.000158476789, -0.0106924046, -0.0141377719, 3.1503474E-05, 918.2835    , 32.55776    , 822.5092    , 2.09        , 3           , 9           , 5           , 0.1
-0.146707252, 0.100766376 , -9.801718   , 0.000414364331, 9.199022E-05, 7.895286E-05, -0.0106882742, -0.0141368434, 3.22831875E-05, 918.2835    , 32.55776    , 822.509338  , 2.1         , 3           , 10          , 0.1         , 0.1
-0.138443038, 0.1141449   , -9.78733    , 0.0003210614, -0.000200678129, 4.01756843E-05, -0.0106836958, -0.0141448248, 3.268698E-05, 918.2835    , 32.55776    , 822.507446  , 2.11        , 3           , 11          , 0.008375013 , 0.008375013
-0.132812411, 0.104675271 , -9.789576   , 0.00013935921, 5.76811144E-05, -9.195763E-06, -0.0106823016, -0.0141442483, 3.25888541E-05, 918.2835    , 32.55776    , 822.507568  , 2.12        , 3           , 12          , 0.174643889 , 0
-0.1383127  , 0.105911054 , -9.796191   , -7.444457E-05, 4.134944E-05, -0.0002730748, -0.0106830066, -0.0141438646, 2.98536379E-05, 918.291138  , 32.5557251  , 822.5077    , 2.13        , 3           , 13          , 0           , 0
-0.143867627, 0.113203071 , -9.80131    , 0.000187833677, 4.46840422E-05, -0.0005848957, -0.0106810462, -0.01414348 , 2.3999808E-05, 918.291138  , 32.5557251  , 822.5078    , 2.14        , 3           , 14          , -0.00102990726, -0.00109558681
-0.14517    , 0.109784089 , -9.802391   , 0.000458631723, -0.000174163026, -0.0003558148, -0.01067641 , -0.01414526 , 2.046019E-05, 918.291138  , 32.5557251  , 822.507935  , 2.15        , 3           , 15          , 0           , -0.000247527525
-0.1478817  , 0.10197854  , -9.795359   , 0.000368589244, -0.00032591424, -0.0004682688, -0.01067266 , -0.0141485687, 1.58122057E-05, 918.291138  , 32.5557251  , 822.508057  , 2.16        , 3           , 16          , 0           , 1.401298E-45
-0.14234373 , 0.106425442 , -9.795084   , -0.000306870556, -0.000224760734, -5.401735E-05, -0.010675719, -0.0141508216, 1.529602E-05, 918.291138  , 32.5557251  , 822.5082    , 2.17        , 3           , 20          , 0           , 0
-0.12902835 , 0.113678515 , -9.791201   , -0.000116574462, -0.000343948021, -6.07624825E-05, -0.0106768766, -0.0141542675, 1.47251021E-05, 918.291138  , 32.5557251  , 822.5083    , 2.18        , 3           , 21          , 0           , 0
-0.122925483, 0.110353008 , -9.789328   , -1.64716039E-05, -3.1569507E-06, -0.000345787063, -0.0106769921, -0.0141543364, 1.12675125E-05, 918.291138  , 32.5557251  , 822.5084    , 2.19        , 3           , 22          , 0           , 0
-0.1247678  , 0.109493278 , -9.805397   , -0.000288266921, -5.75040467E-05, -0.0005616137, -0.0106797963, -0.0141549725, 5.65741266E-06, 918.291138  , 32.5557251  , 822.508545  , 2.2         , 3           , 40          , 0           , 0
-0.141895384, 0.100199416 , -9.795247   , 4.44193138E-05, 8.52241646E-05, 8.11120844E-05, -0.0106882453, -0.0141500114, 6.58511772E-06, 918.291138  , 32.5557251  , 822.497     , 2.21        , 3           , 41          , 0           , 0
-0.146512061, 0.107134238 , -9.789312   , 0.000198736729, 0.000129219843, 0.000513143255, -0.0106863305, -0.0141486647, 1.1702833E-05, 918.291138  , 32.5557251  , 822.4971    , 2.22        , 3           , 42          , 0           , 0
-0.149693921, 0.106611334 , -9.798281   , -2.338225E-05, 0.000105837709, 0.000678506331, -0.0106866593, -0.014147534, 1.84767177E-05, 918.3008    , 32.5547066  , 822.497131  , 2.23        , 3           , 255         , 0           , 0
-0.1458944  , 0.104322888 , -9.795599   , -0.000437183771, 0.0002134841, 6.593281E-05, -0.01069104 , -0.0141453929, 1.91132349E-05, 918.3008    , 32.5547066  , 822.4972    , 2.24        , 3           , 255         , 0           , 0
-0.134718239, 0.109067038 , -9.792813   , -6.32620649E-05, 0.000303317443, 0.0005053708, -0.0106917433, -0.0141423047, 2.41346042E-05, 918.3008    , 32.5547066  , 822.497253  , 2.25        , 3           , 255         , 0           , 0
-0.142048821, 0.1001662   , -9.797178   , -0.0003736465, -2.61201058E-06, 0.000302856963, -0.0106955227, -0.0141422991, 2.716351E-05, 918.3008    , 32.5547066  , 822.4973    , 2.26        , 3           , 255         , 0           , 0
-0.149924889, 0.0995970741, -9.795172   , -0.000195677276, -1.82563672E-05, -0.000148842373, -0.01069746 , -0.0141424984, 2.567702E-05, 918.3008    , 32.5547066  , 822.4974    , 2.27        , 3           , 255         , 0           , 0
-0.136129335, 0.09631811  , -9.794378   , -0.000617010053, -2.93296762E-05, -0.000277217041, -0.01070359 , -0.0141428215, 2.29079415E-05, 918.3008    , 32.5547066  , 822.497437  , 2.28        , 3           , 255         , 0           , 0
-0.145057842, 0.1027468   , -9.788302   , -0.00017042039, -0.000124400482, 0.000534431252, -0.0107053714, -0.014144009, 2.82656656E-05, 918.3008    , 32.5547066  , 822.4975    , 2.29        , 3           , 255         , 0           , 0
-0.149900585, 0.104330227 , -9.792041   , -4.41386364E-05, 0.000277146231, 0.000164514946, -0.0107058352, -0.01414122 , 2.98811738E-05, 918.3008    , 32.5547066  , 822.497559  , 2.3         , 3           , 255         , 0           , 0
-0.144885972, 0.09772112  , -9.802381   , 0.000292651763, -3.04344576E-06, -1.79986819E-06, -0.0106992722, -0.0141535653, 2.98120485E-05, 918.3008    , 32.5547066  , 822.4747    , 2.31        , 3           , 255         , 0           , 0
-0.142971158, 0.106269695 , -9.800787   , 0.000475346053, -0.000135094626, 1.40833436E-06, -0.01069452 , -0.0141549157, 2.98405776E-05, 918.3008    , 32.5547066  , 822.4746    , 2.32        , 3           , 255         , 0           , 0
-0.138603285, 0.107261285 , -9.793198   , 0.00029960915, 0.000120949349, -0.0004795524, -0.0106914546, -0.0141537609, 2.50320354E-05, 918.267     , 32.5555878  , 822.474548  , 2.33        , 3           , 255         , 0           , 0
-0.1243013  , 0.1039603   , -9.790564   , 0.000410723151, 0.00010272779, 0.000272795762, -0.0106873866, -0.0141527019, 2.77490562E-05, 918.267     , 32.5555878  , 822.4745    , 2.34        , 3           , 255         , 0           , 0
-0.126471639, 0.110563993 , -9.802678   , -6.309827E-06, 0.00020091061, 0.000477118418, -0.010687517, -0.0141506419, 3.24988541E-05, 918.267     , 32.5555878  , 822.4744    , 2.35        , 3           , 255         , 0           , 0
-0.135671586, 0.109123945 , -9.802508   , 2.56320927E-05, 0.00044946227, 0.0003882693, -0.0106873149, -0.0141461063, 3.63335821E-05, 918.267     , 32.5555878  , 822.474365  , 2.36        , 3           , 255         , 0           , 0
-0.122664616, 0.106039427 , -9.797346   , -2.39545479E-05, 0.000169279345, 0.0004589596, -0.0106876194, -0.0141443647, 4.09051681E-05, 918.267     , 32.5555878  , 822.4743    , 2.37        , 3           , 255         , 0           , 0
-0.133751959, 0.09842151  , -9.794769   , 0.000607537 , 2.68247677E-05, -0.0006380754, -0.0106814541, -0.0141441673, 3.452144E-05, 918.267     , 32.5555878  , 822.474243  , 2.38        , 3           , 255         , 0           , 0
-0.143717915, 0.104917988 , -9.794806   , 0.000459041563, 0.00043491472, -0.000292676763, -0.0106768208, -0.0141398506, 3.15481739E-05, 918.267     , 32.5555878  , 822.4742    , 2.39        , 3           , 255         , 0           , 0
-0.152237132, 0.102223709 , -9.790162   , 0.000274957216, 0.000190349936, 0.0007098656, -0.010674173, -0.0141378716, 3.862664E-05, 918.267     , 32.5555878  , 822.4741    , 2.4         , 3           , 255         , 0           , 0
-0.144157737, 0.1029055   , -9.792616   , 0.000576632156, 0.000266018265, 0.0002007141, -0.01066833 , -0.0141313747, 4.06039653E-05, 918.267     , 32.5555878  , 822.498535  , 2.41        , 3           , 255         , 0           , 0
-0.14909485 , 0.110308334 , -9.788389   , 0.000396442658, 0.000320879044, -0.000224769086, -0.0106643345, -0.01412819 , 3.83220067E-05, 918.267     , 32.5555878  , 822.498657  , 2.42        , 3           , 255         , 0           , 0
-0.1437801  , 0.110999309 , -9.796353   , 0.000521206239, 0.000152906054, 8.53245147E-05, -0.0106591349, -0.0141266556, 3.91589565E-05, 918.294739  , 32.55803    , 822.4988    , 2.43        , 3           , 255         , 0           , 0
-0.137302935, 0.09951253  , -9.802394   , 0.000426747021, -3.03030247E-05, 7.825706E-05, -0.0106548769, -0.0141269481, 3.99447745E-05, 918.294739  , 32.55803    , 822.4989    , 2.44        , 3           , 255         , 0           , 0
-0.138055623, 0.112860546 , -9.803796   , -0.0002901348, -0.000170175335, 8.0693324E-05, -0.01065779 , -0.0141286422, 4.07698572E-05, 918.294739  , 32.55803    , 822.499     , 2.45        , 3           , 255         , 0           , 0
-0.128957137, 0.118639708 , -9.799143   , -0.0003398694, -0.000515086, 0.000312956 , -0.0106612341, -0.0141337588, 4.39543765E-05, 918.294739  , 32.55803    , 822.499146  , 2.46        , 3           , 255         , 0           , 0
-0.129301161, 0.115658619 , -9.795953   , -0.000730865751, -7.35721551E-05, 0.000434952177, -0.0106686018, -0.0141344462, 4.831181E-05, 918.294739  , 32.55803    , 822.499268  , 2.47        , 3           , 255         , 0           , 0
-0.142159864, 0.109010026 , -9.795451   , -0.000193852233, 0.0003024898, 0.000875607366, -0.0106706657, -0.0141313281, 5.70357552E-05, 918.294739  , 32.55803    , 822.4994    , 2.48        , 3           , 255         , 0           , 0
-0.143182069, 0.10977076  , -9.795262   , 9.52633563E-05, 0.000133653113, -0.000478145928, -0.0106696431, -0.0141300429, 5.223995E-05, 918.294739  , 32.55803    , 822.4995    , 2.49        , 3           , 255         , 0           , 0
-0.145558551, 0.104024813 , -9.795137   , -0.00016033987, -0.000135520007, 9.814539E-05, -0.0106712626, -0.0141313868, 5.32358827E-05, 918.294739  , 32.55803    , 822.499634  , 2.5         , 3           , 255         , 0           , 0
-0.13654843 , 0.1131976   , -9.795568   , 6.12651347E-05, -0.000269483775, 0.00040991616, -0.0106796324, -0.0141371526, 5.74900732E-05, 918.294739  , 32.55803    , 822.484     , 2.51        , 3           , 255         , 0           , 0
-0.138958231, 0.107020952 , -9.793958   , -0.000300430343, 2.56835483E-06, -0.000229522353, -0.0106826061, -0.0141371526, 5.5194545E-05, 918.294739  , 32.55803    , 822.484     , 2.52        , 3           , 255         , 0           , 0
-0.1462097  , 0.108481467 , -9.802132   , -0.000470317435, -0.000286767725, -0.000365420477, -0.0106872572, -0.0141400574, 5.157091E-05, 918.341248  , 32.5569458  , 822.484     , 2.53        , 3           , 255         , 0           , 0
-0.140395761, 0.111149907 , -9.795785   , 4.68560029E-05, 0.0002807005, 0.00016500293, -0.0106868111, -0.0141372327, 5.319097E-05, 918.341248  , 32.5569458  , 822.484     , 2.54        , 3           , 255         , 0           , 0
-0.133916467, 0.103804745 , -9.80024    , -8.946727E-05, 0.000254474464, -0.000112437905, -0.01068769 , -0.0141346995, 5.20393769E-05, 918.341248  , 32.5569458  , 822.484     , 2.55        , 3           , 255         , 0           , 0
-0.130954072, 0.101107344 , -9.797911   , 0.000104685256, 0.000133038789, -0.00139167928, -0.010686446, -0.0141335195, 3.81081154E-05, 918.341248  , 32.5569458  , 822.484     , 2.56        , 3           , 255         , 0           , 0
-0.137538284, 0.09295054  , -9.793452   , 0.0004781416, -0.000141056487, -0.0009800503, -0.0106815267, -0.014135032, 2.83224981E-05, 918.341248  , 32.5569458  , 822.484     , 2.57        , 3           , 255         , 0           , 0
-0.1416359  , 0.08990927  , -9.789805   , -4.2047468E-05, -0.000100158388, 0.000224530959, -0.0106819775, -0.0141360117, 3.0578547E-05, 918.341248  , 32.5569458  , 822.484     , 2.58        , 3           , 255         , 0           , 0
-0.140066087, 0.09148023  , -9.793653   , -0.000480096322, 0.0003871972, 9.129729E-05, -0.0106867915, -0.01413213 , 3.1450174E-05, 918.341248  , 32.5569458  , 822.484     , 2.59        , 3           , 255         , 0           , 0
-0.1490185  , 0.100029066 , -9.796884   , -6.205158E-05, 0.000310582749, -0.0001733253, -0.0106873866, -0.0141290426, 2.96836915E-05, 918.341248  , 32.5569458  , 822.4841    , 2.6         , 3           , 255         , 0           , 0
-0.146640211, 0.106591    , -9.796132   , 0.0002695314, 0.0005887337, -0.000194553024, -0.0106795738, -0.0141250705, 2.76033225E-05, 918.341248  , 32.5569458  , 822.40686   , 2.61        , 3           , 255         , 0           , 0
-0.146072552, 0.106283046 , -9.799665   , 0.0002916078, 0.0003173771, -0.0005801103, -0.0106765749, -0.014121959, 2.17682227E-05, 918.341248  , 32.5569458  , 822.4064    , 2.62        , 3           , 255         , 0           , 0
-0.146675542, 0.10344927  , -9.795935   , 0.000193615735, 0.000352773059, 0.000157285031, -0.010674661, -0.0141184144, 2.33034389E-05, 918.283752  , 32.559185   , 822.4059    , 2.63        , 3           , 255         , 0           , 0
-0.145923212, 0.09972626  , -9.793008   , -0.000269409735, 0.0005874726, 0.000547984033, -0.0106774326, -0.0141124818, 2.87206658E-05, 918.283752  , 32.559185   , 822.405457  , 2.64        , 3           , 255         , 0           , 0
-0.129057661, 0.100532696 , -9.797824   , -0.000409240369, -0.0001167123, -9.949549E-05, -0.0106815118, -0.01411366 , 2.77381587E-05, 918.283752  , 32.559185   , 822.405     , 2.65        , 3           , 255         , 0           , 0
-0.1302408  , 0.108868696 , -9.793754   , 0.000419279851, -0.000278942636, 9.739374E-05, -0.0106773321, -0.0141164372, 2.87419116E-05, 918.283752  , 32.559185   , 822.4046    , 2.66        , 3           , 255         , 0           , 0
-0.130574375, 0.110783875 , -9.78548    , 0.000145645754, 0.0006146855, 4.9795548E-05, -0.0106758811, -0.0141102858, 2.9174249E-05, 918.283752  , 32.559185   , 822.4042    , 2.67        , 3           , 255         , 0           , 0
-0.129010484, 0.118059017 , -9.805796   , 3.87382461E-05, 0.000111886882, -7.111483E-05, -0.0106754852, -0.0141091757, 2.84511443E-05, 918.283752  , 32.559185   , 822.403748  , 2.68        , 3           , 255         , 0           , 0
-0.136915088, 0.118302524 , -9.792621   , 0.000285898917, 1.81436772E-05, -0.000343761058, -0.0106725767, -0.01410903 , 2.50115336E-05, 918.283752  , 32.559185   , 822.4033    , 2.69        , 3           , 255         , 0           , 0
-0.149807811, 0.118618883 , -9.789633   , 0.000251602847, -0.000449861516, -0.000303100736, -0.0106700175, -0.01411356 , 2.202848E-05, 918.283752  , 32.559185   , 822.4029    , 2.7         , 3           , 255         , 0           , 0
-0.147194147, 0.11427965  , -9.793309   , 8.709374E-05, 0.000144205929, -0.000437136856, -0.0106776226, -0.0141137466, 1.77621387E-05, 918.283752  , 32.559185   , 822.4152    , 2.71        , 3           , 255         , 0           , 0
-0.155733839, 0.1025754   , -9.790989   , -0.000187126454, 0.000174420187, 3.69325E-05 , -0.0106794992, -0.0141119985, 1.8112838E-05, 918.283752  , 32.559185   , 822.414856  , 2.72        , 3           , 255         , 0           , 0
-0.155093744, 0.102494694 , -9.787721   , 8.833676E-05, -0.00012023712, 3.018009E-06, -0.0106786164, -0.0141132008, 1.81558717E-05, 918.2713    , 32.55742    , 822.4145    , 2.73        , 3           , 255         , 0           , 0
-0.136113763, 0.110088907 , -9.793216   , -0.000142900273, 0.0007732125, 0.000237042434, -0.0106800776, -0.0141054438, 2.04437656E-05, 918.2713    , 32.55742    , 822.4141    , 2.74        , 3           , 255         , 0           , 0
-0.12771368 , 0.104521312 , -9.80237    , -7.164967E-05, 0.0004409892, 0.0002472427, -0.0106808292, -0.014101008, 2.286913E-05, 918.2713    , 32.55742    , 822.413757  , 2.75        , 3           , 255         , 0           , 0
-0.12805371 , 0.106757924 , -9.796661   , -0.0001510653, 0.000152063032, 0.0003630495, -0.010682391, -0.0140994489, 2.64834453E-05, 918.2713    , 32.55742    , 822.4134    , 2.76        , 3           , 255         , 0           , 0
-0.1358714  , 0.1115192   , -9.792675   , -0.0002725895, -3.089162E-05, 0.000568581745, -0.0106851971, -0.0140996976, 3.217267E-05, 918.2713    , 32.55742    , 822.413     , 2.77        , 3           , 255         , 0           , 0
-0.142839372, 0.112495437 , -9.791503   , 0.000457236543, -5.86671522E-05, 0.000307167677, -0.0106806681, -0.0141002508, 3.5250665E-05, 918.2713    , 32.55742    , 822.412659  , 2.78        , 3           , 255         , 0           , 0
-0.157785252, 0.112485334 , -9.784479   , 0.000101007521, 0.000159703777, 0.000665528642, -0.0106797516, -0.0140985809, 4.188901E-05, 918.2713    , 32.55742    , 822.4123    , 2.79        , 3           , 255         , 0           , 0
-0.1483867  , 0.1124442   , -9.787291   , -9.284308E-05, -0.000196614768, 0.000325818255, -0.0106807267, -0.0141005134, 4.516825E-05, 918.2713    , 32.55742    , 822.4119    , 2.8         , 3           , 255         , 0           , 0
-0.131106779, 0.109567367 , -9.790535   , -0.000488555641, -0.000535766361, 0.000761081232, -0.0106956009, -0.0141178975, 5.29759163E-05, 918.2713    , 32.55742    , 822.440735  , 2.81        , 3           , 255         , 0           , 0
-0.136714071, 0.106931821 , -9.80351448 , -6.789563E-05, -0.0004434248, 0.0004040655, -0.0106963385, -0.0141222887, 5.706408E-05, 918.2713    , 32.55742    , 822.440552  , 2.82        , 3           , 255         , 0           , 0
-0.137459725, 0.0930424556, -9.784199   , 0.000268167118, -0.0007163425, -4.625405E-05, -0.01069365 , -0.0141294571, 5.66781455E-05, 918.301636  , 32.55864    , 822.440369  , 2.83        , 3           , 255         , 0           , 0
-0.134589255, 0.09236938  , -9.781104   , 0.000673941337, -0.000205399934, -0.000163416611, -0.0106868884, -0.0141315283, 5.50659133E-05, 918.301636  , 32.55864    , 822.4402    , 2.84        , 3           , 255         , 0           , 0
-0.139654562, 0.109111309 , -9.789549   , 0.0005717398, 8.30235658E-05, 0.000353414915, -0.01068122 , -0.01413066 , 5.859126E-05, 918.301636  , 32.55864    , 822.44      , 2.85        , 3           , 255         , 0           , 0
-0.146370471, 0.114755914 , -9.798401   , 0.000707848056, 8.776353E-05, 0.000306421425, -0.0106741861, -0.0141297495, 6.16461548E-05, 918.301636  , 32.55864    , 822.4398    , 2.86        , 3           , 255         , 0           , 0
-0.14832598 , 0.114613913 , -9.784907   , 0.000373925723, -0.000126894214, 0.0005713074, -0.0106705269, -0.0141309574, 6.737288E-05, 918.301636  , 32.55864    , 822.4397    , 2.87        , 3           , 255         , 0           , 0
-0.148808613, 0.10872028  , -9.793186   , 8.68440256E-05, -0.0003983446, 0.000770510756, -0.0106697679, -0.0141348587, 7.51206244E-05, 918.301636  , 32.55864    , 822.4396    , 2.88        , 3           , 255         , 0           , 0
-0.148906469, 0.102648593 , -9.796227   , 0.0006704687, -0.000242215348, 0.000317328784, -0.010663108, -0.0141372466, 7.831979E-05, 918.301636  , 32.55864    , 822.439453  , 2.89        , 3           , 255         , 0           , 0
-0.133659765, 0.102268413 , -9.794409   , -0.000173212378, -0.000222117058, 0.0006011147, -0.0106649268, -0.0141394036, 8.43547459E-05, 918.301636  , 32.55864    , 822.439331  , 2.9         , 3           , 255         , 0           , 0
-0.133714721, 0.09959207  , -9.794544   , 0.0002843308, 0.0005548618, 0.000347076333, -0.0106639443, -0.0141388131, 8.779204E-05, 918.301636  , 32.55864    , 822.4219    , 2.91        , 3           , 255         , 0           , 0
-0.135038972, 0.09578315  , -9.80456352 , 0.000170861371, 0.000183979573, 0.00044704508, -0.0106622986, -0.0141369253, 9.224295E-05, 918.301636  , 32.55864    , 822.421631  , 2.92        , 3           , 255         , 0           , 0
-0.1296947  , 0.09203173  , -9.78628349 , -5.10002719E-05, 0.0002534142, -0.0004363132, -0.0106627485, -0.0141344368, 8.78527353E-05, 918.306763  , 32.5583     , 822.4214    , 2.93        , 3           , 255         , 0           , 0
-0.136758178, 0.100660108 , -9.799886   , 0.0003204125, 0.000116997864, 0.000125923485, -0.0106595606, -0.0141332541, 8.909953E-05, 918.306763  , 32.5583     , 822.421143  , 2.94        , 3           , 255         , 0           , 0
-0.138373181, 0.112420835 , -9.789452   , 0.000343532185, 0.000307043141, 0.000487357669, -0.0106561948, -0.0141301351, 9.394046E-05, 918.306763  , 32.5583     , 822.4209    , 2.95        , 3           , 255         , 0           , 0
-0.1390426  , 0.123475865 , -9.787643   , 0.0004338324, 0.0005487146, 1.8975581E-05, -0.0106518595, -0.0141246459, 9.40717655E-05, 918.306763  , 32.5583     , 822.420654  , 2.96        , 3           , 255         , 0           , 0
-0.141308188, 0.105557725 , -9.797411   , 0.0002929191, -3.74638475E-05, 0.000135201481, -0.0106489491, -0.0141250063, 9.542779E-05, 918.306763  , 32.5583     , 822.4204    , 2.97        , 3           , 255         , 0           , 0
-0.145921975, 0.09548884  , -9.79324    , -1.164386E-06, 0.000151930435, 0.000214729575, -0.0106489919, -0.014123464, 9.755895E-05, 918.306763  , 32.5583     , 822.420166  , 2.98        , 3           , 255         , 0           , 0
-0.14536801 , 0.09997044  , -9.793958   , -2.09116843E-06, 0.00013333268, 0.000309581752, -0.0106490552, -0.0141220987, 0.000100640616, 918.306763  , 32.5583     , 822.4199    , 2.99        , 3           , 255         , 0           , 0
-0.130056739, 0.113701358 , -9.793651   , -0.000190667342, 9.037135E-05, -0.000202636846, -0.0106509328, -0.0141212158, 9.86045852E-05, 918.306763  , 32.5583     , 822.4197    , 3           , 3           , 0           , 8.888237    , 300
-0.13269943 , 0.118941389 , -9.794043   , 0.000561137742, -7.2120456E-05, -0.0001590882, -0.0106443176, -0.0141202593, 9.700752E-05, 918.306763  , 32.5583     , 822.3976    , 3.01        , 3           , 1           , 0           , 0
-0.127122074, 0.110770248 , -9.795057   , 0.00025240262, 0.000234007835, -0.000277967454, -0.0106417555, -0.0141179487, 9.42028855E-05, 918.306763  , 32.5583     , 822.3972    , 3.02        , 3           , 2           , 0           , 0
-0.135884464, 0.1072435   , -9.783653   , 5.659624E-05, 0.0005210516, 0.000142343575, -0.0106412079, -0.0141127221, 9.557089E-05, 918.2691    , 32.5588455  , 822.396851  , 3.03        , 3           , 3           , 0           , 0
-0.1383461  , 0.106000677 , -9.794649   , 0.000326403067, -3.62508E-05, 0.000139264666, -0.0106379632, -0.0141130695, 9.696742E-05, 918.2691    , 32.5588455  , 822.3965    , 3.04        , 3           , 4           , 0           , 0
-0.137221143, 0.109951057 , -9.790054   , -0.0001362206, -0.000305808382, 0.000116138195, -0.0106393434, -0.0141161149, 9.81613557E-05, 918.2691    , 32.5588455  , 822.3961    , 3.05        , 3           , 5           , 0           , 0
-0.1385233  , 0.117696188 , -9.796631   , -0.000242627226, -0.0005066908, 2.41591479E-05, -0.0106417742, -0.01412118 , 9.845687E-05, 918.2691    , 32.5588455  , 822.395752  , 3.06        , 3           , 6           , 0           , 0
-0.133043081, 0.112684689 , -9.806335   , -5.740591E-05, -1.57197937E-05, -4.93734842E-06, -0.0106423469, -0.0141213378, 9.84091748E-05, 918.2691    , 32.5588455  , 822.3954    , 3.07        , 3           , 7           , 0           , 0
-0.139111832, 0.0992212147, -9.797299   , 0.000218775938, -0.000117749674, 0.0005222958, -0.0106402338, -0.0141224591, 0.000103644757, 918.2691    , 32.5588455  , 822.395     , 3.08        , 3           , 8           , 5           , 5
-0.136039227, 0.08641721  , -9.797241   , 0.000368823064, -9.647093E-05, -0.0007532708, -0.0106364386, -0.0141235041, 9.612219E-05, 918.2691    , 32.5588455  , 822.394653  , 3.09        , 3           , 9           , 5           , 0.1
-0.137035415, 0.0823778361, -9.794888   , 0.000329980219, 0.000257520354, -0.000245826872, -0.0106331045, -0.014120955, 9.363648E-05, 918.2691    , 32.5588455  , 822.3943    , 3.1         , 3           , 10          , 0.1         , 0.1
-0.1329243  , 0.0949553   , -9.798941   , -0.00021092908, 8.64695758E-05, 0.000381802965, -0.0106368875, -0.01411517 , 9.746826E-05, 918.2691    , 32.5588455  , 822.42926   , 3.11        , 3           , 11          , 0.007614943 , 0.00761494227
-0.127273753, 0.1019655   , -9.797789   , 0.000114457856, -0.000338942278, 9.124141E-05, -0.010635755, -0.01411855 , 9.841675E-05, 918.2691    , 32.5588455  , 822.429138  , 3.12        , 3           , 12          , 0.174645633 , 0
-0.136807412, 0.110393226 , -9.78803    , 9.292195E-05, 0.000164934667, -0.0006637506, -0.0106347324, -0.0141169708, 9.176158E-05, 918.359131  , 32.5593872  , 822.429     , 3.13        , 3           , 13          , 0           , 0
-0.155105561, 0.109753869 , -9.78373    , -0.000222157454, 3.19706742E-05, -0.000126520958, -0.0106369359, -0.0141166644, 9.049294E-05, 918.359131  , 32.5593872  , 822.4289    , 3.14        , 3           , 14          , -0.00102979457, -0.00109550753
-0.168163955, 0.109543219 , -9.79521751 , -7.332233E-05, -4.21297736E-05, -0.000968823733, -0.010637532, -0.0141171869, 8.080901E-05, 918.359131  , 32.5593872  , 822.4288    , 3.15        , 3           , 15          , 0           , -0.000247528253
-0.152247727, 0.117227316 , -9.79186    , 0.0004729117, -3.6301557E-05, -0.000909690571, -0.0106326742, -0.01411765 , 7.171579E-05, 918.359131  , 32.5593872  , 822.42865   , 3.16        , 3           , 16          , 0           , 1.401298E-45
-0.131484538, 0.129060581 , -9.797109   , 0.000125374063, -0.0002796183, 0.000710246153, -0.0106315212, -0.01412037 , 7.884812E-05, 918.359131  , 32.5593872  , 822.4285    , 3.17        , 3           , 20          , 0           , 0
-0.1232235  , 0.121031895 , -9.802776   , 0.000371919072, -0.000207487959, 0.0002269186, -0.0106278351, -0.0141224209, 8.11394E-05 , 918.359131  , 32.5593872  , 822.4284    , 3.18        , 3           , 21          , 0           , 0
-0.1317552  , 0.119168475 , -9.79553    , -0.000172748929, -0.000467085047, 0.000270647753, -0.0106296008, -0.0141270645, 8.389558E-05, 918.359131  , 32.5593872  , 822.4283    , 3.19        , 3           , 22          , 0           , 0
-0.133131534, 0.114092849 , -9.804271   , -0.000379301258, -0.000100335106, -0.0005334382, -0.0106333187, -0.0141281225, 7.85717639E-05, 918.359131  , 32.5593872  , 822.428162  , 3.2         , 3           , 40          , 0           , 0
-0.135977611, 0.105287477 , -9.799135   , -0.000265897484, 0.000255383668, 0.0003017715, -0.0106502073, -0.0141270533, 8.176279E-05, 918.359131  , 32.5593872  , 822.3308    , 3.21        , 3           , 41          , 0           , 0
-0.142889917, 0.108137906 , -9.805205   , 0.0001588501, 1.15646981E-05, 0.0005675555, -0.0106486976, -0.0141268764, 8.74372E-05 , 918.359131  , 32.5593872  , 822.3301    , 3.22        , 3           , 42          , 0           , 0
-0.148197979, 0.108725809 , -9.786778   , 0.000299136969, -0.000136085553, 0.000749989063, -0.0106458114, -0.0141281569, 9.495173E-05, 918.301331  , 32.5589142  , 822.329346  , 3.23        , 3           , 255         , 0           , 0
-0.156595513, 0.1012797   , -9.793906   , 0.000576616032, 0.0004530091, 0.000534650055, -0.010640122, -0.0141235739, 0.000100250116, 918.301331  , 32.5589142  , 822.3286    , 3.24        , 3           , 255         , 0           , 0
-0.149989575, 0.08964811  , -9.792982   , 0.000181122916, 0.000257374079, 0.00107133319, -0.0106384605, -0.0141208833, 0.000110936249, 918.301331  , 32.5589142  , 822.3279    , 3.25        , 3           , 255         , 0           , 0
-0.127782255, 0.08724153  , -9.78797    , 0.000292439945, 0.000140860211, 0.0004790859, -0.0106356032, -0.0141194239, 0.000115712217, 918.301331  , 32.5589142  , 822.327148  , 3.26        , 3           , 255         , 0           , 0
-0.116067752, 0.09627371  , -9.79978    , 0.0005773043, 3.81305581E-05, 1.958746E-05, -0.0106298327, -0.0141190439, 0.000115904033, 918.301331  , 32.5589142  , 822.3264    , 3.27        , 3           , 255         , 0           , 0
-0.11658971 , 0.0968876854, -9.800279   , 0.000232689723, -0.0003764598, -4.06756881E-05, -0.0106275016, -0.01412281 , 0.000115537281, 918.301331  , 32.5589142  , 822.3257    , 3.28        , 3           , 255         , 0           , 0
-0.13702853 , 0.09875478  , -9.804312   , 1.22201163E-05, -0.000202688039, 0.000121327423, -0.0106273964, -0.0141248237, 0.00011677212, 918.301331  , 32.5589142  , 822.324951  , 3.29        , 3           , 255         , 0           , 0
-0.149143547, 0.100470543 , -9.794764   , -2.93070916E-05, 9.63954953E-05, 0.000249267876, -0.0106277252, -0.0141238337, 0.000119254604, 918.301331  , 32.5589142  , 822.3242    , 3.3         , 3           , 255         , 0           , 0
-0.160756052, 0.1302588   , -9.787611   , -7.49819446E-06, 0.000128290558, -0.000429431937, -0.0106199784, -0.0141220717, 0.000114836985, 918.301331  , 32.5589142  , 822.323669  , 3.31        , 3           , 255         , 0           , 0
-0.174577385, 0.125145525 , -9.792772   , 0.0005354144, -0.0001288671, -0.00104744593, -0.0106144762, -0.0141234724, 0.000104376013, 918.301331  , 32.5589142  , 822.322937  , 3.32        , 3           , 255         , 0           , 0
-0.161435872, 0.100856937 , -9.789493   , 4.092313E-05, 0.000186995079, -0.000308807153, -0.0106140235, -0.0141216358, 0.000101268037, 918.2963    , 32.557148   , 822.3222    , 3.33        , 3           , 255         , 0           , 0
-0.123800948, 0.0990568   , -9.792025   , -4.260207E-05, 0.000240990543, -0.000120697689, -0.0106144315, -0.0141192386, 0.00010003546, 918.2963    , 32.557148   , 822.3215    , 3.34        , 3           , 255         , 0           , 0
-0.0970864743, 0.106730781 , -9.796721   , -2.51225429E-05, 0.0005010687, 0.000113724571, -0.0106147  , -0.014114216, 0.000101119549, 918.2963    , 32.557148   , 822.32074   , 3.35        , 3           , 255         , 0           , 0
-0.108817913, 0.111608818 , -9.79688549 , -2.22609378E-06, -9.60913E-05, 0.000220977454, -0.0106147528, -0.0141151529, 0.00010333956, 918.2963    , 32.557148   , 822.320068  , 3.36        , 3           , 255         , 0           , 0
-0.146499172, 0.118821159 , -9.804654   , -4.75223642E-05, -0.000610868563, -0.000154156936, -0.0106152073, -0.0141212791, 0.000101862795, 918.2963    , 32.557148   , 822.3194    , 3.37        , 3           , 255         , 0           , 0
-0.164384037, 0.123174    , -9.80525    , 0.000487206446, 0.000145851925, -0.000310502452, -0.01061029 , -0.0141198533, 9.87422463E-05, 918.2963    , 32.557148   , 822.3187    , 3.38        , 3           , 255         , 0           , 0
-0.1695698  , 0.121021427 , -9.782946   , 0.0004596857, 0.000702110759, 7.118637E-05, -0.0106057022, -0.0141128246, 9.937964E-05, 918.2963    , 32.557148   , 822.318054  , 3.39        , 3           , 255         , 0           , 0
-0.162847131, 0.113266215 , -9.786768   , -0.0004587333, 0.000133321155, -0.000302443077, -0.0106102461, -0.0141115244, 9.634102E-05, 918.2963    , 32.557148   , 822.3174    , 3.4         , 3           , 255         , 0           , 0
-0.149006978, 0.0979753   , -9.792577   , -0.0004060712, 0.000253514561, -7.40252144E-05, -0.0106343431, -0.0141248228, 9.585702E-05, 918.2963    , 32.557148   , 822.3251    , 3.41        , 3           , 255         , 0           , 0
-0.109586142, 0.0844326541, -9.79655    , 0.000191310071, 0.000225172378, -0.00023164411, -0.0106323976, -0.014122596, 9.35165954E-05, 918.2963    , 32.557148   , 822.324463  , 3.42        , 3           , 255         , 0           , 0
-0.08445453 , 0.09273939  , -9.8022995  , 0.0003972667, -0.0003672185, -0.000180806, -0.0106283985, -0.0141262868, 9.174753E-05, 918.2989    , 32.5563354  , 822.323853  , 3.43        , 3           , 255         , 0           , 0
-0.0974884555, 0.102894261 , -9.802097   , 0.0004891605, -0.0005922279, 0.000824961462, -0.0106236255, -0.0141321234, 0.00010006025, 918.2989    , 32.5563354  , 822.323242  , 3.44        , 3           , 255         , 0           , 0
-0.137276441, 0.101329222 , -9.791353   , 0.000339291873, -0.000142751029, 0.00016317697, -0.010620255, -0.0141335335, 0.000101707206, 918.2989    , 32.5563354  , 822.322632  , 3.45        , 3           , 255         , 0           , 0
-0.170149   , 0.1120279   , -9.793238   , -8.683873E-05, 6.618106E-05, 0.000509310048, -0.0106211957, -0.0141328173, 0.000106793363, 918.2989    , 32.5563354  , 822.322     , 3.46        , 3           , 255         , 0           , 0
-0.1825526  , 0.125197381 , -9.785654   , -0.000488079968, 0.000341938285, 0.000491816143, -0.0106261456, -0.0141293462, 0.00011167529, 918.2989    , 32.5563354  , 822.3214    , 3.47        , 3           , 255         , 0           , 0
-0.155937463, 0.117829107 , -9.788003   , -0.000405207858, -0.0002768631, -0.000777739449, -0.010630087, -0.0141321961, 0.000103927181, 918.2989    , 32.5563354  , 822.3208    , 3.48        , 3           , 255         , 0           , 0
-0.132944137, 0.0951261446, -9.79188    , 1.8235296E-06, 0.000345617766, -0.0006043621, -0.0106299827, -0.0141288042, 9.784671E-05, 918.2989    , 32.5563354  , 822.3202    , 3.49        , 3           , 255         , 0           , 0
-0.12023    , 0.07031421  , -9.796162   , -0.000406482141, 0.000200660317, 0.000219314883, -0.0106340777, -0.0141267749, 0.000100018551, 918.2989    , 32.5563354  , 822.3196    , 3.5         , 3           , 255         , 0           , 0
-0.121216811, 0.06492638  , -9.79777    , -0.000126850791, 0.000390017056, 0.000294111669, -0.0106282141, -0.0141149135, 0.000102817 , 918.2989    , 32.5563354  , 822.3233    , 3.51        , 3           , 255         , 0           , 0
-0.130251437, 0.09791274  , -9.807488   , -7.26891449E-05, 0.000286002178, 0.000796407461, -0.0106290514, -0.01411197 , 0.000110750814, 918.2989    , 32.5563354  , 822.3227    , 3.52        , 3           , 255         , 0           , 0
-0.132114142, 0.13171497  , -9.79569    , -0.0002392988, -4.1190302E-05, 0.0007887204, -0.0106315557, -0.0141122974, 0.000118642543, 918.2868    , 32.56122    , 822.3221    , 3.53        , 3           , 255         , 0           , 0
-0.141032234, 0.1444495   , -9.791832   , -0.0007385494, -0.000140910968, 0.000478828384, -0.0106390091, -0.0141136562, 0.0001234459, 918.2868    , 32.56122    , 822.3215    , 3.54        , 3           , 255         , 0           , 0
-0.145856187, 0.141090348 , -9.796343   , 8.107E-05   , 0.00019708788, -0.000192895939, -0.0106381709, -0.0141117061, 0.000121495934, 918.2868    , 32.56122    , 822.320862  , 3.55        , 3           , 255         , 0           , 0
-0.157854438, 0.118347123 , -9.7964325  , -0.000201127492, 0.0003151159, -0.00100822083, -0.0106400391, -0.0141086644, 0.00011138001, 918.2868    , 32.56122    , 822.320251  , 3.56        , 3           , 255         , 0           , 0
-0.143581524, 0.101937257 , -9.800311   , 7.507822E-05, 0.000224245712, -7.938943E-07, -0.0106392875, -0.01410642 , 0.000111348207, 918.2868    , 32.56122    , 822.319641  , 3.57        , 3           , 255         , 0           , 0
-0.121172689, 0.08868237  , -9.79837    , 0.000686910644, -7.79447146E-06, 0.0006442564, -0.0106325094, -0.0141064292, 0.000117791729, 918.2868    , 32.56122    , 822.3191    , 3.58        , 3           , 255         , 0           , 0
-0.106072068, 0.08131352  , -9.796695   , 0.000517341541, 0.000167930964, 3.02964181E-05, -0.0106273405, -0.0141047463, 0.00011807683, 918.2868    , 32.56122    , 822.318542  , 3.59        , 3           , 255         , 0           , 0
-0.12090788 , 0.09347244  , -9.795685   , 0.0004218986, 2.95738E-05 , -0.000125474791, -0.0106231021, -0.0141044678, 0.000116818926, 918.2868    , 32.56122    , 822.318     , 3.6         , 3           , 255         , 0           , 0
-0.145395249, 0.114024736 , -9.795023   , -0.000128089567, 0.000247255142, 0.000245397125, -0.0106274337, -0.0140931541, 0.00011928918, 918.2868    , 32.56122    , 822.339661  , 3.61        , 3           , 255         , 0           , 0
-0.16027616 , 0.12083666  , -9.805675   , 3.21327243E-05, -0.000277593848, -0.000365379383, -0.01062706 , -0.0140959658, 0.000115664814, 918.2868    , 32.56122    , 822.339233  , 3.62        , 3           , 255         , 0           , 0
-0.160124391, 0.124834143 , -9.788684   , -0.000208278885, -0.000233770348, -0.000690083136, -0.0106290467, -0.014098377, 0.000108788714, 918.311646  , 32.5591164  , 822.3388    , 3.63        , 3           , 255         , 0           , 0
-0.137901634, 0.100781381 , -9.796222   , 0.000183862692, -8.625584E-05, 2.35575135E-06, -0.0106272083, -0.01409924 , 0.000108821434, 918.311646  , 32.5591164  , 822.3384    , 3.64        , 3           , 255         , 0           , 0
-0.11957787 , 0.101191759 , -9.797716   , -0.0005027668, 0.0001228067, -0.000268437434, -0.0106321983, -0.01409804 , 0.00010612396, 918.311646  , 32.5591164  , 822.337952  , 3.65        , 3           , 255         , 0           , 0
-0.1340085  , 0.09256783  , -9.786772   , -0.000225891126, 3.5156263E-05, 7.024588E-05, -0.010634467, -0.0140976813, 0.0001068227, 918.311646  , 32.5591164  , 822.3375    , 3.66        , 3           , 255         , 0           , 0
-0.138474971, 0.09984934  , -9.795219   , 0.000309594732, 9.894837E-06, 0.0005199558, -0.0106314439, -0.0140975267, 0.000112021291, 918.311646  , 32.5591164  , 822.3371    , 3.67        , 3           , 255         , 0           , 0
-0.129122868, 0.115644179 , -9.806562   , 0.00032926962, -0.000133055612, -9.38783342E-05, -0.0106281377, -0.0140988687, 0.000111096626, 918.311646  , 32.5591164  , 822.3367    , 3.68        , 3           , 255         , 0           , 0
-0.137283623, 0.1375437   , -9.803041   , -0.000465963734, 5.22666378E-05, 0.000343409454, -0.0106328465, -0.014098308, 0.000114525224, 918.311646  , 32.5591164  , 822.336243  , 3.69        , 3           , 255         , 0           , 0
-0.145834967, 0.132708281 , -9.796731   , -2.26802658E-05, 0.000246892858, -0.00010256056, -0.0106330588, -0.01409585 , 0.000113473347, 918.311646  , 32.5591164  , 822.3358    , 3.7         , 3           , 255         , 0           , 0
-0.149905786, 0.121187247 , -9.791226   , -0.00021551596, -5.854678E-05, 6.332004E-06, -0.0106490795, -0.0141001744, 0.000113738381, 918.311646  , 32.5591164  , 822.3196    , 3.71        , 3           , 255         , 0           , 0
-0.14614287 , 0.109900132 , -9.804934   , 0.000126121973, -2.55281338E-05, -2.9739429E-05, -0.0106478129, -0.0141004333, 0.000113443712, 918.311646  , 32.5591164  , 822.3191    , 3.72        , 3           , 255         , 0           , 0
-0.139213055, 0.09347602  , -9.779065   , 0.000359525962, 0.0002627467, 0.00014590814, -0.0106442384, -0.0140977893, 0.000114874849, 918.295959  , 32.5582352  , 822.3186    , 3.73        , 3           , 255         , 0           , 0
-0.121577941, 0.09343544  , -9.796056   , 0.0002747901, 0.000178308692, 5.63394133E-05, -0.0106414985, -0.014096   , 0.000115419265, 918.295959  , 32.5582352  , 822.3181    , 3.74        , 3           , 255         , 0           , 0
-0.131328553, 0.088179864 , -9.793719   , 0.0001628485, -0.000231623766, -0.000179268158, -0.0106398454, -0.0140983351, 0.000113651207, 918.295959  , 32.5582352  , 822.3176    , 3.75        , 3           , 255         , 0           , 0
-0.135253146, 0.104160294 , -9.78446    , 0.000281728455, 0.000184974167, -0.000219476526, -0.0106369955, -0.0140965134, 0.000111436719, 918.295959  , 32.5582352  , 822.317139  , 3.76        , 3           , 255         , 0           , 0
-0.156502172, 0.112356022 , -9.784296   , 0.0005116207, -0.000100240228, -0.00015963873, -0.0106318574, -0.01409753 , 0.00010985096, 918.295959  , 32.5582352  , 822.31665   , 3.77        , 3           , 255         , 0           , 0
-0.1451991  , 0.113402918 , -9.790975   , 0.00052319275, 9.137427E-05, 0.000514515268, -0.0106266979, -0.0140965618, 0.0001149865, 918.295959  , 32.5582352  , 822.316162  , 3.78        , 3           , 255         , 0           , 0
-0.1520439  , 0.110557631 , -9.793268   , -0.000111835077, 0.00028433837, -2.22058734E-05, -0.0106278127, -0.0140937213, 0.000114734212, 918.295959  , 32.5582352  , 822.3157    , 3.79        , 3           , 255         , 0           , 0
-0.14567472 , 0.0974352062, -9.790636   , -0.00019382732, -2.43271934E-05, -0.000235514133, -0.0106297182, -0.0140939895, 0.000112381611, 918.295959  , 32.5582352  , 822.3152    , 3.8         , 3           , 255         , 0           , 0
-0.120897628, 0.09398131  , -9.798973   , 0.0005737376, 0.0002475796, -0.00036966076, -0.0106244041, -0.0141005013, 0.00010866535, 918.295959  , 32.5582352  , 822.324158  , 3.81        , 3           , 255         , 0           , 0
-0.126255989, 0.09461506  , -9.793384   , 0.000170676154, 5.95795E-05 , 0.000194559543, -0.010622723, -0.0140998829, 0.00011060464, 918.295959  , 32.5582352  , 822.3237    , 3.82        , 3           , 255         , 0           , 0
-0.133778587, 0.113125622 , -9.795482   , 0.000165009638, -0.0002545967, -0.000257758453, -0.0106210364, -0.0141024562, 0.000108054046, 918.298035  , 32.55803    , 822.3233    , 3.83        , 3           , 255         , 0           , 0
-0.134059221, 0.1276755   , -9.793704   , 0.000613633543, 0.0006118397, -0.00100888347, -0.0106147574, -0.0140964454, 9.790007E-05, 918.298035  , 32.55803    , 822.3229    , 3.84        , 3           , 255         , 0           , 0
-0.143395454, 0.12437997  , -9.803869   , 0.000388620654, 0.0005917667, 0.000344650383, -0.0106109194, -0.0140904924, 0.000101283826, 918.298035  , 32.55803    , 822.322449  , 3.85        , 3           , 255         , 0           , 0
-0.151658267, 0.130331755 , -9.79176    , -0.000247263932, -0.0003079431, -6.05876266E-05, -0.0106133828, -0.0140935779, 0.000100710618, 918.298035  , 32.55803    , 822.322     , 3.86        , 3           , 255         , 0           , 0
-0.143278241, 0.121126175 , -9.794604   , -0.000466572121, -0.000118405442, -0.0003688033, -0.0106179966, -0.0140948007, 9.703508E-05, 918.298035  , 32.55803    , 822.3216    , 3.87        , 3           , 255         , 0           , 0
-0.1419869  , 0.107869312 , -9.800879   , -0.0008137204, 0.000245216419, -0.000339440157, -0.010626086, -0.0140923858, 9.36145661E-05, 918.298035  , 32.55803    , 822.321167  , 3.88        , 3           , 255         , 0           , 0
-0.140864164, 0.09874086  , -9.799433   , -0.000413660076, 2.44919211E-05, 0.000155355432, -0.0106302435, -0.0140921241, 9.516554E-05, 918.298035  , 32.55803    , 822.32074   , 3.89        , 3           , 255         , 0           , 0
-0.140974373, 0.10174711  , -9.805911   , 9.18670557E-05, 6.646651E-05, 0.000146047736, -0.0106293457, -0.0140914442, 9.66189837E-05, 918.298035  , 32.55803    , 822.3203    , 3.9         , 3           , 255         , 0           , 0
-0.138377666, 0.10601183  , -9.799907   , 0.00030727894, -0.000347670168, 4.94477863E-05, -0.0106360465, -0.0140944077, 9.728807E-05, 918.298035  , 32.55803    , 822.325745  , 3.91        , 3           , 255         , 0           , 0
-0.1436952  , 0.11037457  , -9.799718   , 0.000524255564, -0.000441535842, 0.00015044208, -0.0106308265, -0.0140988082, 9.883948E-05, 918.298035  , 32.55803    , 822.3254    , 3.92        , 3           , 255         , 0           , 0
-0.144224524, 0.107374251 , -9.796305   , 0.0003206164, 0.000370289141, 0.000133153022, -0.0106276385, -0.01409509 , 0.000100131663, 918.2584    , 32.5610161  , 822.325     , 3.93        , 3           , 255         , 0           , 0
-0.150099277, 0.107276782 , -9.796717   , 2.16414919E-05, 9.231316E-05, 0.000271462835, -0.0106274607, -0.0140941385, 0.000102836537, 918.2584    , 32.5610161  , 822.324646  , 3.94        , 3           , 255         , 0           , 0
-0.143141851, 0.09639279  , -9.788823   , -0.0005254011, -0.000275282538, 4.807982E-05, -0.0106327226, -0.0140968859, 0.000103346618, 918.2584    , 32.5610161  , 822.3243    , 3.95        , 3           , 255         , 0           , 0
-0.127636641, 0.0940236449, -9.795574   , -0.00019585446, -0.0002181856, -0.0003557108, -0.0106346318, -0.0140991062, 9.98126561E-05, 918.2584    , 32.5610161  , 822.3239    , 3.96        , 3           , 255         , 0           , 0
-0.127352282, 0.0956702158, -9.80057    , 0.00036031846, -6.51801238E-05, -4.876734E-05, -0.0106310211, -0.0140997637, 9.93319E-05 , 918.2584    , 32.5610161  , 822.323547  , 3.97        , 3           , 255         , 0           , 0
-0.143189386, 0.09500555  , -9.800791   , 0.00106544513, -7.55814835E-06, -0.000307158858, -0.010620323, -0.0140998736, 9.62610648E-05, 918.2584    , 32.5610161  , 822.3232    , 3.98        , 3           , 255         , 0           , 0
-0.139121413, 0.102313817 , -9.800638   , 0.00010279892, -0.000135804527, -0.0001949371, -0.0106192669, -0.014101252, 9.432607E-05, 918.2584    , 32.5610161  , 822.3228    , 3.99        , 3           , 255         , 0           , 0
-0.140402526, 0.11019212  , -9.791161   , 0.00017938338, -0.000384592684, 8.645185E-05, -0.0106174871, -0.0141050862, 9.5231444E-05, 918.2584    , 32.5610161  , 822.322449  , 4           , 3           , 0           , 9.888237    , 400
-0.152909175, 0.111868858 , -9.789658   , 0.000198824389, -4.8077316E-05, 0.000176290865, -0.01061321 , -0.0141077507, 9.69668545E-05, 918.2584    , 32.5610161  , 822.3839    , 4.01        , 3           , 1           , 0           , 0
-0.137596264, 0.11019256  , -9.798899   , -0.0001648165, -4.3209875E-06, -0.000116069772, -0.0106148431, -0.0141078066, 9.58066E-05 , 918.2584    , 32.5610161  , 822.3839    , 4.02        , 3           , 2           , 0           , 0
-0.1277162  , 0.1027955   , -9.803694   , -0.000266916933, 0.0002691904, -0.000264481816, -0.0106174741, -0.014105144, 9.313316E-05, 918.274     , 32.55925    , 822.3839    , 4.03        , 3           , 3           , 0           , 0
-0.136002213, 0.11216487  , -9.807909   , 0.000151985209, -0.000167121063, 0.000439764757, -0.0106160166, -0.0141067682, 9.75486255E-05, 918.274     , 32.55925    , 822.384     , 4.04        , 3           , 4           , 0           , 0
-0.127827555, 0.110155687 , -9.794816   , 0.00032144133, 0.000114660827, 0.0001680858, -0.0106128259, -0.0141056031, 9.92173445E-05, 918.274     , 32.55925    , 822.384033  , 4.05        , 3           , 5           , 0           , 0
-0.134472013, 0.107258424 , -9.79879951 , 0.000250814075, -0.000145286554, 0.000516385655, -0.01061039 , -0.014107001, 0.000104396713, 918.274     , 32.55925    , 822.3841    , 4.06        , 3           , 6           , 0           , 0
-0.139968678, 0.105316386 , -9.796968   , -0.0001608174, -0.000190996216, 0.000736985356, -0.0106121032, -0.0141088329, 0.000111786969, 918.274     , 32.55925    , 822.384155  , 4.07        , 3           , 7           , 0           , 0
-0.138089389, 0.110317215 , -9.787804   , -0.000202427385, -7.10543245E-05, 0.0003260406, -0.0106141726, -0.0141095081, 0.000115054972, 918.274     , 32.55925    , 822.3842    , 4.08        , 3           , 8           , 5           , 5
-0.142850131, 0.108231172 , -9.796603   , 0.000318769482, -0.000456968672, -0.000314889243, -0.0106109418, -0.0141141107, 0.000111954512, 918.274     , 32.55925    , 822.3843    , 4.09        , 3           , 9           , 5           , 0.1
-0.141627833, 0.104206778 , -9.791597   , 0.0005103562, -0.0005658668, -0.000507260032, -0.0106057674, -0.0141198225, 0.00010694185, 918.274     , 32.55925    , 822.384338  , 4.1         , 3           , 10          , 0.1         , 0.1
-0.136007786, 0.09901979  , -9.797383   , 0.000247587857, 0.0006644089, -0.0008181205, -0.0106090428, -0.01411285 , 9.877284E-05, 918.274     , 32.55925    , 822.415     , 4.11        , 3           , 11          , 0.007071203 , 0.00707120076
-0.1325492  , 0.103130773 , -9.788631   , 0.000256151252, 0.00014321442, -0.000322544831, -0.0106064361, -0.01411145 , 9.553215E-05, 918.274     , 32.55925    , 822.4152    , 4.12        , 3           , 12          , 0.174648076 , 0
-0.140101671, 0.107158221 , -9.797819   , 0.0005321229, -3.533624E-05, -0.000597632, -0.0106010316, -0.0141118662, 8.955948E-05, 918.3482    , 32.5631866  , 822.415466  , 4.13        , 3           , 13          , 0           , 0
-0.13517496 , 0.101922229 , -9.798346   , 0.0001632481, -0.000207438366, 2.16088374E-05, -0.0105994027, -0.0141139384, 8.979757E-05, 918.3482    , 32.5631866  , 822.4157    , 4.14        , 3           , 14          , -0.00102950458, -0.00109542627
-0.12892285 , 0.107326671 , -9.80227    , -0.000239118119, 0.0005871052, -0.000101466925, -0.0106017776, -0.0141080786, 8.87206261E-05, 918.3482    , 32.5631866  , 822.415955  , 4.15        , 3           , 15          , 0           , -0.0002475314
-0.143748075, 0.104688957 , -9.792      , -0.000303683337, 2.14271713E-05, -0.000912300253, -0.0106046861, -0.0141079631, 7.959518E-05, 918.3482    , 32.5631866  , 822.4162    , 4.16        , 3           , 16          , 0           , 1.401298E-45
-0.1392239  , 0.109831057 , -9.79568    , -0.0005116707, -2.41027446E-05, 0.000200516646, -0.0106098307, -0.0141081829, 8.160294E-05, 918.3482    , 32.5631866  , 822.416443  , 4.17        , 3           , 20          , 0           , 0
-0.13146691 , 0.111154951 , -9.785551   , -0.000391849666, 0.000339735183, 0.0005245035, -0.0106138214, -0.0141047295, 8.681201E-05, 918.3482    , 32.5631866  , 822.4167    , 4.18        , 3           , 21          , 0           , 0
-0.136611134, 0.106533125 , -9.79954    , -0.0006396574, -7.481058E-05, 0.000432511821, -0.01062028 , -0.01410543 , 9.114516E-05, 918.3482    , 32.5631866  , 822.416931  , 4.19        , 3           , 22          , 0           , 0
-0.138353422, 0.101287521 , -9.798431   , -0.000741133, 2.87072035E-05, 2.923279E-05, -0.0106276935, -0.01410514 , 9.143442E-05, 918.3482    , 32.5631866  , 822.4172    , 4.2         , 3           , 40          , 0           , 0
-0.140645415, 0.0972609   , -9.79390049 , -4.05744649E-05, 0.000140258868, -0.000160596624, -0.0106300553, -0.01410082 , 8.984141E-05, 918.3482    , 32.5631866  , 822.337769  , 4.21        , 3           , 41          , 0           , 0
-0.141932622, 0.100159705 , -9.802809   , 0.000718667754, 0.000220521819, -0.000142630888, -0.0106228478, -0.0140986294, 8.83916437E-05, 918.3482    , 32.5631866  , 822.3375    , 4.22        , 3           , 42          , 0           , 0
-0.136016384, 0.101185083 , -9.792955   , 0.0004671351, 1.50892884E-05, -3.71092756E-05, -0.0106181726, -0.0140984813, 8.801893E-05, 918.2969    , 32.56088    , 822.3373    , 4.23        , 3           , 255         , 0           , 0
-0.136264   , 0.101580217 , -9.795314   , 0.0005663766, 9.069941E-05, 0.00044946745, -0.0106125707, -0.01409753 , 9.25040658E-05, 918.2969    , 32.56088    , 822.337036  , 4.24        , 3           , 255         , 0           , 0
-0.140322149, 0.108756304 , -9.788971   , 0.0004293383, -6.4337044E-05, 9.404223E-05, -0.01060829 , -0.0140981618, 9.345133E-05, 918.2969    , 32.56088    , 822.3368    , 4.25        , 3           , 255         , 0           , 0
-0.1359194  , 0.114559695 , -9.789007   , 8.71769153E-05, -5.41808549E-06, 0.000643164734, -0.01060751 , -0.0140981479, 9.988367E-05, 918.2969    , 32.56088    , 822.336548  , 4.26        , 3           , 255         , 0           , 0
-0.124543652, 0.107268035 , -9.79027748 , 9.265175E-05, 0.00010528788, 0.000742211 , -0.0106066875, -0.0140970163, 0.000107294749, 918.2969    , 32.56088    , 822.3363    , 4.27        , 3           , 255         , 0           , 0
-0.127328992, 0.106649861 , -9.789231   , -0.000532019651, 0.0006966968, 0.00067250873, -0.0106120994, -0.01408998 , 0.000113946029, 918.2969    , 32.56088    , 822.33606   , 4.28        , 3           , 255         , 0           , 0
-0.133919746, 0.106987417 , -9.793488   , -0.000555819366, 0.000176023517, 0.00114118319, -0.0106178178, -0.0140880961, 0.000125339371, 918.2969    , 32.56088    , 822.3358    , 4.29        , 3           , 255         , 0           , 0
-0.131313041, 0.102842554 , -9.792425   , -0.000409480534, 0.0006022146, 0.0008134268, -0.0106220264, -0.01408199 , 0.000133409834, 918.2969    , 32.56088    , 822.3356    , 4.3         , 3           , 255         , 0           , 0
-0.131630749, 0.105630852 , -9.792643   , -0.0004556746, 0.0005841524, 0.000422874582, -0.0106280437, -0.0140705295, 0.0001375963, 918.2969    , 32.56088    , 822.3407    , 4.31        , 3           , 255         , 0           , 0
-0.137298733, 0.111570254 , -9.791073   , -0.000589861069, 0.0006950029, -0.0006128014, -0.0106338542, -0.0140636461, 0.000131394292, 918.2969    , 32.56088    , 822.3405    , 4.32        , 3           , 255         , 0           , 0
-0.131615236, 0.108383395 , -9.793398   , -0.00052985677, 0.000307436334, -0.000415828748, -0.0106390938, -0.0140606137, 0.000127203239, 918.250854  , 32.5574875  , 822.340332  , 4.33        , 3           , 255         , 0           , 0
-0.142132849, 0.105167463 , -9.815285   , -0.00026802253, 0.000344843545, 0.000273153331, -0.0106418123, -0.0140571361, 0.000129898122, 918.250854  , 32.5574875  , 822.340149  , 4.34        , 3           , 255         , 0           , 0
-0.1494294  , 0.114106692 , -9.817831   , 0.000143355282, -0.000371197937, 2.56017374E-05, -0.0106403828, -0.0140608456, 0.000130193643, 918.250854  , 32.5574875  , 822.339966  , 4.35        , 3           , 255         , 0           , 0
-0.143993855, 0.112066209 , -9.799936   , 0.000503319257, -0.000175721361, -0.00016144439, -0.0106353266, -0.0140626207, 0.00012859788, 918.250854  , 32.5574875  , 822.3398    , 4.36        , 3           , 255         , 0           , 0
-0.145365864, 0.111838974 , -9.798559   , 8.354976E-05, -8.827739E-05, -0.00011406574, -0.0106344763, -0.0140635148, 0.0001274666, 918.250854  , 32.5574875  , 822.3396    , 4.37        , 3           , 255         , 0           , 0
-0.147151619, 0.107198462 , -9.784833   , 0.000715551258, -0.000263764057, -7.80080445E-05, -0.01062731 , -0.0140661607, 0.000126714542, 918.250854  , 32.5574875  , 822.3394    , 4.38        , 3           , 255         , 0           , 0
-0.135997847, 0.101745151 , -9.785355   , 5.65240625E-05, -0.000175531488, -0.00060658704, -0.01062666 , -0.0140679795, 0.00012066721, 918.250854  , 32.5574875  , 822.339233  , 4.39        , 3           , 255         , 0           , 0
-0.133753017, 0.09604669  , -9.788086   , -0.0006005316, 0.000140174758, -0.000769580132, -0.0106325559, -0.014066658, 0.000112956361, 918.250854  , 32.5574875  , 822.33905   , 4.4         , 3           , 255         , 0           , 0
-0.146584421, 0.110899128 , -9.802905   , -0.000113955582, 0.000337763 , 0.000138877833, -0.0106378365, -0.0140660154, 0.000114367227, 918.250854  , 32.5574875  , 822.409058  , 4.41        , 3           , 255         , 0           , 0
-0.144215912, 0.107719876 , -9.792754   , 6.76391646E-05, 0.000386018481, 0.000678045442, -0.0106372545, -0.014062088, 0.000121106743, 918.250854  , 32.5574875  , 822.4093    , 4.42        , 3           , 255         , 0           , 0
-0.139766976, 0.10411638  , -9.78324    , -0.000504467636, 0.000196646783, -0.000136616785, -0.0106422789, -0.0140601322, 0.000119719611, 918.2745    , 32.5595245  , 822.409546  , 4.43        , 3           , 255         , 0           , 0
-0.140083343, 0.111920215 , -9.782034   , 4.15468821E-05, 0.000253857579, -0.000154155336, -0.0106418412, -0.01405761 , 0.000118151023, 918.2745    , 32.5595245  , 822.4098    , 4.44        , 3           , 255         , 0           , 0
-0.131581351, 0.109294139 , -9.80211    , -3.399956E-05, -8.523988E-05, -0.000379206525, -0.0106421281, -0.0140585033, 0.000114367955, 918.2745    , 32.5595245  , 822.410034  , 4.45        , 3           , 255         , 0           , 0
-0.130376831, 0.10387291  , -9.804541   , -0.000116355834, -0.00012691156, 2.08103156E-05, -0.0106432941, -0.01405977 , 0.000114589566, 918.2745    , 32.5595245  , 822.410339  , 4.46        , 3           , 255         , 0           , 0
-0.140749753, 0.117130652 , -9.80261    , 0.00011296  , 9.191805E-06, -0.0002949688, -0.0106421234, -0.0140597094, 0.000111638845, 918.2745    , 32.5595245  , 822.410645  , 4.47        , 3           , 255         , 0           , 0
-0.142312258, 0.110146478 , -9.79675    , 4.09157947E-05, 0.000394002418, 9.190425E-05, -0.0106417276, -0.0140557587, 0.000112515983, 918.2745    , 32.5595245  , 822.41095   , 4.48        , 3           , 255         , 0           , 0
-0.140262082, 0.113957785 , -9.778797   , -0.0002435291, -0.000189818325, -0.00012783939, -0.0106441444, -0.0140576707, 0.000111257767, 918.2745    , 32.5595245  , 822.411255  , 4.49        , 3           , 255         , 0           , 0
-0.132940739, 0.107404962 , -9.78838    , -0.000296783517, 2.41034431E-05, -0.000245315925, -0.0106470762, -0.0140574556, 0.000108801993, 918.2745    , 32.5595245  , 822.41156   , 4.5         , 3           , 255         , 0           , 0
-0.145824343, 0.100517645 , -9.798005   , -0.000359986559, -0.000244118623, 4.49963263E-05, -0.01065931 , -0.014061789, 0.000109399269, 918.2745    , 32.5595245  , 822.438     , 4.51        , 3           , 255         , 0           , 0
-0.146847636, 0.09728195  , -9.806482   , 8.285319E-05, -0.00011311844, 0.00104772986, -0.0106586274, -0.0140628107, 0.000119888791, 918.2745    , 32.5595245  , 822.4384    , 4.52        , 3           , 255         , 0           , 0
-0.132688522, 0.09955253  , -9.792986   , 3.782881E-05, 0.000163402816, 0.0004788025, -0.0106583163, -0.0140611241, 0.000124659477, 918.277954  , 32.5604744  , 822.438843  , 4.53        , 3           , 255         , 0           , 0
-0.142229885, 0.09928861  , -9.795378   , -0.0003607435, 0.0001358912, 0.0002912451, -0.0106619634, -0.0140597327, 0.000127557476, 918.277954  , 32.5604744  , 822.4393    , 4.54        , 3           , 255         , 0           , 0
-0.132417172, 0.09974501  , -9.795978   , -0.000139746466, -0.000147928018, 8.23073642E-05, -0.0106633725, -0.0140612042, 0.000128396336, 918.277954  , 32.5604744  , 822.4397    , 4.55        , 3           , 255         , 0           , 0
-0.129720271, 0.104593016 , -9.801994   , -0.0004605028, -0.000119951786, -0.0006739013, -0.010667881, -0.0140624754, 0.000121670004, 918.277954  , 32.5604744  , 822.4401    , 4.56        , 3           , 255         , 0           , 0
-0.129534811, 0.104670428 , -9.794619   , -0.000150159583, -1.27037056E-05, -0.000295281032, -0.0106693422, -0.0140626337, 0.000118718504, 918.277954  , 32.5604744  , 822.4406    , 4.57        , 3           , 255         , 0           , 0
-0.137866884, 0.112505235 , -9.802701   , -2.62645772E-05, 0.0002943544, 2.30499427E-06, -0.0106696049, -0.0140596889, 0.000118710137, 918.277954  , 32.5604744  , 822.4411    , 4.58        , 3           , 255         , 0           , 0
-0.136042863, 0.100637019 , -9.788721   , -0.000191498548, 0.000339759747, 0.000387256325, -0.0106715746, -0.0140562514, 0.000122546509, 918.277954  , 32.5604744  , 822.4416    , 4.59        , 3           , 255         , 0           , 0
-0.141165748, 0.105661295 , -9.784869   , -0.000491105835, -0.0002027778, -1.63137738E-05, -0.0106764827, -0.01405828 , 0.000122405021, 918.277954  , 32.5604744  , 822.4421    , 4.6         , 3           , 255         , 0           , 0
-0.141135946, 0.118260123 , -9.80073    , -0.0007629313, -0.000204424257, 0.000694892 , -0.0106815267, -0.0140598174, 0.0001293382, 918.277954  , 32.5604744  , 822.459167  , 4.61        , 3           , 255         , 0           , 0
-0.137455642, 0.11924579  , -9.808132   , -0.000355953351, 6.743963E-05, -0.000163233344, -0.0106850639, -0.0140591608, 0.0001276986, 918.277954  , 32.5604744  , 822.4597    , 4.62        , 3           , 255         , 0           , 0
-0.139826253, 0.1095583   , -9.79878    , 0.0001838181, 9.666826E-05, -0.000100561039, -0.0106832115, -0.0140582053, 0.000126682644, 918.3046    , 32.5602     , 822.460266  , 4.63        , 3           , 255         , 0           , 0
-0.133600682, 0.114266053 , -9.798509   , 0.0009056594, 0.0005275526, 0.0005308364, -0.010674228, -0.0140528753, 0.000131934765, 918.3046    , 32.5602     , 822.4608    , 4.64        , 3           , 255         , 0           , 0
-0.126610771, 0.111689046 , -9.798607   , 0.0007147763, -0.0005964956, 0.000510836137, -0.0106671546, -0.0140587827, 0.000137106865, 918.3046    , 32.5602     , 822.461365  , 4.65        , 3           , 255         , 0           , 0
-0.134212077, 0.105995439 , -9.799138   , 0.00138038443, -0.0007297186, 0.00107860717, -0.0106535023, -0.0140659669, 0.0001479709, 918.3046    , 32.5602     , 822.462     , 4.66        , 3           , 255         , 0           , 0
-0.13862285 , 0.100238681 , -9.794809   , 0.0006365926, -0.000474889763, 0.000501648756, -0.0106472056, -0.0140706608, 0.000153038054, 918.3046    , 32.5602     , 822.4626    , 4.67        , 3           , 255         , 0           , 0
-0.136889935, 0.11026752  , -9.798881   , 0.0001048859, -0.000540196663, 0.000135017151, -0.0106461775, -0.0140760485, 0.000154445763, 918.3046    , 32.5602     , 822.4632    , 4.68        , 3           , 255         , 0           , 0
-0.128664166, 0.110229388 , -9.794869   , 0.00063872477, -0.00031529984, -0.00048787726, -0.0106397225, -0.0140792523, 0.000149600455, 918.3046    , 32.5602     , 822.4638    , 4.69        , 3           , 255         , 0           , 0
-0.14295575 , 0.104215167 , -9.787376   , 0.000365398068, 9.89350956E-05, -0.000279364671, -0.0106360288, -0.014078293, 0.000146796257, 918.3046    , 32.5602     , 822.4644    , 4.7         , 3           , 255         , 0           , 0
-0.136325851, 0.105824314 , -9.789508   , -0.000558920554, 0.000190831779, -0.000970442255, -0.0106484368, -0.0140744122, 0.000137169249, 918.3046    , 32.5602     , 822.4405    , 4.71        , 3           , 255         , 0           , 0
-0.133407474, 0.102310076 , -9.805148   , 3.07086157E-05, 0.00023328641, -0.000223843555, -0.0106480969, -0.0140721034, 0.000134905931, 918.3046    , 32.5602     , 822.4409    , 4.72        , 3           , 255         , 0           , 0
-0.130339116, 0.100658044 , -9.804881   , -6.294111E-06, 0.000176791043, -5.42175258E-06, -0.01064816 , -0.0140703395, 0.000134832881, 918.259766  , 32.56217    , 822.441345  , 4.73        , 3           , 255         , 0           , 0
-0.12728259 , 0.109779477 , -9.792477   , 4.50048828E-05, 0.000453467481, 0.000371860777, -0.0106477607, -0.014065763, 0.000138503266, 918.259766  , 32.56217    , 822.4418    , 4.74        , 3           , 255         , 0           , 0
-0.13669005 , 0.115904137 , -9.792235   , 7.095595E-05, -0.000160933821, -0.000179693656, -0.0106470259, -0.0140673919, 0.000136723422, 918.259766  , 32.56217    , 822.4422    , 4.75        , 3           , 255         , 0           , 0
-0.147339016, 0.0990216   , -9.7944     , -0.000115750241, -9.90579138E-05, -0.000158357929, -0.0106481612, -0.0140684  , 0.00013515036, 918.259766  , 32.56217    , 822.4426    , 4.76        , 3           , 255         , 0           , 0
-0.140885815, 0.11219579  , -9.79834652 , -0.0003588025, 1.305039E-05, -0.001053371, -0.0106516  , -0.0140683828, 0.000124615064, 918.259766  , 32.56217    , 822.443054  , 4.77        , 3           , 255         , 0           , 0
-0.129443944, 0.105359778 , -9.79534149 , -0.000317787169, 7.367972E-05, 9.497629E-05, -0.01065479 , -0.014067634, 0.00012555701, 918.259766  , 32.56217    , 822.4435    , 4.78        , 3           , 255         , 0           , 0
-0.140390724, 0.105459951 , -9.794739   , -3.276742E-06, -0.0003834461, 0.00061193225, -0.0106549105, -0.0140714031, 0.000131717286, 918.259766  , 32.56217    , 822.4439    , 4.79        , 3           , 255         , 0           , 0
-0.134870857, 0.107971445 , -9.802124   , 0.000152483 , -0.00014271168, 0.0007237984, -0.0106534883, -0.0140727535, 0.0001389706, 918.259766  , 32.56217    , 822.4444    , 4.8         , 3           , 255         , 0           , 0
-0.138555825, 0.114698134 , -9.802807   , 0.000580771768, -0.00045470125, 0.000289157877, -0.0106503861, -0.0140746087, 0.00014194817, 918.259766  , 32.56217    , 822.4869    , 4.81        , 3           , 255         , 0           , 0
-0.141452074, 0.111775354 , -9.801912   , -0.000192447682, -0.000285958173, -0.000332926546, -0.0106522627, -0.0140775014, 0.0001386493, 918.259766  , 32.56217    , 822.4876    , 4.82        , 3           , 255         , 0           , 0
-0.141394883, 0.113910936 , -9.80096149 , -1.31651759E-05, -0.000104011036, -0.000453612447, -0.0106523307, -0.01407859 , 0.000134124188, 918.268     , 32.5599976  , 822.488342  , 4.83        , 3           , 255         , 0           , 0
-0.133063465, 0.114175223 , -9.799273   , 0.000713624642, -0.000154914218, -5.74222649E-05, -0.0106451875, -0.0140801463, 0.000133566471, 918.268     , 32.5599976  , 822.4891    , 4.84        , 3           , 255         , 0           , 0
-0.1381733  , 0.112687662 , -9.78373    , 0.000100265839, 0.00037982245, -7.682067E-05, -0.0106441732, -0.0140763558, 0.0001327578, 918.268     , 32.5599976  , 822.4898    , 4.85        , 3           , 255         , 0           , 0
-0.139091343, 0.115031637 , -9.793793   , 0.000169299776, -0.000111200265, 0.000186817881, -0.0106425071, -0.0140774474, 0.000134637841, 918.268     , 32.5599976  , 822.49054   , 4.86        , 3           , 255         , 0           , 0
-0.140251   , 0.102720425 , -9.791307   , 0.00041790877, -0.0004648473, 0.001139608 , -0.0106384875, -0.0140819764, 0.000146083577, 918.268     , 32.5599976  , 822.4913    , 4.87        , 3           , 255         , 0           , 0
-0.141129687, 0.106604755 , -9.800215   , 0.00108425552, 0.00031279563, 0.0007881321, -0.0106277568, -0.014078767, 0.000153931789, 918.268     , 32.5599976  , 822.492     , 4.88        , 3           , 255         , 0           , 0
-0.147114545, 0.114272639 , -9.798717   , 0.0009357092, 0.000348617672, 9.849736E-05, -0.0106184129, -0.0140752718, 0.000154879759, 918.268     , 32.5599976  , 822.492737  , 4.89        , 3           , 255         , 0           , 0
-0.14379701 , 0.110814616 , -9.788179   , -5.41490735E-05, 0.000303589622, -0.000554553466, -0.0106188739, -0.0140722934, 0.0001493019, 918.268     , 32.5599976  , 822.493469  , 4.9         , 3           , 255         , 0           , 0
-0.134435683, 0.115548685 , -9.79018    , 0.0001997911, -0.000384466141, 0.000146163948, -0.0106264  , -0.0140793044, 0.000150938155, 918.268     , 32.5599976  , 822.5173    , 4.91        , 3           , 255         , 0           , 0
-0.130911067, 0.11644987  , -9.79288    , -0.000282442081, -0.000387312961, 8.637701E-05, -0.0106292386, -0.0140831685, 0.000151843109, 918.268     , 32.5599976  , 822.5181    , 4.92        , 3           , 255         , 0           , 0
-0.131812066, 0.112329148 , -9.804686   , 1.71914E-05 , -1.00940233E-05, 0.000231570913, -0.0106291  , -0.0140832439, 0.000154159919, 918.31366   , 32.5584373  , 822.519043  , 4.93        , 3           , 255         , 0           , 0
-0.134111881, 0.100672677 , -9.804648   , -9.422784E-05, 0.000415014278, 0.000145361264, -0.0106300609, -0.014079079, 0.000155569447, 918.31366   , 32.5584373  , 822.519958  , 4.94        , 3           , 255         , 0           , 0
-0.149302855, 0.101076648 , -9.791418   , -7.021183E-05, 0.000122963625, -0.000407693675, -0.0106307063, -0.0140778935, 0.000151479369, 918.31366   , 32.5584373  , 822.5209    , 4.95        , 3           , 255         , 0           , 0
-0.137722388, 0.109039567 , -9.789944   , 0.00086928613, 0.000134355738, 5.91678254E-05, -0.0106220208, -0.014076543, 0.000152056775, 918.31366   , 32.5584373  , 822.5218    , 4.96        , 3           , 255         , 0           , 0
-0.1374396  , 0.109684169 , -9.795759   , 0.0003456719, -0.000131118926, 6.773365E-05, -0.0106185749, -0.0140778469, 0.000152748064, 918.31366   , 32.5584373  , 822.5227    , 4.97        , 3           , 255         , 0           , 0
-0.1385134  , 0.104609571 , -9.787367   , -0.000271154684, -4.96049179E-05, -0.000258868153, -0.0106212487, -0.01407837 , 0.000150164589, 918.31366   , 32.5584373  , 822.5236    , 4.98        , 3           , 255         , 0           , 0
-0.142257527, 0.103869759 , -9.790724   , -0.000386876171, 0.000203323085, -0.000926115434, -0.010624988, -0.0140764378, 0.000140881675, 918.31366   , 32.5584373  , 822.524536  , 4.99        , 3           , 255         , 0           , 0
-0.135141268, 0.105511308 , -9.799136   , -0.0002899964, -0.0001202079, -0.0009967482, -0.0106277466, -0.0140777435, 0.000130926783, 918.31366   , 32.5584373  , 822.525452  , 5           , 3           , 0           , -1          , 500
-0.131991357, 0.102292418 , -9.796234   , 0.0004350298, -2.44451221E-05, 0.000150874 , -0.0106286388, -0.0140769351, 0.000132511661, 918.31366   , 32.5584373  , 822.4799    , 5.01        , 3           , 1           , 0           , 0
-0.133267537, 0.110182464 , -9.792276   , 0.000150914246, 0.000211459585, 2.90368916E-07, -0.01062713 , -0.014074821, 0.000132492089, 918.31366   , 32.5584373  , 822.4805    , 5.02        , 3           , 2           , 0           , 0
-0.131403312, 0.103248954 , -9.791272   , -0.000342987245, -0.000312432647, 0.0005637604, -0.01063064 , -0.0140778851, 0.000138163 , 918.3028    , 32.56054    , 822.48114   , 5.03        , 3           , 3           , 0           , 0
-0.14131242 , 0.103817366 , -9.791896   , -0.000221781549, -0.0004962556, 0.000388390123, -0.0106329136, -0.0140828053, 0.000142099729, 918.3028    , 32.56054    , 822.48175   , 5.04        , 3           , 4           , 0           , 0
-0.139211535, 0.109353341 , -9.798282   , -2.83274567E-05, 0.00015886192, 0.000164411947, -0.01063322 , -0.0140812  , 0.000143727 , 918.3028    , 32.56054    , 822.482361  , 5.05        , 3           , 5           , 0           , 0
-0.1343381  , 0.104839787 , -9.797671   , 0.000288658426, -4.48339852E-05, 0.000316741527, -0.0106303776, -0.0140816141, 0.000146899212, 918.3028    , 32.56054    , 822.483     , 5.06        , 3           , 6           , 0           , 0
-0.135735318, 0.1114053   , -9.782753   , 0.000551031 , -0.000320837949, 0.0006863286, -0.0106249647, -0.01408475 , 0.000153796733, 918.3028    , 32.56054    , 822.4836    , 5.07        , 3           , 7           , 0           , 0
-0.142279521, 0.110824384 , -9.783369   , 0.000659415149, 0.000138451345, -0.000252131664, -0.0106183337, -0.014083392, 0.000151260669, 918.3028    , 32.56054    , 822.4842    , 5.08        , 3           , 8           , 5           , 5
-0.127191067, 0.11490903  , -9.79217    , 9.897159E-05, 0.000535164145, -0.000273454, -0.0106173055, -0.01407807 , 0.000148469262, 918.3028    , 32.56054    , 822.4848    , 5.09        , 3           , 9           , 5           , 0.1
