Acc X       , Acc Y       , Acc Z       , Gyro X      , Gyro Y      , Gyro Z      , Euler X     , Euler Y     , Euler Z     , Pres X      , Pres Y      , Pres Z      , Time        , Status      , LowRate X   , LowRate Y   , LowRate Z    
-0.104920477, 0.1547552   , -9.784511   , 0           , 0           , 0           , -0.0158150271, -0.0107213678, 0           , 918.1866    , 32.6024666  , 823.3679    , 0           , 2           , 0           , 5.43723154  , 0
-0.09709646 , 0.149695    , -9.800849   , -3.876281E-06, 0.000235338579, -0.000584411435, -0.0158147011, -0.0107191093, -5.880782E-06, 918.1866    , 32.6024666  , 823.3679    , 0.01        , 3           , 1           , 0           , 0
-0.0993917659, 0.158510372 , -9.795437   , 0.00053553516, -0.0002110789, -0.0005308975, -0.01580929 , -0.0107213026, -1.11558929E-05, 918.1866    , 32.6024666  , 823.3679    , 0.02        , 3           , 2           , 0           , 0
-0.105227329, 0.153973043 , -9.788279   , 0.000159291551, -0.000275708269, -0.000486029, -0.0158076473, -0.0107241357, -1.5972164E-05, 918.1819    , 32.1661072  , 823.3679    , 0.03        , 3           , 3           , 0           , 0
-0.107235454, 0.153263122 , -9.79619    , 4.56065172E-05, -0.0006025353, -0.0006969742, -0.0158071164, -0.01073027 , -2.284602E-05, 918.1819    , 32.1661072  , 823.3679    , 0.04        , 3           , 4           , 0           , 0
-0.102560461, 0.163090974 , -9.783137   , -0.000223545823, -0.000184751581, -0.000462111871, -0.0158093031, -0.0107321907, -2.74375E-05, 918.1819    , 32.1661072  , 823.3679    , 0.05        , 3           , 5           , 0           , 0
-0.1031274  , 0.161742061 , -9.787134   , -9.02819447E-05, -0.000151542015, 0.000235792424, -0.01581023 , -0.0107336687, -2.50558332E-05, 918.1819    , 32.1661072  , 823.3679    , 0.06        , 3           , 6           , 0           , 0
-0.106269404, 0.150888726 , -9.789286   , -5.66627132E-05, -0.000286364462, -0.000435438618, -0.01581075 , -0.0107366014, -2.93645462E-05, 918.1819    , 32.1661072  , 823.3679    , 0.07        , 3           , 7           , 0           , 0
-0.105905756, 0.151286244 , -9.7925005  , 0.000316445017, -0.000239341054, 0.000372889132, -0.0158076286, -0.0107389363, -2.55981649E-05, 918.1819    , 32.1661072  , 823.3679    , 0.08        , 3           , 8           , 5           , 5
-0.109514877, 0.154815868 , -9.793135   , 0.000504180265, 0.000126764644, 0.000149275 , -0.0158026014, -0.0107376436, -2.41255948E-05, 918.1819    , 32.1661072  , 823.3679    , 0.09        , 3           , 9           , 5           , 0.1
-0.101698078, 0.155164957 , -9.796591   , 0.000111002475, -0.000236309133, -0.000299141073, -0.0158014577, -0.0107400548, -2.707939E-05, 918.1819    , 32.1661072  , 823.3679    , 0.1         , 3           , 10          , 0.1         , 0.1
-0.100695357, 0.156584069 , -9.781706   , 0.000302276923, -0.000639695441, -0.000209488673, -0.0158002172, -0.0107410327, -2.90536391E-05, 918.1819    , 32.1661072  , 823.410339  , 0.11        , 3           , 11          , 0.0109544508, 0.0109544508
-0.10297735 , 0.157560423 , -9.78731    , 0.0008015967, -1.64950034E-05, 3.607769E-06, -0.0157922  , -0.0107411975, -2.90149619E-05, 918.1819    , 32.1661072  , 823.410339  , 0.12        , 3           , 12          , 0.174642488 , 0
-0.100354195, 0.149475783 , -9.795323   , 0.0002331707, 0.000480403425, 9.832025E-05, -0.0157898776, -0.0107363779, -2.81077064E-05, 918.1698    , 32.2051163  , 823.410339  , 0.13        , 3           , 13          , 0           , 0
-0.110570468, 0.150445074 , -9.792303   , 0.000186926976, 5.24099451E-05, 0.000768536 , -0.0157880932, -0.0107357316, -2.04313183E-05, 918.1698    , 32.2051163  , 823.410339  , 0.14        , 3           , 14          , -0.00113075459, -0.00110399118
-0.103283025, 0.152659446 , -9.799044   , -0.0004397782, -0.0002066152, 0.000411811459, -0.0157925356, -0.0107377339, -1.628096E-05, 918.1698    , 32.2051163  , 823.410339  , 0.15        , 3           , 15          , 0           , -0.000263942551
-0.09405111 , 0.160535425 , -9.792677   , 0.00108114886, -0.00011213636, 0.000939585036, -0.0157818254, -0.0107387053, -6.86826752E-06, 918.1698    , 32.2051163  , 823.410339  , 0.16        , 3           , 16          , 0           , 1.401298E-45
-0.1056332  , 0.154041782 , -9.794558   , 0.000695929863, 0.000185596466, -0.000177064241, -0.0157748442, -0.01073688 , -8.668042E-06, 918.1698    , 32.2051163  , 823.410339  , 0.17        , 3           , 20          , 0           , 0
-0.110288166, 0.1571685   , -9.789727   , 0.00017781026, 0.000211663428, -2.36335618E-05, -0.0157730635, -0.0107347658, -8.937748E-06, 918.1698    , 32.2051163  , 823.410339  , 0.18        , 3           , 21          , 0           , 0
-0.103898957, 0.161784083 , -9.798485   , -0.000363133615, 0.000293622259, -6.220769E-05, -0.0157766845, -0.01073184 , -9.60609E-06, 918.1698    , 32.2051163  , 823.4104    , 0.19        , 3           , 22          , 0           , 0
-0.09939796 , 0.158085763 , -9.805545   , 0.0003687868, -0.000266755815, 0.000399747049, -0.015773043, -0.0107344436, -5.56690838E-06, 918.1698    , 32.2051163  , 823.410461  , 0.2         , 3           , 40          , 0           , 0
-0.10940057 , 0.160865664 , -9.806017   , -8.50588549E-06, 0.000176045636, 0.000601369655, -0.0157774854, -0.0107250521, 4.6450927E-07, 918.1698    , 32.2051163  , 823.4648    , 0.21        , 3           , 41          , 0           , 0
-0.108704053, 0.151401266 , -9.804106   , -9.360665E-05, 5.07317E-05 , 0.000123522026, -0.0157784354, -0.010724525, 1.69162638E-06, 918.1698    , 32.2051163  , 823.464844  , 0.22        , 3           , 42          , 0           , 0
-0.0973467  , 0.16666618  , -9.80139    , -0.0003620513, -4.3161097E-05, 0.000533072045, -0.0157821123, -0.0107248714, 7.02866646E-06, 918.157959  , 32.23171    , 823.4649    , 0.23        , 3           , 255         , 0           , 0
-0.101803876, 0.164617434 , -9.792631   , -0.00011934503, 0.000446352526, 0.000245665258, -0.0157833323, -0.0107203694, 9.414655E-06, 918.157959  , 32.23171    , 823.464966  , 0.24        , 3           , 255         , 0           , 0
-0.102160588, 0.157631308 , -9.802809   , -0.000271826866, 0.000368790817, 0.0005385678, -0.0157861058, -0.0107165975, 1.47416176E-05, 918.157959  , 32.23171    , 823.465     , 0.25        , 3           , 255         , 0           , 0
-0.100379132, 0.153123021 , -9.797267   , 0.000353877142, 0.000276145642, -4.60291922E-05, -0.015782563, -0.0107138436, 1.42377858E-05, 918.157959  , 32.23171    , 823.4651    , 0.26        , 3           , 255         , 0           , 0
-0.107171439, 0.155987412 , -9.792376   , 0.000106879976, -3.177696E-05, -2.667529E-05, -0.01578149 , -0.0107141649, 1.39760623E-05, 918.157959  , 32.23171    , 823.465149  , 0.27        , 3           , 255         , 0           , 0
-0.108198069, 0.159557626 , -9.793499   , 0.000496910769, -0.0004015104, -0.000284471025, -0.01577649 , -0.0107182255, 1.11949648E-05, 918.157959  , 32.23171    , 823.4652    , 0.28        , 3           , 255         , 0           , 0
-0.109634563, 0.148170918 , -9.797589   , 0.0005235947, -0.000272272155, 0.000548898 , -0.0157713145, -0.01072086 , 1.67263879E-05, 918.157959  , 32.23171    , 823.4653    , 0.29        , 3           , 255         , 0           , 0
-0.112720273, 0.151234    , -9.79711    , -0.0001798597, 0.000225662312, 0.000185827681, -0.0157731324, -0.0107185747, 1.85488952E-05, 918.157959  , 32.23171    , 823.465332  , 0.3         , 3           , 255         , 0           , 0
-0.1085098  , 0.155927911 , -9.799935   , -0.000443901052, 0.000346636516, -0.000178609538, -0.0157836061, -0.0107170632, 1.67731723E-05, 918.157959  , 32.23171    , 823.5189    , 0.31        , 3           , 255         , 0           , 0
-0.106271788, 0.155236036 , -9.797025   , 0.000219739741, -0.000183765311, -1.052281E-05, -0.01578141 , -0.0107189016, 1.6696953E-05, 918.157959  , 32.23171    , 823.519     , 0.32        , 3           , 255         , 0           , 0
-0.11132662 , 0.161362037 , -9.795531   , 0.000670119654, 8.37649E-05 , -0.000187071069, -0.0157746878, -0.0107180923, 1.48132167E-05, 918.174744  , 32.2478561  , 823.519043  , 0.33        , 3           , 255         , 0           , 0
-0.1031391  , 0.151885867 , -9.793583   , 0.0008344612, 7.797731E-06, -0.000231816986, -0.0157663189, -0.01071805 , 1.2494017E-05, 918.174744  , 32.2478561  , 823.5191    , 0.34        , 3           , 255         , 0           , 0
-0.104529008, 0.160627276 , -9.805435   , 0.000409313478, 0.000275400234, -0.000652177841, -0.0157621559, -0.0107153989, 5.929424E-06, 918.174744  , 32.2478561  , 823.519165  , 0.35        , 3           , 255         , 0           , 0
-0.112864114, 0.150279492 , -9.80283451 , -0.000267049181, -0.000337244128, -0.000279479631, -0.0157647971, -0.010718816, 3.18805678E-06, 918.174744  , 32.2478561  , 823.5192    , 0.36        , 3           , 255         , 0           , 0
-0.107297182, 0.143890187 , -9.785172   , 0.000273216749, -0.000513717649, 0.000405513623, -0.01576211 , -0.0107238889, 7.32379567E-06, 918.174744  , 32.2478561  , 823.5193    , 0.37        , 3           , 255         , 0           , 0
-0.106007122, 0.157109082 , -9.794904   , 0.000572655234, -0.0005087566, 0.0008631202, -0.0157564748, -0.010728837, 1.60343789E-05, 918.174744  , 32.2478561  , 823.519348  , 0.38        , 3           , 255         , 0           , 0
-0.11072582 , 0.153609365 , -9.794453   , 0.000112145906, -0.000144417631, 0.000177015987, -0.0157553721, -0.0107302535, 1.78271312E-05, 918.174744  , 32.2478561  , 823.5194    , 0.39        , 3           , 255         , 0           , 0
-0.107482776, 0.152712971 , -9.791063   , 0.000544887735, -0.000358253252, -0.000343634485, -0.0157498866, -0.0107338922, 1.44475434E-05, 918.174744  , 32.2478561  , 823.5195    , 0.4         , 3           , 255         , 0           , 0
-0.101016641, 0.151290268 , -9.792289   , 0.0007455986, 0.000294972036, 0.000218241417, -0.01574194 , -0.0107393572, 1.65778074E-05, 918.174744  , 32.2478561  , 823.508057  , 0.41        , 3           , 255         , 0           , 0
-0.1056211  , 0.148512959 , -9.790611   , 4.685158E-05, -7.403793E-05, -8.871517E-05, -0.0157414619, -0.0107401116, 1.57023878E-05, 918.174744  , 32.2478561  , 823.5081    , 0.42        , 3           , 255         , 0           , 0
-0.100047052, 0.158572152 , -9.789805   , 0.000230313453, -0.000103028142, -0.0004602051, -0.01573911 , -0.0107412133, 1.11169738E-05, 918.162048  , 32.2563362  , 823.5082    , 0.43        , 3           , 255         , 0           , 0
-0.108670689, 0.153620809 , -9.790202   , 0.0008383274, 5.74401347E-05, 0.000149437867, -0.0157307424, -0.0107406164, 1.2602176E-05, 918.162048  , 32.2563362  , 823.50824   , 0.44        , 3           , 255         , 0           , 0
-0.104167983, 0.15185599  , -9.7887125  , 0.000113897375, 0.000151655753, -0.000233252213, -0.0157295782, -0.0107391365, 1.024602E-05, 918.162048  , 32.2563362  , 823.5083    , 0.45        , 3           , 255         , 0           , 0
-0.103206336, 0.149910152 , -9.791041   , -5.571486E-05, -0.000160052441, -3.0110823E-05, -0.0157301314, -0.0107407412, 9.97010648E-06, 918.162048  , 32.2563362  , 823.508362  , 0.46        , 3           , 255         , 0           , 0
-0.106816351, 0.149594381 , -9.792706   , -0.0003817893, -0.0005375827, 5.193356E-05, -0.0157339573, -0.0107461084, 1.05739664E-05, 918.162048  , 32.2563362  , 823.5084    , 0.47        , 3           , 255         , 0           , 0
-0.108296014, 0.153040081 , -9.796652   , 0.000206644239, -0.000706395833, 0.000745663652, -0.01573197 , -0.0107530523, 1.814106E-05, 918.162048  , 32.2563362  , 823.5085    , 0.48        , 3           , 255         , 0           , 0
-0.113407686, 0.1590369   , -9.795625   , 0.000158272276, -0.000177287846, 6.56768243E-05, -0.0157303941, -0.0107548144, 1.882565E-05, 918.162048  , 32.2563362  , 823.508545  , 0.49        , 3           , 255         , 0           , 0
-0.1161463  , 0.167215154 , -9.796715   , 0.000228467747, -0.0005182279, 0.00012154752, -0.0157281272, -0.0107599767, 2.01225448E-05, 918.162048  , 32.2563362  , 823.508667  , 0.5         , 3           , 255         , 0           , 0
-0.109666564, 0.16109851  , -9.793251   , -0.0001333917, -0.000191227184, -0.000103248836, -0.0157302357, -0.0107675549, 1.91286981E-05, 918.162048  , 32.2563362  , 823.525146  , 0.51        , 3           , 255         , 0           , 0
-0.101481065, 0.158721834 , -9.790897   , -6.57303E-05, -7.846055E-05, -0.0002601729, -0.0157308634, -0.01076838 , 1.65395377E-05, 918.162048  , 32.2563362  , 823.525269  , 0.52        , 3           , 255         , 0           , 0
-0.10518454 , 0.156490058 , -9.800629   , -2.3120665E-05, -0.000126849161, -0.000606342568, -0.0157310273, -0.0107697444, 1.04966139E-05, 918.2059    , 32.2667847  , 823.5254    , 0.53        , 3           , 255         , 0           , 0
-0.111070715, 0.159786671 , -9.797562   , 0.000360776961, -9.817735E-05, -0.0004164256, -0.0157273784, -0.0107707912, 6.34816843E-06, 918.2059    , 32.2667847  , 823.5255    , 0.54        , 3           , 255         , 0           , 0
-0.114531621, 0.149126485 , -9.785794   , 6.385008E-05, 0.000263559865, -0.0009662692, -0.0157266352, -0.0107683074, -3.35509458E-06, 918.2059    , 32.2667847  , 823.525635  , 0.55        , 3           , 255         , 0           , 0
-0.10972333 , 0.157478675 , -9.786755   , -0.000155102, 0.000274577935, 7.91973434E-07, -0.015728185, -0.01076556 , -3.39036342E-06, 918.2059    , 32.2667847  , 823.525757  , 0.56        , 3           , 255         , 0           , 0
-0.115277134, 0.1519889   , -9.786102   , 0.000243206974, 0.000213001971, 6.471967E-05, -0.0157257579, -0.0107634207, -2.77671734E-06, 918.2059    , 32.2667847  , 823.5259    , 0.57        , 3           , 255         , 0           , 0
-0.106740355, 0.155353    , -9.79104    , 0.000249367673, -0.000328704715, 0.0005345157, -0.0157233216, -0.0107666226, 2.61962032E-06, 918.2059    , 32.2667847  , 823.526     , 0.58        , 3           , 255         , 0           , 0
-0.10518752 , 0.15995118  , -9.79371    , -0.000270209974, -0.000237830449, 0.000588448544, -0.0157260876, -0.010768909, 8.540978E-06, 918.2059    , 32.2667847  , 823.5261    , 0.59        , 3           , 255         , 0           , 0
-0.105248287, 0.161444455 , -9.787947   , -0.000569307944, -0.0002982067, 0.0002549434, -0.0157318059, -0.010771852, 1.11370737E-05, 918.2059    , 32.2667847  , 823.526245  , 0.6         , 3           , 255         , 0           , 0
-0.114310168, 0.166575179 , -9.783418   , -0.0005438884, -0.000289905351, 0.000327535323, -0.01574914 , -0.01078582 , 1.45856729E-05, 918.2059    , 32.2667847  , 823.468445  , 0.61        , 3           , 255         , 0           , 0
-0.09564421 , 0.154859632 , -9.798984   , -1.27397943E-05, 4.541315E-05, -0.000408288382, -0.0157492235, -0.01078543 , 1.04959972E-05, 918.2059    , 32.2667847  , 823.468567  , 0.62        , 3           , 255         , 0           , 0
-0.09852769 , 0.143530071 , -9.786848   , -8.80849548E-05, -4.98304144E-05, -0.000267738535, -0.0157500748, -0.0107859708, 7.8267085E-06, 918.171     , 32.2692261  , 823.4687    , 0.63        , 3           , 255         , 0           , 0
-0.104005776, 0.161838263 , -9.789045   , 7.420243E-05, -0.000163683435, -0.000203006377, -0.0157493111, -0.01078764 , 5.82260373E-06, 918.171     , 32.2692261  , 823.4688    , 0.64        , 3           , 255         , 0           , 0
-0.112754092, 0.167934984 , -9.792857   , -8.564454E-05, -0.000179080525, 0.000209999533, -0.01575019 , -0.0107893962, 7.950618E-06, 918.171     , 32.2692261  , 823.468933  , 0.65        , 3           , 255         , 0           , 0
-0.110775217, 0.1546072   , -9.7917     , 0.000112558482, -0.0003414501, -0.000165125355, -0.0157490484, -0.0107928365, 6.35328524E-06, 918.171     , 32.2692261  , 823.469055  , 0.66        , 3           , 255         , 0           , 0
-0.103913859, 0.144800872 , -9.792407   , -0.00018413621, -0.000301420339, -0.000221569324, -0.0157508664, -0.0107958838, 4.185266E-06, 918.171     , 32.2692261  , 823.4692    , 0.67        , 3           , 255         , 0           , 0
-0.106351972, 0.151620343 , -9.79248    , -1.788116E-05, -0.000112797949, -0.000150161592, -0.0157510284, -0.0107970349, 2.70155329E-06, 918.171     , 32.2692261  , 823.4693    , 0.68        , 3           , 255         , 0           , 0
-0.10889478 , 0.147973031 , -9.791608   , 0.00013962714, 0.0002680997, 0.000220058952, -0.0157496557, -0.0107943211, 4.859714E-06, 918.171     , 32.2692261  , 823.4694    , 0.69        , 3           , 255         , 0           , 0
-0.0991784856, 0.157329828 , -9.799602   , -2.77353683E-05, 0.000110805151, -5.21807233E-05, -0.0157499257, -0.0107932212, 4.320512E-06, 918.171     , 32.2692261  , 823.469543  , 0.7         , 3           , 255         , 0           , 0
-0.103005305, 0.153719723 , -9.799303   , -3.57927056E-05, 0.000225248164, -0.0006646102, -0.0157532822, -0.0107902875, -2.32731418E-06, 918.171     , 32.2692261  , 823.4757    , 0.71        , 3           , 255         , 0           , 0
-0.106222413, 0.158400267 , -9.799063   , 0.00044514332, 0.000258488464, -0.000179072988, -0.0157488119, -0.010787731, -4.158605E-06, 918.171     , 32.2692261  , 823.4758    , 0.72        , 3           , 255         , 0           , 0
-0.102548108, 0.156999335 , -9.794243   , 0.0003438678, -1.91300642E-05, -0.000348416128, -0.0157453381, -0.0107879788, -7.639435E-06, 918.196838  , 32.2749939  , 823.475952  , 0.73        , 3           , 255         , 0           , 0
-0.1073689  , 0.162556112 , -9.795929   , -0.000146119623, 0.000238950539, -0.000401547324, -0.0157467518, -0.0107856523, -1.16921838E-05, 918.196838  , 32.2749939  , 823.4761    , 0.74        , 3           , 255         , 0           , 0
-0.108572625, 0.157165378 , -9.787519   , 0.000289804128, 0.000176869042, 0.00014428029, -0.0157438722, -0.0107838595, -1.02773638E-05, 918.196838  , 32.2749939  , 823.4762    , 0.75        , 3           , 255         , 0           , 0
-0.109188557, 0.157405943 , -9.796028   , 0.000156692811, -0.000190964434, -9.478434E-05, -0.0157422926, -0.0107857846, -1.11950694E-05, 918.196838  , 32.2749939  , 823.4763    , 0.76        , 3           , 255         , 0           , 0
-0.102599584, 0.149024576 , -9.793887   , -0.000482997857, -0.000619686, 0.000422659563, -0.0157471672, -0.0107919136, -6.871283E-06, 918.196838  , 32.2749939  , 823.47644   , 0.77        , 3           , 255         , 0           , 0
-0.104859471, 0.152341664 , -9.79014    , -0.0007142561, -0.000273070065, 0.00123598857, -0.0157544427, -0.0107944487, 5.530472E-06, 918.196838  , 32.2749939  , 823.476563  , 0.78        , 3           , 255         , 0           , 0
-0.110510446, 0.164355725 , -9.795694   , -0.000234541832, -0.000299631036, 0.00028502426, -0.0157568175, -0.0107973991, 8.427665E-06, 918.196838  , 32.2749939  , 823.4767    , 0.79        , 3           , 255         , 0           , 0
-0.10080149 , 0.1541401   , -9.794996   , -0.0001959349, -0.000312854769, -1.07523229E-05, -0.0157587789, -0.0108005293, 8.369447E-06, 918.196838  , 32.2749939  , 823.4768    , 0.8         , 3           , 255         , 0           , 0
-0.09491046 , 0.155763179 , -9.795249   , -0.000512524857, 0.000105847022, 0.0005105173, -0.01577068 , -0.01079916 , 1.35301043E-05, 918.196838  , 32.2749939  , 823.4492    , 0.81        , 3           , 255         , 0           , 0
-0.09940775 , 0.149515122 , -9.79593849 , -0.000185000245, 0.0003512394, 4.24623577E-05, -0.0157725364, -0.0107956417, 1.38992937E-05, 918.196838  , 32.2749939  , 823.449341  , 0.82        , 3           , 255         , 0           , 0
-0.105446637, 0.151644483 , -9.794692   , -6.70026056E-05, 8.537236E-05, 0.00020960196, -0.01577323 , -0.010794756, 1.59816627E-05, 918.177734  , 32.2749252  , 823.449463  , 0.83        , 3           , 255         , 0           , 0
-0.113833271, 0.151382238 , -9.788633   , 0.00021786266, -0.000135816517, 0.000428124942, -0.0157710928, -0.0107960459, 2.02839328E-05, 918.177734  , 32.2749252  , 823.4496    , 0.84        , 3           , 255         , 0           , 0
-0.100391604, 0.156854987 , -9.78661251 , -7.117633E-07, 0.000104403356, -4.51883534E-05, -0.0157710966, -0.0107950093, 1.98156322E-05, 918.177734  , 32.2749252  , 823.4497    , 0.85        , 3           , 255         , 0           , 0
-0.113838755, 0.151015341 , -9.79092    , -5.13438135E-05, 0.000202908588, 0.0001563885, -0.01577163 , -0.0107929558, 2.13473832E-05, 918.177734  , 32.2749252  , 823.4498    , 0.86        , 3           , 255         , 0           , 0
-0.115698718, 0.145809531 , -9.799826   , 0.000352696574, 8.12673243E-05, -8.248817E-05, -0.0157680959, -0.0107921558, 2.05097622E-05, 918.177734  , 32.2749252  , 823.449951  , 0.87        , 3           , 255         , 0           , 0
-0.113065578, 0.141862318 , -9.795549   , 0.00019957131, -0.000347413239, 0.0005825744, -0.0157661662, -0.0107955374, 2.63897564E-05, 918.177734  , 32.2749252  , 823.4501    , 0.88        , 3           , 255         , 0           , 0
-0.108306646, 0.145749643 , -9.794698   , 0.000244088413, -0.0004563058, 4.779453E-05, -0.0157637279, -0.0108000915, 2.6939586E-05, 918.177734  , 32.2749252  , 823.4502    , 0.89        , 3           , 255         , 0           , 0
-0.10835731 , 0.145631164 , -9.800179   , 0.0002951902, 6.457267E-05, 0.0001635104, -0.0157607943, -0.01079942 , 2.856437E-05, 918.177734  , 32.2749252  , 823.4503    , 0.9         , 3           , 255         , 0           , 0
-0.107325152, 0.151346445 , -9.79521    , 0.000116144656, -0.000419837423, -0.0001587497, -0.01574553 , -0.0108081251, 2.68909316E-05, 918.177734  , 32.2749252  , 823.4502    , 0.91        , 3           , 255         , 0           , 0
-0.108309589, 0.152831361 , -9.794664   , 0.000343015126, -5.346944E-05, 0.000237734537, -0.0157421269, -0.0108086225, 2.92764871E-05, 918.177734  , 32.2749252  , 823.4503    , 0.92        , 3           , 255         , 0           , 0
-0.111381695, 0.1548582   , -9.796381   , -0.00017435092, 8.82186E-05 , -0.000220687449, -0.01574385 , -0.010807774, 2.705592E-05, 918.164246  , 32.278656   , 823.450439  , 0.93        , 3           , 255         , 0           , 0
-0.112458073, 0.15773572  , -9.795183   , -0.000452032662, -5.50627E-05, 7.30055035E-06, -0.0157483667, -0.0108083244, 2.7137592E-05, 918.164246  , 32.278656   , 823.450562  , 0.94        , 3           , 255         , 0           , 0
-0.0971844047, 0.151551247 , -9.790979   , 0.000517511857, 0.000410156732, -0.0005614244, -0.0157431345, -0.0108043114, 2.14592837E-05, 918.164246  , 32.278656   , 823.4507    , 0.95        , 3           , 255         , 0           , 0
-0.09645414 , 0.156471163 , -9.787961   , 0.0002827904, 3.263494E-05, 0.000357915036, -0.0157403443, -0.0108039286, 2.5032974E-05, 918.164246  , 32.278656   , 823.4508    , 0.96        , 3           , 255         , 0           , 0
-0.102493271, 0.163636044 , -9.785942   , 5.84031222E-05, 5.432393E-05, 9.641993E-05, -0.0157397687, -0.0108033707, 2.59885364E-05, 918.164246  , 32.278656   , 823.4509    , 0.97        , 3           , 255         , 0           , 0
-0.101210155, 0.1571867   , -9.794357   , 0.000243982358, -0.000315590878, 0.000731876236, -0.0157374088, -0.0108064115, 3.33563039E-05, 918.164246  , 32.278656   , 823.45105   , 0.98        , 3           , 255         , 0           , 0
-0.104755029, 0.156716853 , -9.784724   , 0.000204834039, 8.734036E-05, 0.000191150451, -0.0157353822, -0.0108055072, 3.52538918E-05, 918.164246  , 32.278656   , 823.4512    , 0.99        , 3           , 255         , 0           , 0
-0.105449155, 0.154882237 , -9.787625   , -0.000218242989, -7.47059239E-05, 3.806391E-05, -0.015737569, -0.0108062485, 3.564625E-05, 918.164246  , 32.278656   , 823.4513    , 1           , 3           , 0           , 6.43723631  , 100
-0.103668772, 0.162186936 , -9.79553    , 0.000232462771, 0.000325869943, 0.0004899598, -0.0157404877, -0.0107991453, 4.05502142E-05, 918.164246  , 32.278656   , 823.4659    , 1.01        , 3           , 1           , 0           , 0
-0.104449354, 0.156742021 , -9.796431   , 2.80526E-05 , 2.923701E-05, 0.0001667047, -0.0157402251, -0.0107988259, 4.221251E-05, 918.164246  , 32.278656   , 823.466064  , 1.02        , 3           , 2           , 0           , 0
-0.105123378, 0.155967787 , -9.791006   , 0.000428345054, -0.000111836358, -0.0001658778, -0.0157359261, -0.0107999733, 4.057148E-05, 918.2089    , 32.2792     , 823.466248  , 1.03        , 3           , 3           , 0           , 0
-0.09282534 , 0.155987814 , -9.786354   , -0.000180260744, 0.000444835518, -0.000861036649, -0.0157376323, -0.0107956594, 3.18918865E-05, 918.2089    , 32.2792     , 823.466431  , 1.04        , 3           , 4           , 0           , 0
-0.1045804  , 0.163267061 , -9.78815    , 0.0002721522, 0.000199042261, -0.0003346966, -0.0157348756, -0.0107937213, 2.85139049E-05, 918.2089    , 32.2792     , 823.4666    , 1.05        , 3           , 5           , 0           , 0
-0.111474767, 0.159471363 , -9.780578   , -0.000789949, -0.000289523858, 0.0007851535, -0.01574286 , -0.0107964939, 3.64102925E-05, 918.2089    , 32.2792     , 823.4668    , 1.06        , 3           , 6           , 0           , 0
-0.101376653, 0.1617567   , -9.793251   , -0.000197826186, -0.000412351917, 0.0008523331, -0.01574493 , -0.01080048 , 4.4997767E-05, 918.2089    , 32.2792     , 823.467     , 1.07        , 3           , 7           , 0           , 0
-0.110234119, 0.155922547 , -9.798166   , 8.652685E-06, -7.258763E-05, 0.000604668166, -0.01574491 , -0.0108011113, 5.10553364E-05, 918.2089    , 32.2792     , 823.467163  , 1.08        , 3           , 8           , 5           , 5
-0.11190822 , 0.153787881 , -9.791494   , 0.000296259648, 0.000658488134, 0.0002430321, -0.015741976, -0.0107944887, 5.338177E-05, 918.2089    , 32.2792     , 823.467346  , 1.09        , 3           , 9           , 5           , 0.1
-0.100608945, 0.157590538 , -9.791701   , 0.000106517109, -6.914919E-05, -0.000409681175, -0.0157408658, -0.0107952459, 4.929621E-05, 918.2089    , 32.2792     , 823.4675    , 1.1         , 3           , 10          , 0.1         , 0.1
-0.109056458, 0.159020871 , -9.794947   , 7.875555E-05, -0.000162877026, -0.000487607933, -0.01575365 , -0.0107934149, 4.459325E-05, 918.2089    , 32.2792     , 823.4324    , 1.11        , 3           , 11          , 0.009278045 , 0.009278044
-0.120070912, 0.155752137 , -9.792213   , 3.6681653E-05, -0.000422941637, -0.000695066061, -0.0157532077, -0.0107977521, 3.77098477E-05, 918.2089    , 32.2792     , 823.4325    , 1.12        , 3           , 12          , 0.174642846 , 0
-0.104778409, 0.147003353 , -9.788349   , -0.0002455645, -0.000315665267, 0.000107004133, -0.0157556739, -0.0108008916, 3.88295157E-05, 918.21106   , 32.2824554  , 823.4326    , 1.13        , 3           , 13          , 0           , 0
-0.0994766  , 0.1511666   , -9.785902   , -0.000336584053, 8.01218E-05 , -4.60085E-05, -0.0157590359, -0.0108000981, 3.835685E-05, 918.21106   , 32.2824554  , 823.432739  , 1.14        , 3           , 14          , -0.00113072747, -0.001103984
-0.108932972, 0.159716755 , -9.789986   , -0.000167265185, -0.000165094621, 0.000219470166, -0.015760731, -0.0108017139, 4.05773644E-05, 918.21106   , 32.2824554  , 823.432861  , 1.15        , 3           , 15          , 0           , -0.000263942726
-0.10542722 , 0.155545682 , -9.793681   , 4.07196349E-05, 6.83103E-05 , -0.000386662054, -0.0157602821, -0.0108010918, 3.67003267E-05, 918.21106   , 32.2824554  , 823.433     , 1.16        , 3           , 16          , 0           , 1.401298E-45
-0.104937837, 0.150879771 , -9.784494   , 0.000531029655, 8.63614259E-05, 0.0005556141, -0.0157550313, -0.01080014 , 4.224235E-05, 918.21106   , 32.2824554  , 823.4331    , 1.17        , 3           , 20          , 0           , 0
-0.112705514, 0.157145917 , -9.797636   , 0.000599350955, -7.436378E-06, -8.400087E-05, -0.015749028, -0.0108002294, 4.14035967E-05, 918.21106   , 32.2824554  , 823.4332    , 1.18        , 3           , 21          , 0           , 0
-0.113241173, 0.150992349 , -9.797331   , 0.000598422 , -0.000299935229, -0.000515811262, -0.01574299 , -0.01080331 , 3.62931678E-05, 918.21106   , 32.2824554  , 823.43335   , 1.19        , 3           , 22          , 0           , 0
-0.115519308, 0.1463035   , -9.787302   , -0.000198155059, -0.000145746511, -0.000620804145, -0.0157449041, -0.0108048627, 3.01086275E-05, 918.21106   , 32.2824554  , 823.4335    , 1.2         , 3           , 40          , 0           , 0
-0.0999479145, 0.1626732   , -9.786582   , -0.0004992952, 0.0004784462, 1.245804E-05, -0.0157468058, -0.0108116781, 3.01244527E-05, 918.21106   , 32.2824554  , 823.4007    , 1.21        , 3           , 41          , 0           , 0
-0.103892542, 0.160865545 , -9.803578   , 0.000169357518, 2.88616866E-06, -0.0003850989, -0.0157450717, -0.01081171 , 2.62733647E-05, 918.21106   , 32.2824554  , 823.4007    , 1.22        , 3           , 42          , 0           , 0
-0.10537535 , 0.15434134  , -9.795467   , 0.000280144741, -0.000622076564, -0.000124539773, -0.01574226 , -0.0108179506, 2.512601E-05, 918.174     , 32.2855072  , 823.4007    , 1.23        , 3           , 255         , 0           , 0
-0.109405994, 0.154523522 , -9.786725   , -0.000305401627, -0.000210986473, -0.000318572653, -0.0157452747, -0.01082011 , 2.19737849E-05, 918.174     , 32.2855072  , 823.4007    , 1.24        , 3           , 255         , 0           , 0
-0.109668061, 0.151626319 , -9.787974   , 6.345264E-05, -0.0004555263, -0.000565120135, -0.01574458 , -0.0108247539, 1.6394828E-05, 918.174     , 32.2855072  , 823.4007    , 1.25        , 3           , 255         , 0           , 0
-0.10386505 , 0.157367349 , -9.793051   , 0.00067743496, -0.0004983435, 0.000274493417, -0.0157378372, -0.0108296927, 1.92179432E-05, 918.174     , 32.2855072  , 823.4007    , 1.26        , 3           , 255         , 0           , 0
-0.108514264, 0.152645543 , -9.794775   , -0.000458684983, -0.000156377675, 0.000384934538, -0.015742464, -0.0108311949, 2.30915412E-05, 918.174     , 32.2855072  , 823.4007    , 1.27        , 3           , 255         , 0           , 0
-0.105673827, 0.157444954 , -9.795367   , -0.000306525035, 0.00021564716, -0.000208729471, -0.0157455076, -0.0108290715, 2.09704813E-05, 918.174     , 32.2855072  , 823.4007    , 1.28        , 3           , 255         , 0           , 0
-0.09560877 , 0.155758187 , -9.78447151 , 0.0003684779, 0.000272285775, -0.00030370857, -0.01574179 , -0.0108263968, 1.78908031E-05, 918.174     , 32.2855072  , 823.4007    , 1.29        , 3           , 255         , 0           , 0
-0.102154896, 0.160511538 , -9.784946   , -0.000449647661, 0.000429167529, -0.0005714701, -0.0157462247, -0.0108221956, 1.210906E-05, 918.174     , 32.2855072  , 823.4007    , 1.3         , 3           , 255         , 0           , 0
-0.107312918, 0.163431853 , -9.78816    , -0.000288229669, 0.0001773811, -0.000409051834, -0.01575703 , -0.0108156512, 8.077157E-06, 918.174     , 32.2855072  , 823.41      , 1.31        , 3           , 255         , 0           , 0
-0.100461051, 0.157015368 , -9.79212952 , 7.34380446E-05, -0.00041623658, 0.0003859005, -0.015756337, -0.0108197536, 1.20013974E-05, 918.174     , 32.2855072  , 823.410034  , 1.32        , 3           , 255         , 0           , 0
-0.102254711, 0.162149876 , -9.794976   , 7.432175E-05, -0.000365447253, 0.0007490063, -0.0157556757, -0.010823288, 1.95483535E-05, 918.1963    , 32.2851028  , 823.4101    , 1.33        , 3           , 255         , 0           , 0
-0.1068815  , 0.155290619 , -9.78799248 , 0.000120209996, -0.000283155, 0.000566901639, -0.0157545358, -0.01082603 , 2.52614736E-05, 918.1963    , 32.2851028  , 823.410156  , 1.34        , 3           , 255         , 0           , 0
-0.107568517, 0.15410018  , -9.787901   , 0.0006086334, 0.000490873936, 0.00114963716, -0.0157485716, -0.01082094 , 3.667947E-05, 918.1963    , 32.2851028  , 823.4102    , 1.35        , 3           , 255         , 0           , 0
-0.09943067 , 0.15208295  , -9.797253   , -7.030694E-05, 0.000265143346, 0.0003415055, -0.0157493111, -0.0108182346, 4.00524477E-05, 918.1963    , 32.2851028  , 823.4103    , 1.36        , 3           , 255         , 0           , 0
-0.103361785, 0.15601024  , -9.79272    , 4.55926638E-05, -1.51514541E-06, -9.392679E-05, -0.0157488436, -0.0108182644, 3.91135E-05 , 918.1963    , 32.2851028  , 823.410339  , 1.37        , 3           , 255         , 0           , 0
-0.104748569, 0.159846276 , -9.796628   , -5.97781036E-05, 7.053965E-05, 5.030156E-05, -0.015749447, -0.01081755 , 3.960536E-05, 918.1963    , 32.2851028  , 823.4104    , 1.38        , 3           , 255         , 0           , 0
-0.104017176, 0.152462319 , -9.80281448 , -0.000276253559, 0.000415409682, -3.23420973E-05, -0.0157522038, -0.010813402, 3.92165348E-05, 918.1963    , 32.2851028  , 823.410461  , 1.39        , 3           , 255         , 0           , 0
-0.119230881, 0.1498015   , -9.799326   , -0.000421278644, 0.000104297651, 0.000609380542, -0.0157564841, -0.010812263, 4.529337E-05, 918.1963    , 32.2851028  , 823.4105    , 1.4         , 3           , 255         , 0           , 0
-0.109220341, 0.155078724 , -9.794249   , 0.000461085583, -5.59659675E-05, 3.67451E-05 , -0.01575667 , -0.0108116064, 4.57214446E-05, 918.1963    , 32.2851028  , 823.395752  , 1.41        , 3           , 255         , 0           , 0
-0.103786886, 0.153552547 , -9.799692   , 0.0005318484, 0.000228045508, -0.000252391124, -0.0157513265, -0.0108093657, 4.316184E-05, 918.1963    , 32.2851028  , 823.395752  , 1.42        , 3           , 255         , 0           , 0
-0.101053134, 0.154352874 , -9.799009   , -0.000343184453, -0.000132660381, 9.37875E-05 , -0.0157547668, -0.010810677, 4.41205229E-05, 918.2048    , 32.2865257  , 823.395752  , 1.43        , 3           , 255         , 0           , 0
-0.101116039, 0.156609789 , -9.793988   , -6.622961E-05, -5.23471972E-05, 3.08874E-05 , -0.0157554336, -0.0108111957, 4.44376128E-05, 918.2048    , 32.2865257  , 823.395752  , 1.44        , 3           , 255         , 0           , 0
-0.104840063, 0.161294222 , -9.795789   , -0.000176692847, 0.000468563754, -0.00105895137, -0.0157570858, -0.0108066788, 3.37752281E-05, 918.2048    , 32.2865257  , 823.395752  , 1.45        , 3           , 255         , 0           , 0
-0.112036273, 0.15151915  , -9.791054   , 0.000157139963, 0.00018935441, -5.81780041E-05, -0.0157555044, -0.0108047938, 3.316366E-05, 918.2048    , 32.2865257  , 823.395752  , 1.46        , 3           , 255         , 0           , 0
-0.116982862, 0.150977671 , -9.792046   , -0.000136204879, -0.0002508139, 0.000417883974, -0.0157569125, -0.0108072348, 3.738163E-05, 918.2048    , 32.2865257  , 823.395752  , 1.47        , 3           , 255         , 0           , 0
-0.107002556, 0.152957559 , -9.792253   , 3.32224881E-05, -6.237172E-05, 0.000349331647, -0.01575662 , -0.0108078029, 4.088446E-05, 918.2048    , 32.2865257  , 823.395752  , 1.48        , 3           , 255         , 0           , 0
-0.109954908, 0.157169968 , -9.790266   , 9.570876E-05, 0.000109830289, 1.44402438E-05, -0.01575566 , -0.010806703, 4.10115426E-05, 918.2048    , 32.2865257  , 823.395752  , 1.49        , 3           , 255         , 0           , 0
-0.105572462, 0.1597232   , -9.791554   , 0.000127305277, 9.5332507E-07, -5.30233374E-05, -0.0157543812, -0.0108067021, 4.04812E-05 , 918.2048    , 32.2865257  , 823.395752  , 1.5         , 3           , 255         , 0           , 0
-0.1036187  , 0.157475    , -9.791118   , 0.000598492 , -7.780432E-05, -0.000198831229, -0.01575077 , -0.0108106006, 3.85311978E-05, 918.2048    , 32.2865257  , 823.3731    , 1.51        , 3           , 255         , 0           , 0
-0.103732884, 0.1563226   , -9.799928   , -0.000298713217, -0.000127131818, 0.000268834585, -0.015753787, -0.010811829, 4.123933E-05, 918.2048    , 32.2865257  , 823.373047  , 1.52        , 3           , 255         , 0           , 0
-0.1073398  , 0.155263528 , -9.79293251 , -4.632515E-05, -0.000146830571, 0.000691338 , -0.0157543253, -0.0108131887, 4.81752177E-05, 918.147339  , 32.28707    , 823.373     , 1.53        , 3           , 255         , 0           , 0
-0.10664846 , 0.158510089 , -9.798447   , 0.00091028004, 0.000274755061, -0.0001292114, -0.0157452058, -0.0108104618, 4.68399339E-05, 918.147339  , 32.28707    , 823.3729    , 1.54        , 3           , 255         , 0           , 0
-0.107655272, 0.154609889 , -9.800367   , 0.000289317046, -5.51125268E-05, -8.428245E-05, -0.0157423057, -0.0108110253, 4.60058582E-05, 918.147339  , 32.28707    , 823.372864  , 1.55        , 3           , 255         , 0           , 0
-0.112426221, 0.157835811 , -9.789794   , 0.000364498759, -8.256745E-05, -0.000549932, -0.0157386  , -0.010811938, 4.05200335E-05, 918.147339  , 32.28707    , 823.3728    , 1.56        , 3           , 255         , 0           , 0
-0.109321475, 0.1529675   , -9.797932   , 0.0004961973, -0.000184186851, -0.000504481, -0.0157335829, -0.0108138584, 3.55046541E-05, 918.147339  , 32.28707    , 823.372742  , 1.57        , 3           , 255         , 0           , 0
-0.100768641, 0.161968842 , -9.787864   , 0.0003620574, 0.000358063029, -2.60633242E-05, -0.0157299563, -0.0108102839, 3.51877134E-05, 918.147339  , 32.28707    , 823.3727    , 1.58        , 3           , 255         , 0           , 0
-0.109303571, 0.158377618 , -9.789744   , 1.85640529E-05, -0.0002970692, -0.000157959381, -0.0157297514, -0.0108132772, 3.36549674E-05, 918.147339  , 32.28707    , 823.3726    , 1.59        , 3           , 255         , 0           , 0
-0.1128342  , 0.14995648  , -9.790776   , 0.0002457993, -9.75980656E-05, 0.000114833078, -0.0157273076, -0.0108142346, 3.48185422E-05, 918.147339  , 32.28707    , 823.372559  , 1.6         , 3           , 255         , 0           , 0
-0.104779162, 0.153597519 , -9.795044   , 0.000251323683, -0.000182323274, 0.000196743 , -0.015729852, -0.0108195031, 3.68689653E-05, 918.147339  , 32.28707    , 823.4138    , 1.61        , 3           , 255         , 0           , 0
-0.107722342, 0.160546765 , -9.803923   , 0.000134652946, -0.000275935279, 0.000717388466, -0.0157285854, -0.010822149, 4.40856056E-05, 918.147339  , 32.28707    , 823.414     , 1.62        , 3           , 255         , 0           , 0
-0.114066675, 0.159192175 , -9.799004   , 0.0003167356, 0.000252407743, 0.001083599 , -0.0157255325, -0.0108194528, 5.48809148E-05, 918.1961    , 32.2880173  , 823.4142    , 1.63        , 3           , 255         , 0           , 0
-0.111980632, 0.166643858 , -9.788477   , 0.000464661571, -0.0001618322, 0.0005098155, -0.0157209449, -0.0108209923, 6.00040476E-05, 918.1961    , 32.2880173  , 823.414368  , 1.64        , 3           , 255         , 0           , 0
-0.09833782 , 0.149839014 , -9.799192   , 0.000131641165, 5.72198769E-05, -0.000413708127, -0.0157195814, -0.0108204838, 5.585834E-05, 918.1961    , 32.2880173  , 823.414551  , 1.65        , 3           , 255         , 0           , 0
-0.100210704, 0.156819716 , -9.796164   , 0.000229713391, 0.000218577683, 0.0003270841, -0.015717322, -0.0108182477, 5.90945419E-05, 918.1961    , 32.2880173  , 823.414734  , 1.66        , 3           , 255         , 0           , 0
-0.1109553  , 0.154862136 , -9.789303   , 0.000400081917, 0.000115163974, -0.000129946362, -0.0157133061, -0.0108171161, 5.77770952E-05, 918.1961    , 32.2880173  , 823.4149    , 1.67        , 3           , 255         , 0           , 0
-0.101280019, 0.154098421 , -9.793081   , 0.00023294217, 0.000350652321, -0.000230883918, -0.015710948, -0.0108136479, 5.541336E-05, 918.1961    , 32.2880173  , 823.4151    , 1.68        , 3           , 255         , 0           , 0
-0.108654521, 0.155111924 , -9.7834     , 0.000173189677, -2.12049345E-05, -1.85415265E-05, -0.015709212, -0.0108138612, 5.5231274E-05, 918.1961    , 32.2880173  , 823.4153    , 1.69        , 3           , 255         , 0           , 0
-0.111821033, 0.1568055   , -9.785767   , -0.0006783634, -0.000401234021, -0.000147904269, -0.01571598 , -0.0108178966, 5.38154127E-05, 918.1961    , 32.2880173  , 823.415466  , 1.7         , 3           , 255         , 0           , 0
-0.10277693 , 0.149274617 , -9.797919   , -0.000359658385, -0.0003667447, 0.0005117334, -0.0157263223, -0.0108238645, 5.9062324E-05, 918.1961    , 32.2880173  , 823.3993    , 1.71        , 3           , 255         , 0           , 0
-0.09237611 , 0.150798991 , -9.79352    , -0.0003956441, -0.000226081815, 0.0011771156, -0.0157304034, -0.0108259385, 7.08679654E-05, 918.1961    , 32.2880173  , 823.399353  , 1.72        , 3           , 255         , 0           , 0
-0.0970625952, 0.146748737 , -9.787645   , -0.00022332184, 0.000190817867, 0.000437652547, -0.0157326851, -0.0108239613, 7.52140841E-05, 918.097534  , 32.2872734  , 823.3994    , 1.73        , 3           , 255         , 0           , 0
-0.107623376, 0.154691368 , -9.794959   , 0.0003135684, -0.000184911885, -3.112259E-05, -0.0157295465, -0.0108258147, 7.493198E-05, 918.097534  , 32.2872734  , 823.3995    , 1.74        , 3           , 255         , 0           , 0
-0.09547012 , 0.154373437 , -9.788785   , 0.000461830583, -7.62101263E-06, -0.000112543348, -0.0157249179, -0.0108259078, 7.380786E-05, 918.097534  , 32.2872734  , 823.399536  , 1.75        , 3           , 255         , 0           , 0
-0.0959586054, 0.15918982  , -9.790055   , 0.0006421886, 0.0005482443, 0.000274186459, -0.0157185271, -0.010820386, 7.646328E-05, 918.097534  , 32.2872734  , 823.3996    , 1.76        , 3           , 255         , 0           , 0
-0.104177333, 0.155951738 , -9.791788   , 0.000476132729, -6.835919E-05, -4.17504343E-05, -0.0157137625, -0.0108210761, 7.605656E-05, 918.097534  , 32.2872734  , 823.399658  , 1.77        , 3           , 255         , 0           , 0
-0.106303647, 0.153187573 , -9.795226   , -1.41514465E-06, 0.000213225256, 0.000421614852, -0.0157138221, -0.0108188773, 8.0238824E-05, 918.097534  , 32.2872734  , 823.3997    , 1.78        , 3           , 255         , 0           , 0
-0.106915437, 0.15696004  , -9.78639    , 0.00016712409, -0.000155290589, 0.0003502821, -0.0157121886, -0.0108203748, 8.376574E-05, 918.097534  , 32.2872734  , 823.3998    , 1.79        , 3           , 255         , 0           , 0
-0.108662367, 0.162622645 , -9.792805   , 0.0003813139, -0.000114820781, -0.000163485616, -0.0157083571, -0.0108215492, 8.21490758E-05, 918.097534  , 32.2872734  , 823.3999    , 1.8         , 3           , 255         , 0           , 0
-0.115530327, 0.168588459 , -9.795431   , 0.000920571 , 1.42350327E-05, -0.000284023816, -0.01570009 , -0.0108102635, 7.9317324E-05, 918.097534  , 32.2872734  , 823.497437  , 1.81        , 3           , 255         , 0           , 0
-0.113717631, 0.163602218 , -9.792381   , 0.0004825052, 0.0002435387, -9.889278E-06, -0.0156952646, -0.010807829, 7.918022E-05, 918.097534  , 32.2872734  , 823.4981    , 1.82        , 3           , 255         , 0           , 0
-0.11050196 , 0.152738154 , -9.786743   , -9.275158E-06, 0.000399191456, -9.70635156E-05, -0.0156953465, -0.0108038522, 7.814702E-05, 918.1707    , 32.2880859  , 823.4988    , 1.83        , 3           , 255         , 0           , 0
-0.106188163, 0.1515306   , -9.793911   , 0.000444382778, 0.000160123454, -0.00024356402, -0.015690878, -0.0108022913, 7.568646E-05, 918.1707    , 32.2880859  , 823.499451  , 1.84        , 3           , 255         , 0           , 0
-0.110582113, 0.153465152 , -9.796497   , -0.000127575244, 0.000129417574, -0.000965577958, -0.0156920478, -0.0108011477, 6.60112346E-05, 918.1707    , 32.2880859  , 823.5001    , 1.85        , 3           , 255         , 0           , 0
-0.108864143, 0.15628159  , -9.800342   , -0.000148029067, -0.000249727978, -0.000537787, -0.015693469, -0.0108037293, 6.06730428E-05, 918.1707    , 32.2880859  , 823.5008    , 1.86        , 3           , 255         , 0           , 0
-0.113336861, 0.151942223 , -9.798277   , -2.62513058E-05, -7.566821E-05, 5.834816E-05, -0.0156937391, -0.0108044771, 6.126835E-05, 918.1707    , 32.2880859  , 823.501465  , 1.87        , 3           , 255         , 0           , 0
-0.1044248  , 0.1531483   , -9.802162   , 8.572533E-05, 0.000340441475, 0.0005434225, -0.0156929418, -0.0108009875, 6.6648674E-05, 918.1707    , 32.2880859  , 823.502136  , 1.88        , 3           , 255         , 0           , 0
-0.09932714 , 0.148968413 , -9.801031   , 0.000159178046, 0.0003636357, 0.000335474964, -0.0156913865, -0.0107972985, 6.994606E-05, 918.1707    , 32.2880859  , 823.5028    , 1.89        , 3           , 255         , 0           , 0
-0.0962606445, 0.153245181 , -9.800491   , 0.0006648224, -4.7548092E-05, 0.000512027938, -0.01568479 , -0.0107976934, 7.50733452E-05, 918.1707    , 32.2880859  , 823.5035    , 1.9         , 3           , 255         , 0           , 0
-0.106273614, 0.149350137 , -9.791258   , 0.0006523031, 0.000130792847, 9.15926648E-06, -0.0156812854, -0.0108001931, 7.5177E-05  , 918.1707    , 32.2880859  , 823.5059    , 1.91        , 3           , 255         , 0           , 0
-0.105133057, 0.154768378 , -9.795134   , 5.54065919E-05, -0.000245010015, -0.000193094078, -0.0156807117, -0.0108026741, 7.328464E-05, 918.1707    , 32.2880859  , 823.5066    , 1.92        , 3           , 255         , 0           , 0
-0.107591368, 0.155531973 , -9.796909   , 0.0003426419, -0.000316989142, -0.000403108948, -0.0156772416, -0.0108059067, 6.930361E-05, 918.1436    , 32.28768    , 823.507263  , 1.93        , 3           , 255         , 0           , 0
-0.105665542, 0.1518265   , -9.792982   , 0.00010549475, -0.000375371659, -0.000149918225, -0.0156761743, -0.0108096832, 6.786341E-05, 918.1436    , 32.28768    , 823.507935  , 1.94        , 3           , 255         , 0           , 0
-0.108724594, 0.161069959 , -9.788162   , 8.679461E-06, 9.806012E-05, 0.0009145812, -0.0156761874, -0.0108085591, 7.69930339E-05, 918.1436    , 32.28768    , 823.5086    , 1.95        , 3           , 255         , 0           , 0
-0.107422218, 0.154474    , -9.78881    , 0.000379136123, 0.000637850957, 6.666228E-05, -0.0156723987, -0.0108021731, 7.755962E-05, 918.1436    , 32.28768    , 823.5093    , 1.96        , 3           , 255         , 0           , 0
-0.10939227 , 0.154230446 , -9.788752   , 0.0001905043, 0.000364878448, -0.0005160085, -0.0156704374, -0.0107986042, 7.234282E-05, 918.1436    , 32.28768    , 823.509949  , 1.97        , 3           , 255         , 0           , 0
-0.103043221, 0.150041372 , -9.800238   , -0.0004729  , -7.77198E-05, 0.000142578108, -0.0156751852, -0.0107993577, 7.378064E-05, 918.1436    , 32.28768    , 823.5106    , 1.98        , 3           , 255         , 0           , 0
-0.103240713, 0.153623834 , -9.78926849 , -0.0006900064, -0.00026894128, -0.0005383763, -0.0156820249, -0.010802133, 6.843952E-05, 918.1436    , 32.28768    , 823.5113    , 1.99        , 3           , 255         , 0           , 0
-0.107971333, 0.154445022 , -9.792897   , -0.000193279469, 8.672313E-05, -1.043966E-05, -0.0156839564, -0.0108012678, 6.832154E-05, 918.1436    , 32.28768    , 823.511963  , 2           , 3           , 0           , 7.43723631  , 200
-0.0993583053, 0.159147933 , -9.789305   , -7.144385E-05, -0.0003899273, 0.000473334454, -0.0156857185, -0.0108064869, 7.31263863E-05, 918.1436    , 32.28768    , 823.5459    , 2.01        , 3           , 1           , 0           , 0
-0.100705191, 0.154546067 , -9.793566   , 2.69394368E-05, -0.000235793181, 0.000165912046, -0.015685467, -0.010808819, 7.482235E-05, 918.1436    , 32.28768    , 823.5468    , 2.02        , 3           , 2           , 0           , 0
-0.110619269, 0.157013983 , -9.795877   , -0.0001804335, 0.000560396351, -0.000172874861, -0.0156872533, -0.0108032431, 7.300585E-05, 918.2002    , 32.2884254  , 823.5477    , 2.03        , 3           , 3           , 0           , 0
-0.113202117, 0.159240529 , -9.795141   , -0.000157095958, 0.0004152099, -0.0002631961, -0.0156887937, -0.0107991314, 7.030898E-05, 918.2002    , 32.2884254  , 823.548645  , 2.04        , 3           , 4           , 0           , 0
-0.111742876, 0.157710165 , -9.791597   , 0.000333236938, -0.000226549455, 0.000315493322, -0.015685495, -0.0108013479, 7.349917E-05, 918.2002    , 32.2884254  , 823.549561  , 2.05        , 3           , 5           , 0           , 0
-0.100927547, 0.166327909 , -9.783711   , -0.000123180915, 2.95789214E-05, 0.000535794767, -0.0156867858, -0.010800967, 7.885199E-05, 918.2002    , 32.2884254  , 823.5505    , 2.06        , 3           , 6           , 0           , 0
-0.106406748, 0.15691492  , -9.791167   , 0.000129044871, 0.000359378872, -0.00020382498, -0.0156854726, -0.0107974065, 7.67575548E-05, 918.2002    , 32.2884254  , 823.5514    , 2.07        , 3           , 7           , 0           , 0
-0.09652143 , 0.158785    , -9.79223    , -3.566034E-05, -0.000223468174, -0.0002082022, -0.0156858061, -0.0107996734, 7.471076E-05, 918.2002    , 32.2884254  , 823.5523    , 2.08        , 3           , 8           , 5           , 5
-0.0955193043, 0.149664253 , -9.794462   , -8.077035E-05, 0.000246179756, 0.000165825069, -0.0156866331, -0.0107971858, 7.633026E-05, 918.2002    , 32.2884254  , 823.5532    , 2.09        , 3           , 9           , 5           , 0.1
-0.104624331, 0.152567863 , -9.800267   , 0.0003618723, -9.545486E-05, 0.00122498861, -0.0156831462, -0.0107979495, 8.859401E-05, 918.2002    , 32.2884254  , 823.554138  , 2.1         , 3           , 10          , 0.1         , 0.1
-0.100986406, 0.158173665 , -9.786386   , 0.000437059847, 0.0002510295, 0.000381342077, -0.0156869888, -0.0107912011, 9.24559354E-05, 918.2002    , 32.2884254  , 823.5137    , 2.11        , 3           , 11          , 0.00817153  , 0.008171529
-0.09957805 , 0.155224368 , -9.788643   , 0.0002429437, 0.000149746134, 0.000457602931, -0.0156846084, -0.0107896328, 9.70080655E-05, 918.2002    , 32.2884254  , 823.514343  , 2.12        , 3           , 12          , 0.174643889 , 0
-0.103296019, 0.1496074   , -9.797304   , -6.84289262E-07, 0.000229088648, -0.000439777737, -0.0156845674, -0.0107874135, 9.257476E-05, 918.196045  , 32.2884254  , 823.515     , 2.13        , 3           , 13          , 0           , 0
-0.100832567, 0.161694556 , -9.798754   , 9.8438235E-05, -0.0001799058, -0.0001023231, -0.0156835746, -0.0107892258, 9.157982E-05, 918.196045  , 32.2884254  , 823.5157    , 2.14        , 3           , 14          , -0.00113064481, -0.00110398408
-0.104595318, 0.155234531 , -9.79558    , 0.000113817747, -0.0001894749, 0.000174637127, -0.0156824533, -0.0107910931, 9.335576E-05, 918.196045  , 32.2884254  , 823.516357  , 2.15        , 3           , 15          , 0           , -0.000263943628
-0.09970468 , 0.157968611 , -9.794286   , -0.000187603873, -0.00042453513, -0.000419591379, -0.0156842843, -0.0107954042, 8.922679E-05, 918.196045  , 32.2884254  , 823.517     , 2.16        , 3           , 16          , 0           , 1.401298E-45
-0.106023572, 0.161715224 , -9.793241   , 0.0001150741, 4.8130285E-05, -0.000211081642, -0.0156831127, -0.0107949553, 8.71086158E-05, 918.196045  , 32.2884254  , 823.5177    , 2.17        , 3           , 20          , 0           , 0
-0.10838525 , 0.1557893   , -9.787152   , 0.000838850159, -0.000240990776, 0.00010411242, -0.0156747326, -0.0107973479, 8.818743E-05, 918.196045  , 32.2884254  , 823.5184    , 2.18        , 3           , 21          , 0           , 0
-0.09970415 , 0.159082979 , -9.793874   , 0.000185498619, -0.0003014675, -6.562259E-05, -0.0156728718, -0.0108003719, 8.75785045E-05, 918.196045  , 32.2884254  , 823.519043  , 2.19        , 3           , 22          , 0           , 0
-0.102640465, 0.1484677   , -9.803012   , 1.74620654E-05, 7.92846549E-06, 0.0004278744, -0.0156727415, -0.0108002257, 9.185562E-05, 918.196045  , 32.2884254  , 823.5197    , 2.2         , 3           , 40          , 0           , 0
-0.10216181 , 0.145058483 , -9.790423   , 0.0005282165, 0.000324642053, 0.000226118427, -0.0156731065, -0.0107904132, 9.41263861E-05, 918.196045  , 32.2884254  , 823.4877    , 2.21        , 3           , 41          , 0           , 0
-0.108465478, 0.150257289 , -9.790489   , -7.689488E-05, 5.24146E-05 , 4.796509E-05, -0.01567388 , -0.0107898815, 9.459777E-05, 918.196045  , 32.2884254  , 823.488159  , 2.22        , 3           , 42          , 0           , 0
-0.110079423, 0.158370167 , -9.795317   , -0.000363472383, -0.000290165655, 0.0004333299, -0.015677562, -0.0107927145, 9.897617E-05, 918.1747    , 32.2918854  , 823.488647  , 2.23        , 3           , 255         , 0           , 0
-0.10458567 , 0.155430585 , -9.791639   , -0.000157149043, -3.21316766E-05, -0.000127690582, -0.01567912 , -0.0107930563, 9.77044256E-05, 918.1747    , 32.2918854  , 823.489136  , 2.24        , 3           , 255         , 0           , 0
-0.106032588, 0.1581581   , -9.789977   , -0.0002471935, 0.0002035154, -0.000159613148, -0.0156815723, -0.0107910456, 9.607651E-05, 918.1747    , 32.2918854  , 823.4896    , 2.25        , 3           , 255         , 0           , 0
-0.112109736, 0.15153946  , -9.783157   , -0.0006841667, 0.0002022101, 3.35267978E-05, -0.0156884156, -0.0107890191, 9.63800339E-05, 918.1747    , 32.2918854  , 823.4901    , 2.26        , 3           , 255         , 0           , 0
-0.105689362, 0.154432267 , -9.794649   , -0.0005979801, -6.639282E-06, 0.0008741764, -0.0156944878, -0.0107889483, 0.000105122039, 918.1747    , 32.2918854  , 823.4906    , 2.27        , 3           , 255         , 0           , 0
-0.107020482, 0.160744816 , -9.783113   , 0.000142256264, 0.000109468936, 0.0005794856, -0.0156931281, -0.0107877627, 0.000110899193, 918.1747    , 32.2918854  , 823.4911    , 2.28        , 3           , 255         , 0           , 0
-0.110536955, 0.150745541 , -9.793735   , 0.000194302585, -0.000402978039, -0.000315759331, -0.0156911556, -0.01079184 , 0.000107805121, 918.1747    , 32.2918854  , 823.4916    , 2.29        , 3           , 255         , 0           , 0
-0.09553527 , 0.158578083 , -9.799385   , 0.000258434215, -9.18086153E-05, 3.459894E-05, -0.0156885739, -0.0107927527, 0.000108165492, 918.1747    , 32.2918854  , 823.492065  , 2.3         , 3           , 255         , 0           , 0
-0.09953556 , 0.155050039 , -9.79405    , 0.000416699564, 4.161126E-05, -4.51106753E-05, -0.0156863462, -0.0107936757, 0.000107728876, 918.1747    , 32.2918854  , 823.4906    , 2.31        , 3           , 255         , 0           , 0
-0.103914939, 0.154203564 , -9.791218   , 3.771507E-05, -0.0003839844, 1.81869837E-06, -0.01568597 , -0.0107975146, 0.0001078073, 918.1747    , 32.2918854  , 823.4911    , 2.32        , 3           , 255         , 0           , 0
-0.10226319 , 0.152980968 , -9.792468   , 7.634447E-05, 0.000156983617, -0.000168790139, -0.0156851858, -0.0107959723, 0.000106094922, 918.1895    , 32.2893066  , 823.4916    , 2.33        , 3           , 255         , 0           , 0
-0.10867288 , 0.163061619 , -9.789458   , 0.000776806963, 0.0004996663, 0.0005826077, -0.01567748 , -0.0107908864, 0.0001118421, 918.1895    , 32.2893066  , 823.492065  , 2.34        , 3           , 255         , 0           , 0
-0.106885873, 0.151650026 , -9.797922   , 0.000129503082, 0.000157222326, 0.00042377002, -0.0156762321, -0.0107892472, 0.000116054776, 918.1895    , 32.2893066  , 823.492554  , 2.35        , 3           , 255         , 0           , 0
-0.100481287, 0.151997417 , -9.80119    , 0.000466282363, -0.000431604334, 0.000427033956, -0.0156716146, -0.0107934959, 0.000120392389, 918.1895    , 32.2893066  , 823.493042  , 2.36        , 3           , 255         , 0           , 0
-0.09614055 , 0.158050269 , -9.79619    , 0.000645845663, 7.237599E-05, 0.0009542657, -0.01566526 , -0.0107926223, 0.000129922846, 918.1895    , 32.2893066  , 823.4935    , 2.37        , 3           , 255         , 0           , 0
-0.105230495, 0.146968335 , -9.798307   , 0.000224624877, -0.0004857967, 0.000755774148, -0.0156630967, -0.010797359, 0.000137556 , 918.1895    , 32.2893066  , 823.494     , 2.38        , 3           , 255         , 0           , 0
-0.105908796, 0.151734754 , -9.793651   , 1.74775487E-05, -0.0004775267, -0.0008291871, -0.01566283 , -0.0108022643, 0.000129339649, 918.1895    , 32.2893066  , 823.4945    , 2.39        , 3           , 255         , 0           , 0
-0.103665993, 0.149942547 , -9.788997   , -0.000108835753, 0.000244151161, -0.0009385701, -0.0156638157, -0.01079997 , 0.000119916542, 918.1895    , 32.2893066  , 823.495     , 2.4         , 3           , 255         , 0           , 0
-0.107458368, 0.156386882 , -9.788064   , -0.000117053161, 0.000432958826, 0.000273176644, -0.015665032, -0.0107908826, 0.000122580415, 918.1895    , 32.2893066  , 823.4737    , 2.41        , 3           , 255         , 0           , 0
-0.106144413, 0.154551029 , -9.798253   , 0.000171235122, -1.7090817E-05, 0.000403676735, -0.015663363, -0.0107909907, 0.000126619518, 918.1895    , 32.2893066  , 823.47406   , 2.42        , 3           , 255         , 0           , 0
-0.114590421, 0.156298548 , -9.793303   , 0.0004627367, 0.000219134847, 0.000554624363, -0.0156587958, -0.0107887127, 0.000132130939, 918.155762  , 32.2914772  , 823.4744    , 2.43        , 3           , 255         , 0           , 0
-0.107818589, 0.1568174   , -9.798373   , 0.0005020222, -0.00041175785, -0.000536873, -0.0156537183, -0.0107929138, 0.000126827174, 918.155762  , 32.2914772  , 823.4748    , 2.44        , 3           , 255         , 0           , 0
-0.106603824, 0.152242079 , -9.796511   , 0.000811276957, -0.000365047716, -0.00037086886, -0.0156455655, -0.0107966233, 0.0001231759, 918.155762  , 32.2914772  , 823.475159  , 2.45        , 3           , 255         , 0           , 0
-0.104080662, 0.1522671   , -9.798449   , 0.000106610474, -0.0005409162, 0.000280360837, -0.0156445317, -0.0108019868, 0.000126063882, 918.155762  , 32.2914772  , 823.4755    , 2.46        , 3           , 255         , 0           , 0
-0.110678993, 0.159082353 , -9.789592   , 0.0002447802, 0.000187841011, 3.659146E-05, -0.015642086, -0.0108001018, 0.00012640038, 918.155762  , 32.2914772  , 823.4759    , 2.47        , 3           , 255         , 0           , 0
-0.104754984, 0.157271653 , -9.792137   , 0.000174908258, -0.000335105928, -0.0003057292, -0.0156403054, -0.0108035011, 0.000123395774, 918.155762  , 32.2914772  , 823.476257  , 2.48        , 3           , 255         , 0           , 0
-0.104883388, 0.156136647 , -9.791636   , 0.000602053246, -0.0005165314, 0.000695018563, -0.0156343579, -0.0108085573, 0.00013042611, 918.155762  , 32.2914772  , 823.4766    , 2.49        , 3           , 255         , 0           , 0
-0.1030015  , 0.154385358 , -9.797647   , -0.000183678465, 0.000128205633, 0.00080297  , -0.01563628 , -0.0108071482, 0.000138435033, 918.155762  , 32.2914772  , 823.477     , 2.5         , 3           , 255         , 0           , 0
-0.09467364 , 0.162735254 , -9.795998   , 3.8230326E-05, 6.25276E-05 , 0.000541500049, -0.01564024 , -0.01080881 , 0.000143886078, 918.155762  , 32.2914772  , 823.503     , 2.51        , 3           , 255         , 0           , 0
-0.09647155 , 0.156985223 , -9.802452   , -0.000135160168, -0.000468180981, 0.000596903847, -0.0156416576, -0.0108133964, 0.0001499278, 918.155762  , 32.2914772  , 823.50354   , 2.52        , 3           , 255         , 0           , 0
-0.10088595 , 0.145253822 , -9.785576   , 0.000119551434, -0.0003343193, 0.0003390686, -0.0156405  , -0.0108166868, 0.000153370478, 918.210632  , 32.28958    , 823.5041    , 2.53        , 3           , 255         , 0           , 0
-0.0989363939, 0.1576667   , -9.791835   , 0.000187095546, 2.32476741E-05, -0.0005156874, -0.0156385731, -0.010816535, 0.000148210442, 918.210632  , 32.28958    , 823.504639  , 2.54        , 3           , 255         , 0           , 0
-0.103782728, 0.154812455 , -9.797793   , -0.000258850981, -6.82706E-06, -0.000394588, -0.01564112 , -0.0108166644, 0.00014426597, 918.210632  , 32.28958    , 823.5052    , 2.55        , 3           , 255         , 0           , 0
-0.105303846, 0.16296266  , -9.80266    , -0.000145671074, 0.000319428626, -0.0006193225, -0.0156425089, -0.0108135669, 0.000138023344, 918.210632  , 32.28958    , 823.505737  , 2.56        , 3           , 255         , 0           , 0
-0.103835128, 0.1528374   , -9.804301   , 6.64365944E-05, -0.000196706853, 2.71153549E-05, -0.0156418476, -0.01081553 , 0.000138325238, 918.210632  , 32.28958    , 823.5063    , 2.57        , 3           , 255         , 0           , 0
-0.117054783, 0.159018308 , -9.797194   , 0.000212551036, -0.00018403132, 0.00022547986, -0.0156397484, -0.0108173359, 0.000140608623, 918.210632  , 32.28958    , 823.506836  , 2.58        , 3           , 255         , 0           , 0
-0.117635429, 0.160043508 , -9.798807   , -0.000659894431, 0.000340456085, 0.00015014199, -0.01564636 , -0.0108139059, 0.000142056626, 918.210632  , 32.28958    , 823.5074    , 2.59        , 3           , 255         , 0           , 0
-0.10997238 , 0.161477059 , -9.796594   , -0.000435981783, 4.75440174E-05, -0.0003029977, -0.0156506859, -0.0108134784, 0.000139019481, 918.210632  , 32.28958    , 823.507935  , 2.6         , 3           , 255         , 0           , 0
-0.101780549, 0.155471757 , -9.792296   , -0.0003416736, -2.26955162E-05, -0.000399193639, -0.0156605728, -0.010811979, 0.000135101858, 918.210632  , 32.28958    , 823.454956  , 2.61        , 3           , 255         , 0           , 0
-0.102333322, 0.148870975 , -9.791473   , -0.000905012246, 0.000394239381, -0.000165764621, -0.0156696  , -0.0108080627, 0.0001333826, 918.210632  , 32.28958    , 823.4552    , 2.62        , 3           , 255         , 0           , 0
-0.105954811, 0.1497568   , -9.79005051 , -0.0007369879, 6.850844E-05, 0.000268887961, -0.015677   , -0.0108073344, 0.0001360605, 918.1681    , 32.2918854  , 823.455444  , 2.63        , 3           , 255         , 0           , 0
-0.106500544, 0.146531612 , -9.785782   , -0.00065473374, -0.0005063341, 0.000401273428, -0.0156835914, -0.0108123329, 0.000140152246, 918.1681    , 32.2918854  , 823.4557    , 2.64        , 3           , 255         , 0           , 0
-0.113818064, 0.155695841 , -9.789256   , 0.000189709186, -7.838721E-05, 4.698326E-05, -0.0156816971, -0.01081311 , 0.000140634336, 918.1681    , 32.2918854  , 823.455933  , 2.65        , 3           , 255         , 0           , 0
-0.107773945, 0.158241719 , -9.7951     , 0.000379132165, 0.000147598272, 0.0009352949, -0.0156780072, -0.0108114881, 0.000149963293, 918.1681    , 32.2918854  , 823.4562    , 2.66        , 3           , 255         , 0           , 0
-0.101955555, 0.151560336 , -9.78857    , 0.0006466439, -0.000266026822, 0.0007496273, -0.015671622, -0.0108140288, 0.000157500617, 918.1681    , 32.2918854  , 823.4564    , 2.67        , 3           , 255         , 0           , 0
-0.09268727 , 0.150868863 , -9.791549   , 0.000300713815, -0.000357135781, -0.000235613756, -0.0156685933, -0.0108176367, 0.000155200643, 918.1681    , 32.2918854  , 823.456665  , 2.68        , 3           , 255         , 0           , 0
-0.106004521, 0.1549541   , -9.78669548 , -0.000133328023, -0.000136037823, 0.0004706763, -0.0156699754, -0.0108189238, 0.000159928313, 918.1681    , 32.2918854  , 823.4569    , 2.69        , 3           , 255         , 0           , 0
-0.106599674, 0.154786617 , -9.78686    , 0.000128853135, -0.000136208138, 0.00105597859, -0.0156688038, -0.0108201215, 0.000170508472, 918.1681    , 32.2918854  , 823.457153  , 2.7         , 3           , 255         , 0           , 0
-0.104350492, 0.158985257 , -9.79364    , 0.000295362959, 0.000238007051, 0.000327614718, -0.0156636424, -0.0108142439, 0.00017372283, 918.1681    , 32.2918854  , 823.469543  , 2.71        , 3           , 255         , 0           , 0
-0.103652559, 0.159869    , -9.789366   , 0.0005486247, 0.000163393677, -8.380829E-05, -0.0156581476, -0.0108126244, 0.000172859232, 918.1681    , 32.2918854  , 823.469849  , 2.72        , 3           , 255         , 0           , 0
-0.102976367, 0.155051231 , -9.787353   , 0.000160769559, -0.000188757782, 0.0006559433, -0.0156566128, -0.0108144078, 0.000179447656, 918.185059  , 32.2899857  , 823.470154  , 2.73        , 3           , 255         , 0           , 0
-0.1113909  , 0.154128075 , -9.785177   , 9.748712E-05, 0.000140721386, 0.000778661342, -0.0156557225, -0.01081288 , 0.000187211554, 918.185059  , 32.2899857  , 823.470459  , 2.74        , 3           , 255         , 0           , 0
-0.101452135, 0.166607112 , -9.79287    , -0.0003338441, 0.000158833631, -0.0002866255, -0.0156590287, -0.0108113363, 0.00018432067, 918.185059  , 32.2899857  , 823.470764  , 2.75        , 3           , 255         , 0           , 0
-0.09427328 , 0.148791581 , -9.794355   , -8.297281E-05, 0.000270288845, -0.0006756467, -0.0156597868, -0.01080874 , 0.000177522481, 918.185059  , 32.2899857  , 823.471069  , 2.76        , 3           , 255         , 0           , 0
-0.105458215, 0.156116337 , -9.79107952 , 0.000553206657, -3.47185414E-06, -0.0006332296, -0.0156541839, -0.0108088767, 0.000171191292, 918.185059  , 32.2899857  , 823.4714    , 2.77        , 3           , 255         , 0           , 0
-0.10425391 , 0.150474921 , -9.786114   , 0.000380656333, -0.000632024952, 0.0002050319, -0.0156504046, -0.0108151631, 0.000173340362, 918.185059  , 32.2899857  , 823.4717    , 2.78        , 3           , 255         , 0           , 0
-0.103673279, 0.164162934 , -9.789488   , -7.36465445E-05, -0.000282970723, 0.000351619761, -0.0156511776, -0.0108179376, 0.000176900532, 918.185059  , 32.2899857  , 823.472     , 2.79        , 3           , 255         , 0           , 0
-0.118109345, 0.151434779 , -9.788976   , -3.96077521E-05, -5.50303375E-05, 0.000157931208, -0.0156515911, -0.0108184638, 0.000178488321, 918.185059  , 32.2899857  , 823.4723    , 2.8         , 3           , 255         , 0           , 0
-0.109715246, 0.153285965 , -9.799269   , -0.00012102467, 0.0002551282, -0.00061881385, -0.0156608745, -0.0108137494, 0.000172348809, 918.185059  , 32.2899857  , 823.459045  , 2.81        , 3           , 255         , 0           , 0
-0.107232153, 0.1490239   , -9.795587   , 0.000248360739, -0.000260886154, 0.000460202922, -0.01565844 , -0.0108162854, 0.000176991292, 918.185059  , 32.2899857  , 823.4593    , 2.82        , 3           , 255         , 0           , 0
-0.105468079, 0.1475592   , -9.796559   , -1.7528655E-06, -7.029029E-05, 0.0009806338, -0.015658563, -0.0108168358, 0.000186807738, 918.1886    , 32.2910042  , 823.459534  , 2.83        , 3           , 255         , 0           , 0
-0.112373963, 0.147452384 , -9.793012   , 2.49920413E-06, 0.000340816448, -4.734518E-05, -0.0156585313, -0.0108134355, 0.000186280973, 918.1886    , 32.2910042  , 823.4598    , 2.84        , 3           , 255         , 0           , 0
-0.115810916, 0.157274172 , -9.798111   , 0.000109204906, -0.000343796331, 0.0006804732, -0.0156575162, -0.0108167659, 0.000193138927, 918.1886    , 32.2910042  , 823.46      , 2.85        , 3           , 255         , 0           , 0
-0.11634779 , 0.147702843 , -9.798892   , 0.000666896638, -0.000150844455, 0.0006647856, -0.0156509187, -0.0108181713, 0.000199809816, 918.1886    , 32.2910042  , 823.460266  , 2.86        , 3           , 255         , 0           , 0
-0.11274235 , 0.15450716  , -9.797956   , 0.000644994667, -0.000593949342, 0.000501666 , -0.0156445242, -0.0108240321, 0.000204918964, 918.1886    , 32.2910042  , 823.4605    , 2.87        , 3           , 255         , 0           , 0
-0.10391964 , 0.1514205   , -9.7936     , 0.000499469868, -0.00029360014, -0.00056664116, -0.015639469, -0.0108270552, 0.000199298986, 918.1886    , 32.2910042  , 823.460754  , 2.88        , 3           , 255         , 0           , 0
-0.108471319, 0.149110317 , -9.793055   , 0.0002823028, 0.000323330867, -0.000633844233, -0.0156365782, -0.0108239213, 0.000192910578, 918.1886    , 32.2910042  , 823.461     , 2.89        , 3           , 255         , 0           , 0
-0.111162826, 0.155700728 , -9.790396   , -0.000190962222, 0.000223489944, 0.000286562543, -0.0156385172, -0.0108216414, 0.000195740984, 918.1886    , 32.2910042  , 823.461243  , 2.9         , 3           , 255         , 0           , 0
-0.104183771, 0.148933843 , -9.795611   , 4.32200031E-05, 0.000369009271, 3.40287224E-05, -0.0156346932, -0.0108250408, 0.00019598678, 918.1886    , 32.2910042  , 823.444458  , 2.91        , 3           , 255         , 0           , 0
-0.100377992, 0.162117571 , -9.787717   , -0.000111878966, 0.000240086112, -2.50467856E-05, -0.0156358071, -0.0108226445, 0.0001956988, 918.1886    , 32.2910042  , 823.4446    , 2.92        , 3           , 255         , 0           , 0
-0.09537412 , 0.160295516 , -9.79405    , 0.000191004481, 0.000199306931, -0.0005448322, -0.0156338383, -0.0108207371, 0.0001902198, 918.2055    , 32.2912064  , 823.4447    , 2.93        , 3           , 255         , 0           , 0
-0.105710909, 0.150681525 , -9.796496   , 0.000451372354, 0.000152599241, 0.0002442214, -0.0156293511, -0.0108191753, 0.000192637948, 918.2055    , 32.2912064  , 823.4448    , 2.94        , 3           , 255         , 0           , 0
-0.102802396, 0.148707077 , -9.793275   , 0.000514943036, -7.281406E-05, 0.0009607376, -0.0156243062, -0.0108197518, 0.000202255847, 918.2055    , 32.2912064  , 823.444946  , 2.95        , 3           , 255         , 0           , 0
-0.09868558 , 0.15676716  , -9.788271   , 0.0006669715, -0.000342482352, 0.0008824738, -0.015617732, -0.0108230393, 0.000211133287, 918.2055    , 32.2912064  , 823.445068  , 2.96        , 3           , 255         , 0           , 0
-0.108544193, 0.157579139 , -9.798519   , 0.0004987734, -3.529084E-05, 0.000140371383, -0.0156127606, -0.01082337 , 0.000212542436, 918.2055    , 32.2912064  , 823.4452    , 2.97        , 3           , 255         , 0           , 0
-0.107099935, 0.156196877 , -9.785965   , 0.000464907731, 0.0002409917, 0.0002747269, -0.0156081412, -0.0108209178, 0.000215251828, 918.2055    , 32.2912064  , 823.4454    , 2.98        , 3           , 255         , 0           , 0
-0.110453963, 0.160158515 , -9.788605   , 0.000188567734, 0.000177634938, -0.000116193638, -0.0156062413, -0.01081916 , 0.0002140623, 918.2055    , 32.2912064  , 823.445557  , 2.99        , 3           , 255         , 0           , 0
-0.105391145, 0.154357523 , -9.794334   , -0.000285640359, 0.0001755851, -1.963586E-05, -0.0156090967, -0.0108174076, 0.000213838532, 918.2055    , 32.2912064  , 823.44574   , 3           , 3           , 0           , 8.437237    , 300
-0.112613536, 0.15716283  , -9.805552   , 0.000303623034, -4.86905919E-05, 0.000300442771, -0.0156111587, -0.0108136684, 0.0002169051, 918.2055    , 32.2912064  , 823.407166  , 3.01        , 3           , 1           , 0           , 0
-0.10514982 , 0.154416338 , -9.786921   , 2.4114619E-05, -0.000101887621, 0.00052147673, -0.0156109743, -0.0108146053, 0.0002221353, 918.2055    , 32.2912064  , 823.4071    , 3.02        , 3           , 2           , 0           , 0
-0.105398789, 0.158324331 , -9.789216   , -0.000264400849, -0.000130311819, 0.0009024065, -0.0156137142, -0.0108157676, 0.000231178929, 918.1479    , 32.2895126  , 823.407043  , 3.03        , 3           , 3           , 0           , 0
-0.09175841 , 0.155698538 , -9.798453   , -0.0003108848, 0.000345025852, 0.000261609966, -0.0156168509, -0.010812277, 0.0002337409, 918.1479    , 32.2895126  , 823.407     , 3.04        , 3           , 4           , 0           , 0
-0.09887995 , 0.145734876 , -9.80115    , -0.000137083814, 0.000408013584, -0.000899174, -0.0156181231, -0.0108083393, 0.000224686228, 918.1479    , 32.2895126  , 823.4069    , 3.05        , 3           , 5           , 0           , 0
-0.109154858, 0.151502952 , -9.79093    , 0.000502866867, -0.000137144933, -0.0008148124, -0.0156130083, -0.010809836, 0.00021656022, 918.1479    , 32.2895126  , 823.40686   , 3.06        , 3           , 6           , 0           , 0
-0.113881826, 0.154218823 , -9.785227   , -0.000293724239, -8.913386E-05, -0.0002452878, -0.01561592 , -0.0108107664, 0.000214121465, 918.1479    , 32.2895126  , 823.4068    , 3.07        , 3           , 7           , 0           , 0
-0.107368506, 0.155293375 , -9.789496   , -0.0004293624, 0.000110827386, -0.00113859307, -0.0156200891, -0.0108098369, 0.000202719224, 918.1479    , 32.2895126  , 823.406738  , 3.08        , 3           , 8           , 5           , 5
-0.113639414, 0.161387891 , -9.791197   , 4.316459E-05, -0.000268265838, -0.000112285226, -0.0156196449, -0.010812535, 0.0002016384, 918.1479    , 32.2895126  , 823.4067    , 3.09        , 3           , 9           , 5           , 0.1
-0.106576048, 0.164813191 , -9.790612   , 5.24431234E-05, 0.0003425975, -0.0004988898, -0.0156190665, -0.0108091868, 0.0001965964, 918.1479    , 32.2895126  , 823.4066    , 3.1         , 3           , 10          , 0.1         , 0.1
-0.09938917 , 0.161722571 , -9.793833   , 5.371042E-05, -0.0001564878, -8.76137638E-05, -0.0156239411, -0.0108118206, 0.000195803383, 918.1479    , 32.2895126  , 823.4551    , 3.11        , 3           , 11          , 0.007395687 , 0.007395685
-0.106827758, 0.156723112 , -9.788566   , 0.000119957956, -0.000306294067, -0.000161003758, -0.0156227257, -0.0108149089, 0.000194241336, 918.1479    , 32.2895126  , 823.4553    , 3.12        , 3           , 12          , 0.174645633 , 0
-0.101341151, 0.1476581   , -9.788839   , 9.003922E-05, -0.000249820063, 9.61483747E-05, -0.0156218354, -0.0108173918, 0.000195241781, 918.139648  , 32.2895126  , 823.455566  , 3.13        , 3           , 13          , 0           , 0
-0.09423126 , 0.158505067 , -9.790712   , 1.99280912E-05, -5.54135768E-05, 0.000277326559, -0.0156216659, -0.0108179031, 0.000198023467, 918.139648  , 32.2895126  , 823.4558    , 3.14        , 3           , 14          , -0.00113051909, -0.001104021
-0.09663524 , 0.145039842 , -9.788002   , -0.000374667, -0.000195042347, 0.000247200456, -0.01562544 , -0.0108198123, 0.0002005257, 918.139648  , 32.2895126  , 823.456055  , 3.15        , 3           , 15          , 0           , -0.0002639456
-0.10654483 , 0.1426332   , -9.79686451 , 0.000514086336, -0.000174488989, 0.000149614978, -0.0156203154, -0.0108215343, 0.000202048977, 918.139648  , 32.2895126  , 823.4563    , 3.16        , 3           , 16          , 0           , 1.401298E-45
-0.106296025, 0.1613936   , -9.790712   , -5.269237E-05, -0.000366088934, 0.000756761 , -0.0156209255, -0.0108250761, 0.000209673119, 918.139648  , 32.2895126  , 823.456543  , 3.17        , 3           , 20          , 0           , 0
-0.0996493846, 0.1449441   , -9.796728   , 0.000219437527, 5.301088E-05, 0.00118251657, -0.0156188589, -0.0108243627, 0.000221488939, 918.139648  , 32.2895126  , 823.4568    , 3.18        , 3           , 21          , 0           , 0
-0.09612332 , 0.148875266 , -9.790801   , -0.000261223526, 0.0007944072, 0.00073506753, -0.0156215513, -0.0108163022, 0.000228714882, 918.139648  , 32.2895126  , 823.457031  , 3.19        , 3           , 22          , 0           , 0
-0.101501778, 0.161975235 , -9.791188   , -0.00037580356, -0.000214641448, 2.407594E-05, -0.0156253111, -0.0108184451, 0.000228989142, 918.139648  , 32.2895126  , 823.4573    , 3.2         , 3           , 40          , 0           , 0
-0.114559375, 0.160948992 , -9.794985   , 0.000215855544, 0.000150393811, 8.487288E-06, -0.0156230535, -0.0108066173, 0.00022904943, 918.139648  , 32.2895126  , 823.5104    , 3.21        , 3           , 41          , 0           , 0
-0.11306192 , 0.155346066 , -9.799257   , -1.32217538E-05, -0.0001752167, -8.872521E-05, -0.0156231765, -0.0108083831, 0.00022818963, 918.139648  , 32.2895126  , 823.511     , 3.22        , 3           , 42          , 0           , 0
-0.1032441  , 0.154035524 , -9.790568   , 9.889086E-05, -0.000289808726, 0.0003391283, -0.0156222237, -0.0108112283, 0.0002316259, 918.1841    , 32.28863    , 823.5116    , 3.23        , 3           , 255         , 0           , 0
-0.105353251, 0.146924734 , -9.795334   , -0.000170510611, -0.000443891855, 0.00035452898, -0.0156239709, -0.0108156111, 0.000235240223, 918.1841    , 32.28863    , 823.5122    , 3.24        , 3           , 255         , 0           , 0
-0.104587972, 0.152626917 , -9.793057   , 0.000257746549, 0.000111384434, 0.00101679889, -0.015621502, -0.0108143371, 0.0002453899, 918.1841    , 32.28863    , 823.5128    , 3.25        , 3           , 255         , 0           , 0
-0.09023335 , 0.163335815 , -9.796788   , 0.000534360646, -0.000346275279, 0.0007051843, -0.0156162381, -0.0108176935, 0.0002524952, 918.1841    , 32.28863    , 823.5134    , 3.26        , 3           , 255         , 0           , 0
-0.101672292, 0.167329043 , -9.791567   , 4.6670204E-05, -6.04658853E-05, -6.527707E-05, -0.0156157631, -0.0108183064, 0.000251851947, 918.1841    , 32.28863    , 823.514038  , 3.27        , 3           , 255         , 0           , 0
-0.111529633, 0.165968582 , -9.794147   , -0.0001315102, -0.0003042306, -0.0006889277, -0.0156170046, -0.0108214552, 0.000245010771, 918.1841    , 32.28863    , 823.514648  , 3.28        , 3           , 255         , 0           , 0
-0.106460907, 0.159368679 , -9.78256    , 0.000194022083, -0.000325752771, -0.000368399225, -0.0156150255, -0.0108247688, 0.000241377988, 918.1841    , 32.28863    , 823.515259  , 3.29        , 3           , 255         , 0           , 0
-0.104537234, 0.154399008 , -9.787256   , 0.000212477462, 6.909587E-05, -0.000419054733, -0.0156128556, -0.0108241439, 0.000237177039, 918.1841    , 32.28863    , 823.515869  , 3.3         , 3           , 255         , 0           , 0
-0.103764355, 0.146714121 , -9.791754   , 4.62743919E-05, -9.980751E-06, 0.0005098145, -0.0156217087, -0.01082343 , 0.000242376525, 918.1841    , 32.28863    , 823.4974    , 3.31        , 3           , 255         , 0           , 0
-0.109479383, 0.1554119   , -9.793709   , -0.000175879337, -6.620935E-05, -0.0002822903, -0.0156234382, -0.0108241364, 0.000239564222, 918.1841    , 32.28863    , 823.497864  , 3.32        , 3           , 255         , 0           , 0
-0.103876017, 0.155425832 , -9.797829   , -0.0005797305, 0.0005731226, -9.336657E-05, -0.0156292226, -0.01081842 , 0.000238541048, 918.1659    , 32.2907333  , 823.498352  , 3.33        , 3           , 255         , 0           , 0
-0.09951095 , 0.149951249 , -9.800026   , -9.9415076E-05, -0.00018366985, 0.000212943254, -0.0156302415, -0.010820223, 0.000240699 , 918.1659    , 32.2907333  , 823.49884   , 3.34        , 3           , 255         , 0           , 0
-0.108379029, 0.15392074  , -9.800014   , 0.000253802747, -5.8237114E-05, 0.0005991432, -0.0156277679, -0.010820712, 0.000246699026, 918.1659    , 32.2907333  , 823.4993    , 3.35        , 3           , 255         , 0           , 0
-0.103425741, 0.155072212 , -9.788671   , -0.000256775529, -0.000167698832, 0.0004532216, -0.015630383, -0.0108223185, 0.000251257035, 918.1659    , 32.2907333  , 823.4998    , 3.36        , 3           , 255         , 0           , 0
-0.106160425, 0.157354459 , -9.796723   , -0.000528276432, -4.16517723E-05, 0.000392718561, -0.0156357083, -0.0108226724, 0.00025519036, 918.1659    , 32.2907333  , 823.5003    , 3.37        , 3           , 255         , 0           , 0
-0.113188624, 0.156216308 , -9.79773    , -0.000138352159, -0.0002198033, -0.000101504935, -0.0156370811, -0.0108248843, 0.000254209765, 918.1659    , 32.2907333  , 823.5008    , 3.38        , 3           , 255         , 0           , 0
-0.121867038, 0.149352863 , -9.790531   , -0.0002239868, -2.6935013E-06, 0.000450387626, -0.0156393666, -0.0108248405, 0.000258713641, 918.1659    , 32.2907333  , 823.5013    , 3.39        , 3           , 255         , 0           , 0
-0.110091254, 0.141161352 , -9.788033   , -0.000401314348, 0.000340382685, 0.000758289 , -0.01564346 , -0.0108213183, 0.0002662426, 918.1659    , 32.2907333  , 823.5018    , 3.4         , 3           , 255         , 0           , 0
-0.104430415, 0.142325833 , -9.791258   , -0.000163259916, 0.000342703774, 0.0001490131, -0.01564346 , -0.0108210277, 0.000267661148, 918.1659    , 32.2907333  , 823.5111    , 3.41        , 3           , 255         , 0           , 0
-0.102408923, 0.150209785 , -9.791749   , 0.00030921906, 0.000375199248, 7.180573E-05, -0.0156403761, -0.0108172661, 0.0002683205, 918.1659    , 32.2907333  , 823.511658  , 3.42        , 3           , 255         , 0           , 0
-0.111097157, 0.1494812   , -9.802524   , -0.0005870712, 7.293245E-05, 0.000382918253, -0.0156462882, -0.0108164763, 0.0002721379, 918.183     , 32.29019    , 823.5122    , 3.43        , 3           , 255         , 0           , 0
-0.110391878, 0.152253836 , -9.79494    , -0.000783556141, 3.684254E-05, -0.000237620552, -0.0156540945, -0.0108161457, 0.000269756158, 918.183     , 32.29019    , 823.512756  , 3.44        , 3           , 255         , 0           , 0
-0.102852561, 0.1496524   , -9.783314   , -0.000677290256, -2.6579015E-05, -0.0004913487, -0.0156608168, -0.0108164893, 0.000264847273, 918.183     , 32.29019    , 823.5133    , 3.45        , 3           , 255         , 0           , 0
-0.104748048, 0.151582628 , -9.782784   , 0.000207199191, -0.0006471493, -8.23127339E-05, -0.0156587381, -0.0108229723, 0.000264125585, 918.183     , 32.29019    , 823.513855  , 3.46        , 3           , 255         , 0           , 0
-0.1072709  , 0.152390882 , -9.788109   , -0.000417879783, 2.39112414E-05, -0.000532000442, -0.01566286 , -0.0108228168, 0.0002588023, 918.183     , 32.29019    , 823.5144    , 3.47        , 3           , 255         , 0           , 0
-0.109481595, 0.155527875 , -9.787057   , 0.000644029 , -1.71402935E-05, -0.0004348234, -0.0156563725, -0.0108230561, 0.000254457147, 918.183     , 32.29019    , 823.514954  , 3.48        , 3           , 255         , 0           , 0
-0.1099516  , 0.145201236 , -9.79099751 , 2.00741924E-05, 0.000283216359, -0.000279888627, -0.0156561416, -0.0108202687, 0.000251614169, 918.183     , 32.29019    , 823.5155    , 3.49        , 3           , 255         , 0           , 0
-0.108645141, 0.158403486 , -9.80162048 , 7.466844E-05, -8.566608E-05, 0.000339316059, -0.0156554319, -0.0108210724, 0.0002550204, 918.183     , 32.29019    , 823.516052  , 3.5         , 3           , 255         , 0           , 0
-0.104999587, 0.155859292 , -9.801115   , 0.000355548575, 9.15478449E-06, 0.000193854241, -0.01564678 , -0.0108232945, 0.000256901956, 918.183     , 32.29019    , 823.499146  , 3.51        , 3           , 255         , 0           , 0
-0.107360646, 0.158381835 , -9.808368   , 0.0002473055, -0.0002521004, -0.0008772791, -0.015644215, -0.0108259525, 0.0002481694, 918.183     , 32.29019    , 823.499634  , 3.52        , 3           , 255         , 0           , 0
-0.103264131, 0.147825688 , -9.807285   , 0.000217258988, -0.0004016254, 0.000222376737, -0.0156420674, -0.010829933, 0.0002504558, 918.1974    , 32.2891045  , 823.5001    , 3.53        , 3           , 255         , 0           , 0
-0.106081888, 0.148673818 , -9.796537   , -0.0006964798, -0.0004018878, 0.0001952748, -0.0156490523, -0.0108339228, 0.000252471247, 918.1974    , 32.2891045  , 823.5006    , 3.54        , 3           , 255         , 0           , 0
-0.09978106 , 0.158750668 , -9.794971   , -3.78116965E-07, -0.0003473137, -0.000150362408, -0.0156490412, -0.01083742 , 0.000251022138, 918.1974    , 32.2891045  , 823.5011    , 3.55        , 3           , 255         , 0           , 0
-0.101084635, 0.153549    , -9.796855   , 0.000215347449, -2.1663378E-05, -0.00046012114, -0.01564684 , -0.0108377077, 0.000246424723, 918.1974    , 32.2891045  , 823.5016    , 3.56        , 3           , 255         , 0           , 0
-0.102031484, 0.15404883  , -9.796312   , 5.17931767E-05, 0.000337087084, 0.000192105013, -0.0156463441, -0.0108343083, 0.000248292839, 918.1974    , 32.2891045  , 823.5021    , 3.57        , 3           , 255         , 0           , 0
-0.103019215, 0.1599056   , -9.78881    , 0.000379337347, 0.00011817948, 0.0003367983, -0.0156425871, -0.0108330734, 0.00025164205, 918.1974    , 32.2891045  , 823.502563  , 3.58        , 3           , 255         , 0           , 0
-0.107671857, 0.155818477 , -9.791817   , -0.0004097108, 0.00023600983, -0.000285894377, -0.0156466532, -0.0108307572, 0.000248746423, 918.1974    , 32.2891045  , 823.503052  , 3.59        , 3           , 255         , 0           , 0
-0.115741327, 0.161480129 , -9.791784   , -6.21886E-05, 0.000400152348, 0.000178811737, -0.015647294, -0.0108267292, 0.000250471785, 918.1974    , 32.2891045  , 823.50354   , 3.6         , 3           , 255         , 0           , 0
-0.113271557, 0.147065982 , -9.79525852 , 0.000107812695, -0.000246469746, -6.373422E-05, -0.0156489573, -0.0108277872, 0.000249902863, 918.1974    , 32.2891045  , 823.467834  , 3.61        , 3           , 255         , 0           , 0
-0.10646601 , 0.1620435   , -9.79922    , 0.000285566552, -0.0002253023, 0.000343072636, -0.015646141, -0.010829987, 0.000253368518, 918.1974    , 32.2891045  , 823.4681    , 3.62        , 3           , 255         , 0           , 0
-0.105081342, 0.160216    , -9.795828   , 0.000634704 , -3.60771082E-06, 0.000527324039, -0.0156398527, -0.0108299423, 0.000258641841, 918.1743    , 32.294735   , 823.4683    , 3.63        , 3           , 255         , 0           , 0
-0.108602069, 0.1632108   , -9.798395   , 7.019425E-05, -0.000318473438, 0.0003742728, -0.01563919 , -0.0108330669, 0.000262434041, 918.1743    , 32.294735   , 823.468567  , 3.64        , 3           , 255         , 0           , 0
-0.105437733, 0.155350342 , -9.797973   , 1.373142E-05, -7.66644953E-05, -0.000782602932, -0.0156389643, -0.0108339563, 0.0002546207, 918.1743    , 32.294735   , 823.4688    , 3.65        , 3           , 255         , 0           , 0
-0.10293752 , 0.155251637 , -9.794171   , 0.0001253027, -5.81149943E-05, -0.0005426188, -0.0156376529, -0.0108346222, 0.00024920408, 918.1743    , 32.294735   , 823.469055  , 3.66        , 3           , 255         , 0           , 0
-0.10727457 , 0.157631159 , -9.796218   , 8.21253052E-05, -8.489587E-06, 0.0007481113, -0.0156369135, -0.0108345905, 0.00025668586, 918.1743    , 32.294735   , 823.4693    , 3.67        , 3           , 255         , 0           , 0
-0.1000131  , 0.15599224  , -9.791557   , -7.60692637E-06, -7.99065456E-05, 0.000776262255, -0.0156370755, -0.0108352676, 0.0002644603, 918.1743    , 32.294735   , 823.469543  , 3.68        , 3           , 255         , 0           , 0
-0.1051422  , 0.154444367 , -9.791362   , -0.0005080021, -1.3138284E-05, 0.000279113447, -0.0156421848, -0.0108353561, 0.000267253228, 918.1743    , 32.294735   , 823.4698    , 3.69        , 3           , 255         , 0           , 0
-0.110395059, 0.152742252 , -9.788622   , 5.194405E-05, -0.000185953453, 0.00061741774, -0.0156417321, -0.0108371181, 0.000273455953, 918.1743    , 32.294735   , 823.470032  , 3.7         , 3           , 255         , 0           , 0
-0.118614592, 0.148180485 , -9.80596352 , -0.000133861438, -2.77064973E-05, -0.000374829979, -0.0156478062, -0.0108379461, 0.000269764074, 918.1743    , 32.294735   , 823.472168  , 3.71        , 3           , 255         , 0           , 0
-0.110361218, 0.13785699  , -9.807604   , -7.348112E-05, 0.000271079654, 0.000350301183, -0.0156485774, -0.010835181, 0.000273224345, 918.1743    , 32.294735   , 823.4725    , 3.72        , 3           , 255         , 0           , 0
-0.08258816 , 0.154031768 , -9.788613   , 0.000377370627, -0.000237698434, 0.000198906462, -0.01564483 , -0.0108375261, 0.0002752504, 918.211365  , 32.2903938  , 823.4728    , 3.73        , 3           , 255         , 0           , 0
-0.0980882  , 0.150612772 , -9.795828   , 0.000317369064, 4.86024655E-05, -0.000486529258, -0.0156416018, -0.0108371172, 0.000270378 , 918.211365  , 32.2903938  , 823.4731    , 3.74        , 3           , 255         , 0           , 0
-0.1135967  , 0.161401719 , -9.788948   , 0.000378884375, -0.0001020896, -0.0003397324, -0.0156377759, -0.010838191, 0.00026699694, 918.211365  , 32.2903938  , 823.4734    , 3.75        , 3           , 255         , 0           , 0
-0.128847212, 0.173974    , -9.790203   , 0.000465563964, 1.84201635E-05, -0.000404147955, -0.0156330783, -0.0108380718, 0.000262952934, 918.211365  , 32.2903938  , 823.4737    , 3.76        , 3           , 255         , 0           , 0
-0.130803078, 0.164313912 , -9.793562   , 0.000324822147, -0.000227947487, 8.595288E-05, -0.0156298373, -0.0108403359, 0.000263848 , 918.211365  , 32.2903938  , 823.474     , 3.77        , 3           , 255         , 0           , 0
-0.119337857, 0.146622777 , -9.790506   , -0.0003499668, -0.000368157169, 0.0002487946, -0.0156333651, -0.0108439783, 0.000266393268, 918.211365  , 32.2903938  , 823.4743    , 3.78        , 3           , 255         , 0           , 0
-0.103985906, 0.137831122 , -9.792682   , -0.000336948666, 4.622515E-05, 0.0003755946, -0.0156367756, -0.0108434567, 0.000270141667, 918.211365  , 32.2903938  , 823.4746    , 3.79        , 3           , 255         , 0           , 0
-0.0876704156, 0.139357731 , -9.786774   , 0.000318161445, 0.0004197532, 0.0001415164, -0.0156336073, -0.0108392378, 0.000271491037, 918.211365  , 32.2903938  , 823.4749    , 3.8         , 3           , 255         , 0           , 0
-0.09656791 , 0.154837877 , -9.789152   , 0.000265732117, -5.99778723E-05, 0.000200340059, -0.0156282317, -0.0108448137, 0.000273473939, 918.211365  , 32.2903938  , 823.42334   , 3.81        , 3           , 255         , 0           , 0
-0.116467558, 0.163187414 , -9.799547   , 0.0006062651, -0.000240520923, 0.000147119368, -0.0156221883, -0.0108471951, 0.0002749826, 918.211365  , 32.2903938  , 823.42334   , 3.82        , 3           , 255         , 0           , 0
-0.10195756 , 0.176438808 , -9.792606   , 0.000551929639, -0.00023869914, -0.000211786857, -0.0156166479, -0.0108496156, 0.0002729022, 918.200867  , 32.2922249  , 823.42334   , 3.83        , 3           , 255         , 0           , 0
-0.09761361 , 0.173772037 , -9.795336   , 0.00067585503, -0.000196104986, 0.000510729966, -0.0156099461, -0.0108514978, 0.000278039661, 918.200867  , 32.2922249  , 823.42334   , 3.84        , 3           , 255         , 0           , 0
-0.09995083 , 0.155800909 , -9.788957   , 0.000574599 , -0.0004190117, 0.000126517814, -0.0156042147, -0.0108556645, 0.000279370142, 918.200867  , 32.2922249  , 823.42334   , 3.85        , 3           , 255         , 0           , 0
-0.110569559, 0.1504629   , -9.791933   , 9.464577E-05, 7.84214353E-05, -0.000324052264, -0.0156032331, -0.0108549315, 0.000276117673, 918.200867  , 32.2922249  , 823.42334   , 3.86        , 3           , 255         , 0           , 0
-0.111937627, 0.165184423 , -9.801432   , 2.85661081E-05, -0.000102598569, -1.90290448E-05, -0.0156029454, -0.01085596 , 0.00027594337, 918.200867  , 32.2922249  , 823.42334   , 3.87        , 3           , 255         , 0           , 0
-0.118434325, 0.169016823 , -9.797095   , 0.000535902334, -0.000280131237, -0.00146028283, -0.0155974291, -0.0108589893, 0.000261385518, 918.200867  , 32.2922249  , 823.42334   , 3.88        , 3           , 255         , 0           , 0
-0.110241391, 0.152493984 , -9.794178   , 0.0005950398, 0.000211761391, -0.000253641774, -0.01559145 , -0.0108569106, 0.000258816348, 918.200867  , 32.2922249  , 823.42334   , 3.89        , 3           , 255         , 0           , 0
-0.103388429, 0.127798468 , -9.78581    , 0.000302236585, 0.000121516874, 0.000277740968, -0.0155884577, -0.0108556524, 0.000261574547, 918.200867  , 32.2922249  , 823.42334   , 3.9         , 3           , 255         , 0           , 0
-0.08316273 , 0.135226309 , -9.791197   , 0.000548210053, 0.000189894752, 5.968449E-05, -0.0155924615, -0.0108543644, 0.000262244634, 918.200867  , 32.2922249  , 823.3941    , 3.91        , 3           , 255         , 0           , 0
-0.085122034, 0.158119678 , -9.79783249 , -0.000141496072, 1.622003E-05, 0.000589096453, -0.0155939395, -0.0108541092, 0.000268132571, 918.200867  , 32.2922249  , 823.3939    , 3.92        , 3           , 255         , 0           , 0
-0.106308125, 0.1791087   , -9.800077   , 4.50690277E-05, -4.209229E-06, 5.188746E-05, -0.0155934943, -0.0108541436, 0.000268652046, 918.1614    , 32.2883568  , 823.393738  , 3.93        , 3           , 255         , 0           , 0
-0.120204434, 0.1796072   , -9.804521   , 0.000750064733, -0.000377053744, -0.0001149055, -0.0155859841, -0.01085793 , 0.000267561874, 918.1614    , 32.2883568  , 823.393555  , 3.94        , 3           , 255         , 0           , 0
-0.115442947, 0.1471008   , -9.786353   , 9.04249E-05 , 0.000189298415, -8.50383658E-05, -0.0155850686, -0.0108560519, 0.000266682066, 918.1614    , 32.2883568  , 823.3934    , 3.95        , 3           , 255         , 0           , 0
-0.112073384, 0.127013892 , -9.787741   , -0.000115230447, -0.00022410485, -0.000226850767, -0.0155861974, -0.0108583272, 0.000264448667, 918.1614    , 32.2883568  , 823.3932    , 3.96        , 3           , 255         , 0           , 0
-0.102416649, 0.137509912 , -9.789545   , 0.000227060111, -0.000425437, -0.0005201823, -0.01558387 , -0.0108626625, 0.000259313616, 918.1614    , 32.2883568  , 823.393     , 3.97        , 3           , 255         , 0           , 0
-0.100885347, 0.1603381   , -9.790246   , 0.00034639542, -0.000537282554, 0.000212758532, -0.01558043 , -0.0108680017, 0.00026152475, 918.1614    , 32.2883568  , 823.3928    , 3.98        , 3           , 255         , 0           , 0
-0.115645684, 0.178885281 , -9.795206   , -0.0003488534, 7.74400542E-05, 0.000570634147, -0.015583979, -0.0108671384, 0.000267218536, 918.1614    , 32.2883568  , 823.392639  , 3.99        , 3           , 255         , 0           , 0
-0.125946447, 0.1788413   , -9.796461   , 0.000104729785, -0.000221078517, 0.000147687751, -0.0155829508, -0.0108693261, 0.000268729724, 918.1614    , 32.2883568  , 823.392456  , 4           , 3           , 0           , 9.437237    , 400
-0.1157461  , 0.155596778 , -9.787208   , 0.0008219427, 4.21346631E-05, -0.000375827542, -0.0155830625, -0.0108695263, 0.0002650562, 918.1614    , 32.2883568  , 823.4241    , 4.01        , 3           , 1           , 0           , 0
-0.093072705, 0.138954177 , -9.791628   , 0.0006352983, -4.16710973E-05, -0.000360462524, -0.0155766709, -0.0108699994, 0.0002614584, 918.1614    , 32.2883568  , 823.424133  , 4.02        , 3           , 2           , 0           , 0
-0.0774928555, 0.135844186 , -9.790856   , 0.00020318554, 7.76634552E-05, -7.705181E-05, -0.0155746313, -0.0108692348, 0.00026067585, 918.206665  , 32.29053    , 823.4242    , 4.03        , 3           , 3           , 0           , 0
-0.0783390552, 0.147854835 , -9.792725   , 0.0003429869, 7.226842E-05, 0.0001757654, -0.0155712208, -0.0108684851, 0.0002624221, 918.206665  , 32.29053    , 823.424255  , 4.04        , 3           , 4           , 0           , 0
-0.09410679 , 0.164936334 , -9.799414   , 4.17465344E-05, -0.000125465915, 0.000832389342, -0.0155708948, -0.01086961 , 0.0002707648, 918.206665  , 32.29053    , 823.4243    , 4.05        , 3           , 5           , 0           , 0
-0.1085995  , 0.17417109  , -9.795455   , -7.691805E-05, 8.211774E-05, 0.00038704864, -0.0155717051, -0.0108687291, 0.000274622173, 918.206665  , 32.29053    , 823.4244    , 4.06        , 3           , 6           , 0           , 0
-0.133381784, 0.1786488   , -9.796573   , 0.000270205725, 0.000282277 , -0.000236245163, -0.0155689763, -0.0108659463, 0.000272216 , 918.206665  , 32.29053    , 823.424438  , 4.07        , 3           , 7           , 0           , 0
-0.127082035, 0.160675138 , -9.785255   , 7.92950159E-05, 0.0002776942, -3.225266E-05, -0.0155681791, -0.0108631719, 0.000271850266, 918.206665  , 32.29053    , 823.4245    , 4.08        , 3           , 8           , 5           , 5
-0.1235415  , 0.13686654  , -9.793322   , -0.000119115575, 0.00024659076, 0.0009218698, -0.0155694718, -0.0108605633, 0.000281029759, 918.206665  , 32.29053    , 823.424561  , 4.09        , 3           , 9           , 5           , 0.1
-0.106599607, 0.13997528  , -9.796926   , -7.126969E-05, 0.000195869245, 0.00102425553, -0.015570296, -0.0108584436, 0.0002912409, 918.206665  , 32.29053    , 823.4246    , 4.1         , 3           , 10          , 0.1         , 0.1
-0.09753527 , 0.140453771 , -9.799493   , 0.0004924332, -0.000182267744, 0.0004799079, -0.0155667961, -0.0108591262, 0.000296082872, 918.206665  , 32.29053    , 823.387     , 4.11        , 3           , 11          , 0.006851395 , 0.006851392
-0.10104911 , 0.152754053 , -9.790131   , -4.88206279E-05, 8.32229853E-05, -0.0005803781, -0.0155672207, -0.0108583858, 0.000290266646, 918.206665  , 32.29053    , 823.386841  , 4.12        , 3           , 12          , 0.174648076 , 0
-0.103358105, 0.157286555 , -9.798533   , -0.000768333, -0.00017146871, -0.0002459992, -0.0155748781, -0.0108601386, 0.0002878336, 918.1865    , 32.2924957  , 823.386658  , 4.13        , 3           , 13          , 0           , 0
-0.101663962, 0.1630272   , -9.796463   , -0.000568644, 6.30886061E-05, -0.000413513451, -0.0155805182, -0.0108595723, 0.000283688976, 918.1865    , 32.2924957  , 823.3865    , 4.14        , 3           , 14          , -0.00113034691, -0.00110401888
-0.09640907 , 0.154606327 , -9.785085   , 2.40202062E-05, 9.916024E-05, 0.000371140166, -0.0155803179, -0.0108585227, 0.000287384581, 918.1865    , 32.2924957  , 823.3863    , 4.15        , 3           , 15          , 0           , -0.0002639474
-0.09551425 , 0.1482504   , -9.785138   , -9.37673E-05, 0.000459325267, -0.000160748779, -0.0155812381, -0.0108539555, 0.0002857057, 918.1865    , 32.2924957  , 823.3861    , 4.16        , 3           , 16          , 0           , 1.401298E-45
-0.0995008945, 0.157504871 , -9.79464    , 0.0002576399, 0.000476469169, 0.000183205382, -0.0155786825, -0.0108491657, 0.000287463365, 918.1865    , 32.2924957  , 823.3859    , 4.17        , 3           , 20          , 0           , 0
-0.113304272, 0.152545944 , -9.784971   , 3.797724E-05, 0.000312391785, 0.000127686842, -0.0155783147, -0.0108460188, 0.000288691459, 918.1865    , 32.2924957  , 823.385742  , 4.18        , 3           , 21          , 0           , 0
-0.119981743, 0.148917824 , -9.794922   , -1.29221007E-05, 0.000281706685, -3.85892345E-05, -0.01557844 , -0.010843209, 0.0002882617, 918.1865    , 32.2924957  , 823.385559  , 4.19        , 3           , 22          , 0           , 0
-0.108744167, 0.147408932 , -9.80599    , 0.0003311945, 0.000263297581, -3.371251E-05, -0.0155751249, -0.0108405817, 0.000287883624, 918.1865    , 32.2924957  , 823.3854    , 4.2         , 3           , 40          , 0           , 0
-0.096763894, 0.1462039   , -9.80227    , 0.000616510748, -0.000334799523, 4.98273148E-05, -0.0155684724, -0.01083987 , 0.000288428651, 918.1865    , 32.2924957  , 823.3822    , 4.21        , 3           , 41          , 0           , 0
-0.0972857  , 0.157241419 , -9.800908   , 0.000320210762, -0.000439691823, 0.000120341982, -0.0155652845, -0.0108442465, 0.0002897004, 918.1865    , 32.2924957  , 823.382     , 4.22        , 3           , 42          , 0           , 0
-0.102289006, 0.159086734 , -9.779283   , -0.000472669955, 3.795419E-05, 0.0008547524, -0.0155701051, -0.0108437324, 0.00029824127, 918.1865    , 32.2924957  , 823.381836  , 4.23        , 3           , 255         , 0           , 0
-0.09503351 , 0.174260616 , -9.796717   , -2.33713072E-05, -3.83134466E-05, -5.9325248E-05, -0.0155703332, -0.0108441245, 0.000297654042, 918.1865    , 32.2924957  , 823.381653  , 4.24        , 3           , 255         , 0           , 0
-0.09890263 , 0.160047963 , -9.792796   , -0.000177755719, -0.000155772315, -0.00029934023, -0.0155720776, -0.0108457282, 0.00029468516, 918.1865    , 32.2924957  , 823.3815    , 4.25        , 3           , 255         , 0           , 0
-0.10903959 , 0.159839913 , -9.795504   , 0.00022719166, -0.000101936283, 0.000328595634, -0.0155698434, -0.0108466959, 0.0002979867, 918.1865    , 32.2924957  , 823.3813    , 4.26        , 3           , 255         , 0           , 0
-0.11578609 , 0.156191155 , -9.795773   , -7.366657E-05, -7.7124685E-05, 0.000716022565, -0.0155706583, -0.0108473552, 0.0003051583, 918.1865    , 32.2924957  , 823.3811    , 4.27        , 3           , 255         , 0           , 0
-0.110428944, 0.148967534 , -9.78794    , 8.160691E-05, -0.0002633098, -0.0003922342, -0.0155698005, -0.0108500505, 0.000301277265, 918.1865    , 32.2924957  , 823.3809    , 4.28        , 3           , 255         , 0           , 0
-0.110282555, 0.154097885 , -9.787987   , 0.000227797951, -0.0003149372, 0.000291534816, -0.0155675542, -0.0108531546, 0.000304241432, 918.1865    , 32.2924957  , 823.380737  , 4.29        , 3           , 255         , 0           , 0
-0.109167054, 0.1487821   , -9.796343   , 0.000299774925, 5.105138E-05, 0.0005037281, -0.01556461 , -0.010852566, 0.0003092703, 918.1865    , 32.2924957  , 823.380554  , 4.3         , 3           , 255         , 0           , 0
-0.102693215, 0.153834864 , -9.800863   , 4.08320921E-05, 1.57020986E-05, -0.000418320182, -0.0155700836, -0.0108498828, 0.000305149326, 918.1865    , 32.2924957  , 823.3781    , 4.31        , 3           , 255         , 0           , 0
-0.100206509, 0.1460554   , -9.80386    , -3.04332934E-06, 0.000568758638, -0.000236888125, -0.0155700874, -0.0108442316, 0.0003026921, 918.1865    , 32.2924957  , 823.3779    , 4.32        , 3           , 255         , 0           , 0
-0.103045568, 0.149217576 , -9.771217   , 5.955249E-05, 0.000659733 , 0.0003914542, -0.0155695342, -0.0108375773, 0.0003065036, 918.2277    , 32.2912064  , 823.377747  , 4.33        , 3           , 255         , 0           , 0
-0.105523482, 0.148527592 , -9.788716   , 3.25241126E-05, 0.000243068615, 0.000765348435, -0.01556929 , -0.0108350255, 0.0003141186, 918.2277    , 32.2912064  , 823.377563  , 4.34        , 3           , 255         , 0           , 0
-0.08834367 , 0.152882114 , -9.801145   , 3.40500847E-05, 3.68920155E-07, 0.0003862778, -0.01556899 , -0.0108349621, 0.000317980972, 918.2277    , 32.2912064  , 823.3774    , 4.35        , 3           , 255         , 0           , 0
-0.09362799 , 0.150262028 , -9.803775   , -0.000151569257, 0.0003743876, 0.0002040726, -0.0155705288, -0.0108311865, 0.000319963176, 918.2277    , 32.2912064  , 823.3772    , 4.36        , 3           , 255         , 0           , 0
-0.09970479 , 0.1554046   , -9.794774   , 0.000234766921, -9.34446E-05, 9.143025E-05, -0.0155681893, -0.0108321058, 0.000320892 , 918.2277    , 32.2912064  , 823.377     , 4.37        , 3           , 255         , 0           , 0
-0.115112565, 0.1573003   , -9.801346   , -1.97225017E-05, -8.791336E-05, 0.000467079051, -0.0155684371, -0.0108329132, 0.000325576082, 918.2277    , 32.2912064  , 823.376831  , 4.38        , 3           , 255         , 0           , 0
-0.119147204, 0.150613666 , -9.787878   , -4.58779978E-05, 4.90825623E-05, -0.000333873148, -0.0155688608, -0.0108324736, 0.00032223  , 918.2277    , 32.2912064  , 823.376648  , 4.39        , 3           , 255         , 0           , 0
-0.111191772, 0.15613696  , -9.79452    , 5.83513174E-05, 0.0001976915, 4.96914872E-05, -0.0155682815, -0.01083049 , 0.000322696083, 918.2277    , 32.2912064  , 823.376465  , 4.4         , 3           , 255         , 0           , 0
-0.112592161, 0.153895438 , -9.789932   , 0.000571740733, -0.0003078716, 0.000951124 , -0.0155620035, -0.01083029 , 0.000332247175, 918.2277    , 32.2912064  , 823.31604   , 4.41        , 3           , 255         , 0           , 0
-0.09040181 , 0.1514637   , -9.79932    , 0.00010649988, -0.0001755706, 0.000437006063, -0.0155609865, -0.0108319772, 0.0003366442, 918.2277    , 32.2912064  , 823.3155    , 4.42        , 3           , 255         , 0           , 0
-0.09438203 , 0.14516589  , -9.793861   , -0.00016259111, -0.000459098257, 0.00078316353, -0.0155626982, -0.0108364467, 0.00034454657, 918.202148  , 32.2924957  , 823.314941  , 4.43        , 3           , 255         , 0           , 0
-0.105587006, 0.143015817 , -9.792814   , -0.000131654087, -0.000114822062, 7.9519974E-05, -0.0155640244, -0.0108375819, 0.000345359615, 918.202148  , 32.2924957  , 823.3144    , 4.44        , 3           , 255         , 0           , 0
-0.108538941, 0.150458261 , -9.797623   , 8.377875E-05, -0.00030282 , -0.000220688322, -0.0155631639, -0.0108406432, 0.000343200023, 918.202148  , 32.2924957  , 823.313843  , 4.45        , 3           , 255         , 0           , 0
-0.118578985, 0.157827735 , -9.797398   , 0.00014674745, 2.4404726E-05, -0.000564827467, -0.0155616337, -0.0108404867, 0.000337548438, 918.202148  , 32.2924957  , 823.3133    , 4.46        , 3           , 255         , 0           , 0
-0.107707456, 0.157855779 , -9.80588    , -0.0002649274, 0.000111818779, -9.934552E-05, -0.0155642722, -0.010839384, 0.000336537632, 918.202148  , 32.2924957  , 823.312744  , 4.47        , 3           , 255         , 0           , 0
-0.108078443, 0.163078472 , -9.797133   , 0.000176645583, -0.000190025778, 7.326514E-05, -0.0155625129, -0.0108412728, 0.0003372998, 918.202148  , 32.2924957  , 823.3122    , 4.48        , 3           , 255         , 0           , 0
-0.100837275, 0.15910247  , -9.786049   , 0.000372571871, 4.06416366E-05, 0.0005118391, -0.0155588426, -0.0108407866, 0.000342411455, 918.202148  , 32.2924957  , 823.311646  , 4.49        , 3           , 255         , 0           , 0
-0.10956192 , 0.158521846 , -9.796489   , 0.000436683942, -4.78876755E-05, 0.00077053014, -0.01555456 , -0.010841147, 0.0003501235, 918.202148  , 32.2924957  , 823.3111    , 4.5         , 3           , 255         , 0           , 0
-0.110614263, 0.171016812 , -9.79895    , 2.47198623E-05, -4.43503959E-05, 0.000173098088, -0.01555635 , -0.0108408295, 0.000351883122, 918.202148  , 32.2924957  , 823.2967    , 4.51        , 3           , 255         , 0           , 0
-0.120702662, 0.171247512 , -9.789431   , 0.0003889483, -0.0002496771, -0.0005049943, -0.0155524081, -0.0108434036, 0.0003468725, 918.202148  , 32.2924957  , 823.2961    , 4.52        , 3           , 255         , 0           , 0
-0.106465138, 0.163123012 , -9.791155   , 0.0005810538, 0.000319688115, 0.00035430555, -0.0155466357, -0.0108401515, 0.0003503655, 918.1555    , 32.288765   , 823.2955    , 4.53        , 3           , 255         , 0           , 0
-0.0992874056, 0.165133879 , -9.789664   , 0.000245167932, 6.13122247E-05, 0.000295327132, -0.0155442171, -0.010839493, 0.000353309 , 918.1555    , 32.288765   , 823.294861  , 4.54        , 3           , 255         , 0           , 0
-0.107748762, 0.157588318 , -9.785012   , 0.000151141663, 0.000319510524, -0.0003830661, -0.0155426618, -0.0108363591, 0.000349429029, 918.1555    , 32.288765   , 823.29425   , 4.55        , 3           , 255         , 0           , 0
-0.113176189, 0.1539016   , -9.793089   , 0.0004947077, 0.0002981944, -0.0003641369, -0.0155376745, -0.0108334329, 0.000345741631, 918.1555    , 32.288765   , 823.29364   , 4.56        , 3           , 255         , 0           , 0
-0.1100577  , 0.158792272 , -9.801504   , 0.0003199954, 0.000219179085, -0.0002726545, -0.0155344447, -0.0108312834, 0.000342981279, 918.1555    , 32.288765   , 823.293     , 4.57        , 3           , 255         , 0           , 0
-0.107869923, 0.163799837 , -9.795367   , 0.000808200566, -0.0005500397, 0.000367423927, -0.0155264027, -0.010836727, 0.000346740562, 918.1555    , 32.288765   , 823.2924    , 4.58        , 3           , 255         , 0           , 0
-0.103848718, 0.164822668 , -9.785138   , 0.0006952543, 0.0002031778, 0.000209446822, -0.0155194728, -0.0108346632, 0.000348803325, 918.1555    , 32.288765   , 823.2918    , 4.59        , 3           , 255         , 0           , 0
-0.09329564 , 0.165003762 , -9.787059   , 0.00021308579, 0.000480088638, 0.000234205538, -0.0155173689, -0.0108298259, 0.000351070659, 918.1555    , 32.288765   , 823.2912    , 4.6         , 3           , 255         , 0           , 0
-0.09969429 , 0.154506236 , -9.783144   , -0.0001328711, 0.00012223958, 0.0001816026, -0.0155370757, -0.0108304871, 0.000353066454, 918.1555    , 32.288765   , 823.3458    , 4.61        , 3           , 255         , 0           , 0
-0.101177476, 0.143109158 , -9.791098   , -0.000340871746, 0.000194520049, -0.000325233385, -0.0155404508, -0.0108285928, 0.000349784154, 918.1555    , 32.288765   , 823.3456    , 4.62        , 3           , 255         , 0           , 0
-0.101682708, 0.151618883 , -9.798511   , 0.000394953531, 0.000340897939, -0.0007335003, -0.0155364191, -0.0108252978, 0.000342396845, 918.1963    , 32.29114    , 823.345337  , 4.63        , 3           , 255         , 0           , 0
-0.105384767, 0.156557977 , -9.806425   , -3.03968554E-05, 0.000268759322, -0.000135199778, -0.0155367078, -0.0108226314, 0.0003410032, 918.1963    , 32.29114    , 823.3451    , 4.64        , 3           , 255         , 0           , 0
-0.115856804, 0.16445373  , -9.8004     , 0.000361100654, 7.825019E-05, -0.0002388453, -0.0155330719, -0.0108218873, 0.0003386028, 918.1963    , 32.29114    , 823.344849  , 4.65        , 3           , 255         , 0           , 0
-0.12963143 , 0.149710149 , -9.795843   , 0.000400567544, 8.130481E-05, 0.0002799476, -0.0155290961, -0.0108210305, 0.000341389474, 918.1963    , 32.29114    , 823.3446    , 4.66        , 3           , 255         , 0           , 0
-0.125132471, 0.142302632 , -9.789311   , 0.000662204344, 6.995199E-05, -0.000524952135, -0.0155224167, -0.0108204149, 0.0003361295, 918.1963    , 32.29114    , 823.34436   , 4.67        , 3           , 255         , 0           , 0
-0.106132075, 0.1355351   , -9.789021   , 0.000331835938, 5.42805064E-05, -0.000206038821, -0.015519076, -0.0108199026, 0.000334060838, 918.1963    , 32.29114    , 823.3441    , 4.68        , 3           , 255         , 0           , 0
-0.09753305 , 0.130497858 , -9.785261   , 3.39467078E-07, -5.115266E-05, 0.0008149291, -0.01551916 , -0.0108202873, 0.0003422174, 918.1963    , 32.29114    , 823.3439    , 4.69        , 3           , 255         , 0           , 0
-0.0892830938, 0.1403186   , -9.784797   , 6.53797761E-05, -0.000376842683, 0.0004573899, -0.0155185563, -0.0108239837, 0.000346849352, 918.1963    , 32.29114    , 823.3436    , 4.7         , 3           , 255         , 0           , 0
-0.08195347 , 0.153523192 , -9.802663   , 0.000552941056, 7.775263E-06, -0.000116724521, -0.0155048128, -0.0108257281, 0.0003455922, 918.1963    , 32.29114    , 823.3331    , 4.71        , 3           , 255         , 0           , 0
-0.0895525  , 0.1605367   , -9.800066   , 0.0004905516, -0.000200965325, 1.49377156E-05, -0.0154999094, -0.0108277341, 0.000345772773, 918.1963    , 32.29114    , 823.3328    , 4.72        , 3           , 255         , 0           , 0
-0.0889555  , 0.1719464   , -9.789676   , 0.00134024851, -0.00045330578, -0.000260254, -0.0154864816, -0.010832306, 0.000343240652, 918.228333  , 32.2906647  , 823.3325    , 4.73        , 3           , 255         , 0           , 0
-0.09503131 , 0.178574562 , -9.780022   , 0.0005832043, -0.000304220361, 0.000178134287, -0.0154806683, -0.0108353235, 0.000345068926, 918.228333  , 32.2906647  , 823.3322    , 4.74        , 3           , 255         , 0           , 0
-0.109418705, 0.18285118  , -9.78696251 , -0.000188280945, -0.000153659726, -0.000927079236, -0.0154824518, -0.0108370008, 0.000335822726, 918.228333  , 32.2906647  , 823.3319    , 4.75        , 3           , 255         , 0           , 0
-0.145091459, 0.181334212 , -9.788307   , 0.000229656 , 0.000234065112, -0.000434751651, -0.0154801058, -0.0108347293, 0.0003314393, 918.228333  , 32.2906647  , 823.3316    , 4.76        , 3           , 255         , 0           , 0
-0.151098222, 0.1704244   , -9.791362   , -9.3753566E-05, -0.000263819122, 0.000216389715, -0.01548107 , -0.0108373333, 0.0003336439, 918.228333  , 32.2906647  , 823.3313    , 4.77        , 3           , 255         , 0           , 0
-0.1445366  , 0.1423949   , -9.788649   , 3.8047554E-05, -0.000223517767, -0.0003699007, -0.0154806487, -0.0108396253, 0.0003299798, 918.228333  , 32.2906647  , 823.331     , 4.78        , 3           , 255         , 0           , 0
-0.110884927, 0.126718715 , -9.788265   , 0.000343222753, -9.22203762E-05, 6.02763321E-05, -0.0154772233, -0.010840538, 0.0003305968, 918.228333  , 32.2906647  , 823.3307    , 4.79        , 3           , 255         , 0           , 0
-0.08618756 , 0.110512272 , -9.778401   , 0.000387297536, -0.000193094485, 0.000287357718, -0.0154733825, -0.0108424239, 0.0003335   , 918.228333  , 32.2906647  , 823.3304    , 4.8         , 3           , 255         , 0           , 0
-0.06999487 , 0.118750893 , -9.790948   , 1.36950985E-05, -3.51808267E-05, 0.00100758555, -0.0154854162, -0.0108505925, 0.000343711348, 918.228333  , 32.2906647  , 823.2762    , 4.81        , 3           , 255         , 0           , 0
-0.06756915 , 0.13429445  , -9.792018   , 0.0005148118, 0.000250631245, 0.000461487682, -0.015480319, -0.0108480146, 0.000348287023, 918.228333  , 32.2906647  , 823.2756    , 4.82        , 3           , 255         , 0           , 0
-0.07709489 , 0.159300059 , -9.798761   , 0.000529631448, 0.000241047353, 0.000281101617, -0.0154750515, -0.0108455606, 0.000351060473, 918.167236  , 32.290596   , 823.274963  , 4.83        , 3           , 255         , 0           , 0
-0.107779324, 0.180097058 , -9.793494   , 0.0005747492, 0.0002398956, 0.000710875 , -0.0154693816, -0.0108430516, 0.000358131481, 918.167236  , 32.290596   , 823.274353  , 4.84        , 3           , 255         , 0           , 0
-0.150697082, 0.182784945 , -9.799903   , 0.000416820054, -7.27833249E-05, -0.0002811893, -0.015465185, -0.0108438218, 0.0003553311, 918.167236  , 32.290596   , 823.273743  , 4.85        , 3           , 255         , 0           , 0
-0.175325111, 0.180571586 , -9.792395   , -0.000201081508, 0.000287948758, -4.13028756E-05, -0.01546719 , -0.01084095 , 0.00035487354, 918.167236  , 32.290596   , 823.273132  , 4.86        , 3           , 255         , 0           , 0
-0.164951727, 0.1787431   , -9.784639   , -0.000846265466, 0.000239155488, -0.000229776575, -0.015475628, -0.0108385952, 0.000352538977, 918.167236  , 32.290596   , 823.2725    , 4.87        , 3           , 255         , 0           , 0
-0.112327293, 0.157236189 , -9.787473   , -0.0002874015, 0.000206528057, -5.94252779E-05, -0.0154784955, -0.0108365379, 0.000351912866, 918.167236  , 32.290596   , 823.2719    , 4.88        , 3           , 255         , 0           , 0
-0.0451891236, 0.141970009 , -9.79059    , -0.000272528734, -0.000107579632, 0.0004199101, -0.0154812662, -0.0108375484, 0.000356128177, 918.167236  , 32.290596   , 823.2713    , 4.89        , 3           , 255         , 0           , 0
-0.0313482359, 0.150015622 , -9.792058   , 0.0005183355, 2.47203279E-05, -5.401473E-05, -0.0154760769, -0.0108373091, 0.000355584256, 918.167236  , 32.290596   , 823.2707    , 4.9         , 3           , 255         , 0           , 0
-0.08432837 , 0.167266876 , -9.798523   , -0.0001799924, -0.000106038176, 0.000129358159, -0.01548836 , -0.0108293016, 0.0003570075, 918.167236  , 32.290596   , 823.3118    , 4.91        , 3           , 255         , 0           , 0
-0.127568319, 0.187444076 , -9.804411   , 0.0002556928, 0.000175793888, -0.000284327136, -0.0154857738, -0.0108275879, 0.000354137243, 918.167236  , 32.290596   , 823.3115    , 4.92        , 3           , 255         , 0           , 0
-0.141362518, 0.180152133 , -9.798965   , 0.000635324861, -0.000297717168, -0.00026169495, -0.0154793914, -0.0108306045, 0.000351566676, 918.1858    , 32.290802   , 823.3112    , 4.93        , 3           , 255         , 0           , 0
-0.130774289, 0.165422559 , -9.781706   , 0.0006133928, -0.000220877235, -9.354553E-05, -0.0154732484, -0.0108328275, 0.0003506655, 918.1858    , 32.290802   , 823.3109    , 4.94        , 3           , 255         , 0           , 0
-0.131424218, 0.135936663 , -9.779015   , -3.954291E-05, 2.04204116E-06, -0.000974551134, -0.015473539, -0.0108329589, 0.0003409205, 918.1858    , 32.290802   , 823.3106    , 4.95        , 3           , 255         , 0           , 0
-0.114418089, 0.1250259   , -9.789151   , -0.000476377085, 0.0005400817, -0.000378684956, -0.0154782617, -0.0108276177, 0.000337050384, 918.1858    , 32.290802   , 823.3103    , 4.96        , 3           , 255         , 0           , 0
-0.09357645 , 0.122514114 , -9.787703   , -0.000304293, 8.536375E-05, 0.00117961143, -0.0154814329, -0.0108265793, 0.000348832225, 918.1858    , 32.290802   , 823.31      , 4.97        , 3           , 255         , 0           , 0
-0.07238267 , 0.124385968 , -9.79344    , 0.000175615947, 0.000441066164, 0.0008549454, -0.0154797677, -0.0108220372, 0.000357312616, 918.1858    , 32.290802   , 823.3097    , 4.98        , 3           , 255         , 0           , 0
-0.08959117 , 0.138036937 , -9.804571   , -0.000206197612, 0.00013927836, 0.0007362531, -0.01548191 , -0.01082053 , 0.00036465298, 918.1858    , 32.290802   , 823.3094    , 4.99        , 3           , 255         , 0           , 0
-0.110881567, 0.161344782 , -9.795959   , -0.000171389664, 0.000254650018, 0.0003574281, -0.0154836606, -0.0108179282, 0.000368187466, 918.1858    , 32.290802   , 823.3091    , 5           , 3           , 0           , -1          , 500
-0.124572   , 0.177155226 , -9.789649   , 6.148557E-05, 0.000204630371, 1.28035608E-05, -0.0154819451, -0.0108207623, 0.000368271925, 918.1858    , 32.290802   , 823.318359  , 5.01        , 3           , 1           , 0           , 0
-0.120671414, 0.19117099  , -9.788385   , 0.000667160668, -0.000211316044, 0.000505462 , -0.0154753281, -0.0108227963, 0.0003733588, 918.1858    , 32.290802   , 823.3181    , 5.02        , 3           , 2           , 0           , 0
-0.09623222 , 0.188056663 , -9.790479   , 0.000119605218, 0.000406846346, -0.000183859753, -0.0154741127, -0.01081876 , 0.0003714574, 918.154358  , 32.2916145  , 823.3179    , 5.03        , 3           , 3           , 0           , 0
-0.08406822 , 0.163941234 , -9.799124   , -3.67972534E-05, 7.980841E-05, 0.00036651062, -0.01547452 , -0.010817904, 0.000375109841, 918.154358  , 32.2916145  , 823.3176    , 5.04        , 3           , 4           , 0           , 0
-0.09333137 , 0.152306825 , -9.803733   , 0.000279110158, -0.0002856874, -0.000179311086, -0.01547171 , -0.0108207883, 0.000373361079, 918.154358  , 32.2916145  , 823.3174    , 5.05        , 3           , 5           , 0           , 0
-0.103930093, 0.15834403  , -9.789108   , 0.0008123076, -0.000195414643, -0.000852086348, -0.0154634947, -0.0108228726, 0.000364871143, 918.154358  , 32.2916145  , 823.317139  , 5.06        , 3           , 6           , 0           , 0
-0.104840115, 0.154071584 , -9.781999   , 0.000126642757, -0.000130946981, -0.000300238578, -0.0154621964, -0.0108242286, 0.0003618893, 918.154358  , 32.2916145  , 823.3169    , 5.07        , 3           , 7           , 0           , 0
-0.114707366, 0.15195784  , -9.788724   , 0.0002593815, 5.14915446E-05, -1.44724036E-05, -0.0154596008, -0.0108237164, 0.0003617366, 918.154358  , 32.2916145  , 823.31665   , 5.08        , 3           , 8           , 5           , 5
-0.106323853, 0.151983783 , -9.788559   , -4.10480425E-07, 0.0005008085, -0.0007235687, -0.0154595263, -0.0108188223, 0.0003544241, 918.154358  , 32.2916145  , 823.3164    , 5.09        , 3           , 9           , 5           , 0.1
