Acc X       , Acc Y       , Acc Z       , Gyro X      , Gyro Y      , Gyro Z      , Euler X     , Euler Y     , Euler Z     , Pres X      , Pres Y      , Pres Z      , Time        , Status      , LowRate X   , LowRate Y   , LowRate Z    
-0.119015381, 0.09327119  , -9.844976   , 0           , 0.0129464474, 0           , -0.009473705, -0.0120878145, 1.77768636  , 917.4735    , 26.1827126  , 829.7993    , 0           , 2           , 0           , 5.43423176  , 0
-0.12258067 , 0.08299947  , -9.852945   , 0.000100065488, 0.012894745 , 0.000271947822, -0.0094725145, -0.0119586242, 1.77768779  , 917.4735    , 26.1827126  , 829.7993    , 0.01        , 7           , 1           , 0           , 0
-0.120569013, 0.09201467  , -9.846222   , -7.37293158E-05, 0.0126273232, -0.000156394672, -0.00947321951, -0.0118323741, 1.77768493  , 917.4735    , 26.1827126  , 829.7993    , 0.02        , 7           , 2           , 0           , 0
-0.122878693, 0.08797273  , -9.857584   , 0.000798755558, 0.0126957893, 9.87383537E-05, -0.009465228, -0.0117054153, 1.77768469  , 917.444153  , 25.7764072  , 829.7993    , 0.03        , 7           , 3           , 0           , 0
-0.118389726, 0.08666888  , -9.850655   , 0.0008192363, 0.0122580836, 0.000472660176, -0.009457077, -0.0115827993, 1.77768815  , 917.444153  , 25.7764072  , 829.7993    , 0.04        , 7           , 4           , 0           , 0
-0.120699406, 0.09289011  , -9.843409   , 0.000452921027, 0.0121205691, 0.0001484775, -0.009452552, -0.0114615876, 1.77768862  , 917.444153  , 25.7764072  , 829.7994    , 0.05        , 7           , 5           , 0           , 0
-0.117328025, 0.0922009349, -9.849146   , 0.000588095048, 0.0120608816, -0.00038636534, -0.009446614, -0.0113410251, 1.77768362  , 917.444153  , 25.7764072  , 829.799438  , 0.06        , 7           , 6           , 0           , 0
-0.117886804, 0.09082258  , -9.8514185  , 0.000508512137, 0.0125377942, -1.536915E-05, -0.009441515, -0.011215657, 1.7776823   , 917.444153  , 25.7764072  , 829.7995    , 0.07        , 7           , 7           , 0           , 0
-0.125542283, 0.0968948   , -9.8465     , 0.0008373761, 0.0125038531, -0.0006280395, -0.009433057, -0.0110906847, 1.77767467  , 917.444153  , 25.7764072  , 829.799561  , 0.08        , 7           , 8           , 5           , 5
-0.123810031, 0.0954046845, -9.845476   , 0.00114049274, 0.012430707 , -0.000139425043, -0.009421625, -0.0109664015, 1.77767217  , 917.444153  , 25.7764072  , 829.7996    , 0.09        , 7           , 9           , 5           , 0.1
-0.131241962, 0.09542331  , -9.840113   , 0.0005635179, 0.0127800526, 0.000410632463, -0.00941602048, -0.010838571, 1.777675    , 917.444153  , 25.7764072  , 829.7997    , 0.1         , 7           , 10          , 0.1         , 0.1
-0.12781471 , 0.09972602  , -9.851381   , -0.000442969846, 0.0124236848, 0.0001069305, -0.009418925, -0.0107218409, 1.777675    , 917.444153  , 25.7764072  , 830.0643    , 0.11        , 7           , 11          , 0.0109544508, 0.0109544508
-0.129621476, 0.09637326  , -9.850003   , 0.00023582438, 0.013149878 , -0.0009504666, -0.009416452, -0.0105904406, 1.77766418  , 917.444153  , 25.7764072  , 830.064331  , 0.12        , 7           , 12          , 0.0346410163, 0
-0.133067369, 0.09506941  , -9.846072   , 0.0002510387, 0.0129357073, -0.000271672616, -0.009413899, -0.0104611181, 1.77766025  , 917.4544    , 25.813652   , 830.064453  , 0.13        , 7           , 13          , 0           , 0
-0.123586513, 0.0949762762, -9.852983   , 0.000145708909, 0.0125061944, -0.000860936, -0.00941234 , -0.0103361448, 1.77765048  , 917.4544    , 25.813652   , 830.0646    , 0.14        , 7           , 14          , 0.00354318577, 3.54886259E-10
-0.125784427, 0.108312823 , -9.851008   , 0.0002873186, 0.0133377165, 2.67627183E-05, -0.009409456, -0.0102027738, 1.77764952  , 917.4544    , 25.813652   , 830.0647    , 0.15        , 7           , 15          , 0           , 0.00215064455
-0.128000975, 0.09793788  , -9.84976    , 0.000132834539, 0.0129866172, 0.000357382 , -0.009408152, -0.0100728823, 1.77765191  , 917.4544    , 25.813652   , 830.0648    , 0.16        , 7           , 16          , 0           , 4.203895E-45
-0.115912415, 0.0849552453, -9.845961   , 4.915567E-05, 0.0131779667, -0.0002002822, -0.009407627, -0.00994113 , 1.77764857  , 917.4544    , 25.813652   , 830.064941  , 0.17        , 7           , 20          , 0           , 0
-0.113304712, 0.0861100852, -9.844489   , 2.51641031E-05, 0.0125980657, -0.000293908874, -0.009407333, -0.009815185, 1.7776444   , 917.4544    , 25.813652   , 830.065063  , 0.18        , 7           , 21          , 0           , 0
-0.114515424, 0.0882335   , -9.85045052 , -0.000153312, 0.0130427927, -0.0005010583, -0.00940880552, -0.009684813, 1.7776382   , 917.4544    , 25.813652   , 830.0652    , 0.19        , 7           , 22          , 0           , 0
-0.11689961 , 0.09071082  , -9.856224   , -0.00039849733, 0.0129117146, -0.000801834045, -0.009412701, -0.009555781, 1.7776289   , 917.4544    , 25.813652   , 830.0653    , 0.2         , 7           , 40          , 0           , 0
-0.116825104, 0.09108335  , -9.855181   , -5.50041441E-05, 0.0127665913, 0.000201727729, -0.00941454 , -0.009446256, 1.77762973  , 917.4544    , 25.813652   , 830.019     , 0.21        , 7           , 41          , 0           , 0
-0.123810031, 0.0863708556, -9.847136   , -0.000380942365, 0.01311301  , 0.0003948328, -0.009418376, -0.009315099, 1.77763247  , 917.4544    , 25.813652   , 830.019165  , 0.22        , 7           , 42          , 1           , 0
-0.112783171, 0.08272007  , -9.84136    , -6.08558767E-05, 0.0129532591, 0.000910950359, -0.009419056, -0.009185488, 1.77764034  , 917.414368  , 25.8399754  , 830.019348  , 0.23        , 7           , 255         , 0           , 0
-0.11511147 , 0.08108094  , -9.840299   , -0.000260397559, 0.0126957847, 0.0005639461, -0.009421701, -0.009058486, 1.77764475  , 917.414368  , 25.8399754  , 830.019531  , 0.24        , 7           , 255         , 0           , 0
-0.126268715, 0.08197501  , -9.853617   , 0.000118790427, 0.0126126921, 0.00052766595, -0.009420549, -0.008932319, 1.77764893  , 917.414368  , 25.8399754  , 830.0197    , 0.25        , 7           , 255         , 0           , 0
-0.120289624, 0.0821240246, -9.854977   , 0.0003101402, 0.0132189244, 0.0007336447, -0.009417499, -0.008800065, 1.77765489  , 917.414368  , 25.8399754  , 830.0199    , 0.26        , 7           , 255         , 0           , 0
-0.11334195 , 0.08352101  , -9.857658   , -0.000282634282, 0.0130925281, -0.000291568227, -0.00942029 , -0.008669179, 1.77765083  , 917.414368  , 25.8399754  , 830.0201    , 0.27        , 7           , 255         , 0           , 0
-0.12079253 , 0.0915676355, -9.845999   , -0.000323010841, 0.0129526732, -5.1649753E-05, -0.009423504, -0.008539664, 1.77764916  , 917.414368  , 25.8399754  , 830.020264  , 0.28        , 7           , 255         , 0           , 0
-0.115446746, 0.08251518  , -9.842646   , -0.000472813379, 0.0134886866, -0.000311463838, -0.009428195, -0.008404815, 1.77764487  , 917.414368  , 25.8399754  , 830.020447  , 0.29        , 7           , 255         , 0           , 0
-0.118147589, 0.0821240246, -9.852648   , -0.000119372271, 0.0131007209, 0.0003562118, -0.009429406, -0.008273782, 1.77764714  , 917.414368  , 25.8399754  , 830.0207    , 0.3         , 7           , 255         , 0           , 0
-0.123325728, 0.08780509  , -9.853412   , -0.000414880225, 0.012970808 , -4.11167275E-05, -0.009426646, -0.008168944, 1.77764559  , 917.414368  , 25.8399754  , 830.126465  , 0.31        , 7           , 255         , 0           , 0
-0.11742115 , 0.08378178  , -9.848475   , -0.0001176151, 0.0131504536, 0.0005077701, -0.009427853, -0.0080374  , 1.77764928  , 917.414368  , 25.8399754  , 830.1267    , 0.32        , 7           , 255         , 0           , 0
-0.115558505, 0.09119511  , -9.853449   , 0.000243433053, 0.0134752225, -0.0002149113, -0.00942539 , -0.007902676, 1.777646    , 917.411133  , 25.8563938  , 830.126953  , 0.33        , 7           , 255         , 0           , 0
-0.119786717, 0.09166077  , -9.839535   , 0.000532505568, 0.0130176209, -0.000632720767, -0.009420007, -0.00777256861, 1.77763832  , 917.411133  , 25.8563938  , 830.1272    , 0.34        , 7           , 255         , 0           , 0
-0.120196484, 0.09905547  , -9.843875   , 4.857243E-05, 0.0124839488, -0.000463607372, -0.009419475, -0.007647781, 1.77763259  , 917.411133  , 25.8563938  , 830.127441  , 0.35        , 7           , 255         , 0           , 0
-0.113975264, 0.103153288 , -9.854622   , 0.000610332936, 0.0124318684, 0.000175980618, -0.00941337552, -0.00752345426, 1.77763331  , 917.411133  , 25.8563938  , 830.1277    , 0.36        , 7           , 255         , 0           , 0
-0.124778606, 0.09505078  , -9.850227   , 0.000820993 , 0.0124611268, -0.0002845463, -0.009405135, -0.00739887869, 1.77762914  , 917.411133  , 25.8563938  , 830.1279    , 0.37        , 7           , 255         , 0           , 0
-0.120680787, 0.09069219  , -9.846632   , 0.0003873841, 0.012355797 , -0.000201452523, -0.00940124 , -0.007275348, 1.77762592  , 917.411133  , 25.8563938  , 830.128235  , 0.38        , 7           , 255         , 0           , 0
-0.123009086, 0.09346753  , -9.847805   , 2.92619225E-05, 0.0123932473, 0.000115708215, -0.009400947, -0.007151413, 1.77762616  , 917.411133  , 25.8563938  , 830.12854   , 0.39        , 7           , 255         , 0           , 0
-0.129826367, 0.09331852  , -9.836983   , 0.000253380742, 0.0124617107, 0.000123315258, -0.009398415, -0.007026794, 1.777626    , 917.411133  , 25.8563938  , 830.128845  , 0.4         , 7           , 255         , 0           , 0
-0.116936862, 0.08666888  , -9.846705   , 0.0004944694, 0.0130936773, 0.000108686043, -0.009393599, -0.00693394 , 1.777626    , 917.411133  , 25.8563938  , 830.1891    , 0.41        , 7           , 255         , 0           , 0
-0.121388577, 0.09408221  , -9.848456   , -6.43334351E-06, 0.0133675374, 6.866874E-06, -0.009393653, -0.006800274, 1.77762473  , 917.411133  , 25.8563938  , 830.1894    , 0.42        , 7           , 255         , 0           , 0
-0.12382865 , 0.09616837  , -9.845049   , -0.000386792235, 0.0132616209, -0.000116603449, -0.009397505, -0.00666767731, 1.77762234  , 917.4588    , 25.8688755  , 830.1897    , 0.43        , 7           , 255         , 0           , 0
-0.123418868, 0.09037554  , -9.844843   , -0.000402591657, 0.0129444618, -3.52652278E-05, -0.009401521, -0.00653824443, 1.77762079  , 917.4588    , 25.8688755  , 830.19      , 0.44        , 7           , 255         , 0           , 0
-0.12187288 , 0.0921078   , -9.845289   , 0.0001088446, 0.0131691657, 9.230105E-05, -0.009400429, -0.006406552, 1.77762055  , 917.4588    , 25.8688755  , 830.1903    , 0.45        , 7           , 255         , 0           , 0
-0.114198782, 0.09920448  , -9.851139   , -8.07496253E-05, 0.013314872 , 0.000176565256, -0.00940124 , -0.006273396, 1.777621    , 917.4588    , 25.8688755  , 830.1906    , 0.46        , 7           , 255         , 0           , 0
-0.113658607, 0.107064843 , -9.856615   , 3.27727757E-05, 0.0130954348, 0.000308227958, -0.009400922, -0.006142421, 1.77762294  , 917.4588    , 25.8688755  , 830.191     , 0.47        , 7           , 255         , 0           , 0
-0.117234886, 0.0978633761, -9.847544   , -0.000198953319, 0.0129649425, 0.00014204043, -0.009402912, -0.00601276662, 1.77762318  , 917.4588    , 25.8688755  , 830.191345  , 0.48        , 7           , 255         , 0           , 0
-0.116322182, 0.08864328  , -9.84516048 , 0.000128155109, 0.0128789218, 0.000366744585, -0.00940164551, -0.005883951, 1.77762556  , 917.4588    , 25.8688755  , 830.1917    , 0.49        , 7           , 255         , 0           , 0
-0.117737792, 0.0922009349, -9.849165   , -8.13344959E-05, 0.0127665708, 0.0004276021, -0.009402475, -0.00575625431, 1.77762866  , 917.4588    , 25.8688755  , 830.1921    , 0.5         , 7           , 255         , 0           , 0
-0.114608549, 0.0945664942, -9.848829   , -4.68106E-05, 0.012508492 , -1.77104957E-05, -0.009404479, -0.005677007, 1.77762723  , 917.4588    , 25.8688755  , 830.1396    , 0.51        , 7           , 255         , 0           , 0
-0.1161173  , 0.09773299  , -9.847302   , 8.4266765E-05, 0.01255823  , 0.000244444469, -0.009403643, -0.005551411, 1.77762854  , 917.4588    , 25.8688755  , 830.139954  , 0.52        , 7           , 255         , 0           , 0
-0.1173839  , 0.09588897  , -9.847768   , -0.00035811984, 0.0130790286, 0.000223963521, -0.00940723 , -0.00542060751, 1.77762961  , 917.4584    , 25.8774929  , 830.1403    , 0.53        , 7           , 255         , 0           , 0
-0.121444464, 0.0843778253, -9.845831   , -3.627781E-05, 0.0132814972, 0.000288917217, -0.0094076  , -0.00528777344, 1.77763128  , 917.4584    , 25.8774929  , 830.1407    , 0.54        , 7           , 255         , 0           , 0
-0.117626049, 0.0923872   , -9.851194   , -0.0005886755, 0.0131024355, 0.000236252323, -0.009413492, -0.00515673636, 1.77763224  , 917.4584    , 25.8774929  , 830.141052  , 0.55        , 7           , 255         , 0           , 0
-0.113267444, 0.09082258  , -9.851362   , -8.133543E-05, 0.0126723377, 0.000710237538, -0.009414334, -0.005029955, 1.77763808  , 917.4584    , 25.8774929  , 830.1415    , 0.56        , 7           , 255         , 0           , 0
-0.114496805, 0.09236857  , -9.843485   , -0.000145118916, 0.0128660286, -0.000289813383, -0.009415764, -0.004901331, 1.777634    , 917.4584    , 25.8774929  , 830.1419    , 0.57        , 7           , 255         , 0           , 0
-0.127721578, 0.09369105  , -9.847154   , 0.0004886172, 0.01342662  , 0.000414143084, -0.009410891, -0.004767035, 1.77763689  , 917.4584    , 25.8774929  , 830.142334  , 0.58        , 7           , 255         , 0           , 0
-0.119954348, 0.0999122858, -9.850786   , 0.000160923926, 0.0127887856, 0.000348019181, -0.009409292, -0.00463912264, 1.777639    , 917.4584    , 25.8774929  , 830.142761  , 0.59        , 7           , 255         , 0           , 0
-0.1109764  , 0.102669    , -9.848866   , -0.000560002634, 0.0127729876, 7.29905441E-05, -0.009414889, -0.004511394, 1.77763867  , 917.4584    , 25.8774929  , 830.1432    , 0.6         , 7           , 255         , 0           , 0
-0.111795962, 0.102277853 , -9.85003948 , -0.000225287629, 0.0125236753, 3.90503556E-05, -0.009418582, -0.0044405153, 1.777638    , 917.4584    , 25.8774929  , 830.108337  , 0.61        , 7           , 255         , 0           , 0
-0.127013773, 0.0976026058, -9.851046   , -0.00107846153, 0.012598576 , 0.00017656479, -0.009429366, -0.004314521, 1.77763855  , 917.4584    , 25.8774929  , 830.108765  , 0.62        , 7           , 255         , 0           , 0
-0.12781471 , 0.102017067 , -9.837095   , -0.0007057099, 0.013426587 , 2.96875369E-05, -0.009436418, -0.0041802614, 1.77763748  , 917.4484    , 25.8832588  , 830.1092    , 0.63        , 7           , 255         , 0           , 0
-0.124741338, 0.08419156  , -9.845514   , -0.000279708067, 0.01278583  , 0.000314079 , -0.00943922251, -0.004052383, 1.77763951  , 917.4484    , 25.8832588  , 830.1096    , 0.64        , 7           , 255         , 0           , 0
-0.12177974 , 0.08268282  , -9.845495   , -4.79819719E-05, 0.0132334828, 3.67099419E-05, -0.009439699, -0.0039200536, 1.77763855  , 917.4484    , 25.8832588  , 830.110046  , 0.65        , 7           , 255         , 0           , 0
-0.121928751, 0.0936165452, -9.84221649 , -0.000578728737, 0.0127869993, 3.61246057E-05, -0.009445483, -0.00379218929, 1.77763772  , 917.4484    , 25.8832588  , 830.1105    , 0.66        , 7           , 255         , 0           , 0
-0.1212582  , 0.08324161  , -9.846352   , 3.452669E-05, 0.0129490914, 0.000216941349, -0.00944514 , -0.00366268679, 1.77763867  , 917.4484    , 25.8832588  , 830.110962  , 0.67        , 7           , 255         , 0           , 0
-0.120941542, 0.079870224 , -9.854771   , -0.0001550673, 0.0125435712, 0.000692097237, -0.009446712, -0.003537195, 1.7776444   , 917.4484    , 25.8832588  , 830.11145   , 0.68        , 7           , 255         , 0           , 0
-0.125579536, 0.08691102  , -9.846837   , 1.58012845E-05, 0.0127477925, 0.0003316342, -0.009446561, -0.00340969465, 1.77764654  , 917.4484    , 25.8832588  , 830.111938  , 0.69        , 7           , 255         , 0           , 0
-0.1212582  , 0.09080395  , -9.844098   , -6.43662643E-05, 0.013020481 , -5.51615376E-05, -0.0094472  , -0.00327950437, 1.77764475  , 917.4484    , 25.8832588  , 830.1124    , 0.7         , 7           , 255         , 0           , 0
-0.11103227 , 0.09065494  , -9.843092   , -0.000213582534, 0.0127296066, 0.0001473059, -0.009447135, -0.00322209019, 1.77764511  , 917.4484    , 25.8832588  , 830.100464  , 0.71        , 7           , 255         , 0           , 0
-0.121556222, 0.0859051943, -9.851642   , -0.000445893966, 0.0129999518, 0.000757635338, -0.009451615, -0.00309202913, 1.77765143  , 917.4484    , 25.8832588  , 830.100952  , 0.72        , 7           , 255         , 0           , 0
-0.1273118  , 0.07947907  , -9.848456   , 0.000257476931, 0.0125897517, -2.005184E-05, -0.009449037, -0.002966142, 1.77765     , 917.471741  , 25.8886185  , 830.10144   , 0.73        , 7           , 255         , 0           , 0
-0.116229057, 0.08756295  , -9.853709   , 0.000200130511, 0.0131333712, 0.000218696427, -0.009447037, -0.00283479737, 1.77765107  , 917.471741  , 25.8886185  , 830.1019    , 0.74        , 7           , 255         , 0           , 0
-0.12151897 , 0.08855015  , -9.843875   , 0.000544209033, 0.012736042 , 0.000398927834, -0.009441603, -0.00270740781, 1.77765369  , 917.471741  , 25.8886185  , 830.1024    , 0.75        , 7           , 255         , 0           , 0
-0.128112733, 0.0841170549, -9.846277   , 0.000198374968, 0.0125019765, 0.000328122871, -0.009439624, -0.002582366, 1.77765572  , 917.471741  , 25.8886185  , 830.1029    , 0.76        , 7           , 255         , 0           , 0
-0.126808882, 0.08665025  , -9.843912   , 0.000404939055, 0.0134405838, 0.0006095881, -0.009435587, -0.00244791154, 1.77766061  , 917.471741  , 25.8886185  , 830.103455  , 0.77        , 7           , 255         , 0           , 0
-0.1276657  , 0.08750707  , -9.850021   , 0.0006085774, 0.0129619166, -0.000647351146, -0.009429481, -0.002318362, 1.77765286  , 917.471741  , 25.8886185  , 830.104     , 0.78        , 7           , 255         , 0           , 0
-0.118147589, 0.09160489  , -9.854324   , 0.000166776124, 0.0130321374, 5.426421E-05, -0.00942781 , -0.00218804413, 1.77765226  , 917.471741  , 25.8886185  , 830.104553  , 0.79        , 7           , 255         , 0           , 0
-0.113286078, 0.09953976  , -9.849314   , 0.000225292752, 0.0134300506, 0.000570382 , -0.00942556653, -0.00205369922, 1.77765679  , 917.471741  , 25.8886185  , 830.1051    , 0.8         , 7           , 255         , 0           , 0
-0.114813447, 0.089854    , -9.844881   , 0.000175556866, 0.0128694018, -1.12748239E-05, -0.009419894, -0.0020009107, 1.77765536  , 917.471741  , 25.8886185  , 830.066162  , 0.81        , 7           , 255         , 0           , 0
-0.120308258, 0.08981675  , -9.84041    , -0.000197194982, 0.0129144592, -0.000423817663, -0.009421854, -0.00187181577, 1.77764988  , 917.471741  , 25.8886185  , 830.0667    , 0.82        , 7           , 255         , 0           , 0
-0.119004391, 0.09287149  , -9.852573   , 0.000238754787, 0.0132860411, -0.000502815237, -0.009419454, -0.00173901161, 1.77764344  , 917.417358  , 25.8932323  , 830.067261  , 0.83        , 7           , 255         , 0           , 0
-0.114198782, 0.09231269  , -9.860266   , 0.000316582154, 0.01326322  , -0.000465949532, -0.00941627752, -0.00160643226, 1.7776376   , 917.417358  , 25.8932323  , 830.0678    , 0.84        , 7           , 255         , 0           , 0
-0.127572566, 0.10410323  , -9.852871   , -0.0005412733, 0.0129706357, -0.00025997078, -0.009421685, -0.001476759, 1.77763367  , 917.417358  , 25.8932323  , 830.068359  , 0.85        , 7           , 255         , 0           , 0
-0.112466514, 0.1033023   , -9.847153   , -5.968078E-05, 0.0125984689, 2.79315282E-05, -0.009422281, -0.00135078072, 1.77763271  , 917.417358  , 25.8932323  , 830.0689    , 0.86        , 7           , 255         , 0           , 0
-0.1242198  , 0.09648502  , -9.850469   , 0.0002762056, 0.0123690832, 0.0005668707, -0.009419523, -0.00122704438, 1.77763736  , 917.417358  , 25.8932323  , 830.069458  , 0.87        , 7           , 255         , 0           , 0
-0.123772763, 0.09611249  , -9.855702   , -0.000771244057, 0.0126920957, 0.000733642839, -0.009427243, -0.00110006263, 1.77764356  , 917.417358  , 25.8932323  , 830.07      , 0.88        , 7           , 255         , 0           , 0
-0.13275072 , 0.10535121  , -9.852834   , -0.000423654681, 0.01283312  , 1.564296E-05, -0.009431478, -0.000971739355, 1.77764249  , 917.417358  , 25.8932323  , 830.070557  , 0.89        , 7           , 255         , 0           , 0
-0.126566738, 0.102799393 , -9.84963    , -0.000132241286, 0.0129870195, -0.000409773667, -0.00943279453, -0.000841916655, 1.77763712  , 917.417358  , 25.8932323  , 830.071167  , 0.9         , 7           , 255         , 0           , 0
-0.125952065, 0.08901581  , -9.843297   , 0.000753698871, 0.0125369532, 8.620089E-06, -0.00942875 , -0.0007991442, 1.77763617  , 917.417358  , 25.8932323  , 830.102661  , 0.91        , 7           , 255         , 0           , 0
-0.122785568, 0.09134412  , -9.842832   , 0.0004640408, 0.0127862347, 0.0002473686, -0.00942411 , -0.0006712671, 1.77763748  , 917.417358  , 25.8932323  , 830.1033    , 0.92        , 7           , 255         , 0           , 0
-0.115986921, 0.09479001  , -9.848606   , -0.000630806666, 0.0131619107, 0.0005352709, -0.00943042152, -0.000539606437, 1.77764153  , 917.4385    , 25.89452    , 830.103943  , 0.93        , 7           , 255         , 0           , 0
-0.118911266, 0.09402633  , -9.850171   , -0.0007109749, 0.0130899362, 2.44197436E-05, -0.009437529, -0.000408714171, 1.77764058  , 917.4385    , 25.89452    , 830.1046    , 0.94        , 7           , 255         , 0           , 0
-0.112205744, 0.09721145  , -9.853336   , -0.000554149738, 0.0131695177, 0.0007787002, -0.009443072, -0.000276954379, 1.77764714  , 917.4385    , 25.89452    , 830.1053    , 0.95        , 7           , 255         , 0           , 0
-0.121966004, 0.0864267349, -9.845402   , -0.000280876644, 0.0128974151, 0.000187681289, -0.00944588 , -0.00014797179, 1.77764785  , 917.4385    , 25.89452    , 830.105957  , 0.96        , 7           , 255         , 0           , 0
-0.119265176, 0.08733943  , -9.845085   , -5.90982381E-05, 0.0132965   , 0.000127994455, -0.00944647 , -1.50036067E-05, 1.77764785  , 917.4385    , 25.89452    , 830.1066    , 0.97        , 7           , 255         , 0           , 0
-0.1242943  , 0.0920891762, -9.842198   , 0.0001316662, 0.01278916  , -0.000537925866, -0.009445154, 0.0001128288, 1.77764118  , 917.4385    , 25.89452    , 830.1073    , 0.98        , 7           , 255         , 0           , 0
-0.127013773, 0.0892207   , -9.851456   , 0.0005611791, 0.01277219  , 9.522494E-05, -0.009439543, 0.000240550842, 1.77764094  , 917.4385    , 25.89452    , 830.108     , 0.99        , 7           , 255         , 0           , 0
-0.112522386, 0.08108094  , -9.849518   , -4.3299282E-05, 0.0127359107, 0.000283063622, -0.009439974, 0.000367927831, 1.77764249  , 917.4385    , 25.89452    , 830.108643  , 1           , 7           , 0           , 6.43423653  , 100
-0.122655176, 0.07862225  , -9.851679   , -0.000160330441, 0.0129517419, 0.000462709228, -0.009439375, 0.0004028366, 1.77764583  , 917.4385    , 25.89452    , 830.11084   , 1.01        , 7           , 1           , 0           , 0
-0.122506164, 0.07299706  , -9.851121   , 0.000146882143, 0.0127639035, 8.64465255E-05, -0.009437907, 0.0005304753, 1.77764547  , 917.4385    , 25.89452    , 830.1116    , 1.02        , 7           , 2           , 0           , 0
-0.118967153, 0.0798516   , -9.85248    , -0.000373331364, 0.0130980341, 0.000257315347, -0.009441638, 0.0006614705, 1.77764678  , 917.473145  , 25.8989983  , 830.1123    , 1.03        , 7           , 3           , 0           , 0
-0.120643519, 0.08108094  , -9.844973   , -0.000108835753, 0.0132677322, 0.000492552761, -0.009442724, 0.000794184452, 1.77765048  , 917.473145  , 25.8989983  , 830.113037  , 1.04        , 7           , 4           , 0           , 0
-0.121910118, 0.0899471343, -9.840261   , 2.9313378E-06, 0.0132536879, 0.000328705646, -0.009442693, 0.0009267434, 1.7776525   , 917.473145  , 25.8989983  , 830.1138    , 1.05        , 7           , 5           , 0           , 0
-0.124853112, 0.09017065  , -9.846016   , -3.10083851E-05, 0.0130108427, 0.0007406636, -0.009442995, 0.00105691212, 1.77765858  , 917.473145  , 25.8989983  , 830.1145    , 1.06        , 7           , 6           , 0           , 0
-0.121351339, 0.08966774  , -9.850525   , -0.0003271033, 0.0129517429, 0.000371422851, -0.009446263, 0.00118645583, 1.777661    , 917.473145  , 25.8989983  , 830.115234  , 1.07        , 7           , 7           , 0           , 0
-0.123586513, 0.09594485  , -9.847806   , 0.000244020019, 0.0129306754, 9.63942148E-05, -0.009443823, 0.00131576171, 1.77766061  , 917.473145  , 25.8989983  , 830.115967  , 1.08        , 7           , 8           , 5           , 5
-0.1248531  , 0.0925734639, -9.842869   , 0.0005658623, 0.0134175355, -0.0001517164, -0.009438168, 0.00144991372, 1.77765787  , 917.473145  , 25.8989983  , 830.1167    , 1.09        , 7           , 9           , 5           , 0.1
-0.115223229, 0.08970499  , -9.846315   , -0.000108835753, 0.0130547313, 8.878717E-05, -0.009439256, 0.0015804607, 1.77765751  , 917.473145  , 25.8989983  , 830.1175    , 1.1         , 7           , 10          , 0.1         , 0.1
-0.116322182, 0.09346753  , -9.847656   , -0.000154472422, 0.01284103  , -0.000650280155, -0.009435259, 0.00160440407, 1.77764976  , 917.473145  , 25.8989983  , 830.082153  , 1.11        , 7           , 11          , 0.0105255852, 0.0105255637
-0.123810031, 0.0945106149, -9.836107   , -0.000598029466, 0.0126894712, 0.0004515897, -0.009441233, 0.00173133321, 1.7776531   , 917.473145  , 25.8989983  , 830.0828    , 1.12        , 7           , 12          , 0.0346428268, 0
-0.122860074, 0.105164945 , -9.847786   , -0.000483921729, 0.01305286  , -0.0004542492, -0.009446082, 0.0018618101, 1.77764726  , 917.444031  , 25.8994732  , 830.0835    , 1.13        , 7           , 13          , 0           , 0
-0.125039369, 0.09326264  , -9.849202   , -0.0008929535, 0.0134261968, -0.000141184777, -0.009455016, 0.00199605012, 1.77764463  , 917.444031  , 25.8994732  , 830.0842    , 1.14        , 7           , 14          , 0.003543176 , 4.65046071E-07
-0.11706724 , 0.09201467  , -9.84985352 , -0.00016968674, 0.0128357634, -5.10690734E-05, -0.009456717, 0.00212439359, 1.777643    , 917.444031  , 25.8994732  , 830.084961  , 1.15        , 7           , 15          , 0           , 0.002150649
-0.119451426, 0.08970499  , -9.840391   , -0.0003159789, 0.0129861524, -0.0006327252, -0.009459894, 0.002254186 , 1.77763546  , 917.444031  , 25.8994732  , 830.0857    , 1.16        , 7           , 16          , 0           , 4.203895E-45
-0.122152269, 0.09192154  , -9.847041   , -0.0005073284, 0.0129446043, 0.00016193185, -0.009464965, 0.00238363864, 1.77763581  , 917.444031  , 25.8994732  , 830.0864    , 1.17        , 7           , 20          , 0           , 0
-0.131633133, 0.0999122858, -9.843204   , -7.840083E-05, 0.01312074  , 0.0009507376, -0.009465729, 0.00251492718, 1.77764416  , 917.444031  , 25.8994732  , 830.087158  , 1.18        , 7           , 21          , 0           , 0
-0.119693577, 0.0984966755, -9.854269   , 3.336603E-05, 0.0131049408, 0.000242099864, -0.00946539 , 0.00264598872, 1.77764523  , 917.444031  , 25.8994732  , 830.0879    , 1.19        , 7           , 22          , 0           , 0
-0.119917095, 0.0927224755, -9.858571   , -1.92986336E-05, 0.01312308  , -0.0005390984, -0.009465601, 0.00277715968, 1.77763867  , 917.444031  , 25.8994732  , 830.0886    , 1.2         , 7           , 40          , 0           , 0
-0.126287341, 0.0923872   , -9.8465     , -0.000349920476, 0.0128444042, 0.000461536227, -0.009470676, 0.002792676 , 1.77764213  , 917.444031  , 25.8994732  , 830.087341  , 1.21        , 7           , 41          , 0           , 0
-0.122748315, 0.101812184 , -9.842981   , 0.000170878367, 0.0132973222, -0.000344239175, -0.009468981, 0.00292560761, 1.77763736  , 917.444031  , 25.8994732  , 830.0881    , 1.22        , 7           , 42          , 1           , 0
-0.130031258, 0.09898096  , -9.8496685  , -7.13809859E-05, 0.0129263261, 0.000414137729, -0.009469684, 0.00305489963, 1.77764022  , 917.444946  , 25.9016438  , 830.0888    , 1.23        , 7           , 255         , 0           , 0
-0.122208141, 0.08819625  , -9.848345   , -0.000318321167, 0.0130427741, 0.000772845233, -0.009472847, 0.00318539143, 1.77764678  , 917.444946  , 25.9016438  , 830.0896    , 1.24        , 7           , 255         , 0           , 0
-0.107008956, 0.09601936  , -9.84946251 , -0.00025570835, 0.01274785  , 0.00046329177, -0.009475392, 0.00331290462, 1.77765012  , 917.444946  , 25.9016438  , 830.0904    , 1.25        , 7           , 255         , 0           , 0
-0.109747052, 0.09585172  , -9.8411     , 4.799338E-05, 0.0130328266, 0.0006803884, -0.009474892, 0.003443287 , 1.77765572  , 917.444946  , 25.9016438  , 830.0912    , 1.26        , 7           , 255         , 0           , 0
-0.115782022, 0.0834465   , -9.849556   , 7.842202E-05, 0.0134441992, 2.03198288E-05, -0.009474111, 0.00357772131, 1.77765453  , 917.444946  , 25.9016438  , 830.092     , 1.27        , 7           , 255         , 0           , 0
-0.1254864  , 0.09447336  , -9.846687   , 6.847433E-05, 0.0132651385, -0.0001335789, -0.009473434, 0.00371035025, 1.77765191  , 917.444946  , 25.9016438  , 830.0928    , 1.28        , 7           , 255         , 0           , 0
-0.127162784, 0.09737909  , -9.840055   , -0.0003563573, 0.0128882909, 0.000398923177, -0.009476988, 0.0038392602, 1.77765453  , 917.444946  , 25.9016438  , 830.093567  , 1.29        , 7           , 255         , 0           , 0
-0.1257658  , 0.0916235149, -9.841565   , -0.000247515971, 0.0130363386, -9.495765E-05, -0.00947947148, 0.00396960555, 1.77765226  , 917.444946  , 25.9016438  , 830.09436   , 1.3         , 7           , 255         , 0           , 0
-0.118110321, 0.0948831439, -9.844676   , -0.000463443343, 0.0130192013, -0.000202630064, -0.009484712, 0.00397555251, 1.77764893  , 917.444946  , 25.9016438  , 830.0916    , 1.31        , 7           , 255         , 0           , 0
-0.126250073, 0.09279698  , -9.850953   , -0.0006272902, 0.0129630277, 7.942063E-05, -0.009490985, 0.004105181 , 1.77764845  , 917.444946  , 25.9016438  , 830.0924    , 1.32        , 7           , 255         , 0           , 0
-0.125020742, 0.09134412  , -9.846613   , -0.000479243, 0.012699116 , -0.000645016436, -0.00949581 , 0.00423210161, 1.7776407   , 917.4471    , 25.9061222  , 830.0932    , 1.33        , 7           , 255         , 0           , 0
-0.12204051 , 0.09059906  , -9.844545   , 0.0003926563, 0.0129876034, 0.000144374091, -0.009491881, 0.00436198059, 1.77764082  , 917.4471    , 25.9061222  , 830.094     , 1.34        , 7           , 255         , 0           , 0
-0.123269856, 0.09313226  , -9.838362   , 0.0002937629, 0.0131175108, 0.0003889741, -0.009488933, 0.00449318346, 1.77764344  , 917.4471    , 25.9061222  , 830.094849  , 1.35        , 7           , 255         , 0           , 0
-0.117477037, 0.09460375  , -9.841882   , -3.21751E-05, 0.0129922843, -0.0003512624, -0.00948927552, 0.004623065 , 1.77763867  , 917.4471    , 25.9061222  , 830.0957    , 1.36        , 7           , 255         , 0           , 0
-0.118147589, 0.09767711  , -9.850357   , 0.000150396954, 0.01290685  , -0.000314396922, -0.009487792, 0.004752094 , 1.77763438  , 917.4471    , 25.9061222  , 830.096558  , 1.37        , 7           , 255         , 0           , 0
-0.114161514, 0.08137897  , -9.847059   , -0.000129312743, 0.0129167978, -0.000140017131, -0.009489099, 0.00488124136, 1.77763176  , 917.4471    , 25.9061222  , 830.0974    , 1.38        , 7           , 255         , 0           , 0
-0.118762255, 0.09121373  , -9.849928   , 0.000482772 , 0.0129290866, -0.0003272706, -0.009484294, 0.0050104917, 1.77762723  , 917.4471    , 25.9061222  , 830.098267  , 1.39        , 7           , 255         , 0           , 0
-0.113081194, 0.09769574  , -9.848104   , 0.000179070048, 0.0127207674, -0.000279287, -0.0094825225, 0.00513766473, 1.7776233   , 917.4471    , 25.9061222  , 830.0991    , 1.4         , 7           , 255         , 0           , 0
-0.1242943  , 0.09793788  , -9.844788   , -7.66466837E-05, 0.0125362528, 2.90942844E-05, -0.009482565, 0.005132909 , 1.77762246  , 917.4471    , 25.9061222  , 830.0938    , 1.41        , 7           , 255         , 0           , 0
-0.128000975, 0.102519989 , -9.849388   , 0.000171463937, 0.0133502195, 0.000921474537, -0.00948081 , 0.00526649039, 1.77763033  , 917.4471    , 25.9061222  , 830.094666  , 1.42        , 7           , 255         , 0           , 0
-0.118762255, 0.09423122  , -9.849052   , 2.51722522E-05, 0.0132507421, 0.000101655023, -0.009480559, 0.005398997 , 1.77763033  , 917.4693    , 25.9079533  , 830.0955    , 1.43        , 7           , 255         , 0           , 0
-0.122617938, 0.09322539  , -9.842459   , 0.0003669099, 0.0132718068, 0.000159001444, -0.009476886, 0.00553172128, 1.77763057  , 917.4693    , 25.9079533  , 830.0964    , 1.44        , 7           , 255         , 0           , 0
-0.12665987 , 0.09223819  , -9.844434   , 0.000101244077, 0.0125543931, -0.000352434581, -0.009475901, 0.00565722352, 1.7776258   , 917.4693    , 25.9079533  , 830.0972    , 1.45        , 7           , 255         , 0           , 0
-0.121984623, 0.1000613   , -9.859781   , 0.0003458436, 0.0130523695, 0.000157831 , -0.00947244 , 0.005787752 , 1.77762628  , 917.4693    , 25.9079533  , 830.0981    , 1.46        , 7           , 255         , 0           , 0
-0.131167471, 0.09804964  , -9.856485   , 0.00044649234, 0.0134309735, 0.0001625123, -0.00946797151, 0.005922068 , 1.77762663  , 917.4693    , 25.9079533  , 830.099     , 1.47        , 7           , 255         , 0           , 0
-0.124461949, 0.0848993659, -9.852071   , -0.000129897147, 0.0125064086, -0.000337220263, -0.009469297, 0.006047091 , 1.7776221   , 917.4693    , 25.9079533  , 830.0999    , 1.48        , 7           , 255         , 0           , 0
-0.117551543, 0.08719042  , -9.84842    , 0.000163271558, 0.0125543931, 1.21246558E-05, -0.009467671, 0.006172627 , 1.777621    , 917.4693    , 25.9079533  , 830.1008    , 1.49        , 7           , 255         , 0           , 0
-0.120941542, 0.08396804  , -9.849351   , 0.000285571441, 0.0129780546, -0.000266415183, -0.00946483947, 0.006302373 , 1.77761722  , 917.4693    , 25.9079533  , 830.101746  , 1.5         , 7           , 255         , 0           , 0
-0.121723868, 0.09331852  , -9.853281   , -0.00031539565, 0.0125061991, -0.000411538756, -0.009468093, 0.00629284  , 1.77761185  , 917.4693    , 25.9079533  , 830.0727    , 1.51        , 7           , 255         , 0           , 0
-0.1206249  , 0.09384006  , -9.848848   , -0.000233472092, 0.0125290221, 3.201817E-05, -0.009470433, 0.00641812524, 1.777611    , 917.4693    , 25.9079533  , 830.0735    , 1.52        , 7           , 255         , 0           , 0
-0.122077763, 0.101141632 , -9.845868   , 9.597698E-05, 0.0130504044, 0.000469723251, -0.00946945 , 0.006548664 , 1.77761447  , 917.409241  , 25.9079533  , 830.0743    , 1.53        , 7           , 255         , 0           , 0
-0.125858933, 0.09588897  , -9.8435955  , 5.20893373E-05, 0.0129327867, 0.000187672442, -0.009468922, 0.00667799776, 1.77761507  , 917.409241  , 25.9079533  , 830.0751    , 1.54        , 7           , 255         , 0           , 0
-0.116471194, 0.09467825  , -9.844862   , -5.753245E-07, 0.0131715341, 0.000336305 , -0.009468915, 0.00680973567, 1.7776171   , 917.409241  , 25.9079533  , 830.075867  , 1.55        , 7           , 255         , 0           , 0
-0.117737792, 0.0919960439, -9.848791   , 0.000647790032, 0.0134149641, 8.936459E-05, -0.00946244 , 0.006943886 , 1.77761674  , 917.409241  , 25.9079533  , 830.07666   , 1.56        , 7           , 255         , 0           , 0
-0.123512007, 0.09346753  , -9.846426   , 0.000606243266, 0.0131024839, 0.000283639645, -0.009456365, 0.00707492838, 1.77761829  , 917.409241  , 25.9079533  , 830.077454  , 1.57        , 7           , 255         , 0           , 0
-0.119525932, 0.09927899  , -9.846277   , 0.000266845571, 0.01287895  , 0.000397747383, -0.009453678, 0.007203744 , 1.777621    , 917.409241  , 25.9079533  , 830.0783    , 1.58        , 7           , 255         , 0           , 0
-0.117402531, 0.09810552  , -9.85127    , -0.000125215854, 0.0127186151, 9.872718E-05, -0.009454928, 0.00733092846, 1.77762067  , 917.409241  , 25.9079533  , 830.079163  , 1.59        , 7           , 255         , 0           , 0
-0.114515424, 0.0973418355, -9.848905   , -0.000115268165, 0.0123247979, 0.0001145266, -0.009456083, 0.00745418  , 1.77762067  , 917.409241  , 25.9079533  , 830.08      , 1.6         , 7           , 255         , 0           , 0
-0.124406077, 0.0927783549, -9.848959   , -0.0001638406, 0.0127201322, 0.0005598364, -0.009459725, 0.007438429 , 1.7776252   , 917.409241  , 25.9079533  , 830.117432  , 1.61        , 7           , 255         , 0           , 0
-0.120457269, 0.0923872   , -9.852034   , -0.0006881503, 0.0130630406, 0.0003684871, -0.009466587, 0.007569085 , 1.77762759  , 917.409241  , 25.9079533  , 830.118469  , 1.62        , 7           , 255         , 0           , 0
-0.119972967, 0.09354204  , -9.856522   , -0.00015155226, 0.013161934 , -0.000133001478, -0.009468121, 0.007700682 , 1.777625    , 917.4354    , 25.90931    , 830.1195    , 1.63        , 7           , 255         , 0           , 0
-0.121127822, 0.09216368  , -9.851772   , 3.33606731E-05, 0.0131970439, -0.000154652633, -0.009467809, 0.00783263  , 1.77762222  , 917.4354    , 25.90931    , 830.120544  , 1.64        , 7           , 255         , 0           , 0
-0.120997429, 0.08711591  , -9.845216   , -0.000209483551, 0.012837166 , 0.000494298059, -0.009469876, 0.0079610385, 1.77762592  , 917.4354    , 25.90931    , 830.1216    , 1.65        , 7           , 255         , 0           , 0
-0.118743636, 0.0866316259, -9.845868   , -8.542789E-05, 0.0129460068, 6.829621E-05, -0.009470735, 0.008090497 , 1.77762532  , 917.4354    , 25.90931    , 830.1227    , 1.66        , 7           , 255         , 0           , 0
-0.110790133, 0.0803917646, -9.852368   , -0.0003938116, 0.0133099807, 0.0003743386, -0.009474653, 0.008223623 , 1.77762783  , 917.4354    , 25.90931    , 830.1238    , 1.67        , 7           , 255         , 0           , 0
-0.123959042, 0.09248033  , -9.850524   , 0.000263331458, 0.0134966495, -0.000590017065, -0.009472078, 0.008358524 , 1.77762067  , 917.4354    , 25.90931    , 830.1249    , 1.68        , 7           , 255         , 0           , 0
-0.122264028, 0.09197742  , -9.853449   , 4.68199141E-05, 0.0135323433, -0.000159919262, -0.009471633, 0.008493822 , 1.77761781  , 917.4354    , 25.90931    , 830.126     , 1.69        , 7           , 255         , 0           , 0
-0.12079253 , 0.09005889  , -9.851995   , -0.0005839905, 0.013479094 , 0.000387797132, -0.009477449, 0.008628638 , 1.77762043  , 917.4354    , 25.90931    , 830.1271    , 1.7         , 7           , 255         , 0           , 0
-0.125858933, 0.09525567  , -9.849705   , 0.000299030915, 0.0125981588, 0.00051185023, -0.009471999, 0.00861002  , 1.77762425  , 917.4354    , 25.90931    , 830.1314    , 1.71        , 7           , 255         , 0           , 0
-0.122990467, 0.1020357   , -9.847749   , -7.4890675E-05, 0.0126607716, -0.000139440876, -0.00947277 , 0.008736607 , 1.77762163  , 917.4354    , 25.90931    , 830.132568  , 1.72        , 7           , 255         , 0           , 0
-0.1261756  , 0.09600073  , -9.844545   , -0.000445301645, 0.0126800817, -7.858337E-05, -0.009477239, 0.008863391 , 1.7776196   , 917.467163  , 25.9097843  , 830.1337    , 1.73        , 7           , 255         , 0           , 0
-0.123716891, 0.09940937  , -9.846855   , -0.0004938706, 0.0128117455, 8.994457E-05, -0.00948218 , 0.008991505 , 1.77761924  , 917.467163  , 25.9097843  , 830.1349    , 1.74        , 7           , 255         , 0           , 0
-0.1182966  , 0.09680167  , -9.85425    , -0.0005933489, 0.01296857  , -0.000137685332, -0.00948813651, 0.009121169 , 1.77761662  , 917.467163  , 25.9097843  , 830.136047  , 1.75        , 7           , 255         , 0           , 0
-0.119749449, 0.0903569162, -9.847284   , -0.0002504408, 0.01288372  , 0.000250280369, -0.009490628, 0.00925002  , 1.77761793  , 917.467163  , 25.9097843  , 830.1372    , 1.76        , 7           , 255         , 0           , 0
-0.11742115 , 0.09570271  , -9.847991   , 5.9697777E-05, 0.0135010723, 0.000498976558, -0.009489995, 0.009385068 , 1.77762151  , 917.467163  , 25.9097843  , 830.138367  , 1.77        , 7           , 255         , 0           , 0
-0.119339682, 0.09248033  , -9.84339    , -4.914333E-05, 0.0131353419, 0.000228629215, -0.009490477, 0.009516433 , 1.77762258  , 917.467163  , 25.9097843  , 830.1395    , 1.78        , 7           , 255         , 0           , 0
-0.118743636, 0.101644538 , -9.847879   , 0.000595710939, 0.01298671  , 0.0004474821, -0.009484488, 0.009646332 , 1.7776258   , 917.467163  , 25.9097843  , 830.1407    , 1.79        , 7           , 255         , 0           , 0
-0.134650618, 0.09877607  , -9.855106   , 0.0001404509, 0.0130639523, -0.0001493888, -0.009483108, 0.009776947 , 1.777623    , 917.467163  , 25.9097843  , 830.141846  , 1.8         , 7           , 255         , 0           , 0
-0.126305968, 0.100508332 , -9.854846   , -0.000217091059, 0.01300806  , -0.000205567339, -0.00948787 , 0.009748293 , 1.77761972  , 917.467163  , 25.9097843  , 830.1082    , 1.81        , 7           , 255         , 0           , 0
-0.119525932, 0.09171665  , -9.845086   , -0.0003955674, 0.0130642373, -4.113512E-05, -0.009491842, 0.009878922 , 1.77761793  , 917.467163  , 25.9097843  , 830.1092    , 1.82        , 7           , 255         , 0           , 0
-0.120438635, 0.0965409   , -9.850878   , -0.0002001212, 0.0129823135, 0.000371407485, -0.009493819, 0.0100087691, 1.77762043  , 917.478638  , 25.9123631  , 830.1102    , 1.83        , 7           , 255         , 0           , 0
-0.1167506  , 0.09810552  , -9.853449   , -0.000250445679, 0.0128804939, 0.000254959334, -0.009496309, 0.0101375887, 1.77762175  , 917.478638  , 25.9123631  , 830.111267  , 1.84        , 7           , 255         , 0           , 0
-0.113993883, 0.0863149762, -9.853598   , -1.813448E-05, 0.0127324462, 0.000647021458, -0.00949643552, 0.0102649666, 1.77762687  , 917.478638  , 25.9123631  , 830.1123    , 1.85        , 7           , 255         , 0           , 0
-0.115577124, 0.0870600343, -9.849219   , -0.000126390252, 0.012783356 , -0.000350103481, -0.009497747, 0.0103927562, 1.77762222  , 917.478638  , 25.9123631  , 830.113342  , 1.86        , 7           , 255         , 0           , 0
-0.106431544, 0.0943988562, -9.847488   , -0.0003253473, 0.0128184659, -0.0005157059, -0.009501067, 0.010520882 , 1.77761579  , 917.478638  , 25.9123631  , 830.1144    , 1.87        , 7           , 255         , 0           , 0
-0.1269579  , 0.08722767  , -9.845682   , 8.01738352E-05, 0.0128541617, -0.000800682465, -0.009500362, 0.0106493374, 1.77760673  , 917.478638  , 25.9123631  , 830.1154    , 1.88        , 7           , 255         , 0           , 0
-0.123176716, 0.08791685  , -9.841788   , -1.74995512E-06, 0.0127798459, -0.000696522649, -0.009500466, 0.0107770627, 1.7775985   , 917.478638  , 25.9123631  , 830.116455  , 1.89        , 7           , 255         , 0           , 0
-0.116191804, 0.08109957  , -9.841063   , -0.000294333324, 0.0135557773, 6.77057542E-05, -0.009503417, 0.0109126158, 1.7775979   , 917.478638  , 25.9123631  , 830.1175    , 1.9         , 7           , 255         , 0           , 0
-0.118687749, 0.08476898  , -9.846743   , -0.000159156043, 0.0133207943, 4.66364436E-05, -0.009503194, 0.0108822826, 1.77759707  , 917.478638  , 25.9123631  , 830.0724    , 1.91        , 7           , 255         , 0           , 0
-0.117700554, 0.07763505  , -9.84801    , 8.076243E-05, 0.0128719714, -0.000199133647, -0.009502422, 0.0110109746, 1.77759385  , 917.478638  , 25.9123631  , 830.0732    , 1.92        , 7           , 255         , 0           , 0
-0.113788985, 0.0794418156, -9.843502   , 0.0002188622, 0.0132810036, 0.000171276974, -0.009500227, 0.0111437915, 1.77759445  , 917.486755  , 25.9144669  , 830.074     , 1.93        , 7           , 255         , 0           , 0
-0.110194087, 0.08955598  , -9.849127   , -0.0001585707, 0.0132464794, 7.004314E-05, -0.009501818, 0.0112762526, 1.777594    , 917.486755  , 25.9144669  , 830.074768  , 1.94        , 7           , 255         , 0           , 0
-0.120177865, 0.09594485  , -9.849816   , -0.0004546654, 0.013221317 , -0.000685407664, -0.009506455, 0.0114083914, 1.77758574  , 917.486755  , 25.9144669  , 830.075562  , 1.95        , 7           , 255         , 0           , 0
-0.113621354, 0.09782612  , -9.856279   , 0.000166782178, 0.013020019 , -0.000374683877, -0.0095048435, 0.0115385447, 1.77758086  , 917.486755  , 25.9144669  , 830.076355  , 1.96        , 7           , 255         , 0           , 0
-0.122729681, 0.09380281  , -9.852182   , -0.000220013084, 0.0131610455, -0.0004220826, -0.009507107, 0.0116701052, 1.77757537  , 917.486755  , 25.9144669  , 830.0772    , 1.97        , 7           , 255         , 0           , 0
-0.116527081, 0.09259209  , -9.850151   , -0.0007507601, 0.0134290513, 0.0006563808, -0.009514552, 0.0118044475, 1.77758062  , 917.486755  , 25.9144669  , 830.078064  , 1.98        , 7           , 255         , 0           , 0
-0.110548   , 0.09782612  , -9.852536   , 1.87347177E-05, 0.012873143 , 0.00019526924, -0.009514356, 0.011933188 , 1.77758133  , 917.486755  , 25.9144669  , 830.0789    , 1.99        , 7           , 255         , 0           , 0
-0.1167506  , 0.08895993  , -9.856988   , 4.21414152E-05, 0.0127350437, -0.000452511129, -0.009514001, 0.0120604848, 1.77757573  , 917.486755  , 25.9144669  , 830.0798    , 2           , 7           , 0           , 7.43423653  , 200
-0.122562051, 0.09926036  , -9.846855   , -0.000173779437, 0.0128657725, 0.0005457809, -0.009512961, 0.0120254057, 1.77758     , 917.486755  , 25.9144669  , 830.0283    , 2.01        , 7           , 1           , 0           , 0
-0.1156889  , 0.09521842  , -9.84719    , -0.000264480244, 0.0134363091, 0.0009951894, -0.0095155  , 0.0121598542, 1.77758873  , 917.486755  , 25.9144669  , 830.0289    , 2.02        , 7           , 2           , 0           , 0
-0.11511147 , 0.104643404 , -9.848401   , -6.493833E-05, 0.013185272 , 0.000243249582, -0.009516137, 0.0122917229, 1.7775898   , 917.4717    , 25.9158916  , 830.0294    , 2.03        , 7           , 3           , 0           , 0
-0.125952065, 0.09646639  , -9.85304    , 0.000159180956, 0.0129371621, 0.000113342423, -0.009514546, 0.0124210929, 1.77758968  , 917.4717    , 25.9158916  , 830.029968  , 2.04        , 7           , 4           , 0           , 0
-0.1208298  , 0.09732321  , -9.852629   , 0.000259244116, 0.01298807  , 0.000371400965, -0.009511922, 0.0125509994, 1.77759206  , 917.4717    , 25.9158916  , 830.0305    , 2.05        , 7           , 5           , 0           , 0
-0.1273118  , 0.09972602  , -9.845011   , 0.0005079408, 0.0132911885, 3.14188655E-05, -0.009506852, 0.0126839029, 1.77759111  , 917.4717    , 25.9158916  , 830.031067  , 2.06        , 7           , 6           , 0           , 0
-0.122413039, 0.08715317  , -9.846762   , 0.000324198045, 0.0133772064, 0.00072308653, -0.009503535, 0.012817733 , 1.77759707  , 917.4717    , 25.9158916  , 830.0316    , 2.07        , 7           , 7           , 0           , 0
-0.112708665, 0.0849552453, -9.851195   , -0.0006939932, 0.0131723993, 0.000309373485, -0.009510447, 0.0129494751, 1.77759886  , 917.4717    , 25.9158916  , 830.0322    , 2.08        , 7           , 8           , 5           , 5
-0.121742487, 0.08577481  , -9.844079   , -0.0002697471, 0.0124666877, -0.0008861234, -0.009513278, 0.01307405  , 1.77758873  , 917.4717    , 25.9158916  , 830.032837  , 2.09        , 7           , 9           , 5           , 0.1
-0.132061526, 0.0909902155, -9.845439   , -7.66417943E-05, 0.0126492595, 0.000229205471, -0.009514027, 0.01320055  , 1.7775898   , 917.4717    , 25.9158916  , 830.033447  , 2.1         , 7           , 10          , 0.1         , 0.1
-0.124424696, 0.09622425  , -9.845291   , -0.000280865934, 0.0130672483, 7.939874E-05, -0.00951718353, 0.0131505365, 1.77758908  , 917.4717    , 25.9158916  , 830.0049    , 2.11        , 7           , 11          , 0.0101537528, 0.0101537108
-0.121593475, 0.100247562 , -9.84231    , -0.0003036873, 0.0131210834, 0.000404166756, -0.009520183, 0.0132817756, 1.77759182  , 917.4717    , 25.9158916  , 830.0053    , 2.12        , 7           , 12          , 0.03464815  , 0
-0.1180917  , 0.08888543  , -9.853505   , 5.56053128E-05, 0.0131339561, 0.0009167732, -0.009519521, 0.0134131918, 1.77759981  , 917.415649  , 25.9150772  , 830.005737  , 2.13        , 7           , 13          , 0           , 0
-0.12310221 , 0.08177012  , -9.86034    , 5.853153E-05, 0.0128045082, 0.000659884652, -0.009518864, 0.0135412915, 1.7776053   , 917.415649  , 25.9150772  , 830.006165  , 2.14        , 7           , 14          , 0.003543173 , 3.047285E-06
-0.1296401  , 0.08214265  , -9.853673   , -8.776062E-05, 0.01326211  , 0.000631796662, -0.00951967 , 0.0136739621, 1.77761018  , 917.415649  , 25.9150772  , 830.0066    , 2.15        , 7           , 15          , 0           , 0.00215067342
-0.131297857, 0.08691102  , -9.852163   , 0.000923993532, 0.013145661 , 2.731895E-05, -0.009510443, 0.01380541  , 1.77760923  , 917.415649  , 25.9150772  , 830.0071    , 2.16        , 7           , 16          , 0           , 4.203895E-45
-0.114180148, 0.07934868  , -9.845366   , -2.57326756E-05, 0.0132457241, 0.000134989619, -0.009510698, 0.0139378691, 1.77760935  , 917.415649  , 25.9150772  , 830.007568  , 2.17        , 7           , 20          , 0           , 0
-0.116992734, 0.08512288  , -9.847918   , 0.0001188037, 0.0131842811, -0.000494065, -0.009509595, 0.014069654 , 1.77760327  , 917.415649  , 25.9150772  , 830.008057  , 2.18        , 7           , 21          , 0           , 0
-0.118594624, 0.09318814  , -9.84789848 , -0.0005921745, 0.0128238183, -0.000345432549, -0.009515582, 0.0141978506, 1.77759862  , 917.415649  , 25.9150772  , 830.008545  , 2.19        , 7           , 22          , 0           , 0
-0.113137066, 0.08907169  , -9.849985   , -0.000473385677, 0.0129279792, 1.73712615E-05, -0.00952033 , 0.0143271228, 1.77759767  , 917.415649  , 25.9150772  , 830.009033  , 2.2         , 7           , 40          , 0           , 0
-0.112764537, 0.0919401646, -9.848252   , 1.055724E-05, 0.0129597289, 9.46091E-05 , -0.00951631 , 0.0142740738, 1.77759743  , 917.415649  , 25.9150772  , 830.053955  , 2.21        , 7           , 41          , 0           , 0
-0.122729681, 0.08990988  , -9.8476     , 0.000106524676, 0.0128889252, -0.0002962827, -0.009515303, 0.014402926 , 1.77759314  , 917.415649  , 25.9150772  , 830.054749  , 2.22        , 7           , 42          , 1           , 0
-0.1191534  , 0.0900961459, -9.854827   , -9.923708E-06, 0.0133348228, -6.455649E-05, -0.00951543 , 0.0145362569, 1.77759135  , 917.459167  , 25.9182644  , 830.055542  , 2.23        , 7           , 255         , 0           , 0
-0.130813569, 0.0901520252, -9.85058    , 0.0003452727, 0.0131616127, -0.00024946942, -0.00951203052, 0.0146678379, 1.77758765  , 917.459167  , 25.9182644  , 830.056335  , 2.24        , 7           , 255         , 0           , 0
-0.12151897 , 0.1033023   , -9.846463   , -6.14183955E-05, 0.0130375577, -0.0002166999, -0.009512695, 0.0147981821, 1.7775842   , 917.459167  , 25.9182644  , 830.0571    , 2.25        , 7           , 255         , 0           , 0
-0.11725352 , 0.100713231 , -9.844229   , 0.0002065883, 0.013314927 , -0.0005549266, -0.009510728, 0.014931269 , 1.7775774   , 917.459167  , 25.9182644  , 830.0579    , 2.26        , 7           , 255         , 0           , 0
-0.117495656, 0.09840354  , -9.84773    , -6.84403349E-05, 0.0132593364, 0.000281277578, -0.009511388, 0.0150638781, 1.777579    , 917.459167  , 25.9182644  , 830.0587    , 2.27        , 7           , 255         , 0           , 0
-0.132862478, 0.101514161 , -9.850357   , 4.157098E-05, 0.0126905534, 0.00020930171, -0.009510958, 0.0151907941, 1.77757978  , 917.459167  , 25.9182644  , 830.0595    , 2.28        , 7           , 255         , 0           , 0
-0.12027099 , 0.0961311162, -9.850897   , 0.000595724443, 0.0129351523, -0.000236595515, -0.009505054, 0.015320112 , 1.77757633  , 917.459167  , 25.9182644  , 830.060364  , 2.29        , 7           , 255         , 0           , 0
-0.1206249  , 0.0898912549, -9.848234   , 1.1944212E-06, 0.0131885307, -0.000276386971, -0.009505103, 0.01545196  , 1.77757215  , 917.459167  , 25.9182644  , 830.0612    , 2.3         , 7           , 255         , 0           , 0
-0.121369958, 0.0943988562, -9.853206   , -0.000143344747, 0.0129095148, 0.0002414817, -0.009507607, 0.0153891   , 1.77757335  , 917.459167  , 25.9182644  , 830.0442    , 2.31        , 7           , 255         , 0           , 0
-0.112298869, 0.0924058259, -9.847283   , 0.000193126732, 0.0129346773, 0.00011742604, -0.009505677, 0.0155184483, 1.77757335  , 917.459167  , 25.9182644  , 830.0449    , 2.32        , 7           , 255         , 0           , 0
-0.122487545, 0.0939890742, -9.846277   , -6.37618359E-05, 0.0125572439, -0.000325545319, -0.009506385, 0.0156439822, 1.77756882  , 917.4567    , 25.9190788  , 830.045654  , 2.33        , 7           , 255         , 0           , 0
-0.11404977 , 0.09635463  , -9.848941   , -0.000217660563, 0.0123015251, -0.0002763914, -0.009508624, 0.0157669652, 1.77756476  , 917.4567    , 25.9190788  , 830.0464    , 2.34        , 7           , 255         , 0           , 0
-0.114645816, 0.0872463   , -9.846222   , 0.000277390471, 0.0124337729, -0.000208511949, -0.009505902, 0.01589127  , 1.77756155  , 917.4567    , 25.9190788  , 830.0471    , 2.35        , 7           , 255         , 0           , 0
-0.11777506 , 0.09123236  , -9.849705   , 0.000110617839, 0.0129984589, -3.413204E-05, -0.009504821, 0.0160212442, 1.77755988  , 917.4567    , 25.9190788  , 830.0479    , 2.36        , 7           , 255         , 0           , 0
-0.120941542, 0.09058043  , -9.845253   , -0.0002826145, 0.0132465707, 0.00063471403, -0.009507565, 0.0161537584, 1.777565    , 917.4567    , 25.9190788  , 830.0487    , 2.37        , 7           , 255         , 0           , 0
-0.114161514, 0.09000301  , -9.852444   , 0.00034175883, 0.0128802555, 0.0004158616, -0.009504101, 0.0162825957, 1.77756786  , 917.4567    , 25.9190788  , 830.0495    , 2.38        , 7           , 255         , 0           , 0
-0.12116506 , 0.0927411   , -9.860769   , 0.000469911145, 0.01277083  , 0.000154876849, -0.009499397, 0.01641031  , 1.77756834  , 917.4567    , 25.9190788  , 830.0503    , 2.39        , 7           , 255         , 0           , 0
-0.119581819, 0.0913068652, -9.857043   , 0.00022999174, 0.0126385819, -0.000243622111, -0.009497157, 0.0165366661, 1.77756476  , 917.4567    , 25.9190788  , 830.0511    , 2.4         , 7           , 255         , 0           , 0
-0.119935729, 0.0811181962, -9.854623   , -0.0004394364, 0.0131167518, 0.000421123346, -0.00950037 , 0.0164767522, 1.77756763  , 917.4567    , 25.9190788  , 830.0382    , 2.41        , 7           , 255         , 0           , 0
-0.116992734, 0.100322068 , -9.843855   , -0.000877141254, 0.0131635638, 0.0006604565, -0.009509051, 0.0166084431, 1.77757311  , 917.4567    , 25.9190788  , 830.03894   , 2.42        , 7           , 255         , 0           , 0
-0.125262886, 0.0902637839, -9.844211   , -0.000256279018, 0.0129376892, 0.0006604565, -0.009511526, 0.0167378746, 1.77757847  , 917.443054  , 25.9225388  , 830.0397    , 2.43        , 7           , 255         , 0           , 0
-0.117998578, 0.0970810652, -9.850133   , -7.42923E-05, 0.0129177943, -0.000141222728, -0.009512313, 0.01686703  , 1.77757585  , 917.443054  , 25.9225388  , 830.0404    , 2.44        , 7           , 255         , 0           , 0
-0.121649362, 0.104680657 , -9.848773   , 0.000136953313, 0.01309159  , -0.0004607241, -0.009511042, 0.0169978943, 1.77757     , 917.443054  , 25.9225388  , 830.041138  , 2.45        , 7           , 255         , 0           , 0
-0.131838039, 0.110045075 , -9.845904   , 6.673345E-05, 0.0129335942, 0.000276001636, -0.00951034948, 0.01712725  , 1.77757156  , 917.443054  , 25.9225388  , 830.0419    , 2.46        , 7           , 255         , 0           , 0
-0.126548111, 0.100266196 , -9.855292   , 3.33786E-05 , 0.0126351584, -9.792019E-05, -0.009510051, 0.0172535814, 1.77756953  , 917.443054  , 25.9225388  , 830.0426    , 2.47        , 7           , 255         , 0           , 0
-0.117402531, 0.0949204   , -9.847172   , -0.000236968277, 0.0127773546, 0.000103377271, -0.009512425, 0.0173813552, 1.77756929  , 917.443054  , 25.9225388  , 830.043335  , 2.48        , 7           , 255         , 0           , 0
-0.117607415, 0.09924173  , -9.844751   , 1.28976535E-05, 0.0132519249, 0.000398886856, -0.009512248, 0.0175139029, 1.777572    , 917.443054  , 25.9225388  , 830.0441    , 2.49        , 7           , 255         , 0           , 0
-0.120121978, 0.102128841 , -9.851008   , 0.0001591898, 0.0130635016, 0.00039537577, -0.009510608, 0.01764457  , 1.77757478  , 917.443054  , 25.9225388  , 830.0449    , 2.5         , 7           , 255         , 0           , 0
-0.1216866  , 0.0904686749, -9.844657   , -0.0001240396, 0.0127293961, 0.00055512134, -0.00951486453, 0.0175660681, 1.77757907  , 917.443054  , 25.9225388  , 830.051147  , 2.51        , 7           , 255         , 0           , 0
-0.120103359, 0.08612871  , -9.844583   , -0.000282034744, 0.0124906469, -6.92522153E-05, -0.009517716, 0.0176909585, 1.77757716  , 917.443054  , 25.9225388  , 830.051941  , 2.52        , 7           , 255         , 0           , 0
-0.1142174  , 0.09221956  , -9.851847   , 0.000414899318, 0.0132613126, 0.0006089569, -0.009513483, 0.0178236216, 1.77758193  , 917.438843  , 25.9211826  , 830.0528    , 2.53        , 7           , 255         , 0           , 0
-0.121481717, 0.09177253  , -9.85127    , 0.00051028165, 0.013627626 , -0.0001254282, -0.009508424, 0.0179598741, 1.77757943  , 917.438843  , 25.9211826  , 830.05365   , 2.54        , 7           , 255         , 0           , 0
-0.11742115 , 0.08918345  , -9.850021   , 0.0001129529, 0.0129605355, -6.983732E-05, -0.009507332, 0.0180894658, 1.77757752  , 917.438843  , 25.9211826  , 830.0545    , 2.55        , 7           , 255         , 0           , 0
-0.1221709  , 0.09637326  , -9.848922   , 0.000316006131, 0.012629332 , 0.00012151245, -0.009504173, 0.0182157625, 1.77757752  , 917.438843  , 25.9211826  , 830.055359  , 2.56        , 7           , 255         , 0           , 0
-0.12345612 , 0.08819625  , -9.847918   , 9.890902E-05, 0.0129827727, -0.000378220575, -0.009503273, 0.0183455423, 1.77757251  , 917.438843  , 25.9211826  , 830.0562    , 2.57        , 7           , 255         , 0           , 0
-0.128615648, 0.087376684 , -9.844526   , -0.000441200333, 0.0135211255, 0.000202850671, -0.009507671, 0.018480761 , 1.77757311  , 917.438843  , 25.9211826  , 830.057068  , 2.58        , 7           , 255         , 0           , 0
-0.120606281, 0.0853277743, -9.845365   , 0.000244615367, 0.0131232124, 0.0003707935, -0.00950518 , 0.0186120179, 1.77757549  , 917.438843  , 25.9211826  , 830.0579    , 2.59        , 7           , 255         , 0           , 0
-0.125393271, 0.09143725  , -9.84395    , 0.000228230841, 0.0122688683, 5.53883146E-05, -0.009502909, 0.018734701 , 1.77757478  , 917.438843  , 25.9211826  , 830.0588    , 2.6         , 7           , 255         , 0           , 0
-0.122133635, 0.09605661  , -9.850264   , 0.0003382503, 0.0133209685, 3.373134E-05, -0.009496809, 0.018651614 , 1.77757406  , 917.438843  , 25.9211826  , 830.0688    , 2.61        , 7           , 255         , 0           , 0
-0.119674943, 0.08666888  , -9.852835   , 0.000396182062, 0.0135930711, 0.0003426997, -0.009492806, 0.0187875647, 1.777576    , 917.438843  , 25.9211826  , 830.069763  , 2.62        , 7           , 255         , 0           , 0
-0.11626631 , 0.0829622149, -9.848326   , 0.000103597995, 0.0130816353, 0.0007821601, -0.009491646, 0.0189184453, 1.77758265  , 917.4539    , 25.9226742  , 830.07074   , 2.63        , 7           , 255         , 0           , 0
-0.113658607, 0.086613    , -9.848122   , 0.00020132144, 0.0127416532, 0.0006639566, -0.009489529, 0.0190459155, 1.77758789  , 917.4539    , 25.9226742  , 830.0717    , 2.64        , 7           , 255         , 0           , 0
-0.119637705, 0.09581447  , -9.846148   , 8.72139353E-05, 0.0128809223, 0.000718962168, -0.009488541, 0.0191747826, 1.777594    , 917.4539    , 25.9226742  , 830.0727    , 2.65        , 7           , 255         , 0           , 0
-0.117011368, 0.09376556  , -9.845924   , 0.000208343146, 0.0127217574, 0.0002771609, -0.009486426, 0.0193020143, 1.77759564  , 917.4539    , 25.9226742  , 830.073669  , 2.66        , 7           , 255         , 0           , 0
-0.117626049, 0.09864569  , -9.853021   , 3.103749E-05, 0.01279783  , -0.000238956534, -0.009486183, 0.0194299575, 1.77759206  , 917.4539    , 25.9226742  , 830.074646  , 2.67        , 7           , 255         , 0           , 0
-0.118464231, 0.0940077   , -9.84447    , -0.000366291031, 0.0128463982, -0.000148840947, -0.009489898, 0.0195583981, 1.77758932  , 917.4539    , 25.9226742  , 830.0756    , 2.68        , 7           , 255         , 0           , 0
-0.12345612 , 0.08601695  , -9.855069   , -0.0002556946, 0.0127668157, -0.000116071431, -0.009492501, 0.019686047 , 1.77758694  , 917.4539    , 25.9226742  , 830.0766    , 2.69        , 7           , 255         , 0           , 0
-0.132359564, 0.09089708  , -9.848178   , -0.000295486068, 0.0125503028, 0.000107462285, -0.009495457, 0.019811552 , 1.77758682  , 917.4539    , 25.9226742  , 830.0776    , 2.7         , 7           , 255         , 0           , 0
-0.125002116, 0.085067004 , -9.850283   , -0.0004002261, 0.0128972549, 0.000137300231, -0.009497835, 0.0197250489, 1.77758694  , 917.4539    , 25.9226742  , 830.0646    , 2.71        , 7           , 255         , 0           , 0
-0.1257658  , 0.09462237  , -9.852648   , -0.000304843765, 0.0135795576, -0.000122514088, -0.009500935, 0.0198608227, 1.77758443  , 917.4539    , 25.9226742  , 830.0655    , 2.72        , 7           , 255         , 0           , 0
-0.120196484, 0.08394942  , -9.853356   , -0.000348730944, 0.0130669521, -4.5272056E-05, -0.009504456, 0.01999148  , 1.77758265  , 917.490967  , 25.925457   , 830.0664    , 2.73        , 7           , 255         , 0           , 0
-0.115949653, 0.08681789  , -9.84585    , -0.000217068708, 0.0129270973, 0.000420521 , -0.009506565, 0.0201207791, 1.77758563  , 917.490967  , 25.925457   , 830.0673    , 2.74        , 7           , 255         , 0           , 0
-0.116415322, 0.09685755  , -9.852983   , -0.000446454156, 0.0128954975, 9.692367E-05, -0.009511037, 0.02024973  , 1.77758527  , 917.490967  , 25.925457   , 830.068237  , 2.75        , 7           , 255         , 0           , 0
-0.123791382, 0.09475276  , -9.848122   , -0.000479223439, 0.0130552491, 0.000100434758, -0.009515834, 0.0203802828, 1.77758515  , 917.490967  , 25.925457   , 830.0692    , 2.76        , 7           , 255         , 0           , 0
-0.117328025, 0.0962615   , -9.846854   , -0.000568169169, 0.0128205968, 0.000194061548, -0.009521498, 0.020508498 , 1.777586    , 917.490967  , 25.925457   , 830.0702    , 2.77        , 7           , 255         , 0           , 0
-0.131502748, 0.09192154  , -9.844452   , -0.000539495843, 0.0128914015, 0.000182943186, -0.00952687953, 0.0206374153, 1.77758658  , 917.490967  , 25.925457   , 830.071167  , 2.78        , 7           , 255         , 0           , 0
-0.126753   , 0.08828938  , -9.848104   , 0.000293782447, 0.0134443855, 0.0006633657, -0.009523831, 0.0207719132, 1.777592    , 917.490967  , 25.925457   , 830.072144  , 2.79        , 7           , 255         , 0           , 0
-0.125002116, 0.09259209  , -9.853003   , 0.00038214284, 0.0132653238, 0.0005141478, -0.009519927, 0.0209046025, 1.77759576  , 917.490967  , 25.925457   , 830.0731    , 2.8         , 7           , 255         , 0           , 0
-0.116303563, 0.0941939652, -9.848494   , 0.0008824661, 0.0129679572, -4.87891957E-05, -0.009509377, 0.0208120216, 1.77759409  , 917.490967  , 25.925457   , 830.00885   , 2.81        , 7           , 255         , 0           , 0
-0.112820409, 0.101383783 , -9.862929   , 0.000342942076, 0.01311659  , 0.000139049487, -0.009505945, 0.02094319  , 1.77759409  , 917.490967  , 25.925457   , 830.0094    , 2.82        , 7           , 255         , 0           , 0
-0.112652779, 0.100526951 , -9.862147   , 0.000415502815, 0.0130732888, 0.000215120846, -0.00950177 , 0.0210739318, 1.777595    , 917.4554    , 25.9230137  , 830.01      , 2.83        , 7           , 255         , 0           , 0
-0.119712211, 0.09775162  , -9.841322   , 0.0002639445, 0.01292407  , 0.000212195329, -0.00949911 , 0.0212031845, 1.777596    , 917.4554    , 25.9230137  , 830.0106    , 2.84        , 7           , 255         , 0           , 0
-0.118725   , 0.0941939652, -9.842478   , 0.000357571058, 0.0126923434, 0.000202832744, -0.009495518, 0.0213301163, 1.77759683  , 917.4554    , 25.9230137  , 830.0112    , 2.85        , 7           , 255         , 0           , 0
-0.121910118, 0.08715317  , -9.842366   , -0.0005476824, 0.0128614586, -1.66052487E-05, -0.00950102 , 0.0214587189, 1.77759552  , 917.4554    , 25.9230137  , 830.011841  , 2.86        , 7           , 255         , 0           , 0
-0.130459666, 0.0919960439, -9.849406   , -0.000806326745, 0.0130182812, 0.000925514149, -0.009508912, 0.02158898  , 1.77760351  , 917.4554    , 25.9230137  , 830.012451  , 2.87        , 7           , 255         , 0           , 0
-0.123512007, 0.101923943 , -9.844154   , 3.39737162E-05, 0.0126268053, 0.0006645296, -0.009508452, 0.0217152983, 1.77760887  , 917.4554    , 25.9230137  , 830.013062  , 2.88        , 7           , 255         , 0           , 0
-0.1190789  , 0.104866922 , -9.848866   , 0.00037161517, 0.0131622339, 0.000189373735, -0.009504723, 0.02184693  , 1.77760947  , 917.4554    , 25.9230137  , 830.0137    , 2.89        , 7           , 255         , 0           , 0
-0.119917095, 0.10961666  , -9.852535   , 0.000180850737, 0.0128415618, 7.05847051E-05, -0.009502927, 0.0219753422, 1.77760887  , 917.4554    , 25.9230137  , 830.0143    , 2.9         , 7           , 255         , 0           , 0
-0.114627182, 0.110864639 , -9.846781   , -5.264161E-05, 0.0130064394, -0.00063747447, -0.009506932, 0.0218791645, 1.77760124  , 917.4554    , 25.9230137  , 830.007935  , 2.91        , 7           , 255         , 0           , 0
-0.117197633, 0.101998448 , -9.848941   , -0.0003071893, 0.0132422606, -0.000302758766, -0.009510098, 0.0220115446, 1.777597    , 917.4554    , 25.9230137  , 830.008545  , 2.92        , 7           , 255         , 0           , 0
-0.122282647, 0.0896863639, -9.847116   , -0.0004183713, 0.0124990977, -0.000241316273, -0.009514363, 0.0221365057, 1.77759314  , 917.496338  , 25.9257278  , 830.009155  , 2.93        , 7           , 255         , 0           , 0
-0.113602735, 0.08115545  , -9.843838   , 0.000385649037, 0.0126448059, -0.0004829904, -0.009510638, 0.0222628955, 1.77758718  , 917.496338  , 25.9257278  , 830.009766  , 2.94        , 7           , 255         , 0           , 0
-0.106673695, 0.0830926   , -9.84449    , -0.000344054773, 0.0134388767, -0.000132475281, -0.009514136, 0.02239726  , 1.77758455  , 917.496338  , 25.9257278  , 830.0104    , 2.95        , 7           , 255         , 0           , 0
-0.109262764, 0.0829622149, -9.848774   , -0.00028027175, 0.0133464215, 4.54157125E-05, -0.009516956, 0.0225307178, 1.77758372  , 917.496338  , 25.9257278  , 830.011     , 2.96        , 7           , 255         , 0           , 0
-0.116582967, 0.0805407763, -9.852592   , -1.73179433E-06, 0.0130257485, 0.000236765482, -0.009516948, 0.0226609875, 1.77758479  , 917.496338  , 25.9257278  , 830.0116    , 2.97        , 7           , 255         , 0           , 0
-0.111311674, 0.0832229853, -9.858421   , 0.000245208852, 0.0129806912, -0.000692480244, -0.009514682, 0.02279072  , 1.77757657  , 917.496338  , 25.9257278  , 830.0122    , 2.98        , 7           , 255         , 0           , 0
-0.121481717, 0.08434057  , -9.850599   , 0.000397937372, 0.01286717  , 0.0002870895, -0.009510666, 0.0229194127, 1.77757835  , 917.496338  , 25.9257278  , 830.0129    , 2.99        , 7           , 255         , 0           , 0
-0.118743636, 0.08082017  , -9.845179   , -4.913099E-05, 0.0132317282, 0.0006054209, -0.009511048, 0.0230517816, 1.77758312  , 917.496338  , 25.9257278  , 830.01355   , 3           , 7           , 0           , 8.434237    , 300
-0.1190789  , 0.087376684 , -9.830129   , 0.000652498333, 0.0129904523, 0.000558600063, -0.009500392, 0.0229496211, 1.77758753  , 917.496338  , 25.9257278  , 829.9495    , 3.01        , 7           , 1           , 0           , 0
-0.117439769, 0.09279698  , -9.844061   , 0.0003815659, 0.0127189336, 0.000298200641, -0.009496535, 0.0230768286, 1.77758932  , 917.496338  , 25.9257278  , 829.949768  , 3.02        , 7           , 2           , 0           , 0
-0.1254119  , 0.08935109  , -9.851568   , -0.000254511135, 0.0126411067, -0.00012429012, -0.0094991345, 0.0232032184, 1.77758694  , 917.418335  , 25.9261341  , 829.95      , 3.03        , 7           , 3           , 0           , 0
-0.1190789  , 0.09216368  , -9.844936   , -0.0006354549, 0.012826019 , 8.929591E-05, -0.009505496, 0.0233314764, 1.77758658  , 917.418335  , 25.9261341  , 829.950256  , 3.04        , 7           , 4           , 0           , 0
-0.12382865 , 0.0866316259, -9.84991    , 0.000223570736, 0.0128318714, 0.0002666018, -0.009503227, 0.02345981  , 1.777588    , 917.418335  , 25.9261341  , 829.9505    , 3.05        , 7           , 5           , 0           , 0
-0.11973083 , 0.0850111246, -9.843466   , 2.75394414E-05, 0.0134697035, 3.83863226E-05, -0.009502974, 0.0235945042, 1.777587    , 917.418335  , 25.9261341  , 829.950745  , 3.06        , 7           , 6           , 0           , 0
-0.117272139, 0.08519739  , -9.844526   , -0.000713282032, 0.013607217 , 0.000538704451, -0.00951001 , 0.023730617 , 1.77759111  , 917.418335  , 25.9261341  , 829.95105   , 3.07        , 7           , 7           , 0           , 0
-0.129770488, 0.09380281  , -9.843166   , -0.0003803221, 0.0130390208, -0.00013014162, -0.00951387547, 0.0238609873, 1.77758861  , 917.418335  , 25.9261341  , 829.951355  , 3.08        , 7           , 8           , 5           , 5
-0.116303563, 0.101849437 , -9.846296   , 0.0003915138, 0.0132806944, -0.000186902937, -0.009510037, 0.0239937641, 1.77758539  , 917.418335  , 25.9261341  , 829.95166   , 3.09        , 7           , 9           , 5           , 0.1
-0.110883258, 0.0988133252, -9.853746   , 0.000271554338, 0.0132502662, -0.000343727763, -0.009507433, 0.0241262242, 1.77758086  , 917.418335  , 25.9261341  , 829.951965  , 3.1         , 7           , 10          , 0.1         , 0.1
-0.10792166 , 0.104866922 , -9.845439   , 7.494399E-05, 0.0129035562, 0.0001671149, -0.009505024, 0.024001753 , 1.77758133  , 917.418335  , 25.9261341  , 830.0067    , 3.11        , 7           , 11          , 0.0098349   , 0.009834836
-0.118277967, 0.09948388  , -9.846464   , 9.404961E-06, 0.0131241633, -0.0004923685, -0.009505079, 0.0241329372, 1.777575    , 917.418335  , 25.9261341  , 830.0074    , 3.12        , 7           , 12          , 0.03465699  , 0
-0.121612094, 0.0970810652, -9.841192   , -0.000805732561, 0.0133722732, -0.0005795583, -0.009513307, 0.0242665932, 1.777568    , 917.456665  , 25.9283066  , 830.008057  , 3.13        , 7           , 13          , 0           , 0
-0.12027099 , 0.09134412  , -9.846631   , -0.000562303234, 0.0132564111, -0.0008856008, -0.009519176, 0.02439906  , 1.77755785  , 917.456665  , 25.9283066  , 830.0087    , 3.14        , 7           , 14          , 0.003543145 , 9.330199E-06
-0.123009086, 0.09153038  , -9.851828   , -9.12433E-05, 0.0133582307, -0.000281122979, -0.009520189, 0.0245326   , 1.77755356  , 917.456665  , 25.9283066  , 830.0094    , 3.15        , 7           , 15          , 0           , 0.00215073233
-0.1174584  , 0.09706244  , -9.852163   , -0.000250409357, 0.012750241 , 0.000126153463, -0.009522691, 0.024660103 , 1.77755356  , 917.456665  , 25.9283066  , 830.0101    , 3.16        , 7           , 16          , 0           , 4.203895E-45
-0.115260482, 0.09600073  , -9.842888   , 0.000404978171, 0.01354841  , 0.000165944686, -0.009518633, 0.0247955918, 1.777554    , 917.456665  , 25.9283066  , 830.010742  , 3.17        , 7           , 20          , 0           , 0
-0.1180917  , 0.0943988562, -9.846613   , -0.000245727831, 0.0130422395, 0.0004532619, -0.009521006, 0.02492605  , 1.77755737  , 917.456665  , 25.9283066  , 830.0114    , 3.18        , 7           , 21          , 0           , 0
-0.116657473, 0.09091571  , -9.844769   , 7.61142E-05 , 0.0128198769, -0.000100306235, -0.009520301, 0.0250542257, 1.777555    , 917.456665  , 25.9283066  , 830.0121    , 3.19        , 7           , 22          , 0           , 0
-0.118799508, 0.09512529  , -9.845495   , 0.0006279275, 0.01302059  , 0.0004199075, -0.009513947, 0.0251844618, 1.777558    , 917.456665  , 25.9283066  , 830.0128    , 3.2         , 7           , 40          , 0           , 0
-0.125970691, 0.0941939652, -9.846631   , 0.000464074546, 0.0127510894, 0.0003602116, -0.009510692, 0.0250585657, 1.77756023  , 917.456665  , 25.9283066  , 830.0047    , 3.21        , 7           , 41          , 0           , 0
-0.122450292, 0.0919401646, -9.852499   , 0.0001217518, 0.0127505045, -0.000419816235, -0.009509609, 0.0251860153, 1.77755475  , 917.456665  , 25.9283066  , 830.0054    , 3.22        , 7           , 42          , 1           , 0
-0.112876296, 0.08832663  , -9.847936   , -0.000217644731, 0.0128423767, -0.000590685057, -0.00951196253, 0.025314372 , 1.77754772  , 917.4311    , 25.9302063  , 830.006042  , 3.23        , 7           , 255         , 0           , 0
-0.111348927, 0.09467825  , -9.852908   , -5.08725643E-05, 0.013015    , -4.58944123E-05, -0.009512514, 0.0254445076, 1.77754617  , 917.4311    , 25.9302063  , 830.0067    , 3.24        , 7           , 255         , 0           , 0
-0.115055583, 0.09281561  , -9.85153    , 0.0002703846, 0.0129278107, 0.0002659997, -0.009509771, 0.0255738031, 1.7775476   , 917.4311    , 25.9302063  , 830.0074    , 3.25        , 7           , 255         , 0           , 0
-0.130794942, 0.0985525548, -9.838139   , 0.000225911615, 0.0126410779, -0.000183408847, -0.009507589, 0.0257001836, 1.7775445   , 917.4311    , 25.9302063  , 830.008057  , 3.26        , 7           , 255         , 0           , 0
-0.135097653, 0.09370968  , -9.83595848 , -5.81447966E-06, 0.0127674742, 0.000293502584, -0.009507602, 0.02582788  , 1.77754629  , 917.4311    , 25.9302063  , 830.0087    , 3.27        , 7           , 255         , 0           , 0
-0.121630728, 0.08782372  , -9.859447   , 3.046589E-05, 0.0129582388, 5.76800667E-05, -0.009507313, 0.0259574559, 1.77754569  , 917.4311    , 25.9302063  , 830.00946   , 3.28        , 7           , 255         , 0           , 0
-0.123586513, 0.0985525548, -9.874349   , 0.0001872906, 0.01318938  , 0.000706630759, -0.009505289, 0.0260894056, 1.77755165  , 917.4311    , 25.9302063  , 830.0102    , 3.29        , 7           , 255         , 0           , 0
-0.127982348, 0.094641    , -9.873156   , 0.000476363348, 0.0134889856, 0.000682638958, -0.009500379, 0.0262243487, 1.777557    , 917.4311    , 25.9302063  , 830.0109    , 3.3         , 7           , 255         , 0           , 0
-0.11635945 , 0.101067126 , -9.851791   , 0.0005834496, 0.0130480565, 0.000302271685, -0.009494382, 0.0261167288, 1.7775588   , 917.4311    , 25.9302063  , 830.0398    , 3.31        , 7           , 255         , 0           , 0
-0.111088157, 0.0972487   , -9.839312   , 0.0005887158, 0.0129245874, -7.223524E-05, -0.009488545, 0.02624596  , 1.77755678  , 917.4311    , 25.9302063  , 830.0407    , 3.32        , 7           , 255         , 0           , 0
-0.121314071, 0.0929832458, -9.84182549 , 0.0004166772, 0.0131621649, 0.00105070067, -0.009484134, 0.02637767  , 1.777566    , 917.4333    , 25.9275589  , 830.0416    , 3.33        , 7           , 255         , 0           , 0
-0.12582168 , 0.09905547  , -9.856224   , -0.00040665362, 0.0127507914, -0.0003016208, -0.00948831253, 0.0265051313, 1.77756166  , 917.4333    , 25.9275589  , 830.042542  , 3.34        , 7           , 255         , 0           , 0
-0.125858933, 0.09953976  , -9.859093   , 5.2702846E-05, 0.0132136587, 0.000317486 , -0.009487735, 0.0266372934, 1.77756357  , 917.4333    , 25.9275589  , 830.043457  , 3.35        , 7           , 255         , 0           , 0
-0.125970691, 0.09929761  , -9.844992   , -0.0001521057, 0.0132265333, 0.000309293857, -0.009489207, 0.02676957  , 1.77756536  , 917.4333    , 25.9275589  , 830.0444    , 3.36        , 7           , 255         , 0           , 0
-0.1225248  , 0.106953084 , -9.841751   , -0.000616728561, 0.0128175011, 0.0006106547, -0.009495242, 0.0268977974, 1.77757025  , 917.4333    , 25.9275589  , 830.0453    , 3.37        , 7           , 255         , 0           , 0
-0.120457269, 0.104606152 , -9.856466   , -0.0007887676, 0.013393892 , -0.000227889745, -0.009503224, 0.0270317029, 1.77756667  , 917.4333    , 25.9275589  , 830.046265  , 3.38        , 7           , 255         , 0           , 0
-0.117514275, 0.102762125 , -9.857453   , -0.000280842418, 0.01267472  , -0.0005251549, -0.009506207, 0.02715839  , 1.77756023  , 917.4333    , 25.9275589  , 830.047241  , 3.39        , 7           , 255         , 0           , 0
-0.115819275, 0.101663172 , -9.853394   , 0.000494503649, 0.0133418106, -0.000812471844, -0.009501517, 0.027291717 , 1.77755058  , 917.4333    , 25.9275589  , 830.0482    , 3.4         , 7           , 255         , 0           , 0
-0.123605132, 0.09810552  , -9.84909    , 0.000605082838, 0.0133630829, -0.000286415918, -0.009500232, 0.0271732975, 1.77754629  , 917.4333    , 25.9275589  , 830.068542  , 3.41        , 7           , 255         , 0           , 0
-0.116340816, 0.09231269  , -9.845366   , 0.0007127535, 0.0127960546, 7.34620262E-05, -0.0094931135, 0.0273012556, 1.77754581  , 917.4333    , 25.9275589  , 830.069641  , 3.42        , 7           , 255         , 0           , 0
-0.110361718, 0.08225441  , -9.846669   , -8.13182E-05, 0.0129294721, -0.000439729658, -0.009494082, 0.0274304915, 1.77754009  , 917.389648  , 25.9289169  , 830.07074   , 3.43        , 7           , 255         , 0           , 0
-0.119246542, 0.0942498446, -9.856634   , 5.28641976E-06, 0.0131635414, -0.0004853726, -0.009494198, 0.0275620688, 1.77753389  , 917.389648  , 25.9289169  , 830.071838  , 3.44        , 7           , 255         , 0           , 0
-0.112466514, 0.0904873   , -9.86062    , -8.36588442E-05, 0.01309332  , -0.000235506217, -0.009495132, 0.02769297  , 1.77753031  , 917.389648  , 25.9289169  , 830.072937  , 3.45        , 7           , 255         , 0           , 0
-0.122319914, 0.09113923  , -9.853655   , 0.000158015173, 0.0129095782, 0.000120275188, -0.009493551, 0.027822068 , 1.77753019  , 917.389648  , 25.9289169  , 830.074036  , 3.46        , 7           , 255         , 0           , 0
-0.129137188, 0.08512288  , -9.842124   , -0.000362198567, 0.0127474871, 0.000262471149, -0.009497136, 0.0279495567, 1.77753139  , 917.389648  , 25.9289169  , 830.0752    , 3.47        , 7           , 255         , 0           , 0
-0.12345612 , 0.0895746052, -9.841696   , -0.0002744235, 0.0128141958, 0.0007791738, -0.009499694, 0.02807776  , 1.77753806  , 917.389648  , 25.9289169  , 830.076355  , 3.48        , 7           , 255         , 0           , 0
-0.121053316, 0.08465722  , -9.846538   , 0.000189029379, 0.0130102281, 0.0001752812, -0.009497789, 0.0282078665, 1.77753854  , 917.389648  , 25.9289169  , 830.0775    , 3.49        , 7           , 255         , 0           , 0
-0.119507313, 0.0847131   , -9.865686   , -0.000200692331, 0.0127545092, 0.000106816413, -0.00949979853, 0.028335413 , 1.77753854  , 917.389648  , 25.9289169  , 830.0787    , 3.5         , 7           , 255         , 0           , 0
-0.116787851, 0.0821054   , -9.855218   , 0.000316021265, 0.0130045349, -0.000166466, -0.00949394051, 0.028210016 , 1.77753568  , 917.389648  , 25.9289169  , 830.15686   , 3.51        , 7           , 255         , 0           , 0
-0.123605132, 0.08208677  , -9.840597   , 0.000147492858, 0.0126323681, -0.00023200491, -0.009492564, 0.0283363126, 1.77753222  , 917.389648  , 25.9289169  , 830.1585    , 3.52        , 7           , 255         , 0           , 0
-0.112559654, 0.08098781  , -9.841081   , -0.000253931619, 0.0125615643, -7.927627E-05, -0.009495161, 0.02846191  , 1.77753019  , 917.458557  , 25.9322414  , 830.160156  , 3.53        , 7           , 255         , 0           , 0
-0.1193583  , 0.08277595  , -9.852275   , 1.9926345E-05, 0.0127295079, 9.568874E-05, -0.009494967, 0.0285892058, 1.77753007  , 917.458557  , 25.9322414  , 830.1618    , 3.54        , 7           , 255         , 0           , 0
-0.111721456, 0.08229166  , -9.856577   , 9.979121E-06, 0.0126996636, -0.000429206062, -0.009495025, 0.0287161488, 1.77752447  , 917.458557  , 25.9322414  , 830.163452  , 3.55        , 7           , 255         , 0           , 0
-0.116489828, 0.08808449  , -9.851995   , 0.000368101057, 0.0131157171, -0.000347282737, -0.009491478, 0.02884726  , 1.77751982  , 917.458557  , 25.9322414  , 830.1651    , 3.56        , 7           , 255         , 0           , 0
-0.116378069, 0.08502975  , -9.848923   , -0.000815692358, 0.0132573275, -9.641284E-06, -0.009499673, 0.028979823 , 1.77751851  , 917.458557  , 25.9322414  , 830.1668    , 3.57        , 7           , 255         , 0           , 0
-0.10410323 , 0.08765608  , -9.850841   , -0.00121594663, 0.0128559023, -5.352893E-05, -0.009511885, 0.029108366 , 1.7775166   , 917.458557  , 25.9322414  , 830.1685    , 3.58        , 7           , 255         , 0           , 0
-0.115185976, 0.0942871   , -9.849351   , -0.000112321228, 0.012772223 , -0.000533366, -0.0095132  , 0.02923603  , 1.77751017  , 917.458557  , 25.9322414  , 830.1702    , 3.59        , 7           , 255         , 0           , 0
-0.119116165, 0.0893697143, -9.846407   , 5.503674E-05, 0.01282606  , -0.000677902368, -0.009512883, 0.0293642152, 1.77750218  , 917.458557  , 25.9322414  , 830.171936  , 3.6         , 7           , 255         , 0           , 0
-0.115297735, 0.09061769  , -9.848642   , 0.000647247536, 0.0128893517, -0.000317449216, -0.00950119551, 0.0292295478, 1.77749789  , 917.458557  , 25.9322414  , 830.1386    , 3.61        , 7           , 255         , 0           , 0
-0.130366534, 0.0980310142, -9.849742   , 0.0006495884, 0.0131567726, 3.306591E-05, -0.00949472748, 0.0293611083, 1.77749681  , 917.458557  , 25.9322414  , 830.1401    , 3.62        , 7           , 255         , 0           , 0
-0.125039369, 0.09864569  , -9.848028   , 0.000112989685, 0.0129484525, 6.17392361E-05, -0.009493615, 0.029490592 , 1.77749634  , 917.4532    , 25.9319687  , 830.1416    , 3.63        , 7           , 255         , 0           , 0
-0.115819275, 0.105816863 , -9.853188   , -0.000606765971, 0.012934994 , -0.000233185245, -0.009499788, 0.02961991  , 1.77749276  , 917.4532    , 25.9319687  , 830.1431    , 3.64        , 7           , 255         , 0           , 0
-0.121127822, 0.0988133252, -9.8426075  , -1.51616987E-05, 0.0127769979, -0.0004965103, -0.009500124, 0.0297476221, 1.77748656  , 917.4532    , 25.9319687  , 830.144653  , 3.65        , 7           , 255         , 0           , 0
-0.118520118, 0.0974535942, -9.84151    , 0.0001586331, 0.0128928609, -0.000340270926, -0.009498676, 0.029876506 , 1.777482    , 917.4532    , 25.9319687  , 830.1462    , 3.66        , 7           , 255         , 0           , 0
-0.121109188, 0.103004277 , -9.850822   , 0.000444194535, 0.0129601555, 0.0009424158, -0.009493988, 0.030006187 , 1.77749014  , 917.4532    , 25.9319687  , 830.1477    , 3.67        , 7           , 255         , 0           , 0
-0.114794828, 0.101681806 , -9.856988   , 0.0004032331, 0.01319949  , -0.000535716768, -0.009490157, 0.03013812  , 1.77748346  , 917.4532    , 25.9319687  , 830.149231  , 3.68        , 7           , 255         , 0           , 0
-0.1169555  , 0.101979829 , -9.852257   , -0.000422438374, 0.0131199071, -1.37474854E-05, -0.009494423, 0.0302693043, 1.777482    , 917.4532    , 25.9319687  , 830.150757  , 3.69        , 7           , 255         , 0           , 0
-0.123176716, 0.109486282 , -9.848978   , 0.000127034029, 0.0127834352, 0.000694890041, -0.00949297752, 0.0303971972, 1.77748775  , 917.4532    , 25.9319687  , 830.1523    , 3.7         , 7           , 255         , 0           , 0
-0.122226775, 0.1028739   , -9.840933   , -5.965354E-05, 0.01285895  , 0.0001945612, -0.009498143, 0.030254554 , 1.77748835  , 917.4532    , 25.9319687  , 830.1292    , 3.71        , 7           , 255         , 0           , 0
-0.1254864  , 0.0926665962, -9.850171   , 0.000134036411, 0.0131720155, 0.0006913678, -0.00949663 , 0.0303863287, 1.777494    , 917.4532    , 25.9319687  , 830.1306    , 3.72        , 7           , 255         , 0           , 0
-0.1140125  , 0.08672476  , -9.857491   , -0.000147428829, 0.0128817726, 0.000670887064, -0.009497937, 0.0305152014, 1.77749944  , 917.4831    , 25.9340038  , 830.132     , 3.73        , 7           , 255         , 0           , 0
-0.113043927, 0.08916482  , -9.853468   , 0.000232344726, 0.0132486718, 0.0006714724, -0.009495446, 0.0306477435, 1.777505    , 917.4831    , 25.9340038  , 830.1334    , 3.74        , 7           , 255         , 0           , 0
-0.123977661, 0.09192154  , -9.845067   , -6.667571E-05, 0.0127869761, 0.001223285 , -0.009495775, 0.03077572  , 1.777516    , 917.4831    , 25.9340038  , 830.1348    , 3.75        , 7           , 255         , 0           , 0
-0.128317624, 0.09216368  , -9.842478   , -0.000373888528, 0.0129122008, 0.00030632806, -0.009499454, 0.0309048612, 1.77751791  , 917.4831    , 25.9340038  , 830.1362    , 3.76        , 7           , 255         , 0           , 0
-0.121612094, 0.09469688  , -9.848475   , -0.000456396956, 0.0127840489, 0.000253077829, -0.009503978, 0.0310327187, 1.77751923  , 917.4831    , 25.9340038  , 830.1377    , 3.77        , 7           , 255         , 0           , 0
-0.106114887, 0.08748844  , -9.851866   , -0.0009063906, 0.012880017 , -0.000130206579, -0.009513117, 0.0311614946, 1.7775166   , 917.4831    , 25.9340038  , 830.13916   , 3.78        , 7           , 255         , 0           , 0
-0.116415322, 0.09475276  , -9.854902   , 2.87066214E-05, 0.0127079776, -0.000232611084, -0.00951294 , 0.03128854  , 1.77751327  , 917.4831    , 25.9340038  , 830.1406    , 3.79        , 7           , 255         , 0           , 0
-0.119134784, 0.09363517  , -9.852313   , -5.321717E-05, 0.01283847  , -0.000686115469, -0.009513726, 0.031416852 , 1.77750516  , 917.4831    , 25.9340038  , 830.1421    , 3.8         , 7           , 255         , 0           , 0
-0.117681921, 0.09663403  , -9.852034   , -4.970352E-05, 0.0131240133, 0.000464897137, -0.009513515, 0.03127389  , 1.7775085   , 917.4831    , 25.9340038  , 830.0778    , 3.81        , 7           , 255         , 0           , 0
-0.118464231, 0.0920333   , -9.850692   , 5.62118366E-05, 0.0134598985, -0.0008066711, -0.009513247, 0.0314084031, 1.77749908  , 917.4831    , 25.9340038  , 830.078857  , 3.82        , 7           , 255         , 0           , 0
-0.1254864  , 0.0885874   , -9.845235   , -0.000183121767, 0.0129987868, -0.000361358747, -0.009515233, 0.0315383449, 1.77749419  , 917.4505    , 25.9335289  , 830.0799    , 3.83        , 7           , 255         , 0           , 0
-0.12444333 , 0.0928342342, -9.847673   , 0.000246391166, 0.0127793495, -0.000752250664, -0.009513041, 0.0316660553, 1.77748549  , 917.4505    , 25.9335289  , 830.081     , 3.84        , 7           , 255         , 0           , 0
-0.126510859, 0.09836629  , -9.84639    , -0.000269141281, 0.0128384512, -0.000174690736, -0.00951582752, 0.03179441  , 1.77748251  , 917.4505    , 25.9335289  , 830.0821    , 3.85        , 7           , 255         , 0           , 0
-0.133961439, 0.100675963 , -9.847806   , 4.2167725E-05, 0.0132363643, -3.834674E-05, -0.009515456, 0.03192676  , 1.777481    , 917.4505    , 25.9335289  , 830.0832    , 3.86        , 7           , 255         , 0           , 0
-0.12293458 , 0.106841326 , -9.84801    , 0.0001398907, 0.0132662086, 0.000248385128, -0.009514019, 0.03205943  , 1.77748227  , 917.4505    , 25.9335289  , 830.0843    , 3.87        , 7           , 255         , 0           , 0
-0.121109188, 0.09197742  , -9.846464   , 2.22721137E-05, 0.0130859762, 0.0005134661, -0.00951367151, 0.03219033  , 1.77748609  , 917.4505    , 25.9335289  , 830.0854    , 3.88        , 7           , 255         , 0           , 0
-0.131577253, 0.103805207 , -9.848661   , -0.000172003638, 0.0131801888, 0.000193379587, -0.009515369, 0.0323221423, 1.77748668  , 917.4505    , 25.9335289  , 830.0865    , 3.89        , 7           , 255         , 0           , 0
-0.122636557, 0.0902079046, -9.854808   , 0.0002785751, 0.0132316826, 0.0005632052, -0.009512441, 0.0324545   , 1.777491    , 917.4505    , 25.9335289  , 830.0876    , 3.9         , 7           , 255         , 0           , 0
-0.113733113, 0.0867433846, -9.847526   , 0.000266279327, 0.0127850939, 0.000460203737, -0.009511297, 0.0322962664, 1.77749455  , 917.4505    , 25.9335289  , 830.0774    , 3.91        , 7           , 255         , 0           , 0
-0.109560788, 0.08260831  , -9.85063648 , 0.000392675633, 0.0130431531, 0.000268268632, -0.009507324, 0.0324267149, 1.77749586  , 917.4505    , 25.9335289  , 830.0784    , 3.92        , 7           , 255         , 0           , 0
-0.107903026, 0.08162111  , -9.84437752 , -0.000262126559, 0.0135142123, -0.0005228773, -0.009510157, 0.0325617865, 1.7774893   , 917.4753    , 25.9333267  , 830.079468  , 3.93        , 7           , 255         , 0           , 0
-0.110566616, 0.0800192356, -9.842924   , 4.625623E-05, 0.013085871 , 0.0006351685, -0.009509529, 0.0326926932, 1.77749431  , 917.4753    , 25.9333267  , 830.0805    , 3.94        , 7           , 255         , 0           , 0
-0.118631862, 0.08031726  , -9.845048   , -9.945012E-05, 0.0127973827, 0.000860458 , -0.00951028 , 0.0328207426, 1.7775017   , 917.4753    , 25.9333267  , 830.0816    , 3.95        , 7           , 255         , 0           , 0
-0.119768083, 0.07620081  , -9.843838   , -0.000290214783, 0.0125586344, 0.000200389419, -0.009513155, 0.032946337 , 1.77750242  , 917.4753    , 25.9333267  , 830.0827    , 3.96        , 7           , 255         , 0           , 0
-0.120047472, 0.08011237  , -9.847265   , 0.000211858889, 0.0126616228, -6.644707E-05, -0.00951109547, 0.0330729336, 1.77750063  , 917.4753    , 25.9333267  , 830.0838    , 3.97        , 7           , 255         , 0           , 0
-0.119023025, 0.0867433846, -9.856857   , -0.0006928097, 0.0132181188, 2.60281377E-06, -0.009518064, 0.0332051069, 1.77749932  , 917.4753    , 25.9333267  , 830.0849    , 3.98        , 7           , 255         , 0           , 0
-0.123400234, 0.08063391  , -9.852983   , 9.599561E-05, 0.0131280022, 0.0004935579, -0.009516979, 0.03333642  , 1.777503    , 917.4753    , 25.9333267  , 830.086     , 3.99        , 7           , 255         , 0           , 0
-0.115148723, 0.07301569  , -9.848513   , 0.0004476814, 0.01319003  , 0.000499409856, -0.009512377, 0.033468347 , 1.77750683  , 917.4753    , 25.9333267  , 830.0871    , 4           , 7           , 0           , 9.434237    , 400
-0.119786717, 0.08692965  , -9.85438    , 0.000173861627, 0.0125485258, 0.000131912529, -0.009502138, 0.03330415  , 1.77750731  , 917.4753    , 25.9333267  , 830.041931  , 4.01        , 7           , 1           , 0           , 0
-0.120233752, 0.0925175846, -9.846091   , 8.844538E-06, 0.0134303737, 0.000195695786, -0.009502025, 0.03343846  , 1.777508    , 917.4753    , 25.9333267  , 830.0428    , 4.02        , 7           , 2           , 0           , 0
-0.12097881 , 0.09732321  , -9.848922   , -0.0001403729, 0.0133507894, -0.000199291972, -0.009503536, 0.0335719362, 1.7775048   , 917.4406    , 25.9355659  , 830.04364   , 4.03        , 7           , 3           , 0           , 0
-0.121481717, 0.09559095  , -9.848215   , -0.000117551535, 0.0136275738, 0.000360712875, -0.009504631, 0.03370823  , 1.77750719  , 917.4406    , 25.9355659  , 830.0445    , 4.04        , 7           , 4           , 0           , 0
-0.116340816, 0.09551644  , -9.846855   , 3.166613E-05, 0.0132085951, 0.0003607131, -0.009504232, 0.0338403359, 1.77750945  , 917.4406    , 25.9355659  , 830.045349  , 4.05        , 7           , 5           , 0           , 0
-0.121407211, 0.107549131 , -9.845589   , 0.000121782068, 0.0132021578, 0.000567862066, -0.00950286 , 0.0339723974, 1.777514    , 917.4406    , 25.9355659  , 830.0462    , 4.06        , 7           , 6           , 0           , 0
-0.119488694, 0.111870468 , -9.853822   , -0.00081038964, 0.0129130855, -0.0002812154, -0.0095111  , 0.0341014862, 1.77750993  , 917.4406    , 25.9355659  , 830.047058  , 4.07        , 7           , 7           , 0           , 0
-0.113900758, 0.100471079 , -9.855051   , 0.000106567284, 0.0132753048, -0.000226794858, -0.009510152, 0.0342342071, 1.77750635  , 917.4406    , 25.9355659  , 830.0479    , 4.08        , 7           , 8           , 5           , 5
-0.130180269, 0.09795651  , -9.863805   , 0.000380425481, 0.0131325228, -0.000697854557, -0.009506626, 0.0343654528, 1.77749825  , 917.4406    , 25.9355659  , 830.048767  , 4.09        , 7           , 9           , 5           , 0.1
-0.125281528, 0.0907853246, -9.851157   , 0.00032659038, 0.0130371405, 0.0008317726, -0.009503116, 0.03449589  , 1.7775054   , 917.4406    , 25.9355659  , 830.0496    , 4.1         , 7           , 10          , 0.1         , 0.1
-0.117477037, 0.101551414 , -9.84555149 , 0.000203107949, 0.01297436  , 0.000288139563, -0.009503534, 0.0343423635, 1.77750707  , 917.4406    , 25.9355659  , 830.059     , 4.11        , 7           , 11          , 0.009557288 , 0.009557198
-0.119395554, 0.104252242 , -9.842198   , 0.000151027925, 0.0132780606, 1.36964954E-05, -0.009502062, 0.0344751328, 1.77750587  , 917.4406    , 25.9355659  , 830.059937  , 4.12        , 7           , 12          , 0.03466934  , 0
-0.117104508, 0.105034567 , -9.845924   , 3.867573E-05, 0.0129644107, 0.000404587947, -0.00950157549, 0.0346048027, 1.77750874  , 917.465149  , 25.9327164  , 830.0609    , 4.13        , 7           , 13          , 0           , 0
-0.121314071, 0.102128841 , -9.847823   , -0.00063017034, 0.0130878817, 0.0007328666, -0.009507665, 0.034735743 , 1.77751482  , 917.465149  , 25.9327164  , 830.0619    , 4.14        , 7           , 14          , 0.00354313268, 2.04486314E-05
-0.12923032 , 0.100620091 , -9.856057   , -0.0006003268, 0.0129878195, 4.70508821E-05, -0.009513692, 0.03486561  , 1.7775141   , 917.465149  , 25.9327164  , 830.062866  , 4.15        , 7           , 15          , 0           , 0.00215083733
-0.116787851, 0.1067482   , -9.861328   , -0.000105275307, 0.0133986054, 0.000281117857, -0.00951468851, 0.03499961  , 1.77751553  , 917.465149  , 25.9327164  , 830.063843  , 4.16        , 7           , 16          , 0           , 4.203895E-45
-0.119246542, 0.100824974 , -9.856615   , 0.0003213121, 0.0131698055, -0.000226222328, -0.009511594, 0.0351312719, 1.77751207  , 917.465149  , 25.9327164  , 830.0648    , 4.17        , 7           , 20          , 0           , 0
-0.130143017, 0.104960062 , -9.851102   , 7.261592E-05, 0.0131148   , 0.0005789676, -0.009510708, 0.0352624655, 1.7775166   , 917.465149  , 25.9327164  , 830.0658    , 4.18        , 7           , 21          , 0           , 0
-0.129695982, 0.109188259 , -9.862743   , 0.0006343762, 0.01306272  , 0.0007989905, -0.009504122, 0.0353931524, 1.7775234   , 917.465149  , 25.9327164  , 830.0668    , 4.19        , 7           , 22          , 0           , 0
-0.121723868, 0.10471791  , -9.856745   , -6.60689548E-05, 0.0129573895, 0.000404587947, -0.009504684, 0.0355227552, 1.77752614  , 917.465149  , 25.9327164  , 830.067749  , 4.2         , 7           , 40          , 0           , 0
-0.117309391, 0.09326264  , -9.852759   , 5.1519135E-05, 0.0131666735, 0.0004402697, -0.009510338, 0.0353705846, 1.77752912  , 917.465149  , 25.9327164  , 830.0396    , 4.21        , 7           , 41          , 0           , 0
-0.118631862, 0.09614974  , -9.851474   , -7.66327139E-05, 0.0125692179, 0.000754504465, -0.009510882, 0.0354963467, 1.77753544  , 917.465149  , 25.9327164  , 830.040466  , 4.22        , 7           , 42          , 1           , 0
-0.111181282, 0.101458289 , -9.852368   , 0.000189618673, 0.0127014657, 0.0005965093, -0.009508815, 0.0356234051, 1.77754021  , 917.4429    , 25.9384136  , 830.0413    , 4.23        , 7           , 255         , 0           , 0
-0.115130089, 0.09663403  , -9.853877   , -0.0005523735, 0.0128594609, 0.000229024328, -0.009514297, 0.0357520059, 1.7775414   , 917.4429    , 25.9384136  , 830.0422    , 4.24        , 7           , 255         , 0           , 0
-0.112056732, 0.08542091  , -9.845775   , -5.90775162E-05, 0.0135798007, 0.000722320052, -0.009514674, 0.03588786  , 1.77754736  , 917.4429    , 25.9384136  , 830.043     , 4.25        , 7           , 255         , 0           , 0
-0.117663287, 0.08387491  , -9.84108    , -9.53578856E-05, 0.0129987318, 0.0004490472, -0.009515509, 0.0360178761, 1.77755046  , 917.4429    , 25.9384136  , 830.0439    , 4.26        , 7           , 255         , 0           , 0
-0.118892647, 0.0854767859, -9.849406   , 0.000235846965, 0.01291154  , -0.000122661, -0.009513237, 0.03614697  , 1.77754807  , 917.4429    , 25.9384136  , 830.044739  , 4.27        , 7           , 255         , 0           , 0
-0.1182966  , 0.0932998955, -9.857938   , 0.000679403543, 0.0130233066, -0.0005082863, -0.009506674, 0.0362771451, 1.77754164  , 917.4429    , 25.9384136  , 830.0456    , 4.28        , 7           , 255         , 0           , 0
-0.113770366, 0.0921450555, -9.853952   , 0.000176744768, 0.0130268186, 9.911717E-05, -0.009504916, 0.0364073962, 1.77754128  , 917.4429    , 25.9384136  , 830.046448  , 4.29        , 7           , 255         , 0           , 0
-0.117048621, 0.08933246  , -9.849797   , -0.000150363659, 0.0129086152, -6.6485256E-05, -0.009506485, 0.03653647  , 1.77753925  , 917.4429    , 25.9384136  , 830.0473    , 4.3         , 7           , 255         , 0           , 0
-0.123903155, 0.0855326653, -9.847544   , -0.000817447668, 0.0128796548, -0.000170658808, -0.009513501, 0.0363727   , 1.77753651  , 917.4429    , 25.9384136  , 830.0537    , 4.31        , 7           , 255         , 0           , 0
-0.116527081, 0.09316951  , -9.851549   , -0.000732598361, 0.0128386933, 2.82982364E-05, -0.009520856, 0.0365010723, 1.77753544  , 917.4429    , 25.9384136  , 830.0546    , 4.32        , 7           , 255         , 0           , 0
-0.119544566, 0.09421259  , -9.858087   , 0.000160366762, 0.0127292667, -0.000389511231, -0.009519435, 0.0366283134, 1.77753043  , 917.449951  , 25.9374638  , 830.055542  , 4.33        , 7           , 255         , 0           , 0
-0.124461949, 0.09059906  , -9.852722   , -0.000295478385, 0.0126455873, -0.000592564233, -0.009522651, 0.0367547   , 1.77752328  , 917.449951  , 25.9374638  , 830.056458  , 4.34        , 7           , 255         , 0           , 0
-0.115707517, 0.09223819  , -9.843447   , -0.0002855307, 0.0127152223, 0.000217307359, -0.009525473, 0.03688185  , 1.777524    , 917.449951  , 25.9374638  , 830.0574    , 4.35        , 7           , 255         , 0           , 0
-0.108517706, 0.09754673  , -9.847879   , 0.000184943667, 0.012782516 , 0.000350725139, -0.009523537, 0.0370097   , 1.77752626  , 917.449951  , 25.9374638  , 830.05835   , 4.36        , 7           , 255         , 0           , 0
-0.122841455, 0.09378418  , -9.848997   , -0.00031303335, 0.01263798  , -0.000188798876, -0.009526784, 0.03713605  , 1.77752316  , 917.449951  , 25.9374638  , 830.0593    , 4.37        , 7           , 255         , 0           , 0
-0.126454979, 0.08990988  , -9.855516   , 0.000163877849, 0.0126947416, -5.53808641E-05, -0.009525209, 0.03726298  , 1.77752149  , 917.449951  , 25.9374638  , 830.0603    , 4.38        , 7           , 255         , 0           , 0
-0.118687749, 0.0834465   , -9.855497   , 0.000190210529, 0.0126613872, 0.000125436112, -0.009523302, 0.0373896   , 1.77752161  , 917.449951  , 25.9374638  , 830.0613    , 4.39        , 7           , 255         , 0           , 0
-0.113043927, 0.0907667   , -9.852386   , 6.147381E-05, 0.0126332995, 0.000263535185, -0.009522632, 0.0375159457, 1.77752292  , 917.449951  , 25.9374638  , 830.062256  , 4.4         , 7           , 255         , 0           , 0
-0.112894915, 0.09521842  , -9.847359   , 0.000247564865, 0.0125334747, -0.00017769495, -0.009518594, 0.0373445228, 1.77752006  , 917.449951  , 25.9374638  , 830.0566    , 4.41        , 7           , 255         , 0           , 0
-0.120308258, 0.08782372  , -9.855554   , 0.0001293614, 0.0126464125, -0.000102793565, -0.009517383, 0.0374709554, 1.77751791  , 917.449951  , 25.9374638  , 830.0575    , 4.42        , 7           , 255         , 0           , 0
-0.120438635, 0.08840114  , -9.85777    , 0.00032480713, 0.0126633812, -9.928248E-05, -0.009514216, 0.037597578 , 1.77751577  , 917.460266  , 25.9398384  , 830.0585    , 4.43        , 7           , 255         , 0           , 0
-0.115167357, 0.086613    , -9.84598    , 0.000512646046, 0.01291559  , -0.000101037789, -0.009509173, 0.03772671  , 1.7775135   , 917.460266  , 25.9398384  , 830.059448  , 4.44        , 7           , 255         , 0           , 0
-0.125654042, 0.08635223  , -9.850096   , 0.000166226877, 0.0129676694, 0.000257084379, -0.00950746052, 0.0378563963, 1.77751493  , 917.460266  , 25.9398384  , 830.0604    , 4.45        , 7           , 255         , 0           , 0
-0.123325728, 0.07538125  , -9.851381   , 0.000104199164, 0.0132666891, 0.000110207358, -0.009506427, 0.0379890651, 1.77751458  , 917.460266  , 25.9398384  , 830.0614    , 4.46        , 7           , 255         , 0           , 0
-0.118110321, 0.07849187  , -9.850748   , -9.65134241E-05, 0.0133199384, 0.000192716019, -0.00950737 , 0.03812228  , 1.77751529  , 917.460266  , 25.9398384  , 830.0624    , 4.47        , 7           , 255         , 0           , 0
-0.117607415, 0.08529052  , -9.85063648 , 0.00019138935, 0.0126885436, 0.000173990615, -0.009505435, 0.03824917  , 1.77751577  , 917.460266  , 25.9398384  , 830.063354  , 4.48        , 7           , 255         , 0           , 0
-0.115018345, 0.08992851  , -9.849238   , 2.98831146E-05, 0.0130250147, -0.000390695641, -0.00950533 , 0.0383793674, 1.77751064  , 917.460266  , 25.9398384  , 830.064331  , 4.49        , 7           , 255         , 0           , 0
-0.1273863  , 0.083912164 , -9.849202   , -3.4485478E-05, 0.0129079809, -0.0002736624, -0.009505825, 0.0385084078, 1.77750671  , 917.460266  , 25.9398384  , 830.0653    , 4.5         , 7           , 255         , 0           , 0
-0.123661004, 0.0786595047, -9.848569   , -0.000276133884, 0.0128853209, -6.301678E-05, -0.009503751, 0.0383331776, 1.777505    , 917.460266  , 25.9398384  , 830.0447    , 4.51        , 7           , 255         , 0           , 0
-0.121854246, 0.07180497  , -9.847954   , 0.000196096022, 0.0127402   , -3.02474946E-05, -0.00950184651, 0.03846056  , 1.77750349  , 917.460266  , 25.9398384  , 830.045532  , 4.52        , 7           , 255         , 0           , 0
-0.117588781, 0.0837445259, -9.85532951 , -0.000210595317, 0.0130994925, 8.67862254E-05, -0.009503966, 0.0385915525, 1.77750313  , 917.487     , 25.9406528  , 830.0464    , 4.53        , 7           , 255         , 0           , 0
-0.119134784, 0.09575859  , -9.848661   , 0.0005536326, 0.0134371333, 0.000406287378, -0.009498319, 0.0387259461, 1.77750587  , 917.487     , 25.9406528  , 830.0473    , 4.54        , 7           , 255         , 0           , 0
-0.121202327, 0.09773299  , -9.846594   , 0.0004986273, 0.0139901172, 4.757964E-05, -0.009493368, 0.0388658419, 1.777505    , 917.487     , 25.9406528  , 830.0482    , 4.55        , 7           , 255         , 0           , 0
-0.121109188, 0.09709969  , -9.845327   , 8.900999E-05, 0.0131135369, 0.000178072136, -0.009492454, 0.03899698  , 1.77750552  , 917.487     , 25.9406528  , 830.049133  , 4.56        , 7           , 255         , 0           , 0
-0.124443315, 0.109355904 , -9.846837   , 0.000199607108, 0.0127179632, 0.0006836569, -0.009490234, 0.03912421  , 1.77751136  , 917.487     , 25.9406528  , 830.050049  , 4.57        , 7           , 255         , 0           , 0
-0.115986921, 0.11174009  , -9.855759   , 0.000224768883, 0.0128496252, -5.189865E-05, -0.00948805 , 0.03925269  , 1.77750957  , 917.487     , 25.9406528  , 830.050964  , 4.58        , 7           , 255         , 0           , 0
-0.114962459, 0.120773911 , -9.856894   , -0.00036624982, 0.0127442945, -3.91504727E-06, -0.009491762, 0.039380122 , 1.77750838  , 917.487     , 25.9406528  , 830.0519    , 4.59        , 7           , 255         , 0           , 0
-0.118371107, 0.1212582   , -9.849501   , -0.000317095779, 0.0125178359, -0.000580304535, -0.009495212, 0.03950524  , 1.77750123  , 917.487     , 25.9406528  , 830.0528    , 4.6         , 7           , 255         , 0           , 0
-0.120308258, 0.112596892 , -9.838641   , 0.000184374629, 0.0133067267, -0.000885192538, -0.009497028, 0.03932716  , 1.77749109  , 917.487     , 25.9406528  , 829.9961    , 4.61        , 7           , 255         , 0           , 0
-0.11174009 , 0.128187239 , -9.844749   , 0.00023060292, 0.0133254519, -0.000828431454, -0.009495099, 0.0394603238, 1.77748168  , 917.487     , 25.9406528  , 829.996643  , 4.62        , 7           , 255         , 0           , 0
-0.122338533, 0.1142174   , -9.853803   , 0.000122347148, 0.01261974  , -0.000391311478, -0.00949407648, 0.0395864733, 1.77747655  , 917.4161    , 25.9405174  , 829.997253  , 4.63        , 7           , 255         , 0           , 0
-0.120103359, 0.103488564 , -9.852667   , -3.5648E-05 , 0.0131036732, -0.000119208591, -0.009494528, 0.03971749  , 1.77747416  , 917.4161    , 25.9405174  , 829.997864  , 4.64        , 7           , 255         , 0           , 0
-0.114385031, 0.09778887  , -9.853318   , 0.0003546588, 0.0130984075, 0.0007760972, -0.009490722, 0.03984854  , 1.77748084  , 917.4161    , 25.9405174  , 829.9985    , 4.65        , 7           , 255         , 0           , 0
-0.1127459  , 0.0880472362, -9.852685   , 0.000140486984, 0.0126958117, 0.0001651824, -0.009489299, 0.0399755   , 1.77748132  , 917.4161    , 25.9405174  , 829.9991    , 4.66        , 7           , 255         , 0           , 0
-0.118874013, 0.08646399  , -9.851065   , -8.012052E-05, 0.0125647336, -0.0004966416, -0.009490348, 0.0401010923, 1.777475    , 917.4161    , 25.9405174  , 829.9997    , 4.67        , 7           , 255         , 0           , 0
-0.116731979, 0.08655712  , -9.851343   , 0.000265713083, 0.0121592134, -0.000379023026, -0.00948789 , 0.04022264  , 1.77747011  , 917.4161    , 25.9405174  , 830.0003    , 4.68        , 7           , 255         , 0           , 0
-0.125803068, 0.07882714  , -9.85397    , 0.0005928213, 0.012242307 , 0.000137679745, -0.009481952, 0.0403450578, 1.77747023  , 917.4161    , 25.9405174  , 830.0009    , 4.69        , 7           , 255         , 0           , 0
-0.11626631 , 0.08115545  , -9.849238   , 0.000685862731, 0.0124149313, -1.03674829E-05, -0.00947514549, 0.0404691957, 1.77746892  , 917.4161    , 25.9405174  , 830.0015    , 4.7         , 7           , 255         , 0           , 0
-0.120010234, 0.07772818  , -9.851772   , 0.000128769549, 0.012111838 , -0.0005183092, -0.00947672 , 0.04027581  , 1.7774626   , 917.4161    , 25.9405174  , 830.052734  , 4.71        , 7           , 255         , 0           , 0
-0.115912415, 0.072773546 , -9.850021   , 0.000378636178, 0.0125220409, 0.000314968871, -0.0094728535, 0.0404010452, 1.77746451  , 917.4161    , 25.9405174  , 830.0537    , 4.72        , 7           , 255         , 0           , 0
-0.110305846, 0.073350966 , -9.850413   , 3.631343E-05, 0.0128128687, 0.000460090348, -0.009472357, 0.0405292064, 1.777468    , 917.4809    , 25.9408569  , 830.0547    , 4.73        , 7           , 255         , 0           , 0
-0.11725352 , 0.07033348  , -9.85017    , 0.000196063658, 0.0129819829, 0.0001879877, -0.009470368, 0.0406590328, 1.77746844  , 917.4809    , 25.9408569  , 830.055664  , 4.74        , 7           , 255         , 0           , 0
-0.119898461, 0.07022172  , -9.854846   , 1.700269E-05, 0.0130217737, -0.000388402143, -0.009470405, 0.0407892056, 1.77746344  , 917.4809    , 25.9408569  , 830.056641  , 4.75        , 7           , 255         , 0           , 0
-0.120755292, 0.0699423254, -9.858421   , 0.000112969894, 0.0126355635, -0.000411808724, -0.009469492, 0.04091551  , 1.77745807  , 917.4809    , 25.9408569  , 830.0576    , 4.76        , 7           , 255         , 0           , 0
-0.111758709, 0.07994473  , -9.848904   , -0.000105297426, 0.012946873 , 0.000234800857, -0.009470498, 0.04104499  , 1.77745914  , 917.4809    , 25.9408569  , 830.0586    , 4.77        , 7           , 255         , 0           , 0
-0.129416585, 0.08260831  , -9.85207    , -0.000229937956, 0.0123254247, 0.000102553284, -0.009472802, 0.0411682464, 1.777459    , 917.4809    , 25.9408569  , 830.0596    , 4.78        , 7           , 255         , 0           , 0
-0.125430509, 0.08512288  , -9.850748   , 0.000214789063, 0.0122001991, -0.000174816232, -0.009470771, 0.04129023  , 1.77745628  , 917.4809    , 25.9408569  , 830.060547  , 4.79        , 7           , 255         , 0           , 0
-0.117737792, 0.07819384  , -9.839125   , 0.000216544839, 0.0130364038, -7.458497E-06, -0.009468658, 0.0414205827, 1.777455    , 917.4809    , 25.9408569  , 830.0615    , 4.8         , 7           , 255         , 0           , 0
-0.1305528  , 0.09039417  , -9.837467   , -0.0006359848, 0.0133160781, -0.0009162391, -0.009464886, 0.0412359126, 1.777445    , 917.4809    , 25.9408569  , 830.012451  , 4.81        , 7           , 255         , 0           , 0
-0.132471323, 0.09663403  , -9.844936   , -0.0004692122, 0.0129538588, 0.000388098881, -0.009469466, 0.04136548  , 1.77744758  , 917.4809    , 25.9408569  , 830.0131    , 4.82        , 7           , 255         , 0           , 0
-0.1191534  , 0.09318814  , -9.855051   , 0.000139946816, 0.0124827987, -5.487306E-05, -0.009468138, 0.04149029  , 1.77744579  , 917.520935  , 25.9435024  , 830.013855  , 4.83        , 7           , 255         , 0           , 0
-0.126026571, 0.104364015 , -9.84827    , 2.432149E-06, 0.0126366979, -0.000370278023, -0.009468321, 0.04161661  , 1.777441    , 917.520935  , 25.9435024  , 830.0146    , 4.84        , 7           , 255         , 0           , 0
-0.127963722, 0.1123175   , -9.857696   , 0.000185004668, 0.0125717456, -4.082895E-05, -0.009466534, 0.04174232  , 1.77743948  , 917.520935  , 25.9435024  , 830.0153    , 4.85        , 7           , 255         , 0           , 0
-0.127926469, 0.108256936 , -9.851474   , -0.00019827974, 0.0128824692, 1.35919545E-05, -0.009468561, 0.0418711342, 1.77743828  , 917.520935  , 25.9435024  , 830.016052  , 4.86        , 7           , 255         , 0           , 0
-0.128205866, 0.111442067 , -9.840281   , -4.496565E-05, 0.0128368251, -0.000376714859, -0.009469221, 0.04199946  , 1.77743316  , 917.520935  , 25.9435024  , 830.0168    , 4.87        , 7           , 255         , 0           , 0
-0.124461949, 0.114534043 , -9.831954   , 0.000119465869, 0.0132651683, 0.00018387544, -0.009468002, 0.04213212  , 1.77743387  , 917.520935  , 25.9435024  , 830.0175    , 4.88        , 7           , 255         , 0           , 0
-0.124797225, 0.116564333 , -9.845868   , -0.000234560343, 0.01326868  , 0.000233614584, -0.009470302, 0.0422648229, 1.77743483  , 917.520935  , 25.9435024  , 830.01825   , 4.89        , 7           , 255         , 0           , 0
-0.124592327, 0.117626049 , -9.846334   , -0.0004171324, 0.0130720641, 0.0006432317, -0.009474252, 0.0423955955, 1.77744019  , 917.520935  , 25.9435024  , 830.019     , 4.9         , 7           , 255         , 0           , 0
-0.120718025, 0.102706254 , -9.850096   , -6.783707E-05, 0.0129834544, 0.000350628281, -0.009483462, 0.04217783  , 1.7774421   , 917.520935  , 25.9435024  , 829.919067  , 4.91        , 7           , 255         , 0           , 0
-0.124070786, 0.0981614   , -9.855814   , 5.50479162E-05, 0.0125714969, -0.0004305701, -0.00948314648, 0.0423034951, 1.77743661  , 917.520935  , 25.9435024  , 829.9192    , 4.92        , 7           , 255         , 0           , 0
-0.138673931, 0.105034567 , -9.842981   , -0.000787592959, 0.01254926  , 0.000273386016, -0.009490956, 0.0424290039, 1.77743816  , 917.4866    , 25.943367   , 829.9193    , 4.93        , 7           , 255         , 0           , 0
-0.119451426, 0.09924173  , -9.848402   , -0.000881219748, 0.0125387255, -0.000152030261, -0.009499884, 0.0425543673, 1.77743542  , 917.4866    , 25.943367   , 829.919434  , 4.94        , 7           , 255         , 0           , 0
-0.115055583, 0.1001358   , -9.853617   , -0.0002615275, 0.0131841656, 0.000565969851, -0.00950231 , 0.0426862426, 1.77743971  , 917.4866    , 25.943367   , 829.919556  , 4.95        , 7           , 255         , 0           , 0
-0.133179128, 0.100918114 , -9.858198   , -0.0002603575, 0.0131133609, -0.000243901741, -0.009505071, 0.0428173468, 1.777436    , 917.4866    , 25.943367   , 829.919739  , 4.96        , 7           , 255         , 0           , 0
-0.127777457, 0.101290643 , -9.84007549 , -0.0002047664, 0.0129266921, 0.000214869389, -0.009507074, 0.04294662  , 1.777437    , 917.4866    , 25.943367   , 829.9199    , 4.97        , 7           , 255         , 0           , 0
-0.0996515155, 0.08542091  , -9.840671   , -0.000678751851, 0.01307474  , 0.0006748107, -0.009513624, 0.0430774242, 1.77744246  , 917.4866    , 25.943367   , 829.9201    , 4.98        , 7           , 255         , 0           , 0
-0.108666718, 0.07873401  , -9.868108   , -0.000119917095, 0.0132181058, -0.000490257051, -0.00951509 , 0.04320955  , 1.77743626  , 917.4866    , 25.943367   , 829.9203    , 4.99        , 7           , 255         , 0           , 0
-0.140666962, 0.0879541039, -9.835084   , 0.00035757944, 0.0125761768, 0.000125924125, -0.009511513, 0.04333532  , 1.77743626  , 917.4866    , 25.943367   , 829.9205    , 5           , 7           , 0           , -1          , 500
-0.131782144, 0.0820681453, -9.850952   , 0.000122333178, 0.0129610049, -1.10240653E-05, -0.009511806, 0.0431314372, 1.77743483  , 917.4866    , 25.943367   , 829.8832    , 5.01        , 7           , 1           , 0           , 0
-0.131502748, 0.06839633  , -9.836052   , -0.000169665553, 0.0129908482, -0.000260305125, -0.009513669, 0.0432613157, 1.77743113  , 917.4866    , 25.943367   , 829.8831    , 5.02        , 7           , 2           , 0           , 0
-0.09741634 , 0.07044524  , -9.846687   , -0.0004891665, 0.0133027434, 0.000268101 , -0.0095185  , 0.04339436  , 1.77743244  , 917.4483    , 25.9424858  , 829.883057  , 5.03        , 7           , 3           , 0           , 0
-0.08340925 , 0.07336959  , -9.865575   , 0.0002756468, 0.0134753669, 0.000993123 , -0.009515364, 0.0435291976, 1.77744126  , 917.4483    , 25.9424858  , 829.883     , 5.04        , 7           , 4           , 0           , 0
-0.08024275 , 0.08298084  , -9.841528   , -0.0004727817, 0.0126561327, 0.0008819413, -0.009519761, 0.0436558351, 1.77744877  , 917.4483    , 25.9424858  , 829.883     , 5.05        , 7           , 5           , 0           , 0
-0.112969421, 0.08383766  , -9.858553   , -0.0005277877, 0.0130645791, 0.000176229281, -0.00952502 , 0.04378649  , 1.77744937  , 917.4483    , 25.9424858  , 829.883     , 5.06        , 7           , 6           , 0           , 0
-0.148843974, 0.06917864  , -9.84585    , 0.0002493146, 0.01308272  , 1.5308382E-05, -0.009522574, 0.04391731  , 1.77744818  , 917.4483    , 25.9424858  , 829.883     , 5.07        , 7           , 7           , 0           , 0
-0.166855752, 0.0524148345, -9.835939   , -4.73654363E-05, 0.0123541877, -0.0005803916, -0.009523352, 0.044040788 , 1.77744126  , 917.4483    , 25.9424858  , 829.883     , 5.08        , 7           , 8           , 5           , 5
-0.165123492, 0.07249415  , -9.834971   , -0.000443523517, 0.01236355  , -0.0004756467, -0.009528047, 0.04416437  , 1.77743542  , 917.4483    , 25.9424858  , 829.883     , 5.09        , 7           , 9           , 5           , 0.1
-0.115372241, 0.0867433846, -9.828451   , -0.0005266173, 0.0129820714, 0.0008281057, -0.009533   , 0.044294253 , 1.77744246  , 917.4483    , 25.9424858  , 829.883     , 5.1         , 7           , 10          , 0.1         , 0.1
-0.07195398 , 0.08456409  , -9.87105    , -0.000476800837, 0.0132414447, 0.000577635132, -0.009524709, 0.04406277  , 1.77744758  , 917.4483    , 25.9424858  , 829.9055    , 5.11        , 7           , 11          , 0.009320615 , 0.009320493
-0.06489456 , 0.101719044 , -9.868219   , 0.000171564519, 0.0122566083, 0.000864367 , -0.0095226625, 0.0441854075, 1.777455    , 917.4483    , 25.9424858  , 829.9057    , 5.12        , 7           , 12          , 0.0346852   , 0
-0.08331612 , 0.09039417  , -9.8487     , 0.0006133658, 0.012605953 , 0.00034824945, -0.0095164245, 0.0443114936, 1.77745736  , 917.4632    , 25.9443169  , 829.9059    , 5.13        , 7           , 13          , 0           , 0
-0.141244382, 0.07651746  , -9.839963   , 0.000276894774, 0.01271187  , -0.0002813905, -0.009513835, 0.04443857  , 1.7774533   , 917.4632    , 25.9443169  , 829.906067  , 5.14        , 7           , 14          , 0.003543077 , 3.77546166E-05
-0.183656827, 0.0830180943, -9.844434   , 0.000390416943, 0.0125860572, -0.000266176183, -0.009510102, 0.0445643961, 1.77744949  , 917.4632    , 25.9443169  , 829.90625   , 5.15        , 7           , 15          , 0           , 0.00215099985
-0.17516315 , 0.08923933  , -9.840633   , -5.13843261E-05, 0.0129073141, -0.0003469293, -0.009510827, 0.0446934327, 1.77744472  , 917.4632    , 25.9443169  , 829.906433  , 5.16        , 7           , 16          , 0           , 4.203895E-45
-0.149682164, 0.0949762762, -9.831358   , -0.000413017347, 0.012381834 , -0.000379113364, -0.009515184, 0.0448172055, 1.77743983  , 917.4632    , 25.9443169  , 829.9066    , 5.17        , 7           , 20          , 0           , 0
-0.0970251858, 0.109653927 , -9.844266   , -0.000790450256, 0.0127973035, -0.000331129762, -0.00952329 , 0.0449451357, 1.77743506  , 917.4632    , 25.9443169  , 829.9068    , 5.18        , 7           , 21          , 0           , 0
