Acc X       , Acc Y       , Acc Z       , Gyro X      , Gyro Y      , Gyro Z      , Euler X     , Euler Y     , Euler Z     , Pres X      , Pres Y      , Pres Z      , Time        , Status      , LowRate X   , LowRate Y   , LowRate Z    
-0.113988325, 0.1759676   , -9.784241   , 0           , 0           , 0           , -0.017982861, -0.011647786, 0           , 921.945068  , 32.7757339  , 789.533     , 0           , 2           , 0           , 5.46423149  , 0
-0.112387083, 0.176114827 , -9.793361   , 9.62466E-05 , -0.000481869618, 0.000239318208, -0.0179822  , -0.0116526857, 2.47954563E-06, 921.945068  , 32.7757339  , 789.533     , 0.01        , 3           , 1           , 0           , 0
-0.10913042 , 0.172324151 , -9.792485   , 0.000296143233, -9.184878E-05, -4.694878E-05, -0.0179792363, -0.0116536133, 2.0266375E-06, 921.945068  , 32.7757339  , 789.533     , 0.02        , 3           , 2           , 0           , 0
-0.114731   , 0.170396641 , -9.780045   , -0.0002815313, 0.0005944718, 0.0008484266, -0.0179821458, -0.0116475187, 1.04029959E-05, 921.979     , 32.33958    , 789.533     , 0.03        , 3           , 3           , 0           , 0
-0.120820858, 0.167799741 , -9.7852     , 0.000248016935, 0.000316059333, 0.0009846523, -0.0179797839, -0.01164418 , 2.01915354E-05, 921.979     , 32.33958    , 789.533     , 0.04        , 3           , 4           , 0           , 0
-0.109639481, 0.1674989   , -9.796229   , 0.000208539219, -0.00010630826, 0.000139354364, -0.0179777127, -0.0116452174, 2.16040189E-05, 921.979     , 32.33958    , 789.533     , 0.05        , 3           , 5           , 0           , 0
-0.110074483, 0.17166701  , -9.798541   , 0.000231018843, -0.0001904412, 0.000656340446, -0.0179754812, -0.0116470028, 2.82008859E-05, 921.979     , 32.33958    , 789.533     , 0.06        , 3           , 6           , 0           , 0
-0.108734652, 0.175645754 , -9.789711   , -0.000111501373, 0.000201209128, 0.000195580549, -0.01797662 , -0.0116449557, 3.01202981E-05, 921.979     , 32.33958    , 789.533     , 0.07        , 3           , 7           , 0           , 0
-0.111837551, 0.1805099   , -9.788355   , 0.0004932029, -0.000216080167, 0.00100328715, -0.0179718025, -0.0116469366, 4.01907928E-05, 921.979     , 32.33958    , 789.533     , 0.08        , 3           , 8           , 5           , 5
-0.11646013 , 0.187484354 , -9.792324   , -6.95895869E-06, -0.0002747004, 0.00080703327, -0.0179719664, -0.0116495378, 4.830952E-05, 921.979     , 32.33958    , 789.533     , 0.09        , 3           , 9           , 5           , 0.1
-0.11617513 , 0.194131121 , -9.788669   , 0.00011830969, -0.000284769922, 0.000180890129, -0.0179708041, -0.0116523523, 5.016939E-05, 921.979     , 32.33958    , 789.533     , 0.1         , 3           , 10          , 0.1         , 0.1
-0.1172662  , 0.191524014 , -9.786851   , -0.000282657158, 6.135457E-05, 0.000287596777, -0.01797514 , -0.0116469208, 5.3051157E-05, 921.979     , 32.33958    , 789.2267    , 0.11        , 3           , 11          , 0.0109544508, 0.0109544508
-0.108526409, 0.196219608 , -9.814734   , 0.000191879022, 0.000228544828, -0.0005800551, -0.0179731511, -0.01164474 , 4.721021E-05, 921.979     , 32.33958    , 789.2267    , 0.12        , 3           , 12          , 0.174642488 , 0
-0.111966789, 0.189610913 , -9.793947   , 0.000327842019, 0.000273030018, -0.000208319267, -0.0179698467, -0.0116420463, 4.50782027E-05, 921.948853  , 32.3767548  , 789.2267    , 0.13        , 3           , 13          , 0           , 0
-0.11771737 , 0.18726787  , -9.804696   , 0.0003985205, 0.000303914247, -0.00035008596, -0.0179658215, -0.0116390735, 4.152315E-05, 921.948853  , 32.3767548  , 789.2267    , 0.14        , 3           , 14          , -0.0005153233, -0.000451446569
-0.111222945, 0.1739825   , -9.804052   , 0.00063993677, 5.459867E-05, -0.000136221963, -0.0179594085, -0.011638552, 4.01513E-05 , 921.948853  , 32.3767548  , 789.2267    , 0.15        , 3           , 15          , 0           , -2.33205647E-05
-0.122311734, 0.178466946 , -9.784914   , 0.000176973175, -0.000192870619, 0.000177969938, -0.0179576613, -0.0116404481, 4.1965428E-05, 921.948853  , 32.3767548  , 789.2267    , 0.16        , 3           , 16          , 0           , 1.401298E-45
-0.113841549, 0.16682978  , -9.789307   , -9.70024848E-05, -0.000474216649, -0.000486596255, -0.017958574, -0.0116452761, 3.71851966E-05, 921.948853  , 32.3767548  , 789.2267    , 0.17        , 3           , 20          , 0           , 0
-0.112430811, 0.161983222 , -9.790937   , 0.000445781363, -5.8716163E-05, -0.0003123604, -0.0179540813, -0.0116459187, 3.407251E-05, 921.948853  , 32.3767548  , 789.226746  , 0.18        , 3           , 21          , 0           , 0
-0.115282416, 0.164625645 , -9.793583   , 0.000248679833, -3.12569027E-05, 0.000239505447, -0.0179516226, -0.0116461888, 3.64728876E-05, 921.948853  , 32.3767548  , 789.2268    , 0.19        , 3           , 22          , 0           , 0
-0.107453659, 0.166891679 , -9.80692    , -0.000111170521, -7.101189E-05, 0.0005045578, -0.0179527923, -0.0116468081, 4.15306167E-05, 921.948853  , 32.3767548  , 789.226868  , 0.2         , 3           , 40          , 0           , 0
-0.115501545, 0.165585667 , -9.799357   , 0.000250417565, -0.0002375913, -0.000515486463, -0.0179553553, -0.0116485525, 3.647873E-05, 921.948853  , 32.3767548  , 789.3633    , 0.21        , 3           , 41          , 0           , 0
-0.109106824, 0.17185533  , -9.790536   , 0.00028123532, -0.0001720954, 0.000782201765, -0.017952634, -0.011650132, 4.43307144E-05, 921.948853  , 32.3767548  , 789.363342  , 0.22        , 3           , 42          , 0           , 0
-0.1000635  , 0.17142801  , -9.786713   , -0.00034291076, -7.2561E-05 , 0.000818688946, -0.0179561581, -0.01165071 , 5.25296637E-05, 921.9903    , 32.4057236  , 789.3634    , 0.23        , 3           , 255         , 0           , 0
-0.113946378, 0.172191113 , -9.793199   , -1.30967237E-06, 0.000334014156, -0.000324441266, -0.0179561339, -0.01164743 , 4.922566E-05, 921.9903    , 32.4057236  , 789.363464  , 0.24        , 3           , 255         , 0           , 0
-0.116583273, 0.1812326   , -9.798116   , 0.000587348652, 0.000284976966, 0.000249922334, -0.01795029 , -0.0116445348, 5.167343E-05, 921.9903    , 32.4057236  , 789.3635    , 0.25        , 3           , 255         , 0           , 0
-0.11762996 , 0.1894332   , -9.791499   , 9.349591E-05, -0.0001432815, -0.000317894883, -0.0179493185, -0.0116460249, 4.852057E-05, 921.9903    , 32.4057236  , 789.3636    , 0.26        , 3           , 255         , 0           , 0
-0.113504432, 0.193098187 , -9.791262   , 0.000397782977, -0.00032904002, -0.00030842147, -0.0179453045, -0.0116493711, 4.54957662E-05, 921.9903    , 32.4057236  , 789.363647  , 0.27        , 3           , 255         , 0           , 0
-0.1115218  , 0.185434252 , -9.787602   , 0.0010460089, -0.0002631894, 0.0003942116, -0.01793489 , -0.01165193 , 4.94846281E-05, 921.9903    , 32.4057236  , 789.3637    , 0.28        , 3           , 255         , 0           , 0
-0.11109443 , 0.185134888 , -9.795241   , 0.0005702945, -5.62495261E-05, -0.00030019824, -0.0179291554, -0.011652546, 4.64930963E-05, 921.9903    , 32.4057236  , 789.3638    , 0.29        , 3           , 255         , 0           , 0
-0.107267633, 0.18684724  , -9.803404   , 0.000161073811, 0.000123961334, -7.395258E-06, -0.0179275423, -0.0116513083, 4.639693E-05, 921.9903    , 32.4057236  , 789.363831  , 0.3         , 3           , 255         , 0           , 0
-0.114294812, 0.174504131 , -9.805939   , 0.0005334262, 0.0001948647, 0.0002721632, -0.0179372728, -0.0116408858, 4.925832E-05, 921.9903    , 32.4057236  , 789.2843    , 0.31        , 3           , 255         , 0           , 0
-0.122679487, 0.1679837   , -9.785101   , 0.0006046961, -0.000174829416, -0.000186139179, -0.0179312062, -0.0116426647, 4.74284934E-05, 921.9903    , 32.4057236  , 789.284363  , 0.32        , 3           , 255         , 0           , 0
-0.1089926  , 0.173968717 , -9.796607   , 0.0001561415, -0.000338187878, -0.000430551, -0.0179295968, -0.0116461236, 4.31841254E-05, 921.9366    , 32.4224129  , 789.2844    , 0.33        , 3           , 255         , 0           , 0
-0.11385417 , 0.175185874 , -9.785444   , 0.00046949336, -0.0005173383, 0.000151040382, -0.01792492 , -0.0116512692, 4.47871025E-05, 921.9366    , 32.4224129  , 789.2845    , 0.34        , 3           , 255         , 0           , 0
-0.120777033, 0.176728725 , -9.788489   , 0.00038979965, -0.000633248943, -0.0007443324, -0.0179209355, -0.0116577353, 3.745814E-05, 921.9366    , 32.4224129  , 789.284546  , 0.35        , 3           , 255         , 0           , 0
-0.116924584, 0.174867541 , -9.794413   , 0.0005907028, -8.731717E-05, -0.000362317747, -0.0179149881, -0.0116586722, 3.385103E-05, 921.9366    , 32.4224129  , 789.2846    , 0.36        , 3           , 255         , 0           , 0
-0.117675021, 0.1638014   , -9.791608   , 0.00011013748, -0.0001414305, -0.000704401929, -0.0179138053, -0.0116602117, 2.68331751E-05, 921.9366    , 32.4224129  , 789.284668  , 0.37        , 3           , 255         , 0           , 0
-0.122535847, 0.173838511 , -9.793676   , 0.000495216344, 0.000382571132, -0.001110228, -0.017908724, -0.0116565851, 1.56636688E-05, 921.9366    , 32.4224129  , 789.2847    , 0.38        , 3           , 255         , 0           , 0
-0.1133006  , 0.177231163 , -9.794267   , 0.000258037879, 0.000365164655, -0.000392630958, -0.0179060977, -0.0116530042, 1.16724395E-05, 921.9366    , 32.4224129  , 789.2848    , 0.39        , 3           , 255         , 0           , 0
-0.1121337  , 0.177551657 , -9.795886   , 6.69588044E-05, 0.0006385187, 0.000739157549, -0.0179055128, -0.0116464878, 1.89488146E-05, 921.9366    , 32.4224129  , 789.284851  , 0.4         , 3           , 255         , 0           , 0
-0.116084278, 0.173694447 , -9.793059   , -0.000217769179, 5.92272554E-05, 0.000406398583, -0.0179009382, -0.0116532482, 2.29224825E-05, 921.9366    , 32.4224129  , 789.3675    , 0.41        , 3           , 255         , 0           , 0
-0.113519892, 0.187465623 , -9.790975   , 0.0004145771, 0.000724148646, -0.0011168971, -0.0178966615, -0.0116462084, 1.16251858E-05, 921.9366    , 32.4224129  , 789.367554  , 0.42        , 3           , 255         , 0           , 0
-0.10132543 , 0.192455679 , -9.789769   , 0.0002788941, 0.0005221421, -0.0007075784, -0.01789379 , -0.011641114, 4.456804E-06, 921.9454    , 32.428318   , 789.3676    , 0.43        , 3           , 255         , 0           , 0
-0.100526854, 0.1916395   , -9.7902     , 0.000299354433, 0.000265825016, -0.000329511036, -0.0178907569, -0.0116385147, 1.114534E-06, 921.9454    , 32.428318   , 789.3677    , 0.44        , 3           , 255         , 0           , 0
-0.110274091, 0.200109437 , -9.791645   , -0.000316673948, 6.396521E-05, 7.0967435E-05, -0.0178939328, -0.0116378628, 1.8126658E-06, 921.9454    , 32.428318   , 789.367737  , 0.45        , 3           , 255         , 0           , 0
-0.116107181, 0.197683    , -9.798175   , -0.000142488629, -0.0002311788, 0.000627440342, -0.01789543 , -0.0116400626, 8.127716E-06, 921.9454    , 32.428318   , 789.3678    , 0.46        , 3           , 255         , 0           , 0
-0.109546795, 0.185243636 , -9.793257   , 9.359309E-05, -0.0006970756, 0.000307665643, -0.0178945344, -0.0116469767, 1.13287506E-05, 921.9454    , 32.428318   , 789.367859  , 0.47        , 3           , 255         , 0           , 0
-0.110219978, 0.179725468 , -9.803373   , -6.23440137E-05, 0.000105472951, -0.000124281942, -0.0178951435, -0.0116459448, 1.00672105E-05, 921.9454    , 32.428318   , 789.3679    , 0.48        , 3           , 255         , 0           , 0
-0.111228392, 0.171335354 , -9.791665   , -0.00010648038, 0.000153675908, 8.134724E-05, -0.0178962182, -0.0116443951, 1.08530958E-05, 921.9454    , 32.428318   , 789.368042  , 0.49        , 3           , 255         , 0           , 0
-0.1208473  , 0.173677936 , -9.787362   , 0.000189293409, -8.694423E-05, 0.000196778827, -0.0178943481, -0.0116452295, 1.283622E-05, 921.9454    , 32.428318   , 789.368164  , 0.5         , 3           , 255         , 0           , 0
-0.122440279, 0.169135451 , -9.793425   , 7.855668E-05, 0.000359880331, 0.00015977546, -0.0179272629, -0.0116314627, 1.47611881E-05, 921.9454    , 32.428318   , 789.4018    , 0.51        , 3           , 255         , 0           , 0
-0.114869334, 0.165978819 , -9.791666   , -0.000522772432, -8.71817756E-05, 4.82374962E-05, -0.0179324951, -0.0116323261, 1.52591383E-05, 921.9454    , 32.428318   , 789.4019    , 0.52        , 3           , 255         , 0           , 0
-0.1161988  , 0.167435259 , -9.795359   , -0.0007365275, 0.000182116346, 0.00033211158, -0.0179399  , -0.0116304457, 1.854719E-05, 921.9546    , 32.43829    , 789.402039  , 0.53        , 3           , 255         , 0           , 0
-0.118958868, 0.1575211   , -9.793216   , -0.0008754232, 0.00019787671, -0.0004939925, -0.0179485958, -0.0116285561, 1.3572354E-05, 921.9546    , 32.43829    , 789.402161  , 0.54        , 3           , 255         , 0           , 0
-0.113641337, 0.16256009  , -9.79177    , -0.000285618182, -0.00025203338, -1.481192E-05, -0.0179514512, -0.011631079, 1.34694856E-05, 921.9546    , 32.43829    , 789.4023    , 0.55        , 3           , 255         , 0           , 0
-0.120132945, 0.160291135 , -9.793969   , 0.000201612973, -0.000461172749, -0.000113892907, -0.0179494228, -0.0116357086, 1.24134722E-05, 921.9546    , 32.43829    , 789.4024    , 0.56        , 3           , 255         , 0           , 0
-0.116411708, 0.162744045 , -9.792059   , 0.000146759528, -7.539822E-05, 0.000103726052, -0.0179479662, -0.0116364434, 1.34641405E-05, 921.9546    , 32.43829    , 789.4025    , 0.57        , 3           , 255         , 0           , 0
-0.107579432, 0.1690855   , -9.789728   , 0.0001529264, -0.000226219214, 0.00018968228, -0.01794646 , -0.0116386721, 1.54013433E-05, 921.9546    , 32.43829    , 789.402649  , 0.58        , 3           , 255         , 0           , 0
-0.108475491, 0.172766939 , -9.79064751 , -5.1965937E-05, 0.000108628679, 4.08461274E-05, -0.0179469828, -0.0116375787, 1.57902614E-05, 921.9546    , 32.43829    , 789.4028    , 0.59        , 3           , 255         , 0           , 0
-0.111501232, 0.176588207 , -9.788327   , -6.020209E-05, 0.000579053944, -0.000803196745, -0.0179474875, -0.011631934, 7.655312E-06, 921.9546    , 32.43829    , 789.4029    , 0.6         , 3           , 255         , 0           , 0
-0.108065739, 0.1807005   , -9.788941   , -0.000379047415, 0.0007555435, 0.000162348 , -0.0179182887, -0.0116282823, 8.759157E-06, 921.9546    , 32.43829    , 789.4107    , 0.61        , 3           , 255         , 0           , 0
-0.119000092, 0.179452151 , -9.783527   , -0.0004872536, 9.06365749E-05, 0.0008945179, -0.0179232657, -0.011627214, 1.76870417E-05, 921.9546    , 32.43829    , 789.4108    , 0.62        , 3           , 255         , 0           , 0
-0.11516317 , 0.193729639 , -9.800471   , 4.584901E-05, -0.000198347145, 0.000104325649, -0.01792282 , -0.0116291791, 1.87657333E-05, 921.973145  , 32.44453    , 789.41095   , 0.63        , 3           , 255         , 0           , 0
-0.109495141, 0.1920797   , -9.808794   , 0.000295003556, -5.73036377E-05, -2.64245609E-05, -0.0179198664, -0.0116297565, 1.851177E-05, 921.973145  , 32.44453    , 789.4111    , 0.64        , 3           , 255         , 0           , 0
-0.111071244, 0.1852053   , -9.793364   , 0.000198180671, 0.000177614216, 0.00028247392, -0.0179179143, -0.011627933, 2.13043586E-05, 921.973145  , 32.44453    , 789.4112    , 0.65        , 3           , 255         , 0           , 0
-0.11349944 , 0.1756442   , -9.799788   , 8.39894346E-05, -0.000118433964, 0.000344439031, -0.0179171152, -0.0116290534, 2.47695589E-05, 921.973145  , 32.44453    , 789.4113    , 0.66        , 3           , 255         , 0           , 0
-0.115255415, 0.182731867 , -9.794566   , -0.000116356008, 0.000102197868, -0.0003567048, -0.0179182384, -0.0116280951, 2.11846254E-05, 921.973145  , 32.44453    , 789.411438  , 0.67        , 3           , 255         , 0           , 0
-0.107106134, 0.17621088  , -9.792539   , 0.000102557155, -4.68328944E-05, 0.0005049271, -0.0179172717, -0.0116284732, 2.6241687E-05, 921.973145  , 32.44453    , 789.41156   , 0.68        , 3           , 255         , 0           , 0
-0.111675635, 0.176817149 , -9.791168   , -0.00016519893, -0.000640457438, 0.000381779944, -0.01791897 , -0.011634809, 3.01738E-05 , 921.973145  , 32.44453    , 789.4117    , 0.69        , 3           , 255         , 0           , 0
-0.119358994, 0.1759822   , -9.78645    , 1.60561758E-05, -0.0003934417, 0.000358936843, -0.0179188512, -0.0116386786, 3.38332356E-05, 921.973145  , 32.44453    , 789.4118    , 0.7         , 3           , 255         , 0           , 0
-0.107092   , 0.16839233  , -9.795694   , 0.000136902992, 5.21990878E-05, -0.0002902656, -0.017936144, -0.011635418, 3.11391268E-05, 921.973145  , 32.44453    , 789.391846  , 0.71        , 3           , 255         , 0           , 0
-0.108314715, 0.172403663 , -9.785816   , 0.000172914675, -0.000411143381, -0.000310580625, -0.017934382, -0.0116395839, 2.81074226E-05, 921.973145  , 32.44453    , 789.391968  , 0.72        , 3           , 255         , 0           , 0
-0.11416807 , 0.172449872 , -9.792603   , 0.000196300156, 8.7661E-05  , -0.000949093432, -0.0179323051, -0.0116388779, 1.860188E-05, 921.931641  , 32.44738    , 789.3921    , 0.73        , 3           , 255         , 0           , 0
-0.118526444, 0.171877459 , -9.796271   , 0.00039398807, 0.000144526857, -0.000546965166, -0.0179283023, -0.0116375312, 1.3106961E-05, 921.931641  , 32.44738    , 789.3922    , 0.74        , 3           , 255         , 0           , 0
-0.112302378, 0.173334926 , -9.797176   , 0.00051757216, 0.000258336222, 5.439083E-05, -0.0179231353, -0.0116349375, 1.3604511E-05, 921.931641  , 32.44738    , 789.392334  , 0.75        , 3           , 255         , 0           , 0
-0.1069366  , 0.166974574 , -9.793226   , 0.00022074685, 0.0004302735, 0.0002076927, -0.01792095 , -0.0116305985, 1.56040715E-05, 921.931641  , 32.44738    , 789.392456  , 0.76        , 3           , 255         , 0           , 0
-0.1009452  , 0.17792134  , -9.781327   , -0.000441070471, -0.000182178308, -0.00017562331, -0.01792534 , -0.0116324518, 1.38807018E-05, 921.931641  , 32.44738    , 789.3926    , 0.77        , 3           , 255         , 0           , 0
-0.104842559, 0.177482575 , -9.786466   , -0.000412082, -0.0001969765, -0.000326749549, -0.0179294236, -0.0116344793, 1.06489106E-05, 921.931641  , 32.44738    , 789.3927    , 0.78        , 3           , 255         , 0           , 0
-0.107325114, 0.1852533   , -9.796849   , 0.000740297255, -0.000274763879, 0.000248141616, -0.01792205 , -0.011637181, 1.31792749E-05, 921.931641  , 32.44738    , 789.3928    , 0.79        , 3           , 255         , 0           , 0
-0.11617706 , 0.189076319 , -9.797858   , 0.000575500249, 0.000140378252, 0.000182478558, -0.017916318, -0.0116357431, 1.49786911E-05, 921.931641  , 32.44738    , 789.392944  , 0.8         , 3           , 255         , 0           , 0
-0.118089736, 0.1883483   , -9.797223   , 0.00027185824, -2.5244779E-05, -0.00011186974, -0.0179134831, -0.0116221756, 1.38634778E-05, 921.931641  , 32.44738    , 789.4292    , 0.81        , 3           , 255         , 0           , 0
-0.107845582, 0.1854944   , -9.796809   , 0.000276992068, 3.08881863E-05, 0.0003080379, -0.01791075 , -0.0116218142, 1.69379637E-05, 921.931641  , 32.44738    , 789.4294    , 0.82        , 3           , 255         , 0           , 0
-0.1130504  , 0.177837178 , -9.7907     , 0.0002417232, 0.00013032055, 0.000314011 , -0.0179083683, -0.0116204536, 2.00543673E-05, 921.9896    , 32.4484     , 789.429565  , 0.83        , 3           , 255         , 0           , 0
-0.1139663  , 0.175648227 , -9.793135   , 0.0001756755, -0.000245331728, -0.0005798248, -0.0179065447, -0.01162301 , 1.43007337E-05, 921.9896    , 32.4484     , 789.429749  , 0.84        , 3           , 255         , 0           , 0
-0.116302334, 0.175656885 , -9.798221   , 0.000376467564, -0.000146883132, -0.00103848637, -0.0179026611, -0.011624665, 3.943377E-06, 921.9896    , 32.4484     , 789.429932  , 0.85        , 3           , 255         , 0           , 0
-0.112418853, 0.175382927 , -9.798826   , -0.000181214476, 0.000309180934, -0.0004144433, -0.017904425, -0.0116216475, -2.55919986E-07, 921.9896    , 32.4484     , 789.4301    , 0.86        , 3           , 255         , 0           , 0
-0.113216862, 0.168060377 , -9.799582   , -0.000417124829, 0.0003585085, -0.000113736169, -0.0179085787, -0.0116180824, -1.45735635E-06, 921.9896    , 32.4484     , 789.4303    , 0.87        , 3           , 255         , 0           , 0
-0.117653385, 0.173832268 , -9.788633   , -0.000230927253, 0.000324512745, 0.000604552566, -0.01791096 , -0.01161473 , 4.529357E-06, 921.9896    , 32.4484     , 789.4305    , 0.88        , 3           , 255         , 0           , 0
-0.105845824, 0.1757321   , -9.794104   , -0.000290870841, -0.000204583688, 0.000473614637, -0.0179139227, -0.011616691, 9.301586E-06, 921.9896    , 32.4484     , 789.430664  , 0.89        , 3           , 255         , 0           , 0
-0.112007335, 0.168917626 , -9.79137    , 0.0002463216, 0.000326563342, -0.0003867923, -0.0179114174, -0.0116134938, 5.375622E-06, 921.9896    , 32.4484     , 789.430847  , 0.9         , 3           , 255         , 0           , 0
-0.113923788, 0.173801616 , -9.798825   , -0.000191383762, -0.000124773476, 0.0005918575, -0.01791632 , -0.0116124116, 1.13497754E-05, 921.9896    , 32.4484     , 789.3928    , 0.91        , 3           , 255         , 0           , 0
-0.106131874, 0.163676709 , -9.806651   , -0.000366729859, 0.000405040162, 9.003084E-05, -0.0179199968, -0.0116083464, 1.21773974E-05, 921.9896    , 32.4484     , 789.392944  , 0.92        , 3           , 255         , 0           , 0
-0.110907339, 0.177428246 , -9.781025   , 0.000460870826, 0.0006885545, 0.0002480379, -0.0179154165, -0.0116014164, 1.45341155E-05, 921.9976    , 32.4526024  , 789.393066  , 0.93        , 3           , 255         , 0           , 0
-0.117817521, 0.1887496   , -9.784773   , 0.000133892754, 0.0003237329, 0.000206533558, -0.0179141  , -0.0115981419, 1.65412057E-05, 921.9976    , 32.4526024  , 789.3932    , 0.94        , 3           , 255         , 0           , 0
-0.120090768, 0.189572379 , -9.779342   , -0.0001682018, 0.000197223359, 0.000303389155, -0.0179158151, -0.0115961162, 1.95394023E-05, 921.9976    , 32.4526024  , 789.3933    , 0.95        , 3           , 255         , 0           , 0
-0.112996414, 0.184493154 , -9.782732   , -0.000251360936, 4.8625865E-05, 0.000360751641, -0.01791837 , -0.0115955658, 2.313777E-05, 921.9976    , 32.4526024  , 789.393433  , 0.96        , 3           , 255         , 0           , 0
-0.110018454, 0.182631925 , -9.789006   , -0.0004917703, 0.000172037311, 5.36782572E-05, -0.0179232936, -0.0115938364, 2.36436663E-05, 921.9976    , 32.4526024  , 789.393555  , 0.97        , 3           , 255         , 0           , 0
-0.115594104, 0.173633188 , -9.790274   , 0.000231332233, 0.000178365881, -7.184435E-05, -0.0179209746, -0.0115920659, 2.289334E-05, 921.9976    , 32.4526024  , 789.3937    , 0.98        , 3           , 255         , 0           , 0
-0.120158575, 0.183671489 , -9.79276848 , -0.0002601989, 0.0005164238, -0.000255497638, -0.0179235432, -0.0115869474, 2.0246116E-05, 921.9976    , 32.4526024  , 789.39386   , 0.99        , 3           , 255         , 0           , 0
-0.112831235, 0.1854959   , -9.790944   , -4.82617761E-05, 0.0004229889, 0.000177532915, -0.0179240461, -0.0115826866, 2.19454214E-05, 921.9976    , 32.4526024  , 789.394043  , 1           , 3           , 0           , 6.46423626  , 100
-0.116017357, 0.190702081 , -9.793118   , -6.933161E-05, -6.27262052E-05, -0.000356885983, -0.01794282 , -0.0115851955, 1.85981316E-05, 921.9976    , 32.4526024  , 789.3538    , 1.01        , 3           , 1           , 0           , 0
-0.108912013, 0.174873888 , -9.79393    , 1.68217812E-05, 2.33169412E-05, 6.412716E-05, -0.01794266 , -0.0115849506, 1.923514E-05, 921.9976    , 32.4526024  , 789.3539    , 1.02        , 3           , 2           , 0           , 0
-0.111250833, 0.170632541 , -9.793339   , 0.0003299276, -0.0001463205, 0.0003154528, -0.0179393962, -0.0115863569, 2.24155519E-05, 921.943665  , 32.4553871  , 789.353943  , 1.03        , 3           , 3           , 0           , 0
-0.110182837, 0.174974084 , -9.789151   , 0.0008666884, -5.042157E-05, 0.000362369959, -0.0179307684, -0.0115867956, 2.60478519E-05, 921.943665  , 32.4553871  , 789.354     , 1.04        , 3           , 4           , 0           , 0
-0.112769805, 0.170570925 , -9.791235   , 0.0004195646, 1.30757689E-05, -0.000434662885, -0.0179265235, -0.0115867425, 2.1699374E-05, 921.943665  , 32.4553871  , 789.354065  , 1.05        , 3           , 5           , 0           , 0
-0.115305662, 0.169017226 , -9.787181   , -0.0001227723, -0.000122438476, 9.63735656E-05, -0.0179277621, -0.0115879485, 2.268494E-05, 921.943665  , 32.4553871  , 789.3541    , 1.06        , 3           , 6           , 0           , 0
-0.10244564 , 0.169976443 , -9.795666   , -0.0003969543, 4.602829E-06, -9.64693754E-05, -0.01793172 , -0.0115879206, 2.17195429E-05, 921.943665  , 32.4553871  , 789.3542    , 1.07        , 3           , 7           , 0           , 0
-0.110253774, 0.176473528 , -9.795038   , 0.000258127548, -0.000102301477, 2.56988769E-05, -0.0179291423, -0.0115889395, 2.19948342E-05, 921.943665  , 32.4553871  , 789.354248  , 1.08        , 3           , 8           , 5           , 5
-0.119515434, 0.1772522   , -9.789365   , -0.000208130979, -0.000474608154, 0.000170560132, -0.0179312415, -0.0115936548, 2.37853219E-05, 921.943665  , 32.4553871  , 789.3543    , 1.09        , 3           , 9           , 5           , 0.1
-0.114465177, 0.181797937 , -9.783329   , -0.000401480182, -0.00021793606, 0.000627736736, -0.01793533 , -0.0115957186, 3.01010186E-05, 921.943665  , 32.4553871  , 789.3544    , 1.1         , 3           , 10          , 0.1         , 0.1
-0.121307269, 0.176163226 , -9.785014   , -8.065504E-05, -8.065178E-05, -0.000192921972, -0.01793634 , -0.0115922261, 2.81891171E-05, 921.943665  , 32.4553871  , 789.3767    , 1.11        , 3           , 11          , 0.00926455  , 0.009264551
-0.116327383, 0.179495171 , -9.785113   , -0.000637785357, -2.94897472E-06, 0.000103476727, -0.0179427285, -0.0115922373, 2.92242839E-05, 921.943665  , 32.4553871  , 789.376831  , 1.12        , 3           , 12          , 0.174642846 , 0
-0.11226885 , 0.1828539   , -9.789483   , -0.000644929067, 0.000104362523, -0.000147063925, -0.0179491583, -0.0115912212, 2.77350846E-05, 922.009     , 32.4585075  , 789.376953  , 1.13        , 3           , 13          , 0           , 0
-0.1120203  , 0.181582123 , -9.794429   , -5.99015621E-05, -3.10644973E-05, 0.000132097455, -0.0179497749, -0.0115915081, 2.90614862E-05, 922.009     , 32.4585075  , 789.3771    , 1.14        , 3           , 14          , -0.0005152872, -0.000451468455
-0.112788811, 0.185024336 , -9.796427   , -0.000118465337, -0.0001012875, -0.000288933545, -0.017950926, -0.0115925707, 2.619067E-05, 922.009     , 32.4585075  , 789.377258  , 1.15        , 3           , 15          , 0           , -2.33213814E-05
-0.116884127, 0.185771525 , -9.791193   , 0.000127161184, -0.00011883775, -0.0004549403, -0.0179496016, -0.011593841, 2.166314E-05, 922.009     , 32.4585075  , 789.377441  , 1.16        , 3           , 16          , 0           , 1.401298E-45
-0.116252318, 0.186626971 , -9.791119   , -0.000480849, -0.000151924731, 0.000602695858, -0.017954478, -0.011595252, 2.77166473E-05, 922.009     , 32.4585075  , 789.3776    , 1.17        , 3           , 20          , 0           , 0
-0.11081668 , 0.171574876 , -9.790495   , -0.000352934177, 4.64935438E-05, 0.000138923 , -0.0179580245, -0.0115947621, 2.909736E-05, 922.009     , 32.4585075  , 789.3778    , 1.18        , 3           , 21          , 0           , 0
-0.110011362, 0.168783337 , -9.788533   , 0.000424348284, 0.000150345179, -0.0006055525, -0.01795371 , -0.011593367, 2.3015562E-05, 922.009     , 32.4585075  , 789.378     , 1.19        , 3           , 22          , 0           , 0
-0.119036414, 0.171698138 , -9.799579   , 0.000656175951, -4.27805935E-06, -0.0004489913, -0.0179470945, -0.01159349 , 1.852694E-05, 922.009     , 32.4585075  , 789.3782    , 1.2         , 3           , 40          , 0           , 0
-0.1215454  , 0.169431269 , -9.792293   , 5.76931052E-05, 8.87815841E-05, -9.065074E-06, -0.0179563  , -0.0115964357, 1.85338031E-05, 922.009     , 32.4585075  , 789.330139  , 1.21        , 3           , 41          , 0           , 0
-0.119387791, 0.166889071 , -9.78463    , 0.000168580533, 7.687797E-05, 0.000654278439, -0.0179546885, -0.0115955528, 2.50620087E-05, 922.009     , 32.4585075  , 789.330139  , 1.22        , 3           , 42          , 0           , 0
-0.126760453, 0.169777662 , -9.773884   , 0.000354966382, -5.94563026E-05, 0.0009578876, -0.01795125 , -0.0115959728, 3.4650413E-05, 921.9688    , 32.45518    , 789.330139  , 1.23        , 3           , 255         , 0           , 0
-0.117211059, 0.169936582 , -9.78331    , 0.000300885236, 2.467545E-05, 1.52113353E-05, -0.0179482419, -0.0115957232, 3.47980822E-05, 921.9688    , 32.45518    , 789.330139  , 1.24        , 3           , 255         , 0           , 0
-0.109731592, 0.1723079   , -9.802591   , 0.000333058 , 0.0005583388, 7.825486E-05, -0.0179449189, -0.01159013 , 3.548033E-05, 921.9688    , 32.45518    , 789.330139  , 1.25        , 3           , 255         , 0           , 0
-0.116409816, 0.163021117 , -9.791243   , 0.000114187191, 0.00032913356, 0.0003248493, -0.0179438144, -0.0115867779, 3.866938E-05, 921.9688    , 32.45518    , 789.330139  , 1.26        , 3           , 255         , 0           , 0
-0.104945406, 0.174666792 , -9.790967   , -0.0004058237, 0.000489697733, -1.35086757E-05, -0.01794787 , -0.0115818856, 3.844644E-05, 921.9688    , 32.45518    , 789.330139  , 1.27        , 3           , 255         , 0           , 0
-0.111915484, 0.168976977 , -9.784273   , -8.929172E-06, 0.0002851504, -0.00101195485, -0.0179478414, -0.0115792174, 2.82769124E-05, 921.9688    , 32.45518    , 789.330139  , 1.28        , 3           , 255         , 0           , 0
-0.117260113, 0.175927132 , -9.794614   , 3.71597125E-05, -0.0002649641, 0.000158157884, -0.01794749 , -0.0115818363, 2.99058647E-05, 921.9688    , 32.45518    , 789.330139  , 1.29        , 3           , 255         , 0           , 0
-0.11634703 , 0.186368272 , -9.791881   , -0.000267272, -0.000393503025, 0.000493350264, -0.0179502182, -0.0115856817, 3.490941E-05, 921.9688    , 32.45518    , 789.330139  , 1.3         , 3           , 255         , 0           , 0
-0.11057575 , 0.184542328 , -9.79606152 , 0.0005240581, -0.000169724, -0.0002528035, -0.0179307144, -0.0115969488, 3.22470478E-05, 921.9688    , 32.45518    , 789.3289    , 1.31        , 3           , 255         , 0           , 0
-0.114895009, 0.181889847 , -9.791781   , 0.0003136155, -4.74171829E-05, -8.382497E-05, -0.0179275665, -0.0115974378, 3.14173958E-05, 921.9688    , 32.45518    , 789.3289    , 1.32        , 3           , 255         , 0           , 0
-0.120426372, 0.181153387 , -9.788741   , -0.000908701855, 8.65114853E-05, 0.000264882867, -0.0179366823, -0.0115965279, 3.40504E-05 , 921.9614    , 32.45993    , 789.3289    , 1.33        , 3           , 255         , 0           , 0
-0.1151096  , 0.177274391 , -9.789152   , -0.000520151865, 0.000239474946, -0.000239618748, -0.0179418568, -0.0115941754, 3.16115329E-05, 921.9614    , 32.45993    , 789.3289    , 1.34        , 3           , 255         , 0           , 0
-0.111603938, 0.179864138 , -9.799246   , -5.51489647E-05, 0.000147678016, -0.0005142602, -0.0179423485, -0.0115927914, 2.64430437E-05, 921.9614    , 32.45993    , 789.329     , 1.35        , 3           , 255         , 0           , 0
-0.111520492, 0.175620019 , -9.7963     , -0.000455545669, -0.00035702443, 0.000343674415, -0.01794694 , -0.0115963  , 2.99434432E-05, 921.9614    , 32.45993    , 789.329041  , 1.36        , 3           , 255         , 0           , 0
-0.1120739  , 0.167108566 , -9.788531   , -0.000170609914, -0.000400640478, -0.000543259259, -0.0179485846, -0.0116004013, 2.45833962E-05, 921.9614    , 32.45993    , 789.3291    , 1.37        , 3           , 255         , 0           , 0
-0.107998267, 0.17087996  , -9.785894   , 0.000265758921, -0.000166993414, -0.000226165212, -0.0179459024, -0.0116021121, 2.23519819E-05, 921.9614    , 32.45993    , 789.329163  , 1.38        , 3           , 255         , 0           , 0
-0.100223087, 0.180894732 , -9.789479   , -0.00017340458, -5.53322025E-06, 6.431364E-05, -0.0179476421, -0.0116021559, 2.299604E-05, 921.9614    , 32.45993    , 789.3292    , 1.39        , 3           , 255         , 0           , 0
-0.11301323 , 0.171222553 , -9.791845   , -7.703906E-05, -0.0001771826, -0.000179533832, -0.0179483928, -0.0116039608, 2.12327177E-05, 921.9614    , 32.45993    , 789.3293    , 1.4         , 3           , 255         , 0           , 0
-0.112128712, 0.165114433 , -9.803549   , -2.959877E-05, 0.000424389233, -9.947126E-05, -0.0179524086, -0.0115947332, 2.02052161E-05, 921.9614    , 32.45993    , 789.335754  , 1.41        , 3           , 255         , 0           , 0
-0.113282718, 0.1641511   , -9.796822   , -5.91474236E-05, 0.00111334678, 0.000203855132, -0.01795302 , -0.0115835648, 2.2043645E-05, 921.9614    , 32.45993    , 789.3358    , 1.42        , 3           , 255         , 0           , 0
-0.11387857 , 0.172348022 , -9.788293   , -5.683396E-07, 0.000267995754, -0.0002635921, -0.0179529954, -0.011580932, 1.93599317E-05, 921.962     , 32.4576225  , 789.3359    , 1.43        , 3           , 255         , 0           , 0
-0.119311653, 0.176061243 , -9.797377   , 0.000215650682, -0.000125579769, -0.0002934201, -0.0179508049, -0.01158224 , 1.64486264E-05, 921.962     , 32.4576225  , 789.335938  , 1.44        , 3           , 255         , 0           , 0
-0.116960071, 0.168827385 , -9.794777   , 0.000605317764, 9.061303E-05, 0.000129118009, -0.0179447662, -0.0115813129, 1.77233833E-05, 921.962     , 32.4576225  , 789.336     , 1.45        , 3           , 255         , 0           , 0
-0.105398908, 0.176530764 , -9.793638   , 0.0005065205, -1.16836454E-05, -0.000185901954, -0.01793968 , -0.0115814628, 1.58666753E-05, 921.962     , 32.4576225  , 789.33606   , 1.46        , 3           , 255         , 0           , 0
-0.118424252, 0.1792832   , -9.79124    , 0.0009105123, -4.261633E-05, 4.31804147E-05, -0.0179305766, -0.0115818791, 1.630605E-05, 921.962     , 32.4576225  , 789.3361    , 1.47        , 3           , 255         , 0           , 0
-0.10815613 , 0.170627549 , -9.789649   , 8.495839E-05, 1.7223123E-05, -0.0001631623, -0.01792971 , -0.0115817357, 1.46715356E-05, 921.962     , 32.4576225  , 789.3362    , 1.48        , 3           , 255         , 0           , 0
-0.101693943, 0.17578581  , -9.791345   , -0.000605908746, 0.0005399092, 4.94093256E-05, -0.0179357715, -0.01157633 , 1.5068762E-05, 921.962     , 32.4576225  , 789.336243  , 1.49        , 3           , 255         , 0           , 0
-0.112269714, 0.182517618 , -9.797418   , 0.0003685035, 0.0002006343, 0.0003162693, -0.0179321263, -0.0115742655, 1.81950945E-05, 921.962     , 32.4576225  , 789.3363    , 1.5         , 3           , 255         , 0           , 0
-0.111382462, 0.180983111 , -9.792165   , 0.000499392743, -0.000184365723, -0.000259229215, -0.0179210082, -0.0115731768, 1.55656417E-05, 921.962     , 32.4576225  , 789.341553  , 1.51        , 3           , 255         , 0           , 0
-0.118581153, 0.172492221 , -9.788206   , -0.000157304748, -0.000296221464, 9.920244E-05, -0.0179225933, -0.0115761207, 1.66106256E-05, 921.962     , 32.4576225  , 789.3417    , 1.52        , 3           , 255         , 0           , 0
-0.115400076, 0.1729203   , -9.787098   , 0.000293707126, -3.63035651E-05, -0.0005294291, -0.0179195944, -0.011576579, 1.13234737E-05, 921.999146  , 32.46027    , 789.3418    , 1.53        , 3           , 255         , 0           , 0
-0.112867013, 0.1705745   , -9.792963   , 8.77741E-05 , -8.638855E-05, 0.000230855876, -0.0179187432, -0.0115774013, 1.36472354E-05, 921.999146  , 32.46027    , 789.3419    , 1.54        , 3           , 255         , 0           , 0
-0.116182342, 0.167790145 , -9.796156   , -0.000412679685, -0.000253979524, 0.000363618776, -0.0179229118, -0.0115798758, 1.73284916E-05, 921.999146  , 32.46027    , 789.342041  , 1.55        , 3           , 255         , 0           , 0
-0.11288254 , 0.172337    , -9.791417   , 5.90590062E-05, -5.7987927E-05, 0.0004938405, -0.0179223772, -0.0115803666, 2.22767067E-05, 921.999146  , 32.46027    , 789.342163  , 1.56        , 3           , 255         , 0           , 0
-0.121067464, 0.171997845 , -9.801542   , -0.000237073051, 0.000257321663, -0.000217078268, -0.0179247223, -0.0115778325, 2.006006E-05, 921.999146  , 32.46027    , 789.3423    , 1.57        , 3           , 255         , 0           , 0
-0.11819534 , 0.174967691 , -9.789615   , -0.000204472221, 0.00021041595, 0.00012893333, -0.0179267842, -0.0115757063, 2.13115291E-05, 921.999146  , 32.46027    , 789.3424    , 1.58        , 3           , 255         , 0           , 0
-0.115737274, 0.182472631 , -9.786502   , -0.000314442383, 0.000199141592, 0.0005290045, -0.0179299861, -0.01157362 , 2.65652379E-05, 921.999146  , 32.46027    , 789.3425    , 1.59        , 3           , 255         , 0           , 0
-0.116146043, 0.182971209 , -9.793876   , -0.0003853825, 0.0003857564, -0.000324562483, -0.0179338027, -0.0115698222, 2.32508373E-05, 921.999146  , 32.46027    , 789.342651  , 1.6         , 3           , 255         , 0           , 0
-0.114537537, 0.167579457 , -9.792519   , -2.56923959E-05, 0.000172972126, 0.000463079254, -0.0179326776, -0.0115743605, 2.783342E-05, 921.999146  , 32.46027    , 789.3076    , 1.61        , 3           , 255         , 0           , 0
-0.127260655, 0.18801412  , -9.79263    , 4.2290485E-05, -6.758029E-05, -0.000108136817, -0.0179322436, -0.0115750562, 2.67643063E-05, 921.999146  , 32.46027    , 789.307556  , 1.62        , 3           , 255         , 0           , 0
-0.118033491, 0.1725545   , -9.799765   , 0.000402722 , -4.391448E-06, 9.764407E-05, -0.0179282278, -0.0115750832, 2.77414183E-05, 921.96106   , 32.45932    , 789.3075    , 1.63        , 3           , 255         , 0           , 0
-0.110577628, 0.173469946 , -9.798741   , 1.85518875E-05, 0.00034981934, 0.000113571892, -0.0179280546, -0.0115715638, 2.88142855E-05, 921.96106   , 32.45932    , 789.307434  , 1.64        , 3           , 255         , 0           , 0
-0.110395156, 0.176318452 , -9.792102   , 0.000221589289, 0.000273855636, 4.5359764E-05, -0.0179258417, -0.0115688173, 2.921873E-05, 921.96106   , 32.45932    , 789.3074    , 1.65        , 3           , 255         , 0           , 0
-0.110280015, 0.175349265 , -9.790804   , 0.0006438516, -9.05872148E-05, 0.000231410944, -0.01791943 , -0.0115696806, 3.1548796E-05, 921.96106   , 32.45932    , 789.3073    , 1.66        , 3           , 255         , 0           , 0
-0.1046226  , 0.18755354  , -9.793506   , -0.000149310741, 1.848783E-05, 7.36754155E-05, -0.0179209318, -0.0115694823, 3.22821434E-05, 921.96106   , 32.45932    , 789.307251  , 1.67        , 3           , 255         , 0           , 0
-0.117177211, 0.172742575 , -9.791702   , -1.40384072E-05, 0.000220001 , -0.00026537216, -0.0179210417, -0.01156733 , 2.95893078E-05, 921.96106   , 32.45932    , 789.3072    , 1.68        , 3           , 255         , 0           , 0
-0.126202449, 0.1781871   , -9.794865   , 0.0006345784, 0.000172806438, 0.000335278426, -0.0179147348, -0.0115655437, 3.291072E-05, 921.96106   , 32.45932    , 789.3071    , 1.69        , 3           , 255         , 0           , 0
-0.109458864, 0.1735263   , -9.789788   , 0.00104524463, 6.03144581E-05, -6.93207E-05, -0.0179042742, -0.0115649514, 3.22067972E-05, 921.96106   , 32.45932    , 789.307068  , 1.7         , 3           , 255         , 0           , 0
-0.11059954 , 0.1681056   , -9.793493   , -0.00019174855, -4.461239E-06, 6.94657138E-06, -0.0179083273, -0.0115684383, 3.23017666E-05, 921.96106   , 32.45932    , 789.316833  , 1.71        , 3           , 255         , 0           , 0
-0.113637961, 0.174132869 , -9.788402   , -0.000448855571, -0.000311538926, 0.000678075536, -0.0179128945, -0.0115714315, 3.913751E-05, 921.96106   , 32.45932    , 789.316833  , 1.72        , 3           , 255         , 0           , 0
-0.11541573 , 0.16730386  , -9.794413   , -0.000200964918, -8.647912E-07, 7.89873448E-05, -0.0179149117, -0.0115714269, 3.992744E-05, 921.9709    , 32.4610176  , 789.316833  , 1.73        , 3           , 255         , 0           , 0
-0.112520516, 0.162983686 , -9.78945    , -0.0001700457, 0.0002805363, 5.75082122E-05, -0.0179166179, -0.0115686115, 4.04522E-05 , 921.9709    , 32.4610176  , 789.316833  , 1.74        , 3           , 255         , 0           , 0
-0.117478468, 0.161671624 , -9.795181   , 4.18196723E-05, -6.63602259E-06, 0.00042128624, -0.01791625 , -0.0115686022, 4.46657577E-05, 921.9709    , 32.4610176  , 789.316833  , 1.75        , 3           , 255         , 0           , 0
-0.111249529, 0.170013145 , -9.80798149 , 0.000179566443, 0.000210466824, 0.000369773625, -0.0179144945, -0.0115664322, 4.832535E-05, 921.9709    , 32.4610176  , 789.316833  , 1.76        , 3           , 255         , 0           , 0
-0.103013515, 0.180408418 , -9.798002   , 0.000355600961, 0.000357443234, 0.00035154217, -0.01791098 , -0.0115627944, 5.177633E-05, 921.9709    , 32.4610176  , 789.3169    , 1.77        , 3           , 255         , 0           , 0
-0.116441526, 0.175314128 , -9.79443    , 4.92985127E-05, 3.508854E-05, -0.000334101962, -0.0179104488, -0.0115625029, 4.84294178E-05, 921.9709    , 32.4610176  , 789.316956  , 1.78        , 3           , 255         , 0           , 0
-0.117774382, 0.184078187 , -9.790693   , -0.0002209869, 0.000125183054, -0.000151614237, -0.01791264 , -0.0115612792, 4.68910366E-05, 921.9709    , 32.4610176  , 789.317     , 1.79        , 3           , 255         , 0           , 0
-0.1097705  , 0.183999091 , -9.793741   , 0.000355266966, -9.539473E-05, -0.000110845984, -0.0179090761, -0.0115622552, 4.579979E-05, 921.9709    , 32.4610176  , 789.3171    , 1.8         , 3           , 255         , 0           , 0
-0.112519585, 0.180576086 , -9.793556   , -0.000149231171, 2.11675942E-05, 0.0003366078, -0.0179049168, -0.01156084 , 4.90958955E-05, 921.9709    , 32.4610176  , 789.315063  , 1.81        , 3           , 255         , 0           , 0
-0.119703554, 0.19019942  , -9.803087   , -0.0006156495, -0.000309673836, 0.0004264563, -0.0179111212, -0.01156386 , 5.34154133E-05, 921.9709    , 32.4610176  , 789.315063  , 1.82        , 3           , 255         , 0           , 0
-0.120073184, 0.1830515   , -9.780878   , -3.75243253E-05, -5.18377637E-05, -9.105446E-05, -0.0179114863, -0.0115643945, 5.251425E-05, 921.968933  , 32.46427    , 789.315063  , 1.83        , 3           , 255         , 0           , 0
-0.114947632, 0.174993709 , -9.791703   , -5.45442454E-05, 0.000530086458, -0.000667970162, -0.017911952, -0.0115592135, 4.57403876E-05, 921.968933  , 32.46427    , 789.3151    , 1.84        , 3           , 255         , 0           , 0
-0.111959681, 0.179887176 , -9.79276    , 0.000305992377, 0.000612391566, 0.000286211522, -0.0179089252, -0.0115530388, 4.84924931E-05, 921.968933  , 32.46427    , 789.3152    , 1.85        , 3           , 255         , 0           , 0
-0.111503407, 0.174379021 , -9.789595   , -5.632441E-05, -0.000196039153, 0.00104548538, -0.0179096051, -0.011554813, 5.89811934E-05, 921.968933  , 32.46427    , 789.315247  , 1.86        , 3           , 255         , 0           , 0
-0.119086064, 0.181447625 , -9.795415   , -0.000610206858, 0.000455235975, 0.0001816905, -0.01791573 , -0.0115502281, 6.0716342E-05, 921.968933  , 32.46427    , 789.3153    , 1.87        , 3           , 255         , 0           , 0
-0.109420821, 0.179654583 , -9.795908   , -0.00056502095, -2.897362E-05, 0.000303062057, -0.0179214124, -0.0115504637, 6.375178E-05, 921.968933  , 32.46427    , 789.315369  , 1.88        , 3           , 255         , 0           , 0
-0.12668924 , 0.181274027 , -9.795749   , -0.0004082048, -0.000170711428, 0.000521788665, -0.017925553, -0.0115520759, 6.899964E-05, 921.968933  , 32.46427    , 789.3154    , 1.89        , 3           , 255         , 0           , 0
-0.126209572, 0.164610848 , -9.800096   , 9.177299E-05, 0.0002818707, -0.000443459925, -0.01792458 , -0.0115493368, 6.45150358E-05, 921.968933  , 32.46427    , 789.3155    , 1.9         , 3           , 255         , 0           , 0
-0.1083014  , 0.170396358 , -9.803361   , -0.000160434458, 0.000453581481, 0.0004166013, -0.01793387 , -0.0115532931, 6.868747E-05, 921.968933  , 32.46427    , 789.315735  , 1.91        , 3           , 255         , 0           , 0
-0.107345507, 0.173806652 , -9.807091   , -0.000167447783, -0.000673495, 0.000193195825, -0.0179355666, -0.0115599912, 7.0739974E-05, 921.968933  , 32.46427    , 789.3158    , 1.92        , 3           , 255         , 0           , 0
-0.114021264, 0.169030234 , -9.801492   , 0.000473403634, -7.44308054E-05, 0.0006426962, -0.0179309081, -0.01156062 , 7.717953E-05, 921.9517    , 32.46217    , 789.315857  , 1.93        , 3           , 255         , 0           , 0
-0.114309706, 0.172364175 , -9.804811   , 0.00127561  , -0.000630242634, -0.000369941961, -0.01791811 , -0.0115669882, 7.35934955E-05, 921.9517    , 32.46217    , 789.3159    , 1.94        , 3           , 255         , 0           , 0
-0.128669664, 0.16883713  , -9.786943   , 0.00100581814, -0.0008714177, -0.0002942936, -0.0179080144, -0.011575751, 7.08069638E-05, 921.9517    , 32.46217    , 789.316     , 1.95        , 3           , 255         , 0           , 0
-0.121967338, 0.163323388 , -9.760977   , -0.0005449608, -5.70640841E-05, -0.0005935228, -0.0179133955, -0.0115764281, 6.48826463E-05, 921.9517    , 32.46217    , 789.31604   , 1.96        , 3           , 255         , 0           , 0
-0.118898474, 0.1706216   , -9.774014   , -0.0007570994, 0.000716013252, -0.000261820533, -0.0179209355, -0.0115693174, 6.213647E-05, 921.9517    , 32.46217    , 789.3161    , 1.97        , 3           , 255         , 0           , 0
-0.114655219, 0.184100151 , -9.799675   , -0.00112088281, 0.00069270446, -0.000390853849, -0.0179320984, -0.011562462, 5.8104215E-05, 921.9517    , 32.46217    , 789.316162  , 1.98        , 3           , 255         , 0           , 0
-0.121789336, 0.195737883 , -9.80372    , -0.000398027361, 0.000236655935, 0.000224618023, -0.0179361  , -0.0115600536, 6.03076951E-05, 921.9517    , 32.46217    , 789.3162    , 1.99        , 3           , 255         , 0           , 0
-0.11394807 , 0.1879437   , -9.806209   , 0.000346267247, 0.000206163415, 0.0001125117, -0.0179326516, -0.011557973, 6.13956945E-05, 921.9517    , 32.46217    , 789.3163    , 2           , 3           , 0           , 7.46423626  , 200
-0.107896939, 0.183223739 , -9.795421   , 0.0013564378, 0.0004248142, -0.000229828845, -0.01791936 , -0.0115597518, 5.90249947E-05, 921.9517    , 32.46217    , 789.3373    , 2.01        , 3           , 1           , 0           , 0
-0.1116614  , 0.173646212 , -9.785954   , 0.0005577477, 3.168796E-05, -0.000121510078, -0.0179137662, -0.0115594557, 5.780436E-05, 921.9517    , 32.46217    , 789.337463  , 2.02        , 3           , 2           , 0           , 0
-0.119224705, 0.174943373 , -9.769878   , -0.000784915348, 8.794354E-05, -0.0004801253, -0.0179215614, -0.0115586622, 5.29879253E-05, 921.9744    , 32.46502    , 789.337646  , 2.03        , 3           , 3           , 0           , 0
-0.119143844, 0.18416205  , -9.795763   , -0.000519416237, -3.115437E-05, -0.000469970983, -0.0179266986, -0.011559058, 4.82943469E-05, 921.9744    , 32.46502    , 789.3378    , 2.04        , 3           , 4           , 0           , 0
-0.105746664, 0.180050939 , -9.805893   , 0.0009055928, -0.000319586747, -0.000104602412, -0.0179176312, -0.011562271, 4.73057153E-05, 921.9744    , 32.46502    , 789.338     , 2.05        , 3           , 5           , 0           , 0
-0.11375203 , 0.180600986 , -9.788313   , 0.000426333136, -0.000306889677, 8.800953E-05, -0.0179133788, -0.011565323, 4.82406831E-05, 921.9744    , 32.46502    , 789.3382    , 2.06        , 3           , 6           , 0           , 0
-0.118274376, 0.18841055  , -9.774127   , 0.000422826735, 0.000144858932, -0.000278796273, -0.0179091189, -0.0115639251, 4.54271067E-05, 921.9744    , 32.46502    , 789.3384    , 2.07        , 3           , 7           , 0           , 0
-0.101408742, 0.183995754 , -9.77981    , -3.139046E-05, -0.000296335173, -2.97673378E-05, -0.01790943 , -0.0115668923, 4.51825363E-05, 921.9744    , 32.46502    , 789.338562  , 2.08        , 3           , 8           , 5           , 5
-0.107295118, 0.175063968 , -9.786465   , -0.000745546829, -7.70044E-05, -3.583482E-05, -0.01791688 , -0.01156767 , 4.48380233E-05, 921.9744    , 32.46502    , 789.338745  , 2.09        , 3           , 9           , 5           , 0.1
-0.1119778  , 0.173216358 , -9.793721   , -0.000102430175, -1.11857662E-06, 0.0007388396, -0.0179179888, -0.0115675488, 5.222574E-05, 921.9744    , 32.46502    , 789.3389    , 2.1         , 3           , 10          , 0.1         , 0.1
-0.1196913  , 0.172131181 , -9.793722   , 0.000467831327, 0.000496558438, 0.000196932277, -0.0179279428, -0.0115573267, 5.4274693E-05, 921.9744    , 32.46502    , 789.3298    , 2.11        , 3           , 11          , 0.008160845 , 0.008160845
-0.1091794  , 0.166258425 , -9.798314   , 0.0009237026, 0.000538622553, 0.000289572228, -0.0179187376, -0.01155189 , 5.707351E-05, 921.9744    , 32.46502    , 789.3299    , 2.12        , 3           , 12          , 0.174643889 , 0
-0.115121856, 0.166717738 , -9.780888   , 0.000266675983, 0.000210321668, -0.000231139056, -0.0179160442, -0.0115498286, 5.472472E-05, 921.9801    , 32.46237    , 789.33      , 2.13        , 3           , 13          , 0           , 0
-0.117082849, 0.165311784 , -9.78488    , -0.000261698442, 0.000515682739, 0.000106398824, -0.01791867 , -0.0115446523, 5.569617E-05, 921.9801    , 32.46237    , 789.330139  , 2.14        , 3           , 14          , -0.0005152495, -0.000451421132
-0.115997717, 0.172861308 , -9.803318   , -2.17364868E-05, 0.000246237731, -0.00120053231, -0.0179187488, -0.0115424069, 4.364815E-05, 921.9801    , 32.46237    , 789.3303    , 2.15        , 3           , 15          , 0           , -2.33209721E-05
-0.115461394, 0.1721209   , -9.804547   , 0.0002635445, -5.688239E-05, 0.000337263 , -0.01791615 , -0.0115429126, 4.703056E-05, 921.9801    , 32.46237    , 789.3305    , 2.16        , 3           , 16          , 0           , 1.401298E-45
-0.11668    , 0.173248738 , -9.793506   , 0.0005200487, -3.07075679E-05, -0.000399087323, -0.0179109052, -0.0115432907, 4.30456639E-05, 921.9801    , 32.46237    , 789.3307    , 2.17        , 3           , 20          , 0           , 0
-0.117510855, 0.169325233 , -9.784388   , 0.000204829383, -0.000121639227, -0.000377144839, -0.0179088116, -0.0115445741, 3.92964321E-05, 921.9801    , 32.46237    , 789.3309    , 2.18        , 3           , 21          , 0           , 0
-0.111370109, 0.1685447   , -9.781785   , 0.000734576664, 2.46259733E-05, 0.000161716525, -0.0179014858, -0.0115442993, 4.0909E-05  , 921.9801    , 32.46237    , 789.331055  , 2.19        , 3           , 22          , 0           , 0
-0.110799119, 0.175403357 , -9.790245   , -0.000142479665, 9.239468E-05, -0.000209114412, -0.0179028865, -0.0115434127, 3.88015651E-05, 921.9801    , 32.46237    , 789.331238  , 2.2         , 3           , 40          , 0           , 0
-0.1123808  , 0.19067657  , -9.788295   , -0.000545851944, 0.000103778351, 0.00072594214, -0.0178960226, -0.0115465717, 4.58983159E-05, 921.9801    , 32.46237    , 789.315369  , 2.21        , 3           , 41          , 0           , 0
-0.119868711, 0.1767317   , -9.789495   , 0.000139561511, 0.000634045457, 0.00043280932, -0.017894676, -0.0115401559, 5.011243E-05, 921.9801    , 32.46237    , 789.3154    , 2.22        , 3           , 42          , 0           , 0
-0.11224623 , 0.185802191 , -9.794866   , -4.238391E-05, 0.0004012981, 0.000183364435, -0.0178951211, -0.01153611 , 5.18740635E-05, 921.965149  , 32.4644775  , 789.3155    , 2.23        , 3           , 255         , 0           , 0
-0.101581708, 0.188454658 , -9.796392   , -0.000735462352, 0.000574385049, 0.000143273021, -0.0179024916, -0.0115303434, 5.32038066E-05, 921.965149  , 32.4644775  , 789.315552  , 2.24        , 3           , 255         , 0           , 0
-0.10620892 , 0.183804259 , -9.796724   , -8.770893E-05, 9.249459E-05, -0.000159985619, -0.01790335 , -0.0115294447, 5.15875763E-05, 921.965149  , 32.4644775  , 789.3156    , 2.25        , 3           , 255         , 0           , 0
-0.105359152, 0.193564355 , -9.797171   , -0.000283015484, 1.80918432E-05, -0.000552760961, -0.0179061145, -0.0115293637, 4.60573829E-05, 921.965149  , 32.4644775  , 789.3157    , 2.26        , 3           , 255         , 0           , 0
-0.103375874, 0.174918756 , -9.795152   , -0.00016385183, 8.491936E-05, -8.4952E-05 , -0.0179077424, -0.0115285292, 4.51927481E-05, 921.965149  , 32.4644775  , 789.315735  , 2.27        , 3           , 255         , 0           , 0
-0.118469611, 0.1736923   , -9.81057549 , -4.90737148E-05, -0.000124919781, -1.90720366E-05, -0.0179082323, -0.0115297819, 4.50244152E-05, 921.965149  , 32.4644775  , 789.3158    , 2.28        , 3           , 255         , 0           , 0
-0.125669792, 0.176242128 , -9.797788   , 0.0004078475, -0.00038635786, -0.0002739282, -0.0179041233, -0.0115336934, 4.23546444E-05, 921.965149  , 32.4644775  , 789.315857  , 2.29        , 3           , 255         , 0           , 0
-0.105779625, 0.177207038 , -9.797148   , 0.00106904469, -0.000464148383, 0.000185556972, -0.0178934541, -0.0115383  , 4.429307E-05, 921.965149  , 32.4644775  , 789.3159    , 2.3         , 3           , 255         , 0           , 0
-0.108355105, 0.168711424 , -9.780231   , 0.00103629031, -0.0005150209, -0.000227288459, -0.0178943668, -0.0115403188, 4.224298E-05, 921.965149  , 32.4644775  , 789.3211    , 2.31        , 3           , 255         , 0           , 0
-0.117150068, 0.1662372   , -9.774305   , -8.633552E-05, -0.00044516538, -0.000178563714, -0.0178952087, -0.0115448  , 4.05372E-05 , 921.965149  , 32.4644775  , 789.3212    , 2.32        , 3           , 255         , 0           , 0
-0.116949178, 0.167891577 , -9.782999   , -0.000206372875, -0.00041525095, -3.78659679E-05, -0.0178972669, -0.01154896 , 4.023289E-05, 921.974731  , 32.4638672  , 789.32135   , 2.33        , 3           , 255         , 0           , 0
-0.12068145 , 0.162156835 , -9.797476   , -0.0004825163, -0.0003737259, 0.000139905169, -0.01790211 , -0.01155267 , 4.1698655E-05, 921.974731  , 32.4638672  , 789.3215    , 2.34        , 3           , 255         , 0           , 0
-0.133608148, 0.176384628 , -9.798306   , 3.96968971E-05, 6.955754E-05, 0.000546665338, -0.0179017764, -0.0115518775, 4.71522144E-05, 921.974731  , 32.4638672  , 789.3216    , 2.35        , 3           , 255         , 0           , 0
-0.123594269, 0.169706553 , -9.80901    , -0.000232028542, -0.000235802378, 0.0003060459, -0.01790413 , -0.01155418 , 5.025452E-05, 921.974731  , 32.4638672  , 789.3217    , 2.36        , 3           , 255         , 0           , 0
-0.114644885, 0.180547535 , -9.781047   , 0.0002577284, 0.000230747581, 0.0001852423, -0.0179015752, -0.0115518393, 5.206542E-05, 921.974731  , 32.4638672  , 789.321838  , 2.37        , 3           , 255         , 0           , 0
-0.120684311, 0.1743001   , -9.773946   , -0.000465563557, 2.18134373E-05, -0.0002755716, -0.0179061964, -0.0115516707, 4.930611E-05, 921.974731  , 32.4638672  , 789.32196   , 2.38        , 3           , 255         , 0           , 0
-0.1192096  , 0.179121837 , -9.785627   , -0.000269980519, 0.000145517231, 0.000237874076, -0.01790892 , -0.0115501741, 5.16585023E-05, 921.974731  , 32.4638672  , 789.3221    , 2.39        , 3           , 255         , 0           , 0
-0.11989218 , 0.192691416 , -9.80377    , 7.785193E-05, 0.0003733014, 0.000605421839, -0.01790821 , -0.0115463333, 5.764516E-05, 921.974731  , 32.4638672  , 789.3222    , 2.4         , 3           , 255         , 0           , 0
-0.1107281  , 0.194390416 , -9.803362   , -0.000321693951, 0.000265958253, 0.0007094259, -0.01790731 , -0.0115616415, 6.464238E-05, 921.974731  , 32.4638672  , 789.3143    , 2.41        , 3           , 255         , 0           , 0
-0.1088715  , 0.185515091 , -9.798257   , 0.000190872757, 5.88918047E-05, -5.725558E-05, -0.0179053955, -0.0115610622, 6.405934E-05, 921.974731  , 32.4638672  , 789.314331  , 2.42        , 3           , 255         , 0           , 0
-0.110346772, 0.179764837 , -9.786967   , -0.000238885172, 0.000105081912, 0.000213211912, -0.0179078057, -0.0115599725, 6.617238E-05, 921.9577    , 32.4635925  , 789.3144    , 2.43        , 3           , 255         , 0           , 0
-0.114231206, 0.180520087 , -9.794184   , -0.000472777872, 5.38341119E-05, -0.000341711479, -0.0179124922, -0.0115594957, 6.274603E-05, 921.9577    , 32.4635925  , 789.314453  , 2.44        , 3           , 255         , 0           , 0
-0.121902384, 0.18303518  , -9.791483   , -0.000486791716, -0.000105032086, -0.0005778145, -0.0179172941, -0.01156065 , 5.698738E-05, 921.9577    , 32.4635925  , 789.3145    , 2.45        , 3           , 255         , 0           , 0
-0.118458904, 0.184311181 , -9.804403   , 2.93350022E-05, 0.00024545117, 0.0008946554, -0.0179171059, -0.0115580354, 6.58889039E-05, 921.9577    , 32.4635925  , 789.3146    , 2.46        , 3           , 255         , 0           , 0
-0.11497011 , 0.170296162 , -9.794092   , 0.000234293024, -5.0489587E-05, 0.000375362375, -0.0179148074, -0.0115584731, 6.965112E-05, 921.9577    , 32.4635925  , 789.314636  , 2.47        , 3           , 255         , 0           , 0
-0.127364427, 0.165378809 , -9.785876   , -0.000477526, 5.75927843E-05, -0.00059526437, -0.01791951 , -0.0115580028, 6.368886E-05, 921.9577    , 32.4635925  , 789.3147    , 2.48        , 3           , 255         , 0           , 0
-0.112024844, 0.163897365 , -9.799334   , -0.0005393479, 0.0001019543, -0.000184076125, -0.01792488 , -0.0115570165, 6.183003E-05, 921.9577    , 32.4635925  , 789.3148    , 2.49        , 3           , 255         , 0           , 0
-0.118528545, 0.166955426 , -9.797973   , -0.000401875353, -0.000109114306, 0.000267682626, -0.0179289319, -0.01155806 , 6.45260952E-05, 921.9577    , 32.4635925  , 789.314941  , 2.5         , 3           , 255         , 0           , 0
-0.113047644, 0.159331173 , -9.785255   , -6.723724E-05, 1.43109937E-05, 3.961604E-05, -0.0179328062, -0.011562096, 6.495664E-05, 921.9577    , 32.4635925  , 789.33075   , 2.51        , 3           , 255         , 0           , 0
-0.110658444, 0.1626244   , -9.803241   , -0.000401978032, 0.000419839838, 0.000342469662, -0.017936863, -0.0115578361, 6.830565E-05, 921.9577    , 32.4635925  , 789.330933  , 2.52        , 3           , 255         , 0           , 0
-0.115584396, 0.159561962 , -9.781254   , 1.30084809E-05, -0.000402937934, 0.000340778381, -0.0179367755, -0.0115618035, 7.17852963E-05, 921.9451    , 32.46217    , 789.3311    , 2.53        , 3           , 255         , 0           , 0
-0.116420306, 0.1571241   , -9.788987   , -3.244134E-05, 0.000179475 , 0.0006030468, -0.01793717 , -0.0115599  , 7.778286E-05, 921.9451    , 32.46217    , 789.3313    , 2.54        , 3           , 255         , 0           , 0
-0.115911268, 0.1667777   , -9.791942   , -0.000426304818, 0.0005311806, 0.0004995227, -0.01794149 , -0.011554501, 8.26822143E-05, 921.9451    , 32.46217    , 789.3315    , 2.55        , 3           , 255         , 0           , 0
-0.116247475, 0.175288677 , -9.791123   , 0.0005057955, 0.000208178579, -0.00018045913, -0.01793641 , -0.0115524512, 8.084049E-05, 921.9451    , 32.46217    , 789.331665  , 2.56        , 3           , 255         , 0           , 0
-0.110380813, 0.178886235 , -9.793379   , 3.880702E-05, 0.00024250774, -7.16818067E-06, -0.017936023, -0.0115500279, 8.072533E-05, 921.9451    , 32.46217    , 789.331848  , 2.57        , 3           , 255         , 0           , 0
-0.109983429, 0.18869105  , -9.788826   , 0.000135182 , 0.0009322718, -6.64609252E-05, -0.0179346632, -0.01154072 , 7.989359E-05, 921.9451    , 32.46217    , 789.332031  , 2.58        , 3           , 255         , 0           , 0
-0.101932228, 0.19512248  , -9.794165   , -0.00012517313, -0.00012786896, -0.0003803012, -0.0179358665, -0.0115420651, 7.611395E-05, 921.9451    , 32.46217    , 789.3322    , 2.59        , 3           , 255         , 0           , 0
-0.104311749, 0.1959009   , -9.794139   , 0.0004148383, -0.000254790531, -0.0007229815, -0.01793164 , -0.0115447417, 6.893068E-05, 921.9451    , 32.46217    , 789.3324    , 2.6         , 3           , 255         , 0           , 0
-0.1091405  , 0.188160852 , -9.8013525  , 0.0003313296, 0.0003434812, 4.822044E-05, -0.0179244652, -0.0115374653, 6.930669E-05, 921.9451    , 32.46217    , 789.362854  , 2.61        , 3           , 255         , 0           , 0
-0.112300493, 0.185631037 , -9.801814   , 3.916945E-05, 2.29777652E-05, 0.000319418468, -0.01792411 , -0.0115371766, 7.249638E-05, 921.9451    , 32.46217    , 789.3633    , 2.62        , 3           , 255         , 0           , 0
-0.115053691, 0.183631435 , -9.780462   , 3.685165E-05, -0.000218108762, 0.000281167566, -0.0179237761, -0.0115393074, 7.534683E-05, 921.9671    , 32.4642067  , 789.3637    , 2.63        , 3           , 255         , 0           , 0
-0.120405592, 0.180615261 , -9.780418   , 0.0005569797, -3.19258834E-05, 3.654968E-05, -0.01791821 , -0.0115396194, 7.5718E-05  , 921.9671    , 32.4642067  , 789.364136  , 2.64        , 3           , 255         , 0           , 0
-0.114369892, 0.175385684 , -9.783491   , 8.02095747E-06, 2.40777154E-05, -0.000159560121, -0.0179181118, -0.011539408, 7.41182739E-05, 921.9671    , 32.4642067  , 789.364563  , 2.65        , 3           , 255         , 0           , 0
-0.114974782, 0.173628688 , -9.787878   , -0.000530661258, 0.0002721883, -0.000198005728, -0.0179233942, -0.0115367221, 7.208968E-05, 921.9671    , 32.4642067  , 789.365     , 2.66        , 3           , 255         , 0           , 0
-0.121220872, 0.1679192   , -9.789101   , -0.000267881551, 0.0005680768, -0.000482659321, -0.0179260187, -0.0115311285, 6.716182E-05, 921.9671    , 32.4642067  , 789.3654    , 2.67        , 3           , 255         , 0           , 0
-0.122371912, 0.162748948 , -9.796949   , 0.0003892985, 0.000133668917, 0.000173307752, -0.0179221444, -0.01152976 , 6.887073E-05, 921.9671    , 32.4642067  , 789.365845  , 2.68        , 3           , 255         , 0           , 0
-0.127941191, 0.159595057 , -9.802164   , 0.000182141084, -5.195872E-05, 0.0001827591, -0.0179203469, -0.0115302475, 7.07074141E-05, 921.9671    , 32.4642067  , 789.3663    , 2.69        , 3           , 255         , 0           , 0
-0.119380489, 0.165577    , -9.796951   , -0.000168382947, 0.000182130374, 0.000477882219, -0.0179220829, -0.0115283411, 7.54530338E-05, 921.9671    , 32.4642067  , 789.3667    , 2.7         , 3           , 255         , 0           , 0
-0.112362422, 0.166394576 , -9.785057   , 0.000151960237, 5.49381657E-05, 0.000107920139, -0.0179181658, -0.0115373321, 7.649445E-05, 921.9671    , 32.4642067  , 789.362854  , 2.71        , 3           , 255         , 0           , 0
-0.108584262, 0.1676548   , -9.790415   , 0.000131324865, -4.54701367E-05, 0.000287640316, -0.017916888, -0.0115377363, 7.937865E-05, 921.9671    , 32.4642067  , 789.3633    , 2.72        , 3           , 255         , 0           , 0
-0.112882972, 0.175517231 , -9.783513   , 0.000136125571, 0.000172587635, 0.000608711 , -0.0179155972, -0.0115359006, 8.543411E-05, 921.9778    , 32.46332    , 789.3637    , 2.73        , 3           , 255         , 0           , 0
-0.118845224, 0.179683387 , -9.796051   , 0.000453076063, 0.00030385537, 0.00011481173, -0.0179110784, -0.011532845, 8.65276743E-05, 921.9778    , 32.46332    , 789.364136  , 2.74        , 3           , 255         , 0           , 0
-0.11408253 , 0.183864757 , -9.793619   , 0.0006477806, -0.00010659988, 0.000165805715, -0.01790462 , -0.0115338815, 8.820463E-05, 921.9778    , 32.46332    , 789.364563  , 2.75        , 3           , 255         , 0           , 0
-0.117627621, 0.18313238  , -9.791642   , 0.000493440544, 0.000131485634, 0.000252245372, -0.0178997163, -0.01153252 , 9.070325E-05, 921.9778    , 32.46332    , 789.365     , 2.76        , 3           , 255         , 0           , 0
-0.123638116, 0.177614138 , -9.79528    , -0.000181691081, 0.0001944663, 0.000555203937, -0.0179015938, -0.0115304766, 9.62198246E-05, 921.9778    , 32.46332    , 789.3654    , 2.77        , 3           , 255         , 0           , 0
-0.119303688, 0.19154799  , -9.798998   , 0.00027497983, 0.000111103349, 0.000472066662, -0.0178989023, -0.0115292817, 0.000100920057, 921.9778    , 32.46332    , 789.365845  , 2.78        , 3           , 255         , 0           , 0
-0.11504861 , 0.195754975 , -9.791363   , -4.4121407E-07, -7.151591E-05, -0.0007481462, -0.01789882 , -0.0115301311, 9.34522759E-05, 921.9778    , 32.46332    , 789.3663    , 2.79        , 3           , 255         , 0           , 0
-0.108477116, 0.191683292 , -9.788025   , 0.000156177441, -0.000585791538, 1.60581476E-05, -0.01789726 , -0.0115359854, 9.371768E-05, 921.9778    , 32.46332    , 789.3667    , 2.8         , 3           , 255         , 0           , 0
-0.104753733, 0.185364336 , -9.786765   , -0.000253917067, 0.000260508561, 0.000121412551, -0.0179121438, -0.0115377931, 9.502732E-05, 921.9778    , 32.46332    , 789.3477    , 2.81        , 3           , 255         , 0           , 0
-0.102952376, 0.1808152   , -9.788228   , -0.0001847659, -3.47186578E-05, 0.000238807537, -0.01791402 , -0.0115380976, 9.742132E-05, 921.9778    , 32.46332    , 789.348     , 2.82        , 3           , 255         , 0           , 0
-0.11355678 , 0.179698646 , -9.792199   , -0.000338204729, 0.000288413576, 0.0009366707, -0.01791751 , -0.0115350438, 0.000106735242, 921.9695    , 32.46373    , 789.3483    , 2.83        , 3           , 255         , 0           , 0
-0.120219924, 0.172880933 , -9.796898   , -0.000348271918, 0.00057504914, 2.63130823E-05, -0.017920997, -0.01152929 , 0.000106895306, 921.9695    , 32.46373    , 789.348633  , 2.84        , 3           , 255         , 0           , 0
-0.117575511, 0.1689029   , -9.795592   , -7.89784244E-05, 0.000139783748, -0.000155860063, -0.0179217644, -0.01152792 , 0.000105311832, 921.9695    , 32.46373    , 789.348938  , 2.85        , 3           , 255         , 0           , 0
-0.114418045, 0.166479021 , -9.78195    , 0.000350505084, 0.000290411 , 0.000208023353, -0.0179182831, -0.0115249818, 0.000107339773, 921.9695    , 32.46373    , 789.349243  , 2.86        , 3           , 255         , 0           , 0
-0.119448006, 0.174157843 , -9.785172   , 4.16001421E-05, 2.73617334E-05, 0.000136128627, -0.01791788 , -0.0115246819, 0.000108695982, 921.9695    , 32.46373    , 789.349548  , 2.87        , 3           , 255         , 0           , 0
-0.115787804, 0.169777587 , -9.786584   , -0.000277357467, 0.00011036708, -0.000593687058, -0.0179205872, -0.0115236845, 0.000102740043, 921.9695    , 32.46373    , 789.349854  , 2.88        , 3           , 255         , 0           , 0
-0.112452842, 0.165476725 , -9.799254   , 0.000157336 , 0.000326252164, 0.000456555135, -0.0179190654, -0.01152034 , 0.000107246582, 921.9695    , 32.46373    , 789.350159  , 2.89        , 3           , 255         , 0           , 0
-0.118968427, 0.173097238 , -9.801916   , -0.0004609276, 0.0005047415, -0.000422766869, -0.0179236233, -0.0115153687, 0.000102928949, 921.9695    , 32.46373    , 789.350464  , 2.9         , 3           , 255         , 0           , 0
-0.119437382, 0.182409286 , -9.802027   , -0.00016814773, 0.000412401976, -0.000540280831, -0.0179214831, -0.0115136215, 9.74095747E-05, 921.9695    , 32.46373    , 789.345459  , 2.91        , 3           , 255         , 0           , 0
-0.112389505, 0.179795861 , -9.793707   , 0.00025694276, -4.44989128E-05, 0.0005199823, -0.0179189723, -0.0115139736, 0.000102616759, 921.9695    , 32.46373    , 789.3457    , 2.92        , 3           , 255         , 0           , 0
-0.115230367, 0.180889443 , -9.784741   , -0.000501564, 0.000347234047, -4.221224E-05, -0.0179239847, -0.0115105109, 0.000102132472, 921.9487    , 32.46665    , 789.345947  , 2.93        , 3           , 255         , 0           , 0
-0.112567917, 0.1739364   , -9.791693   , 0.000102464051, 0.000173560285, -0.0003896846, -0.0179229174, -0.0115088448, 9.82049751E-05, 921.9487    , 32.46665    , 789.346252  , 2.94        , 3           , 255         , 0           , 0
-0.119014241, 0.181322366 , -9.788931   , 0.00037906022, -0.000162666518, -0.000448813575, -0.0179190729, -0.0115105519, 9.374653E-05, 921.9487    , 32.46665    , 789.346558  , 2.95        , 3           , 255         , 0           , 0
-0.107130125, 0.1846325   , -9.793264   , 7.40820542E-06, -8.012788E-05, 0.0002871637, -0.0179190319, -0.0115113026, 9.663218E-05, 921.9487    , 32.46665    , 789.346863  , 2.96        , 3           , 255         , 0           , 0
-0.122802436, 0.186515659 , -9.794057   , 0.000236176507, 0.000149070373, 0.0004750672, -0.0179167259, -0.0115097286, 0.000101355588, 921.9487    , 32.46665    , 789.347168  , 2.97        , 3           , 255         , 0           , 0
-0.110030547, 0.178443119 , -9.794626   , -0.000104709761, -0.0003781021, -0.000229439232, -0.0179177448, -0.0115135489, 9.91292E-05 , 921.9487    , 32.46665    , 789.3475    , 2.98        , 3           , 255         , 0           , 0
-0.09926562 , 0.171483114 , -9.794798   , -0.00045175798, -0.000442762655, 0.000218283953, -0.0179222878, -0.0115179354, 0.0001013911, 921.9487    , 32.46665    , 789.3478    , 2.99        , 3           , 255         , 0           , 0
-0.108127534, 0.177807063 , -9.791882   , 0.000159971358, 0.000313203782, 0.000327125919, -0.0179207232, -0.0115147447, 0.000104605853, 921.9487    , 32.46665    , 789.3481    , 3           , 3           , 0           , 8.464236    , 300
-0.114317916, 0.1735098   , -9.792879   , -0.000482061878, 0.000108605163, 0.000440105883, -0.0179331787, -0.0115133282, 0.000109074223, 921.9487    , 32.46665    , 789.3723    , 3.01        , 3           , 1           , 0           , 0
-0.121427104, 0.171912774 , -9.796654   , 0.000191872881, 0.00031215424, -5.00304959E-05, -0.01793125 , -0.0115102157, 0.000108518 , 921.9487    , 32.46665    , 789.372742  , 3.02        , 3           , 2           , 0           , 0
-0.124769531, 0.17537877  , -9.802213   , -1.80688221E-05, -0.000278380932, -0.000533377635, -0.0179313719, -0.0115130944, 0.000103234779, 921.9424    , 32.46332    , 789.373169  , 3.03        , 3           , 3           , 0           , 0
-0.112683378, 0.1708739   , -9.79381752 , -0.000285259332, -0.000479906739, -0.000114544317, -0.0179342125, -0.0115179131, 0.000102175509, 921.9424    , 32.46332    , 789.3736    , 3.04        , 3           , 4           , 0           , 0
-0.111028038, 0.173661619 , -9.792923   , -0.0001546836, -6.329501E-05, 0.00029438312, -0.017935792, -0.0115184924, 0.000105130333, 921.9424    , 32.46332    , 789.374     , 3.05        , 3           , 5           , 0           , 0
-0.11371845 , 0.172691375 , -9.783609   , 0.000238874287, 0.000484285847, 0.000464788318, -0.0179334562, -0.0115135685, 0.000109690816, 921.9424    , 32.46332    , 789.374451  , 3.06        , 3           , 6           , 0           , 0
-0.113084376, 0.171015352 , -9.790583   , -0.000228573044, -0.000326369773, 4.36239934E-05, -0.0179357454, -0.0115168244, 0.000110185538, 921.9424    , 32.46332    , 789.3749    , 3.07        , 3           , 7           , 0           , 0
-0.119963288, 0.168164819 , -9.799174   , -0.000160733587, -4.64512268E-05, -0.0002414131, -0.0179373268, -0.0115173319, 0.000107780033, 921.9424    , 32.46332    , 789.3753    , 3.08        , 3           , 8           , 5           , 5
-0.124213934, 0.1762383   , -9.795357   , -3.10960459E-05, 0.00036966952, -0.000206678, -0.0179376137, -0.0115136728, 0.000105647188, 921.9424    , 32.46332    , 789.375732  , 3.09        , 3           , 9           , 5           , 0.1
-0.118042469, 0.17899622  , -9.787228   , 0.0006300011, -0.000127758773, 0.000124817467, -0.0179313272, -0.0115149282, 0.000106918138, 921.9424    , 32.46332    , 789.37616   , 3.1         , 3           , 10          , 0.1         , 0.1
-0.11014507 , 0.187348247 , -9.786765   , -0.000610637653, 0.0005289007, 0.000293594552, -0.01793329 , -0.01151735 , 0.000109710745, 921.9424    , 32.46332    , 789.4057    , 3.11        , 3           , 11          , 0.007342521 , 0.0073425197
-0.119771346, 0.1832126   , -9.786584   , 0.0001320178, 0.000264977745, 0.000181305979, -0.01793199 , -0.0115146684, 0.000111476074, 921.9424    , 32.46332    , 789.4064    , 3.12        , 3           , 12          , 0.174645633 , 0
-0.116238356, 0.176839024 , -9.794687   , -0.0005452749, 8.36925756E-05, -0.000194626075, -0.01793742 , -0.0115138665, 0.000109515036, 921.9597    , 32.4654922  , 789.407043  , 3.13        , 3           , 13          , 0           , 0
-0.107402667, 0.180985063 , -9.791357   , -6.635423E-05, 0.000202793773, -0.00026064596, -0.0179380532, -0.0115118856, 0.000106872511, 921.9597    , 32.4654922  , 789.4077    , 3.14        , 3           , 14          , -0.000515227264, -0.0004512481
-0.116957232, 0.187848836 , -9.797859   , -0.000654809235, 0.0002317911, -5.5603472E-05, -0.017944593, -0.0115095787, 0.000106274943, 921.9597    , 32.4654922  , 789.4084    , 3.15        , 3           , 15          , 0           , -2.33181272E-05
-0.109276414, 0.184250385 , -9.78932    , -8.583983E-05, 0.0008408902, 6.429611E-05, -0.01794546 , -0.0115011595, 0.000106766936, 921.9597    , 32.4654922  , 789.409058  , 3.16        , 3           , 16          , 0           , 1.401298E-45
-0.112098619, 0.186177462 , -9.78771    , 0.0005958978, -0.000347311056, 5.20677568E-05, -0.017939508, -0.0115046222, 0.000107349872, 921.9597    , 32.4654922  , 789.4097    , 3.17        , 3           , 20          , 0           , 0
-0.114483193, 0.178747624 , -9.791158   , -0.000119774893, -0.000156250055, -9.6319025E-05, -0.0179406926, -0.0115062026, 0.000106414824, 921.9597    , 32.4654922  , 789.4104    , 3.18        , 3           , 21          , 0           , 0
-0.114461862, 0.177017286 , -9.790344   , 0.0001375355, 8.27731E-05 , -0.00046650783, -0.0179392658, -0.0115054585, 0.000101735466, 921.9597    , 32.4654922  , 789.4111    , 3.19        , 3           , 22          , 0           , 0
-0.114202559, 0.1714416   , -9.799219   , -4.950585E-05, -0.00019519034, 5.2313073E-05, -0.0179397687, -0.0115074012, 0.000102293554, 921.9597    , 32.4654922  , 789.411743  , 3.2         , 3           , 40          , 0           , 0
-0.11891152 , 0.169512838 , -9.794547   , 2.11973675E-05, -0.000381071935, 0.000131729568, -0.01795053 , -0.011512679, 0.0001038052, 921.9597    , 32.4654922  , 789.4117    , 3.21        , 3           , 41          , 0           , 0
-0.120799348, 0.17581889  , -9.79768848 , 0.00016100012, 0.000144556165, -0.000205896329, -0.0179488957, -0.0115112709, 0.00010172055, 921.9597    , 32.4654922  , 789.412354  , 3.22        , 3           , 42          , 0           , 0
-0.1107203  , 0.1699369   , -9.789383   , -0.000120614655, 0.0001427313, 0.000825053256, -0.0179501977, -0.011509696, 0.000109944471, 921.9267    , 32.46631    , 789.413     , 3.23        , 3           , 255         , 0           , 0
-0.107231162, 0.174085647 , -9.798377   , -2.76902574E-05, 7.96331442E-05, -6.57833E-05, -0.0179504659, -0.0115089109, 0.00010927242, 921.9267    , 32.46631    , 789.4137    , 3.24        , 3           , 255         , 0           , 0
-0.118900061, 0.173866808 , -9.796676   , -0.000300439715, 0.0003861591, -0.000352180941, -0.0179534275, -0.0115051148, 0.000105681705, 921.9267    , 32.46631    , 789.414368  , 3.25        , 3           , 255         , 0           , 0
-0.11514058 , 0.173160151 , -9.794884   , 0.000144576741, 0.000268362637, 0.000529722136, -0.0179520454, -0.0115023358, 0.000110930123, 921.9267    , 32.46631    , 789.415039  , 3.26        , 3           , 255         , 0           , 0
-0.1189582  , 0.16744253  , -9.791226   , -0.000325179833, 0.000151432789, -0.000432564761, -0.0179552455, -0.0115009  , 0.00010657782, 921.9267    , 32.46631    , 789.4157    , 3.27        , 3           , 255         , 0           , 0
-0.115866385, 0.179758891 , -9.786563   , -0.0001687415, -0.000269947981, -0.0006573508, -0.0179568585, -0.0115037169, 0.000100053578, 921.9267    , 32.46631    , 789.4164    , 3.28        , 3           , 255         , 0           , 0
-0.121543229, 0.184737176 , -9.796293   , 0.0006003204, -0.000123548787, 0.000714543567, -0.0179509372, -0.0115048252, 0.00010722033, 921.9267    , 32.46631    , 789.417053  , 3.29        , 3           , 255         , 0           , 0
-0.109615006, 0.185182542 , -9.790785   , 0.0002555163, -0.000149696018, 0.000191969739, -0.017948404, -0.0115062864, 0.000109166664, 921.9267    , 32.46631    , 789.4177    , 3.3         , 3           , 255         , 0           , 0
-0.105413184, 0.184349462 , -9.790537   , -0.0005094333, 5.77018072E-05, 6.414532E-05, -0.0179527048, -0.0115107251, 0.000109788467, 921.9267    , 32.46631    , 789.46344   , 3.31        , 3           , 255         , 0           , 0
-0.113895036, 0.176115453 , -9.794305   , 0.000310847943, -0.0005059615, 0.000637848047, -0.0179496724, -0.0115156695, 0.000116257004, 921.9267    , 32.46631    , 789.4644    , 3.32        , 3           , 255         , 0           , 0
-0.111405514, 0.172423884 , -9.787928   , -0.000170666317, -0.000362746854, 0.000427092949, -0.017951427, -0.01151922 , 0.000120592536, 921.9554    , 32.46624    , 789.4654    , 3.33        , 3           , 255         , 0           , 0
-0.114717521, 0.175784215 , -9.796236   , -0.000373430725, 0.000168584869, -0.000236911059, -0.0179551356, -0.0115175759, 0.000118193442, 921.9554    , 32.46624    , 789.4664    , 3.34        , 3           , 255         , 0           , 0
-0.117127582, 0.179994315 , -9.79293251 , -2.79587111E-05, -4.69390943E-05, -0.0002011549, -0.0179553926, -0.0115180817, 0.000116190553, 921.9554    , 32.46624    , 789.467346  , 3.35        , 3           , 255         , 0           , 0
-0.113665976, 0.179176286 , -9.791346   , 0.000214901287, -9.68959939E-05, -0.00054051925, -0.01795318 , -0.011519148, 0.0001108034, 921.9554    , 32.46624    , 789.4683    , 3.36        , 3           , 255         , 0           , 0
-0.101852082, 0.17096284  , -9.796      , 0.000122085621, 0.000166952872, -3.25012443E-05, -0.017951956, -0.0115174837, 0.000110448455, 921.9554    , 32.46624    , 789.4693    , 3.37        , 3           , 255         , 0           , 0
-0.113830328, 0.1712769   , -9.791529   , 0.000565635331, -4.256636E-05, 0.000947710534, -0.0179464072, -0.0115177389, 0.000119932069, 921.9554    , 32.46624    , 789.4703    , 3.38        , 3           , 255         , 0           , 0
-0.116967656, 0.1795946   , -9.788456   , -8.479692E-07, -8.83834145E-05, 0.000298292027, -0.0179464519, -0.0115185678, 0.000122930491, 921.9554    , 32.46624    , 789.471252  , 3.39        , 3           , 255         , 0           , 0
-0.121458128, 0.170792609 , -9.794353   , -0.000252215948, 0.000218317044, 0.0005769666, -0.0179490373, -0.0115162814, 0.000128660278, 921.9554    , 32.46624    , 789.4722    , 3.4         , 3           , 255         , 0           , 0
-0.119858943, 0.1677649   , -9.794622   , 0.000408813619, -5.054695E-06, -0.0002308826, -0.017945284, -0.0115167666, 0.000126356768, 921.9554    , 32.46624    , 789.4693    , 3.41        , 3           , 255         , 0           , 0
-0.117870033, 0.182909846 , -9.791996   , 0.000328937953, -0.000341344, -0.000542594353, -0.0179419331, -0.0115202777, 0.000120992721, 921.9554    , 32.46624    , 789.4703    , 3.42        , 3           , 255         , 0           , 0
-0.114007734, 0.172307372 , -9.795446   , -0.000237528817, -0.000212706887, -0.000212180908, -0.0179442819, -0.0115224412, 0.000118909324, 921.965332  , 32.4654274  , 789.471252  , 3.43        , 3           , 255         , 0           , 0
-0.115749322, 0.169328    , -9.793664   , 0.0001623217, -0.00019213403, 0.000483662938, -0.0179427154, -0.0115242759, 0.000123779842, 921.965332  , 32.4654274  , 789.4722    , 3.44        , 3           , 255         , 0           , 0
-0.108036354, 0.177288413 , -9.792682   , -8.912466E-06, -0.000344904285, 0.0005417047, -0.0179428682, -0.0115276268, 0.000129258129, 921.965332  , 32.4654274  , 789.4732    , 3.45        , 3           , 255         , 0           , 0
-0.10612829 , 0.180640221 , -9.794724   , 0.000350144372, -9.16897843E-05, -0.0002291295, -0.0179393422, -0.0115285842, 0.000126983563, 921.965332  , 32.4654274  , 789.4742    , 3.46        , 3           , 255         , 0           , 0
-0.114811957, 0.184778422 , -9.795288   , -0.000351091672, 0.000439841184, -0.000403029815, -0.0179428048, -0.0115242582, 0.000122874844, 921.965332  , 32.4654274  , 789.475159  , 3.47        , 3           , 255         , 0           , 0
-0.108599305, 0.187288791 , -9.793107   , 1.786399E-05, -0.000249672827, -0.000468394835, -0.0179425739, -0.0115268389, 0.000118236254, 921.965332  , 32.4654274  , 789.476135  , 3.48        , 3           , 255         , 0           , 0
-0.113118254, 0.175378889 , -9.788492   , 0.000468138867, 0.0004611591, 0.000576950144, -0.01793796 , -0.0115221245, 0.000123922349, 921.965332  , 32.4654274  , 789.4771    , 3.49        , 3           , 255         , 0           , 0
-0.119766153, 0.17278187  , -9.793814   , 0.000160088122, 0.00043843023, -4.052741E-05, -0.0179363526, -0.01151775 , 0.0001234385, 921.965332  , 32.4654274  , 789.4781    , 3.5         , 3           , 255         , 0           , 0
-0.115526579, 0.1824623   , -9.799045   , -0.0003449195, 0.000504986849, 0.000203687378, -0.0179419443, -0.0115141068, 0.000125408929, 921.965332  , 32.4654274  , 789.4604    , 3.51        , 3           , 255         , 0           , 0
-0.112132192, 0.1812479   , -9.794633   , 0.0005044023, 0.0001015263, 0.00068378984, -0.01793698 , -0.0115129687, 0.0001322278, 921.965332  , 32.4654274  , 789.461243  , 3.52        , 3           , 255         , 0           , 0
-0.10403011 , 0.178677157 , -9.788453   , -0.000177598151, -0.000393433467, 0.000237930333, -0.0179387815, -0.01151686 , 0.000134677364, 922.006042  , 32.4673271  , 789.4621    , 3.53        , 3           , 255         , 0           , 0
-0.116575457, 0.1766019   , -9.788221   , -0.000166938407, 3.846953E-05, -0.000103726306, -0.0179404411, -0.0115164937, 0.000133633337, 922.006042  , 32.4673271  , 789.462952  , 3.54        , 3           , 255         , 0           , 0
-0.120368376, 0.170780987 , -9.797161   , -0.000358427, 0.000394678616, 0.000413842645, -0.01794407 , -0.0115124742, 0.000137700452, 922.006042  , 32.4673271  , 789.4638    , 3.55        , 3           , 255         , 0           , 0
-0.115087971, 0.174744844 , -9.788359   , 0.000216988468, 0.000272588863, 0.000609285664, -0.01794197 , -0.0115096392, 0.000143743688, 922.006042  , 32.4673271  , 789.464661  , 3.56        , 3           , 255         , 0           , 0
-0.124157034, 0.1695907   , -9.780989   , -1.78334885E-05, 6.321541E-05, 0.0008213633, -0.0179422423, -0.01150886 , 0.000151944987, 922.006042  , 32.4673271  , 789.4655    , 3.57        , 3           , 255         , 0           , 0
-0.111139558, 0.176055834 , -9.800035   , 0.000196214358, 0.0003391948, 0.00100287842, -0.0179403964, -0.01150529 , 0.0001619117, 922.006042  , 32.4673271  , 789.4664    , 3.58        , 3           , 255         , 0           , 0
-0.104746185, 0.170137823 , -9.793876   , -0.0001805604, 0.00053411437, 0.000890428 , -0.0179423019, -0.0114997877, 0.000170719111, 922.006042  , 32.4673271  , 789.4672    , 3.59        , 3           , 255         , 0           , 0
-0.111882366, 0.178860188 , -9.799266   , 0.0002013531, 0.00017992119, 0.000442921824, -0.01794034 , -0.01149791 , 0.000175115521, 922.006042  , 32.4673271  , 789.4681    , 3.6         , 3           , 255         , 0           , 0
-0.115438595, 0.183509752 , -9.793338   , -0.000340612663, 0.000299961015, 5.591044E-06, -0.0179440454, -0.0114961974, 0.000175121066, 922.006042  , 32.4673271  , 789.3936    , 3.61        , 3           , 255         , 0           , 0
-0.111579418, 0.169846728 , -9.791054   , -0.000164070691, -0.000288695242, -0.000198853275, -0.0179456659, -0.01149912 , 0.000173184584, 922.006042  , 32.4673271  , 789.394     , 3.62        , 3           , 255         , 0           , 0
-0.10625796 , 0.174176276 , -9.788141   , -0.000259964028, 0.000166100712, -0.000409787637, -0.0179482177, -0.011497532, 0.000169057414, 921.984131  , 32.4670525  , 789.3944    , 3.63        , 3           , 255         , 0           , 0
-0.114676833, 0.1677756   , -9.78867149 , -0.000244030321, 0.000198620342, -0.000605367, -0.017950587, -0.0114956554, 0.00016296879, 921.984131  , 32.4670525  , 789.394836  , 3.64        , 3           , 255         , 0           , 0
-0.118385568, 0.176792145 , -9.79105949 , -0.000413269619, 0.000361144543, 0.000314325938, -0.0179547537, -0.0114919879, 0.000166046841, 921.984131  , 32.4670525  , 789.395264  , 3.65        , 3           , 255         , 0           , 0
-0.111799061, 0.175452322 , -9.796225   , -0.000248575816, 3.01908585E-06, 0.000584991067, -0.0179573074, -0.0114918528, 0.0001718955, 921.984131  , 32.4670525  , 789.3957    , 3.66        , 3           , 255         , 0           , 0
-0.11614114 , 0.185066611 , -9.791531   , 0.0006777461, 8.87776841E-05, -0.0006743976, -0.017950451, -0.0114910854, 0.000165136385, 921.984131  , 32.4670525  , 789.3961    , 3.67        , 3           , 255         , 0           , 0
-0.113916494, 0.179762274 , -9.787311   , 0.000307397975, -0.000270188175, -0.0006818854, -0.0179473  , -0.0114939092, 0.000158366835, 921.984131  , 32.4670525  , 789.396545  , 3.68        , 3           , 255         , 0           , 0
-0.1154329  , 0.175685033 , -9.784863   , -0.000225622673, 0.000198186957, -5.551737E-05, -0.01794955 , -0.0114919385, 0.000157776172, 921.984131  , 32.4670525  , 789.397     , 3.69        , 3           , 255         , 0           , 0
-0.112250604, 0.182092413 , -9.789744   , -0.0004028905, 0.000274695165, -0.00048215795, -0.01795352 , -0.0114892768, 0.00015290585, 921.984131  , 32.4670525  , 789.3974    , 3.7         , 3           , 255         , 0           , 0
-0.115068689, 0.1815633   , -9.786896   , -0.000467717764, 0.000133505557, -0.00013142862, -0.0179606266, -0.0114900311, 0.000151595814, 921.984131  , 32.4670525  , 789.3643    , 3.71        , 3           , 255         , 0           , 0
-0.120115854, 0.17694059  , -9.791686   , -8.80651642E-05, 0.000207805162, 0.000950970338, -0.0179616176, -0.011487782, 0.000161067059, 921.984131  , 32.4670525  , 789.3645    , 3.72        , 3           , 255         , 0           , 0
-0.117494844, 0.1832417   , -9.790546   , -0.000328112626, -0.000141767261, -1.35099544E-05, -0.017964894, -0.0114892  , 0.000160957425, 921.9166    , 32.46624    , 789.3647    , 3.73        , 3           , 255         , 0           , 0
-0.107444726, 0.179205492 , -9.793646   , -0.000466436963, -0.000136798248, -0.000145697268, -0.0179695431, -0.0114905955, 0.0001595252, 921.9166    , 32.46624    , 789.364868  , 3.74        , 3           , 255         , 0           , 0
-0.112957   , 0.183894128 , -9.78946    , -0.000565601629, -0.000375637843, -0.0006359163, -0.0179751255, -0.0114944633, 0.000153234287, 921.9166    , 32.46624    , 789.365051  , 3.75        , 3           , 255         , 0           , 0
-0.119029894, 0.173293039 , -9.789133   , 9.744332E-05, -0.00017279404, -0.000317339553, -0.017974114, -0.0114962487, 0.000150092339, 921.9166    , 32.46624    , 789.365234  , 3.76        , 3           , 255         , 0           , 0
-0.123413824, 0.180028766 , -9.794367   , 0.000302026834, -0.0003348356, 0.0004470897, -0.017971145, -0.0114995157, 0.000154622889, 921.9166    , 32.46624    , 789.3654    , 3.77        , 3           , 255         , 0           , 0
-0.128595322, 0.175149411 , -9.800903   , 5.70663833E-05, 2.77152285E-05, 0.0004827807, -0.01797063 , -0.0114991525, 0.000159445146, 921.9166    , 32.46624    , 789.3656    , 3.78        , 3           , 255         , 0           , 0
-0.111688912, 0.168838948 , -9.79793    , 0.0002932541, 0.00035888172, -9.578261E-05, -0.0179676879, -0.0114955809, 0.000158422932, 921.9166    , 32.46624    , 789.3658    , 3.79        , 3           , 255         , 0           , 0
-0.1066672  , 0.178709835 , -9.78748    , -0.00015008566, 0.000144300982, -0.000144653022, -0.0179691762, -0.0114941644, 0.000156950671, 921.9166    , 32.46624    , 789.366     , 3.8         , 3           , 255         , 0           , 0
-0.116633378, 0.174559861 , -9.789452   , 0.000153149653, 0.000501639151, 3.68274668E-05, -0.0179711059, -0.0114952875, 0.000157268529, 921.9166    , 32.46624    , 789.433     , 3.81        , 3           , 255         , 0           , 0
-0.121280685, 0.178792238 , -9.788856   , -0.00020735251, 0.000137065945, 0.000207929945, -0.0179732032, -0.0114938794, 0.000159322939, 921.9166    , 32.46624    , 789.4336    , 3.82        , 3           , 255         , 0           , 0
-0.115674153, 0.1753846   , -9.792277   , -0.000132437446, 0.000147816172, -0.000121832119, -0.0179745127, -0.0114924246, 0.000158078183, 921.986     , 32.4659     , 789.4342    , 3.83        , 3           , 255         , 0           , 0
-0.113877341, 0.183678523 , -9.79336    , -0.00030793593, 1.7505954E-05, 0.000113666261, -0.0179776028, -0.0114922291, 0.000159211573, 921.986     , 32.4659     , 789.4348    , 3.84        , 3           , 255         , 0           , 0
-0.116726533, 0.1769171   , -9.796656   , -0.000188287173, -1.08559907E-05, -0.000181625976, -0.0179794673, -0.0114923706, 0.000157397473, 921.986     , 32.4659     , 789.4354    , 3.85        , 3           , 255         , 0           , 0
-0.120296106, 0.1738512   , -9.789946   , -0.000110955094, 0.000218238449, 2.986796E-05, -0.0179805811, -0.011490182, 0.00015765689, 921.986     , 32.4659     , 789.436035  , 3.86        , 3           , 255         , 0           , 0
-0.115661934, 0.172995791 , -9.787748   , -0.000475178065, 0.000145236292, -0.000519073044, -0.01798527 , -0.0114888242, 0.000152440654, 921.986     , 32.4659     , 789.4367    , 3.87        , 3           , 255         , 0           , 0
-0.120802544, 0.177384987 , -9.791182   , -0.000156706723, -1.6775477E-05, -0.000702256162, -0.0179867558, -0.0114891184, 0.000145421945, 921.986     , 32.4659     , 789.4374    , 3.88        , 3           , 255         , 0           , 0
-0.117601834, 0.1712321   , -9.79832    , -0.000240202877, -1.94720342E-05, 0.0004221692, -0.0179892052, -0.0114892367, 0.000149646643, 921.986     , 32.4659     , 789.438049  , 3.89        , 3           , 255         , 0           , 0
-0.117433272, 0.167554781 , -9.790914   , -7.583754E-05, -0.000345918961, -0.000133995432, -0.0179899484, -0.0114927189, 0.000148369058, 921.986     , 32.4659     , 789.4387    , 3.9         , 3           , 255         , 0           , 0
-0.112889186, 0.175166965 , -9.793622   , 0.000255018036, -9.628362E-05, -0.000447455677, -0.0179859474, -0.0115022724, 0.00014389625, 921.986     , 32.4659     , 789.3968    , 3.91        , 3           , 255         , 0           , 0
-0.117368996, 0.181610391 , -9.792557   , -0.000278662366, 7.7335164E-05, -0.0010826831, -0.0179886054, -0.011501695, 0.000133056819, 921.986     , 32.4659     , 789.397156  , 3.92        , 3           , 255         , 0           , 0
-0.1070354  , 0.174857661 , -9.794232   , 0.000434812158, -2.40573136E-05, 8.119221E-05, -0.01798427 , -0.0115019185, 0.000133872963, 921.9817    , 32.46536    , 789.3975    , 3.93        , 3           , 255         , 0           , 0
-0.114541486, 0.179604441 , -9.792028   , 0.000281595218, -0.00050810125, 0.0004639562, -0.0179815069, -0.011506916, 0.000138603325, 921.9817    , 32.46536    , 789.3979    , 3.94        , 3           , 255         , 0           , 0
-0.112174511, 0.175067544 , -9.790261   , 0.000153709436, -0.000114064314, -0.0001071295, -0.017979959, -0.0115080755, 0.000137552677, 921.9817    , 32.46536    , 789.398254  , 3.95        , 3           , 255         , 0           , 0
-0.113068447, 0.172522664 , -9.791397   , -0.000324293273, 0.000281088753, -3.54348776E-05, -0.0179831963, -0.0115052713, 0.000137147814, 921.9817    , 32.46536    , 789.3986    , 3.96        , 3           , 255         , 0           , 0
-0.112809934, 0.169291377 , -9.79265    , -0.0003335749, -1.90659775E-05, -5.32289523E-05, -0.0179865267, -0.0115054715, 0.000136619012, 921.9817    , 32.46536    , 789.399     , 3.97        , 3           , 255         , 0           , 0
-0.113223039, 0.172548756 , -9.786249   , 0.000195273577, 0.0002949586, -7.171738E-05, -0.0179845653, -0.0115025342, 0.0001358489, 921.9817    , 32.46536    , 789.399353  , 3.98        , 3           , 255         , 0           , 0
-0.116130449, 0.181837827 , -9.802816   , 0.0004064353, -0.00022139377, -3.663596E-05, -0.0179805  , -0.0115047554, 0.0001355224, 921.9817    , 32.46536    , 789.3998    , 3.99        , 3           , 255         , 0           , 0
-0.113243304, 0.1839349   , -9.800014   , 3.4935656E-06, -0.000297309132, -0.000103594895, -0.0179804526, -0.0115077468, 0.000134540023, 921.9817    , 32.46536    , 789.4002    , 4           , 3           , 0           , 9.464236    , 400
-0.108076155, 0.177455276 , -9.801248   , 0.00047148898, 0.000223930416, 9.319503E-06, -0.0179765243, -0.0115062837, 0.000134602014, 921.9817    , 32.46536    , 789.37      , 4.01        , 3           , 1           , 0           , 0
-0.115173265, 0.17731829  , -9.792349   , 0.000398326345, -0.0004621676, -0.000274567, -0.017972514, -0.0115109542, 0.000131939756, 921.9817    , 32.46536    , 789.370239  , 4.02        , 3           , 2           , 0           , 0
-0.108626708, 0.179980785 , -9.782884   , 0.000139245851, 0.000364416774, -0.000152412555, -0.0179710984, -0.01150734 , 0.000130350309, 921.9702    , 32.46495    , 789.3705    , 4.03        , 3           , 3           , 0           , 0
-0.107908323, 0.17866528  , -9.793293   , 0.0002329353, 8.174259E-05, 0.000152354565, -0.01796879 , -0.0115064941, 0.000131859 , 921.9702    , 32.46495    , 789.3707    , 4.04        , 3           , 4           , 0           , 0
-0.111252084, 0.176260978 , -9.8004055  , -0.000214292726, 0.000294745434, 4.7608708E-05, -0.0179709345, -0.0115035381, 0.000132282061, 921.9702    , 32.46495    , 789.371     , 4.05        , 3           , 5           , 0           , 0
-0.124614336, 0.173647881 , -9.792352   , -0.000198599068, 0.000489881262, 0.0007270312, -0.0179730058, -0.011498509, 0.000139463431, 921.9702    , 32.46495    , 789.3712    , 4.06        , 3           , 6           , 0           , 0
-0.126077682, 0.177767038 , -9.789571   , 0.000449827377, 6.538516E-05, 0.000470078841, -0.0179685615, -0.0114977714, 0.000144151927, 921.9702    , 32.46495    , 789.37146   , 4.07        , 3           , 7           , 0           , 0
-0.115276061, 0.173687488 , -9.789438   , -8.930103E-06, 2.24241812E-05, -0.000305358262, -0.0179686174, -0.0114976019, 0.000141094686, 921.9702    , 32.46495    , 789.3717    , 4.08        , 3           , 8           , 5           , 5
-0.110175431, 0.1713791   , -9.794306   , -6.571226E-05, 0.000666209438, 0.000368056266, -0.0179693159, -0.0114908768, 0.0001446551, 921.9702    , 32.46495    , 789.371948  , 4.09        , 3           , 9           , 5           , 0.1
-0.100368738, 0.174906462 , -9.796812   , -0.000377386867, 0.000548679847, 0.0006271384, -0.0179731585, -0.0114852777, 0.000150827123, 921.9702    , 32.46495    , 789.3722    , 4.1         , 3           , 10          , 0.1         , 0.1
-0.103127018, 0.181190416 , -9.79867    , 0.000239236077, 6.174727E-06, 7.381877E-05, -0.0179709252, -0.0114852991, 0.000151565866, 921.9702    , 32.46495    , 789.3623    , 4.11        , 3           , 11          , 0.006788218 , 0.0067882156
-0.111129954, 0.186657041 , -9.794309   , 6.677437E-05, -8.955342E-05, 0.000356774 , -0.0179702975, -0.01148613 , 0.000155149275, 921.9702    , 32.46495    , 789.3625    , 4.12        , 3           , 12          , 0.174648076 , 0
-0.125119179, 0.184089676 , -9.799276   , 0.0002895011, 0.0004769018, 0.000313641329, -0.0179674439, -0.0114813047, 0.000158199618, 921.9507    , 32.4676666  , 789.3627    , 4.13        , 3           , 13          , 0           , 0
-0.120470442, 0.1759753   , -9.79243    , 0.000475923822, -0.000317145372, 0.000962230843, -0.0179627929, -0.0114843026, 0.000167877748, 921.9507    , 32.4676666  , 789.362854  , 4.14        , 3           , 14          , -0.0005151228, -0.0004510762
-0.120325923, 0.17575866  , -9.786634   , 0.00012686121, -2.4749228E-05, 0.000213288964, -0.0179615486, -0.0114845112, 0.000170014828, 921.9507    , 32.4676666  , 789.363037  , 4.15        , 3           , 15          , 0           , -2.33162555E-05
-0.116456129, 0.184210747 , -9.791273   , 0.00013396822, 0.000144382066, -0.000195328335, -0.017960187, -0.011483104, 0.00016803584, 921.9507    , 32.4676666  , 789.3632    , 4.16        , 3           , 16          , 0           , 1.401298E-45
-0.118421629, 0.175487936 , -9.798365   , 0.000216367247, -0.000225288037, -0.000196296154, -0.0179579984, -0.0114853913, 0.00016611359, 921.9507    , 32.4676666  , 789.3634    , 4.17        , 3           , 20          , 0           , 0
-0.107511535, 0.172509938 , -9.791746   , -0.000223647745, 0.000232113525, -0.000417389936, -0.0179601889, -0.0114831459, 0.0001618985, 921.9507    , 32.4676666  , 789.3636    , 4.18        , 3           , 21          , 0           , 0
-0.111431286, 0.1793234   , -9.78964    , -0.000320522347, 0.000285593356, -0.000167193532, -0.0179633759, -0.0114803212, 0.000160175492, 921.9507    , 32.4676666  , 789.3638    , 4.19        , 3           , 22          , 0           , 0
-0.116961874, 0.176672488 , -9.786622   , 0.000362809224, -0.000163926859, -0.0007937124, -0.0179596581, -0.0114821028, 0.000152268767, 921.9507    , 32.4676666  , 789.363953  , 4.2         , 3           , 40          , 0           , 0
-0.114583053, 0.170357674 , -9.787887   , 0.000645675347, 0.0003673382, -2.88229057E-05, -0.0179581139, -0.011482357, 0.0001519711, 921.9507    , 32.4676666  , 789.382751  , 4.21        , 3           , 41          , 0           , 0
-0.108806625, 0.178170592 , -9.788312   , 0.000510551443, 0.000188447419, 0.0006083084, -0.0179530811, -0.0114803631, 0.000158019611, 921.9507    , 32.4676666  , 789.383057  , 4.22        , 3           , 42          , 0           , 0
-0.116785228, 0.176885    , -9.790319   , 6.406932E-05, -0.000488827645, 0.0006141222, -0.0179525129, -0.01148514 , 0.00016424786, 921.959351  , 32.46617    , 789.383362  , 4.23        , 3           , 255         , 0           , 0
-0.11641977 , 0.193000063 , -9.790083   , 0.000104861276, -5.504518E-05, 0.000346804038, -0.0179515034, -0.0114856279, 0.00016772536, 921.959351  , 32.46617    , 789.383667  , 4.24        , 3           , 255         , 0           , 0
-0.111383878, 0.181504577 , -9.792646   , -0.0003653305, 0.000127780891, 0.000444674341, -0.0179552063, -0.0114842709, 0.000172148633, 921.959351  , 32.46617    , 789.384     , 4.25        , 3           , 255         , 0           , 0
-0.111608922, 0.17457813  , -9.787123   , 0.000272640784, -4.567235E-05, -0.0006506356, -0.0179524068, -0.0114848437, 0.000165651247, 921.959351  , 32.46617    , 789.3843    , 4.26        , 3           , 255         , 0           , 0
-0.11664059 , 0.171855882 , -9.785314   , 0.00039049398, -7.639476E-05, -0.000959981931, -0.0179483872, -0.0114857806, 0.000156066308, 921.959351  , 32.46617    , 789.3846    , 4.27        , 3           , 255         , 0           , 0
-0.117759183, 0.18527028  , -9.791861   , 0.000333570351, 0.000358401419, -0.000386868051, -0.0179450065, -0.0114822667, 0.000152133769, 921.959351  , 32.46617    , 789.3849    , 4.28        , 3           , 255         , 0           , 0
-0.109854124, 0.180739433 , -9.790533   , 0.000167233025, 0.000262810558, -3.19781248E-06, -0.0179433338, -0.01147964 , 0.000152054636, 921.959351  , 32.46617    , 789.3852    , 4.29        , 3           , 255         , 0           , 0
-0.11751993 , 0.185368031 , -9.785284   , -0.0001458521, 0.000137798692, -0.0005422811, -0.017944729, -0.0114783607, 0.000146607767, 921.959351  , 32.46617    , 789.3855    , 4.3         , 3           , 255         , 0           , 0
-0.118985236, 0.1837289   , -9.784299   , -0.0002880256, -8.060929E-05, -0.000123598569, -0.0179556664, -0.0114825889, 0.000145479047, 921.959351  , 32.46617    , 789.3891    , 4.31        , 3           , 255         , 0           , 0
-0.112854943, 0.177308872 , -9.78691    , 0.000418709562, 0.000126158586, -0.000411739515, -0.0179514326, -0.0114814015, 0.000141339478, 921.959351  , 32.46617    , 789.3894    , 4.32        , 3           , 255         , 0           , 0
-0.116029561, 0.181815058 , -9.792077   , -0.000501038332, 0.000158618786, -1.835448E-05, -0.0179564375, -0.0114798192, 0.000141127486, 921.97      , 32.4657     , 789.3897    , 4.33        , 3           , 255         , 0           , 0
-0.105858944, 0.174312681 , -9.799662   , -0.0002635155, 3.0242285E-05, 7.322048E-05, -0.01795908 , -0.0114795035, 0.00014185418, 921.97      , 32.4657     , 789.3901    , 4.34        , 3           , 255         , 0           , 0
-0.105226591, 0.16699478  , -9.79325    , 0.000341638981, 6.515265E-05, -0.000483730459, -0.01795561 , -0.0114789391, 0.000137005743, 921.97      , 32.4657     , 789.390442  , 4.35        , 3           , 255         , 0           , 0
-0.106886446, 0.172219157 , -9.794592   , -5.16305445E-05, 0.0005675926, 0.000149537562, -0.0179561414, -0.0114732366, 0.000138399031, 921.97      , 32.4657     , 789.3908    , 4.36        , 3           , 255         , 0           , 0
-0.111535504, 0.1757124   , -9.787307   , 0.000389849272, 0.000194612279, 0.0005042112, -0.0179523043, -0.0114712026, 0.000143405588, 921.97      , 32.4657     , 789.3912    , 4.37        , 3           , 255         , 0           , 0
-0.110395409, 0.17182216  , -9.792985   , 0.000898912549, -0.000302118773, -0.000315397978, -0.0179432742, -0.0114742788, 0.000140306191, 921.97      , 32.4657     , 789.391541  , 4.38        , 3           , 255         , 0           , 0
-0.104259476, 0.176548183 , -9.783849   , 0.0005006465, 0.000126119 , -5.11055368E-05, -0.0179382619, -0.0114730271, 0.000139772586, 921.97      , 32.4657     , 789.3919    , 4.39        , 3           , 255         , 0           , 0
-0.110452935, 0.172922462 , -9.785977   , 0.000574929 , 0.0002723605, 0.000331904739, -0.0179325528, -0.0114702443, 0.000143042387, 921.97      , 32.4657     , 789.3923    , 4.4         , 3           , 255         , 0           , 0
-0.112740681, 0.172568575 , -9.786623   , 0.000132664223, 0.000117418473, -0.0002152577, -0.017930327, -0.0114652039, 0.000140859018, 921.97      , 32.4657     , 789.379944  , 4.41        , 3           , 255         , 0           , 0
-0.120645836, 0.173343688 , -9.79617    , 0.0001939869, 0.000440327451, -0.0002800714, -0.0179283563, -0.01146085 , 0.0001379797, 921.97      , 32.4657     , 789.3802    , 4.42        , 3           , 255         , 0           , 0
-0.123000681, 0.169174463 , -9.7945385  , -0.000167701626, -0.000557156862, -0.000480731542, -0.0179299787, -0.0114665078, 0.000133272857, 922.0033    , 32.46719    , 789.380432  , 4.43        , 3           , 255         , 0           , 0
-0.1259996  , 0.174286768 , -9.796193   , -0.000428988074, -6.545344E-05, 0.0007988756, -0.0179343615, -0.0114670191, 0.00014127238, 922.0033    , 32.46719    , 789.3807    , 4.44        , 3           , 255         , 0           , 0
-0.116586283, 0.1799397   , -9.784498   , 8.989067E-06, 0.000184443576, 0.0001216464, -0.0179342851, -0.0114651527, 0.000142455625, 922.0033    , 32.46719    , 789.381     , 4.45        , 3           , 255         , 0           , 0
-0.110054016, 0.177539438 , -9.78924    , -0.000242545037, 0.000196674839, -0.000196042951, -0.0179366861, -0.0114632212, 0.00014046015, 922.0033    , 32.46719    , 789.3813    , 4.46        , 3           , 255         , 0           , 0
-0.118381321, 0.180114433 , -9.788767   , -0.000471377338, 0.000244576368, 0.000351189257, -0.0179414377, -0.0114607122, 0.00014392774, 922.0033    , 32.46719    , 789.3816    , 4.47        , 3           , 255         , 0           , 0
-0.114970207, 0.178692073 , -9.800205   , -0.000118444441, 0.00027355185, -9.89109249E-05, -0.017942613, -0.0114579955, 0.000142889665, 922.0033    , 32.46719    , 789.3819    , 4.48        , 3           , 255         , 0           , 0
-0.112191461, 0.174452946 , -9.789705   , 0.000270734716, -2.48978322E-05, 2.1056936E-05, -0.01793991 , -0.01145824 , 0.000143104684, 922.0033    , 32.46719    , 789.3822    , 4.49        , 3           , 255         , 0           , 0
-0.106961116, 0.184148058 , -9.792652   , 0.000123445585, 0.000276675535, -0.0001114724, -0.0179386642, -0.011455494, 0.000141940458, 922.0033    , 32.46719    , 789.3825    , 4.5         , 3           , 255         , 0           , 0
-0.1114444  , 0.179170042 , -9.787448   , -0.000114490162, 8.413245E-05, 3.73774565E-05, -0.0179410428, -0.0114606116, 0.000142313234, 922.0033    , 32.46719    , 789.3246    , 4.51        , 3           , 255         , 0           , 0
-0.115939856, 0.174425453 , -9.78713    , 3.84073937E-05, -0.000102318474, -0.0003792934, -0.0179406144, -0.0114617022, 0.000138539108, 922.0033    , 32.46719    , 789.3245    , 4.52        , 3           , 255         , 0           , 0
-0.108627304, 0.181093544 , -9.790462   , 0.000177111971, -1.72469E-05, 0.000157608141, -0.0179388635, -0.0114618465, 0.000140118093, 921.967834  , 32.46502    , 789.324463  , 4.53        , 3           , 255         , 0           , 0
-0.106106117, 0.186285645 , -9.792297   , 0.00031197432, 0.000176750938, -0.000112345158, -0.0179357287, -0.0114600994, 0.000138963078, 921.967834  , 32.46502    , 789.3244    , 4.54        , 3           , 255         , 0           , 0
-0.1076771  , 0.176819    , -9.790306   , -0.000282722118, 0.000404237828, 0.000221105278, -0.0179385841, -0.0114560183, 0.000141101365, 921.967834  , 32.46502    , 789.324341  , 4.55        , 3           , 255         , 0           , 0
-0.105340555, 0.178091943 , -9.78479    , 0.000464462675, 0.000317823869, -0.000155150119, -0.01793392 , -0.0114528695, 0.000139493044, 921.967834  , 32.46502    , 789.3243    , 4.56        , 3           , 255         , 0           , 0
-0.112402283, 0.176483512 , -9.791929   , 0.0005033582, -5.191192E-05, -0.000176565663, -0.0179288685, -0.01145342 , 0.000137736919, 921.967834  , 32.46502    , 789.3242    , 4.57        , 3           , 255         , 0           , 0
-0.109109424, 0.169665068 , -9.791971   , 0.000588188355, 2.55244959E-05, -0.000519169, -0.0179229267, -0.0114532588, 0.000132541274, 921.967834  , 32.46502    , 789.324158  , 4.58        , 3           , 255         , 0           , 0
-0.113100156, 0.18034035  , -9.787832   , 1.7825223E-05, -0.000127794512, -0.000162622062, -0.01792273 , -0.0114545645, 0.000130938133, 921.967834  , 32.46502    , 789.3241    , 4.59        , 3           , 255         , 0           , 0
-0.120482765, 0.18209888  , -9.796357   , 0.000260023749, -0.000230094651, 0.0006281645, -0.0179202  , -0.0114567522, 0.000137260271, 921.967834  , 32.46502    , 789.324036  , 4.6         , 3           , 255         , 0           , 0
-0.112139285, 0.177298918 , -9.790666   , -0.000102536986, -0.0001310592, 9.282666E-05, -0.0179261845, -0.0114559913, 0.0001382686, 921.967834  , 32.46502    , 789.324341  , 4.61        , 3           , 255         , 0           , 0
-0.112518   , 0.175427929 , -9.793809   , 0.000309475727, -0.000194638851, -0.000935390359, -0.0179229826, -0.0114581054, 0.0001289507, 921.967834  , 32.46502    , 789.3243    , 4.62        , 3           , 255         , 0           , 0
-0.114801325, 0.172824562 , -9.785521   , 0.000611389754, 0.0002812234, 0.000374034571, -0.0179169122, -0.0114552267, 0.000132640227, 921.9806    , 32.46522    , 789.3242    , 4.63        , 3           , 255         , 0           , 0
-0.113099679, 0.1769051   , -9.7807045  , 0.000603620138, 0.000221148366, 7.30018E-05 , -0.0179108866, -0.0114530027, 0.000133330555, 921.9806    , 32.46522    , 789.324158  , 4.64        , 3           , 255         , 0           , 0
-0.1155503  , 0.178734615 , -9.79424    , 0.000163213059, 0.000409433065, -0.00059511 , -0.017909186, -0.0114490157, 0.000127306848, 921.9806    , 32.46522    , 789.3241    , 4.65        , 3           , 255         , 0           , 0
-0.12324053 , 0.174598232 , -9.792872   , 0.000178270013, -0.000193943444, 0.0001311167, -0.0179074183, -0.0114509314, 0.0001286526, 921.9806    , 32.46522    , 789.324036  , 4.66        , 3           , 255         , 0           , 0
-0.1199774  , 0.1754497   , -9.781043   , 6.88916771E-06, 0.000456070033, -0.000169176084, -0.01790733 , -0.0114464015, 0.000126879371, 921.9806    , 32.46522    , 789.324     , 4.67        , 3           , 255         , 0           , 0
-0.11023955 , 0.175625175 , -9.789429   , 0.000157076865, 0.000486592529, 0.0002523083, -0.0179057885, -0.0114414934, 0.000129315027, 921.9806    , 32.46522    , 789.3239    , 4.68        , 3           , 255         , 0           , 0
-0.120704927, 0.176842242 , -9.789381   , 0.0006869046, 0.000341750827, 0.0005280096, -0.0178989787, -0.01143798 , 0.0001345333, 921.9806    , 32.46522    , 789.323853  , 4.69        , 3           , 255         , 0           , 0
-0.114234209, 0.173966318 , -9.789013   , 0.000428793021, 0.0001531635, -0.000347313849, -0.017894648, -0.0114365118, 0.000131033172, 921.9806    , 32.46522    , 789.3238    , 4.7         , 3           , 255         , 0           , 0
-0.107280612, 0.180713385 , -9.794665   , 0.000373529154, -6.991011E-05, 5.018676E-05, -0.0178917684, -0.0114441067, 0.000131557186, 921.9806    , 32.46522    , 789.3063    , 4.71        , 3           , 255         , 0           , 0
-0.109906793, 0.174878672 , -9.805354   , 4.52727254E-05, 0.000237631073, 0.00057665183, -0.0178913809, -0.0114416275, 0.000137280513, 921.9806    , 32.46522    , 789.306152  , 4.72        , 3           , 255         , 0           , 0
-0.110783055, 0.177544877 , -9.783365   , 0.00049856113, -0.000212300831, 0.000238497247, -0.0178864263, -0.0114437062, 0.000139703174, 921.94635   , 32.46712    , 789.306     , 4.73        , 3           , 255         , 0           , 0
-0.109714113, 0.176420331 , -9.787272   , 1.60841155E-05, 4.20131255E-06, 0.00059582456, -0.0178863332, -0.0114435581, 0.000145659971, 921.94635   , 32.46712    , 789.3059    , 4.74        , 3           , 255         , 0           , 0
-0.101320639, 0.181879237 , -9.78966    , -0.0008055952, 7.448351E-05, 0.0007660211, -0.0178944748, -0.0114426771, 0.000153305926, 921.94635   , 32.46712    , 789.3058    , 4.75        , 3           , 255         , 0           , 0
-0.112332746, 0.185146257 , -9.79237652 , -0.0006320592, 0.000228037956, -0.0004813587, -0.0179007389, -0.0114404829, 0.0001484521, 921.94635   , 32.46712    , 789.305664  , 4.76        , 3           , 255         , 0           , 0
-0.105060443, 0.174948409 , -9.79234    , 3.82986618E-05, 5.55812439E-05, -0.00083768717, -0.01790026 , -0.0114400778, 0.000140066273, 921.94635   , 32.46712    , 789.305542  , 4.77        , 3           , 255         , 0           , 0
-0.110851213, 0.1788164   , -9.7957     , -0.000122533878, 0.0002152559, -0.0003126942, -0.0179014485, -0.0114379814, 0.000136901173, 921.94635   , 32.46712    , 789.3054    , 4.78        , 3           , 255         , 0           , 0
-0.120382115, 0.171594352 , -9.795059   , -0.000168713974, -8.543875E-05, 0.000175502879, -0.0179031566, -0.0114388028, 0.000138671283, 921.94635   , 32.46712    , 789.3053    , 4.79        , 3           , 255         , 0           , 0
-0.12305633 , 0.164975122 , -9.795216   , -4.76516434E-05, 0.000312041258, -0.000169230538, -0.0179036129, -0.0114357136, 0.0001369233, 921.94635   , 32.46712    , 789.3052    , 4.8         , 3           , 255         , 0           , 0
-0.110636868, 0.169647872 , -9.793285   , -0.00048610667, 0.000435492635, -0.000767709746, -0.0179103762, -0.0114301126, 0.000129191889, 921.94635   , 32.46712    , 789.338562  , 4.81        , 3           , 255         , 0           , 0
-0.109859511, 0.155904457 , -9.789488   , -0.000345912878, 1.54278532E-05, 2.29386114E-05, -0.017913837, -0.0114299525, 0.000129418477, 921.94635   , 32.46712    , 789.3386    , 4.82        , 3           , 255         , 0           , 0
-0.112487271, 0.167616248 , -9.782713   , -0.00020850607, 0.000170043582, 5.68734722E-05, -0.0179159287, -0.0114282425, 0.000129956679, 921.9662    , 32.4667168  , 789.3387    , 4.83        , 3           , 255         , 0           , 0
-0.1194946  , 0.177953765 , -9.795866   , -0.000287468836, -0.000364456268, -0.0001665712, -0.0179187842, -0.0114319166, 0.000128356463, 921.9662    , 32.4667168  , 789.338745  , 4.84        , 3           , 255         , 0           , 0
-0.107461095, 0.171121031 , -9.794146   , -0.000359698955, -3.4472876E-05, -9.947413E-05, -0.017922366, -0.011432277, 0.00012736801, 921.9662    , 32.4667168  , 789.3388    , 4.85        , 3           , 255         , 0           , 0
-0.11732129 , 0.17422235  , -9.797106   , -0.000214138941, 0.000509884034, 0.0004576921, -0.01792456 , -0.0114270989, 0.000131853 , 921.9662    , 32.4667168  , 789.338867  , 4.86        , 3           , 255         , 0           , 0
-0.1129486  , 0.1839029   , -9.793585   , -0.000170178362, 0.000483548065, 0.000420730619, -0.0179263111, -0.011422189, 0.000135973125, 921.9662    , 32.4667168  , 789.3389    , 4.87        , 3           , 255         , 0           , 0
-0.109262004, 0.183585078 , -9.791124   , -9.674439E-05, 0.000169659557, 0.0001346337, -0.0179272927, -0.0114204679, 0.00013728888, 921.9662    , 32.4667168  , 789.339     , 4.88        , 3           , 255         , 0           , 0
-0.1111158  , 0.176834345 , -9.790278   , 0.000319401384, 0.000262678426, -0.000149177707, -0.0179240778, -0.0114178667, 0.00013575019, 921.9662    , 32.4667168  , 789.33905   , 4.89        , 3           , 255         , 0           , 0
-0.108465195, 0.1745764   , -9.79369    , 0.00049603  , 4.917814E-05, -0.000240307243, -0.0179190934, -0.0114174206, 0.000133338588, 921.9662    , 32.4667168  , 789.3391    , 4.9         , 3           , 255         , 0           , 0
-0.112987384, 0.184384778 , -9.801685   , -0.000153880217, 0.000115664618, 4.15447576E-05, -0.0179177951, -0.0114161652, 0.000133700873, 921.9662    , 32.4667168  , 789.3399    , 4.91        , 3           , 255         , 0           , 0
-0.11383494 , 0.183358192 , -9.791299   , 7.3098985E-05, -0.00012946871, -0.000115251423, -0.0179170519, -0.01141748 , 0.000132571688, 921.9662    , 32.4667168  , 789.34      , 4.92        , 3           , 255         , 0           , 0
-0.113884583, 0.180902809 , -9.781715   , -0.000349692069, 0.000110999448, 0.0006326185, -0.0179206189, -0.0114162564, 0.000138877193, 921.9637    , 32.4654274  , 789.340149  , 4.93        , 3           , 255         , 0           , 0
-0.116841391, 0.174897164 , -9.790825   , -9.22879E-05, -5.050897E-05, -1.83843786E-05, -0.01792154 , -0.0114167649, 0.000138702424, 921.9637    , 32.4654274  , 789.3403    , 4.94        , 3           , 255         , 0           , 0
-0.122405805, 0.169196144 , -9.786978   , -0.000120061624, -0.000485732948, -0.00041397108, -0.0179226939, -0.0114216963, 0.000134650239, 921.9637    , 32.4654274  , 789.3404    , 4.95        , 3           , 255         , 0           , 0
-0.114608504, 0.166482791 , -9.783806   , 0.0004061276, -0.000296519866, -0.0005824663, -0.0179185644, -0.0114247659, 0.000128879445, 921.9637    , 32.4654274  , 789.3405    , 4.96        , 3           , 255         , 0           , 0
-0.11316669 , 0.179959342 , -9.792255   , 0.000261228066, 0.000269307464, -0.000409111148, -0.0179159064, -0.0114221461, 0.00012474056, 921.9637    , 32.4654274  , 789.340637  , 4.97        , 3           , 255         , 0           , 0
-0.112194873, 0.178599343 , -9.790365   , -7.074617E-05, 0.000329512579, 0.0002219839, -0.0179166384, -0.011418811, 0.000126901112, 921.9637    , 32.4654274  , 789.340759  , 4.98        , 3           , 255         , 0           , 0
-0.113669887, 0.178308934 , -9.78555    , 1.207192E-05, 0.0002409276, -2.11975948E-05, -0.0179165155, -0.0114164064, 0.000126645988, 921.9637    , 32.4654274  , 789.3409    , 4.99        , 3           , 255         , 0           , 0
-0.108166553, 0.188455254 , -9.790782   , -0.0002311141, 0.00045047226, 0.000221670314, -0.0179188512, -0.0114118624, 0.000128781714, 921.9637    , 32.4654274  , 789.341     , 5           , 3           , 0           , -1          , 500
-0.107605495, 0.183799982 , -9.812793   , -2.54332554E-05, 3.58228281E-05, 0.000219945519, -0.0179242939, -0.0114155449, 0.000131033434, 921.9637    , 32.4654274  , 789.344849  , 5.01        , 3           , 1           , 0           , 0
-0.107741937, 0.177455917 , -9.801397   , 0.0007840954, 7.505613E-05, 0.000144714533, -0.01791647 , -0.0114147682, 0.000132466943, 921.9637    , 32.4654274  , 789.345     , 5.02        , 3           , 2           , 0           , 0
-0.108493611, 0.183707863 , -9.796087   , 0.0009935359, -0.0002931936, 0.000695235038, -0.0179066118, -0.0114175742, 0.00013947094, 921.93634   , 32.4657669  , 789.3451    , 5.03        , 3           , 3           , 0           , 0
-0.108889177, 0.1704295   , -9.792973   , 0.000178171962, 0.000139504846, 0.000181739568, -0.0179048534, -0.0114161475, 0.000141263168, 921.93634   , 32.4657669  , 789.3452    , 5.04        , 3           , 4           , 0           , 0
-0.122201487, 0.1714075   , -9.786656   , 0.0004904883, -0.000112166483, 0.000335207616, -0.0178999845, -0.0114172082, 0.0001446349, 921.93634   , 32.4657669  , 789.345337  , 5.05        , 3           , 5           , 0           , 0
-0.117756508, 0.175014108 , -9.785027   , 0.000348196336, -0.000226756063, 0.0009372621, -0.0178966112, -0.0114193084, 0.000154047 , 921.93634   , 32.4657669  , 789.345459  , 5.06        , 3           , 6           , 0           , 0
-0.118083455, 0.1715461   , -9.797593   , 7.415691E-05, -2.27294513E-05, 0.000114968789, -0.0178958848, -0.0114195151, 0.000155200614, 921.93634   , 32.4657669  , 789.3456    , 5.07        , 3           , 7           , 0           , 0
-0.130292624, 0.1755828   , -9.795659   , 0.00034344985, 0.00022871804, -0.000157429648, -0.0178924315, -0.0114172557, 0.000153585584, 921.93634   , 32.4657669  , 789.3457    , 5.08        , 3           , 8           , 5           , 5
-0.114208877, 0.170486    , -9.786883   , -4.54155961E-05, 0.000273050158, -0.000439806958, -0.0178928375, -0.0114146052, 0.000149139189, 921.93634   , 32.4657669  , 789.3458    , 5.09        , 3           , 9           , 5           , 0.1
