Acc X       , Acc Y       , Acc Z       , Gyro X      , Gyro Y      , Gyro Z      , Euler X     , Euler Y     , Euler Z     , Pres X      , Pres Y      , Pres Z      , Time        , Status      , LowRate X   , LowRate Y   , LowRate Z    
-0.148817182, 0.103448033 , -9.786394   , 0           , 0           , 0           , -0.0105702039, -0.0152045181, 0           , 918.170959  , 32.2813034  , 823.507935  , 0           , 2           , 0           , 5.49623156  , 0
-0.15197973 , 0.113170311 , -9.789416   , 0.000387037464, -4.73440159E-05, -0.000394944072, -0.0105661368, -0.01520479 , -3.94457038E-06, 918.170959  , 32.2813034  , 823.507935  , 0.01        , 3           , 1           , 0           , 0
-0.1395678  , 0.116121553 , -9.790834   , 4.831262E-05, -5.961157E-05, -0.000597780745, -0.0105655622, -0.0152054476, -9.91628349E-06, 918.170959  , 32.2813034  , 823.507935  , 0.02        , 3           , 2           , 0           , 0
-0.145018458, 0.110992119 , -9.793508   , 0.00054332806, 9.9144876E-05, -0.00032531537, -0.0105600785, -0.01520449 , -1.31800443E-05, 918.102539  , 31.84406    , 823.507935  , 0.03        , 3           , 3           , 0           , 0
-0.149146885, 0.09984423  , -9.78869    , -2.58912914E-05, -0.000230611477, 0.0002161382, -0.010560371, -0.0152067738, -1.09942175E-05, 918.102539  , 31.84406    , 823.507935  , 0.04        , 3           , 4           , 0           , 0
-0.144544125, 0.11098168  , -9.797132   , 9.07930662E-05, -0.000346742163, 0.000359387981, -0.0105595179, -0.0152102029, -7.363604E-06, 918.102539  , 31.84406    , 823.507935  , 0.05        , 3           , 5           , 0           , 0
-0.14749907 , 0.109194793 , -9.797239   , 0.0001524096, 0.000157117727, -1.857476E-05, -0.0105579905, -0.0152086336, -7.56595E-06, 918.102539  , 31.84406    , 823.507935  , 0.06        , 3           , 6           , 0           , 0
-0.149116307, 0.099273935 , -9.791459   , -0.000446603051, 0.00017003325, 0.0004218745, -0.01056252 , -0.0152068874, -3.36501012E-06, 918.102539  , 31.84406    , 823.507935  , 0.07        , 3           , 7           , 0           , 0
-0.150267348, 0.112832889 , -9.796073   , -0.0005708673, -6.28986163E-05, -7.410712E-06, -0.0105682267, -0.0152075179, -3.43247348E-06, 918.102539  , 31.84406    , 823.507935  , 0.08        , 3           , 8           , 5           , 5
-0.141767487, 0.106909037 , -9.794992   , -0.0006335495, 0.000325386121, -0.000101315818, -0.0105745457, -0.015204276, -4.480063E-06, 918.102539  , 31.84406    , 823.507935  , 0.09        , 3           , 9           , 5           , 0.1
-0.148195475, 0.103576854 , -9.786659   , -0.0004283361, 0.000411461981, 0.000263935 , -0.0105788689, -0.0152001334, -1.88414492E-06, 918.102539  , 31.84406    , 823.507935  , 0.1         , 3           , 10          , 0.1         , 0.1
-0.152987435, 0.1089736   , -9.791745   , 6.717254E-05, 0.000802743249, -0.000154414651, -0.0105982572, -0.01518288 , -3.20831782E-06, 918.102539  , 31.84406    , 824.1237    , 0.11        , 3           , 11          , 0.0109544508, 0.0109544508
-0.149839565, 0.100110553 , -9.783113   , -0.000141375, 0.0003542769, 0.00018217662, -0.0105996979, -0.0151793193, -1.42403985E-06, 918.102539  , 31.84406    , 824.1237    , 0.12        , 3           , 12          , 0.174642488 , 0
-0.14912574 , 0.09921031  , -9.787762   , -0.000128715124, 8.000326E-05, 0.000255731 , -0.0106010251, -0.0151784914, 1.12487623E-06, 918.074951  , 31.88436    , 824.1237    , 0.13        , 3           , 13          , 0           , 0
-0.147461146, 0.09759991  , -9.798937   , -6.975356E-05, -0.000155651767, 0.000302913162, -0.0106017673, -0.015180015, 4.17061574E-06, 918.074951  , 31.88436    , 824.1237    , 0.14        , 3           , 14          , -0.000505566655, -0.0005378991
-0.155575186, 0.1022857   , -9.7945385  , 0.000342111132, -0.000359948783, 0.0008252315, -0.0105984733, -0.0151835252, 1.24613771E-05, 918.074951  , 31.88436    , 824.1237    , 0.15        , 3           , 15          , 0           , -5.668925E-05
-0.150901228, 0.09828536  , -9.799353   , 0.000255395251, 0.00022145058, 0.0007883074, -0.0105960378, -0.0151812313, 2.03212476E-05, 918.074951  , 31.88436    , 824.1237    , 0.16        , 3           , 16          , 0           , 1.401298E-45
-0.146189168, 0.09766852  , -9.795687   , -2.32831226E-05, -6.07658876E-05, 0.00035564  , -0.0105963238, -0.0151817994, 2.3884204E-05, 918.074951  , 31.88436    , 824.1237    , 0.17        , 3           , 20          , 0           , 0
-0.1392838  , 0.106697038 , -9.790371   , 3.01984837E-05, 0.000394866976, 0.000235894026, -0.0105960574, -0.0151778264, 2.620139E-05, 918.074951  , 31.88436    , 824.1237    , 0.18        , 3           , 21          , 0           , 0
-0.145469055, 0.103175744 , -9.789156   , 0.000261495763, 2.95456848E-05, -0.000565737835, -0.0105933575, -0.0151775908, 2.05406886E-05, 918.074951  , 31.88436    , 824.1238    , 0.19        , 3           , 22          , 0           , 0
-0.1444474  , 0.105481245 , -9.789023   , -9.92316054E-05, 0.000126324449, 0.000314879726, -0.0105943969, -0.0151762953, 2.367621E-05, 918.074951  , 31.88436    , 824.12384   , 0.2         , 3           , 40          , 0           , 0
-0.145342678, 0.108248994 , -9.797321   , -0.0002757422, 0.000187763537, 0.000889002171, -0.0105896136, -0.0151720205, 3.24302055E-05, 918.074951  , 31.88436    , 824.2497    , 0.21        , 3           , 41          , 0           , 0
-0.150268883, 0.107729718 , -9.782519   , -0.0005800647, 9.781934E-05, -0.000129076943, -0.0105953943, -0.0151710566, 3.11290241E-05, 918.074951  , 31.88436    , 824.249756  , 0.22        , 3           , 42          , 0           , 0
-0.142655939, 0.111348309 , -9.78517    , -0.000191113213, 0.0001834454, 0.00021488982, -0.010597338, -0.0151692  , 3.3258555E-05, 918.058655  , 31.9085789  , 824.2498    , 0.23        , 3           , 255         , 0           , 0
-0.144799426, 0.0999961048, -9.797042   , 0.0008822226, 0.0002449263, -2.69222146E-05, -0.0105885128, -0.015166752, 3.296339E-05, 918.058655  , 31.9085789  , 824.2499    , 0.24        , 3           , 255         , 0           , 0
-0.1415565  , 0.107535347 , -9.792241   , 0.000136011688, -9.041128E-05, -5.33016646E-05, -0.0105871446, -0.0151676619, 3.24399334E-05, 918.058655  , 31.9085789  , 824.249939  , 0.25        , 3           , 255         , 0           , 0
-0.144550145, 0.106307127 , -9.79285    , 0.000460378622, -0.000392238784, 0.000211961567, -0.0105825746, -0.0151715614, 3.46011366E-05, 918.058655  , 31.9085789  , 824.25      , 0.26        , 3           , 255         , 0           , 0
-0.148498446, 0.105248436 , -9.803675   , -7.756974E-05, -0.000117688207, 0.000705838553, -0.0105834566, -0.0151726631, 4.167221E-05, 918.058655  , 31.9085789  , 824.250061  , 0.27        , 3           , 255         , 0           , 0
-0.142801732, 0.106546722 , -9.799876   , 0.0002898834, -4.427985E-05, 0.0006697706, -0.01058066 , -0.0151730347, 4.837484E-05, 918.058655  , 31.9085789  , 824.2501    , 0.28        , 3           , 255         , 0           , 0
-0.141573563, 0.113848843 , -9.798063   , 0.000434350281, 0.00027066507, 0.0002745855, -0.010576359, -0.0151702985, 5.109215E-05, 918.058655  , 31.9085789  , 824.2502    , 0.29        , 3           , 255         , 0           , 0
-0.139959484, 0.111551523 , -9.792162   , 0.000295678154, -0.0002407193, -0.000573015539, -0.0105733145, -0.0151727665, 4.53872526E-05, 918.058655  , 31.9085789  , 824.250244  , 0.3         , 3           , 255         , 0           , 0
-0.147310317, 0.111793756 , -9.795618   , 5.88975963E-05, 3.64133157E-05, -0.000101720747, -0.0105870105, -0.0151573056, 4.45829319E-05, 918.058655  , 31.9085789  , 824.341     , 0.31        , 3           , 255         , 0           , 0
-0.1444913  , 0.110705554 , -9.798377   , 0.000110841414, -0.000292250654, 0.000405670726, -0.0105859637, -0.0151601853, 4.86707177E-05, 918.058655  , 31.9085789  , 824.341064  , 0.32        , 3           , 255         , 0           , 0
-0.146394819, 0.103949569 , -9.795079   , 3.02054978E-05, -0.000178337214, -0.000114741379, -0.0105856452, -0.0151619809, 4.75421439E-05, 918.090637  , 31.926218   , 824.3411    , 0.33        , 3           , 255         , 0           , 0
-0.147533342, 0.106054708 , -9.78907    , 0.0002590654, -4.01035068E-05, -0.000143578538, -0.0105830329, -0.0151623972, 4.61105519E-05, 918.090637  , 31.926218   , 824.3412    , 0.34        , 3           , 255         , 0           , 0
-0.142170817, 0.106771186 , -9.800268   , 0.0009068521, 0.000318950217, -0.0002570283, -0.0105739245, -0.0151592353, 4.35064358E-05, 918.090637  , 31.926218   , 824.341248  , 0.35        , 3           , 255         , 0           , 0
-0.145065263, 0.106745407 , -9.798142   , -1.87254045E-07, 0.000266151677, -0.00019926831, -0.0105738966, -0.015156595, 4.14855458E-05, 918.090637  , 31.926218   , 824.3413    , 0.36        , 3           , 255         , 0           , 0
-0.150291845, 0.104014777 , -9.792469   , -2.34405161E-05, -2.13845051E-05, -0.000400327233, -0.01057407 , -0.0151568512, 3.74843949E-05, 918.090637  , 31.926218   , 824.3414    , 0.37        , 3           , 255         , 0           , 0
-0.149102271, 0.11092788  , -9.79128551 , 8.12747749E-06, -0.0002388442, -0.0007360773, -0.010573877, -0.0151593173, 3.01486325E-05, 918.090637  , 31.926218   , 824.341431  , 0.38        , 3           , 255         , 0           , 0
-0.1507679  , 0.09915601  , -9.797903   , 0.0001939036, -9.89506952E-05, 8.482745E-05, -0.010571952, -0.0151602989, 3.1007392E-05, 918.090637  , 31.926218   , 824.3415    , 0.39        , 3           , 255         , 0           , 0
-0.155483574, 0.103492096 , -9.802396   , 1.88014237E-05, -0.000311315933, -0.000241321424, -0.0105717266, -0.0151634347, 2.8627006E-05, 918.090637  , 31.926218   , 824.341553  , 0.4         , 3           , 255         , 0           , 0
-0.151265115, 0.106920794 , -9.787146   , -5.30735124E-05, -0.0004203198, 0.0001106123, -0.0105804093, -0.0151656326, 2.99009862E-05, 918.090637  , 31.926218   , 824.313965  , 0.41        , 3           , 255         , 0           , 0
-0.139721662, 0.102710709 , -9.795247   , 0.00042672205, -0.00054601446, -0.0005944818, -0.0105760526, -0.0151711553, 2.40137215E-05, 918.090637  , 31.926218   , 824.314     , 0.42        , 3           , 255         , 0           , 0
-0.1411484  , 0.102649763 , -9.793424   , 8.534314E-05, -0.000151090615, 0.000103059392, -0.0105752163, -0.0151726548, 2.506033E-05, 918.1446    , 31.9376831  , 824.3141    , 0.43        , 3           , 255         , 0           , 0
-0.140726358, 0.103230856 , -9.795541   , 0.000329887553, 5.02698822E-05, 1.979472E-05, -0.0105719194, -0.01517215 , 2.525297E-05, 918.1446    , 31.9376831  , 824.314148  , 0.44        , 3           , 255         , 0           , 0
-0.144807369, 0.110668167 , -9.798414   , 0.0004918076, 5.181515E-05, 0.000196466164, -0.0105670318, -0.0151716108, 2.72122234E-05, 918.1446    , 31.9376831  , 824.3142    , 0.45        , 3           , 255         , 0           , 0
-0.1502631  , 0.108407058 , -9.795115   , 0.000901783351, -0.000233670813, -0.00051980326, -0.0105579356, -0.0151740033, 2.20386974E-05, 918.1446    , 31.9376831  , 824.3143    , 0.46        , 3           , 255         , 0           , 0
-0.132254556, 0.110900082 , -9.788411   , -3.54503281E-05, -0.00011248712, 0.00017817851, -0.0105583183, -0.0151751079, 2.38324228E-05, 918.1446    , 31.9376831  , 824.314331  , 0.47        , 3           , 255         , 0           , 0
-0.1411171  , 0.09838132  , -9.796535   , 1.61577482E-05, -0.000333679025, 0.000105919607, -0.010558174, -0.0151784346, 2.4926896E-05, 918.1446    , 31.9376831  , 824.3144    , 0.48        , 3           , 255         , 0           , 0
-0.149825   , 0.103604592 , -9.791672   , 0.000138728472, 0.0004525751, 0.000444290577, -0.0105568534, -0.0151738618, 2.932218E-05, 918.1446    , 31.9376831  , 824.314453  , 0.49        , 3           , 255         , 0           , 0
-0.143374592, 0.101229288 , -9.79944    , -0.000175466237, 0.000190382008, 0.000136408969, -0.0105586285, -0.0151719432, 3.066622E-05, 918.1446    , 31.9376831  , 824.3145    , 0.5         , 3           , 255         , 0           , 0
-0.144476518, 0.108946279 , -9.792695   , -0.000145616359, -3.46262823E-05, 0.000285524671, -0.0105645377, -0.01515543 , 3.35920522E-05, 918.1446    , 31.9376831  , 824.1978    , 0.51        , 3           , 255         , 0           , 0
-0.148418576, 0.10574802  , -9.793826   , -4.42559831E-05, 0.000194408436, -0.000458107534, -0.0105649112, -0.0151535347, 2.8990291E-05, 918.1446    , 31.9376831  , 824.1979    , 0.52        , 3           , 255         , 0           , 0
-0.1417298  , 0.09652468  , -9.789049   , 2.50835437E-05, 0.000237215689, -0.00042887064, -0.0105645955, -0.0151512064, 2.467637E-05, 918.1491    , 31.9460945  , 824.197937  , 0.53        , 3           , 255         , 0           , 0
-0.138098374, 0.105955936 , -9.799723   , 0.00020259578, 0.0006207712, -0.000276510051, -0.0105625261, -0.0151450327, 2.18456E-05 , 918.1491    , 31.9460945  , 824.198     , 0.54        , 3           , 255         , 0           , 0
-0.144171268, 0.105019309 , -9.790196   , 0.000470994477, 0.000128301588, -0.0003591767, -0.0105577623, -0.0151437856, 1.82401618E-05, 918.1491    , 31.9460945  , 824.198059  , 0.55        , 3           , 255         , 0           , 0
-0.146703213, 0.1048346   , -9.791843   , 0.0007183182, -3.95067036E-06, -0.00010657798, -0.0105505642, -0.015143835, 1.71747652E-05, 918.1491    , 31.9460945  , 824.1981    , 0.56        , 3           , 255         , 0           , 0
-0.146745473, 0.105377793 , -9.793812   , -1.4103076E-05, 0.000424581638, 0.0006089881, -0.010550797, -0.0151395248, 2.32200618E-05, 918.1491    , 31.9460945  , 824.1982    , 0.57        , 3           , 255         , 0           , 0
-0.147263035, 0.101231351 , -9.793354   , -0.000100295758, -0.0002926301, -0.000194328066, -0.01055177 , -0.0151424715, 2.13075873E-05, 918.1491    , 31.9460945  , 824.198242  , 0.58        , 3           , 255         , 0           , 0
-0.135517091, 0.107972264 , -9.785306   , -0.000369445537, 0.000215553184, -0.000173720822, -0.0105554378, -0.0151403351, 1.954758E-05, 918.1491    , 31.9460945  , 824.1983    , 0.59        , 3           , 255         , 0           , 0
-0.143885255, 0.105270922 , -9.794766   , -8.79843137E-05, 0.000240790658, 0.000143965153, -0.01055634 , -0.0151379127, 2.09618629E-05, 918.1491    , 31.9460945  , 824.198364  , 0.6         , 3           , 255         , 0           , 0
-0.145404071, 0.107250437 , -9.799776   , 0.000213279127, 0.000456689624, -0.0004985902, -0.01055864 , -0.01511713 , 1.59957144E-05, 918.1491    , 31.9460945  , 824.1127    , 0.61        , 3           , 255         , 0           , 0
-0.1444987  , 0.110695913 , -9.793844   , 0.000177571288, 0.000178162649, -0.000512824568, -0.0105567845, -0.0151154064, 1.08484837E-05, 918.1491    , 31.9460945  , 824.112732  , 0.62        , 3           , 255         , 0           , 0
-0.147995949, 0.109821752 , -9.795099   , 0.000439046184, -7.693743E-05, -0.00026268058, -0.0105523532, -0.0151162008, 8.229714E-06, 918.067566  , 31.9490814  , 824.1128    , 0.63        , 3           , 255         , 0           , 0
-0.1557074  , 0.109852239 , -9.786552   , 8.47649062E-05, -0.000280978857, 8.12909348E-05, -0.0105515206, -0.0151190013, 9.072301E-06, 918.067566  , 31.9490814  , 824.112854  , 0.64        , 3           , 255         , 0           , 0
-0.148171514, 0.111742519 , -9.798124   , 0.000329388567, -0.0004389158, -0.000514063868, -0.0105481483, -0.0151234455, 3.97779877E-06, 918.067566  , 31.9490814  , 824.1129    , 0.65        , 3           , 255         , 0           , 0
-0.144613937, 0.105998121 , -9.796157   , 0.0004881976, 0.0001293117, -5.4101667E-05, -0.0105432589, -0.0151221585, 3.42312569E-06, 918.067566  , 31.9490814  , 824.113     , 0.66        , 3           , 255         , 0           , 0
-0.145651966, 0.105511591 , -9.795078   , 4.699119E-05, -4.35239053E-05, 5.39969878E-05, -0.010542796, -0.0151225878, 3.96768428E-06, 918.067566  , 31.9490814  , 824.113037  , 0.67        , 3           , 255         , 0           , 0
-0.1460078  , 0.103544012 , -9.796494   , -0.000357999757, 0.00013850836, 0.00039481523, -0.0105464347, -0.0151211619, 7.901379E-06, 918.067566  , 31.9490814  , 824.1131    , 0.68        , 3           , 255         , 0           , 0
-0.148929834, 0.103544556 , -9.79801    , -0.0009691433, -3.25692235E-05, 0.000174000117, -0.0105561512, -0.0151214683, 9.644869E-06, 918.067566  , 31.9490814  , 824.113159  , 0.69        , 3           , 255         , 0           , 0
-0.1582413  , 0.09564092  , -9.791425   , -0.000643133244, -7.463014E-05, 0.0004464934, -0.010562649, -0.0151221678, 1.41178389E-05, 918.067566  , 31.9490814  , 824.1132    , 0.7         , 3           , 255         , 0           , 0
-0.146260381, 0.0915155858, -9.795478   , -0.000170950312, 0.000265804731, 8.434613E-05, -0.01057303 , -0.0151206013, 1.50641627E-05, 918.067566  , 31.9490814  , 824.163635  , 0.71        , 3           , 255         , 0           , 0
-0.151452109, 0.106027149 , -9.795285   , -5.623582E-05, 0.000299930252, -0.000292288634, -0.0105735492, -0.0151176322, 1.21094654E-05, 918.067566  , 31.9490814  , 824.163757  , 0.72        , 3           , 255         , 0           , 0
-0.152653158, 0.101133183 , -9.79323    , 0.000141118944, 2.77133076E-05, -0.0005603359, -0.0105720526, -0.0151174143, 6.50299035E-06, 918.0881    , 31.9533539  , 824.1639    , 0.73        , 3           , 255         , 0           , 0
-0.148176044, 0.0988540947, -9.794658   , 8.221643E-05, 0.000123565638, -0.000145011116, -0.0105712088, -0.0151161943, 5.039773E-06, 918.0881    , 31.9533539  , 824.164     , 0.74        , 3           , 255         , 0           , 0
-0.14804256 , 0.106652573 , -9.799473   , 0.0003913879, 0.000359528756, -0.000206652825, -0.0105672628, -0.0151126208, 2.93517314E-06, 918.0881    , 31.9533539  , 824.1641    , 0.75        , 3           , 255         , 0           , 0
-0.152318954, 0.09872092  , -9.786268   , 0.000202089839, 0.000148573978, -0.000339539751, -0.0105651906, -0.0151111744, -4.76047461E-07, 918.0881    , 31.9533539  , 824.164246  , 0.76        , 3           , 255         , 0           , 0
-0.149476349, 0.100245714 , -9.794075   , 0.000219402311, 1.91310537E-05, -1.93424275E-05, -0.0105629917, -0.0151109826, -6.7150205E-07, 918.0881    , 31.9533539  , 824.164368  , 0.77        , 3           , 255         , 0           , 0
-0.149668068, 0.102891587 , -9.788458   , 0.00023190325, -5.65405935E-06, -0.000190953986, -0.0105606448, -0.01511106 , -2.580502E-06, 918.0881    , 31.9533539  , 824.1645    , 0.78        , 3           , 255         , 0           , 0
-0.147166342, 0.103975534 , -9.798886   , 0.0007568272, 2.435001E-06, 0.0002687489, -0.0105531169, -0.0151110068, 1.06830541E-07, 918.0881    , 31.9533539  , 824.1646    , 0.79        , 3           , 255         , 0           , 0
-0.1416447  , 0.106657907 , -9.790479   , 0.0004318337, 0.000217660738, 0.000437926938, -0.0105488664, -0.0151087847, 4.463284E-06, 918.0881    , 31.9533539  , 824.164734  , 0.8         , 3           , 255         , 0           , 0
-0.141700983, 0.105503738 , -9.798414   , -0.000109606772, -0.000215060485, -0.000376960961, -0.0105442768, -0.0151129467, 6.311668E-07, 918.0881    , 31.9533539  , 824.1776    , 0.81        , 3           , 255         , 0           , 0
-0.1472226  , 0.0956544057, -9.7929945  , -0.000178759918, 5.386083E-05, -3.234514E-05, -0.0105460575, -0.0151124122, 3.02023125E-07, 918.0881    , 31.9533539  , 824.177734  , 0.82        , 3           , 255         , 0           , 0
-0.145839348, 0.10349001  , -9.788504   , 0.000157081347, 2.22633244E-05, 0.00018217208, -0.0105445152, -0.0151121709, 2.12145324E-06, 918.1518    , 31.9587135  , 824.177856  , 0.83        , 3           , 255         , 0           , 0
-0.1545264  , 0.11136578  , -9.789785   , 0.0006391981, 0.000255923223, 0.000478134374, -0.0105381953, -0.0151095614, 6.87596867E-06, 918.1518    , 31.9587135  , 824.178     , 0.84        , 3           , 255         , 0           , 0
-0.157156736, 0.114548765 , -9.79306    , 0.000364767562, -0.000231285871, 0.000759722141, -0.0105346646, -0.0151117928, 1.449783E-05, 918.1518    , 31.9587135  , 824.1781    , 0.85        , 3           , 255         , 0           , 0
-0.141246438, 0.108658172 , -9.786925   , 0.0003841194, -0.00054639607, 0.000917562051, -0.0105309617, -0.0151171619, 2.3731307E-05, 918.1518    , 31.9587135  , 824.1782    , 0.86        , 3           , 255         , 0           , 0
-0.155541018, 0.104072049 , -9.795446   , 3.434543E-06, 0.0003715919, 0.00033428485, -0.0105309766, -0.0151134087, 2.703513E-05, 918.1518    , 31.9587135  , 824.178345  , 0.87        , 3           , 255         , 0           , 0
-0.1503073  , 0.104845606 , -9.798579   , 0.000299339183, 0.0005248483, 0.000116239687, -0.0105279991, -0.0151081476, 2.81422963E-05, 918.1518    , 31.9587135  , 824.178467  , 0.88        , 3           , 255         , 0           , 0
-0.1404883  , 0.09695395  , -9.798081   , -3.40819824E-05, -1.58080948E-05, 0.0002783896, -0.0105283828, -0.0151082771, 3.09279567E-05, 918.1518    , 31.9587135  , 824.1786    , 0.89        , 3           , 255         , 0           , 0
-0.145698145, 0.105633363 , -9.791176   , 0.00023472539, -5.69340773E-05, -0.0004832077, -0.0105259633, -0.0151088974, 2.6101714E-05, 918.1518    , 31.9587135  , 824.1787    , 0.9         , 3           , 255         , 0           , 0
-0.149416   , 0.108284615 , -9.798352   , 0.0003655948, 0.000217353314, 0.000249439239, -0.0105280494, -0.015106597, 2.86594932E-05, 918.1518    , 31.9587135  , 824.115     , 0.91        , 3           , 255         , 0           , 0
-0.1473793  , 0.103170261 , -9.787405   , 9.64649953E-05, -0.000421130448, 0.0002714849, -0.0105271265, -0.0151107786, 3.141877E-05, 918.1518    , 31.9587135  , 824.115051  , 0.92        , 3           , 255         , 0           , 0
-0.146766946, 0.106070295 , -9.787326   , -0.00010148657, -0.000241130008, -0.000186087622, -0.0105281137, -0.0151132094, 2.95832142E-05, 918.113953  , 31.9587135  , 824.1151    , 0.93        , 3           , 255         , 0           , 0
-0.145206273, 0.09713254  , -9.796695   , -0.0005624974, -0.000181576761, 3.464956E-05, -0.0105337435, -0.0151150227, 2.99488474E-05, 918.113953  , 31.9587135  , 824.1152    , 0.94        , 3           , 255         , 0           , 0
-0.142412946, 0.0986331254, -9.801882   , 0.0002637693, 3.04309069E-05, -0.0003543407, -0.010531052, -0.0151147554, 2.64021073E-05, 918.113953  , 31.9587135  , 824.115234  , 0.95        , 3           , 255         , 0           , 0
-0.147087887, 0.09892076  , -9.790572   , 0.0003983235, 5.46172669E-05, 0.0001538235, -0.0105270911, -0.0151141929, 2.79346441E-05, 918.113953  , 31.9587135  , 824.1153    , 0.96        , 3           , 255         , 0           , 0
-0.143687859, 0.104815245 , -9.790179   , 0.000187642319, 2.34493054E-05, -0.000272865116, -0.0105251744, -0.015113987, 2.52034279E-05, 918.113953  , 31.9587135  , 824.115356  , 0.97        , 3           , 255         , 0           , 0
-0.145056829, 0.104195222 , -9.787649   , 0.0003195772, 9.313767E-05, 0.000136958464, -0.010522   , -0.0151130408, 2.65632571E-05, 918.113953  , 31.9587135  , 824.1154    , 0.98        , 3           , 255         , 0           , 0
-0.146738172, 0.102956034 , -9.791271   , 0.0007096229, -0.000128840329, -0.000318065169, -0.0105148554, -0.0151143651, 2.33960436E-05, 918.113953  , 31.9587135  , 824.1155    , 0.99        , 3           , 255         , 0           , 0
-0.144998714, 0.103245631 , -9.786854   , 0.0004486305, -9.614008E-05, -0.000188336169, -0.0105103394, -0.0151153449, 2.152273E-05, 918.113953  , 31.9587135  , 824.11554   , 1           , 3           , 0           , 6.49623632  , 100
-0.14361003 , 0.08953914  , -9.791418   , -0.000364556967, -0.0002623995, 0.0002738747, -0.0105127506, -0.0151109165, 2.42698679E-05, 918.113953  , 31.9587135  , 824.1042    , 1.01        , 3           , 1           , 0           , 0
-0.141106248, 0.09240765  , -9.793184   , 5.94393059E-05, -0.00043524598, -0.000213355044, -0.0105121238, -0.0151152918, 2.2182E-05  , 918.113953  , 31.9587135  , 824.104248  , 1.02        , 3           , 2           , 0           , 0
-0.144311354, 0.108130716 , -9.793701   , -0.0005018893, 0.000772670435, -0.000417327072, -0.0105170785, -0.0151076121, 1.79273411E-05, 918.1039    , 31.959053   , 824.1043    , 1.03        , 3           , 3           , 0           , 0
-0.148754567, 0.106587626 , -9.786725   , -1.40089542E-05, -4.96930443E-05, -0.000152068766, -0.0105171958, -0.0151081234, 1.64118283E-05, 918.1039    , 31.959053   , 824.1044    , 1.04        , 3           , 4           , 0           , 0
-0.139840573, 0.09930071  , -9.791296   , 9.119161E-06, -0.000155752292, 0.000150572945, -0.0105171269, -0.0151096638, 1.79339877E-05, 918.1039    , 31.959053   , 824.104431  , 1.05        , 3           , 5           , 0           , 0
-0.152842417, 0.103365585 , -9.794209   , 0.000419651624, -0.000231139828, -6.543643E-05, -0.010512922, -0.0151119828, 1.7303897E-05, 918.1039    , 31.959053   , 824.1045    , 1.06        , 3           , 6           , 0           , 0
-0.147973046, 0.105900154 , -9.786505   , -0.000407646643, -1.59090851E-05, 1.81647556E-06, -0.0105169974, -0.0151121421, 1.73237422E-05, 918.1039    , 31.959053   , 824.104553  , 1.07        , 3           , 7           , 0           , 0
-0.142106846, 0.107470259 , -9.796829   , 0.000102393533, 0.000129802647, -0.0007616561, -0.0105158594, -0.015110923, 9.693272E-06, 918.1039    , 31.959053   , 824.1046    , 1.08        , 3           , 8           , 5           , 5
-0.145477742, 0.10791868  , -9.799383   , 0.000151898916, 6.239393E-05, -1.08057066E-06, -0.01051434 , -0.015110299, 9.675902E-06, 918.1039    , 31.959053   , 824.1047    , 1.09        , 3           , 9           , 5           , 0.1
-0.147258729, 0.10711509  , -9.798118   , 0.000290734577, -0.0002793806, 0.000264355564, -0.0105114719, -0.015113066, 1.23489217E-05, 918.1039    , 31.959053   , 824.104736  , 1.1         , 3           , 10          , 0.1         , 0.1
-0.146992221, 0.0985628963, -9.797059   , 2.71268655E-05, 4.723377E-05, 0.000114992115, -0.0105105639, -0.0151049  , 1.34840348E-05, 918.1039    , 31.959053   , 824.105835  , 1.11        , 3           , 11          , 0.009269679 , 0.009269679
-0.14596507 , 0.09824383  , -9.795167   , -5.983014E-05, -0.000381234277, 4.073405E-06, -0.0105111618, -0.015108712, 1.35648288E-05, 918.1039    , 31.959053   , 824.1059    , 1.12        , 3           , 12          , 0.174642846 , 0
-0.140430078, 0.1075268   , -9.787729   , 5.17019944E-05, 0.000172998989, -0.000361607177, -0.0105105909, -0.01510702 , 9.930466E-06, 918.1601    , 31.9630566  , 824.105957  , 1.13        , 3           , 13          , 0           , 0
-0.144771814, 0.101886168 , -9.785536   , -0.000209306309, 7.959525E-05, -3.05342073E-05, -0.01051268 , -0.0151062272, 9.616734E-06, 918.1601    , 31.9630566  , 824.106     , 1.14        , 3           , 14          , -0.00050555123, -0.0005379379
-0.152819186, 0.09624784  , -9.786029   , -0.000386222731, 7.962668E-05, -0.00033309 , -0.0105164917, -0.0151054664, 6.277358E-06, 918.1601    , 31.9630566  , 824.1061    , 1.15        , 3           , 15          , 0           , -5.66898925E-05
-0.154192463, 0.100146577 , -9.784457   , 0.00011166092, 0.000104033505, -0.0003500158, -0.010515322, -0.0151044633, 2.76614014E-06, 918.1601    , 31.9630566  , 824.10614   , 1.16        , 3           , 16          , 0           , 1.401298E-45
-0.153853849, 0.11013715  , -9.788618   , 0.000363018364, 0.000285995 , -6.203832E-05, -0.0105116814, -0.0151016125, 2.11566021E-06, 918.1601    , 31.9630566  , 824.1062    , 1.17        , 3           , 20          , 0           , 0
-0.146177143, 0.107673094 , -9.789089   , 0.00111779338, -0.000131934357, -0.00029099427, -0.0105004609, -0.0151029592, -7.80515563E-07, 918.1601    , 31.9630566  , 824.106262  , 1.18        , 3           , 21          , 0           , 0
-0.14822863 , 0.09883273  , -9.793376   , 0.000132985238, -0.000109140412, -8.6691216E-05, -0.0104991179, -0.015104061, -1.63599668E-06, 918.1601    , 31.9630566  , 824.1063    , 1.19        , 3           , 22          , 0           , 0
-0.14661333 , 0.09458085  , -9.794856   , -0.000542605063, 0.000285406451, 0.000102924518, -0.0105045587, -0.0151011962, -6.36697052E-07, 918.1601    , 31.9630566  , 824.1064    , 1.2         , 3           , 40          , 0           , 0
-0.145125717, 0.09495334  , -9.794561   , -0.0002155102, 0.000165464211, 0.00032030954, -0.0105012832, -0.0150998468, 2.46640161E-06, 918.1601    , 31.9630566  , 824.049133  , 1.21        , 3           , 41          , 0           , 0
-0.147806674, 0.09690553  , -9.795964   , -0.0005975681, 0.000360686332, 0.0004426873, -0.0105073266, -0.0150961941, 6.855534E-06, 918.1601    , 31.9630566  , 824.0491    , 1.22        , 3           , 42          , 0           , 0
-0.149588227, 0.106711939 , -9.793097   , -0.000131282315, 7.614668E-06, -0.000545997347, -0.0105085569, -0.0150961755, 1.394589E-06, 918.1432    , 31.9619713  , 824.049     , 1.23        , 3           , 255         , 0           , 0
-0.149460971, 0.100121021 , -9.787869   , -0.000327745569, -2.86851428E-05, 1.28445972E-05, -0.0105118351, -0.0150964605, 1.52605878E-06, 918.1432    , 31.9619713  , 824.04895   , 1.24        , 3           , 255         , 0           , 0
-0.142722875, 0.102160491 , -9.791284   , 6.867811E-05, -0.000303674315, -0.0007197981, -0.0105110407, -0.0150995729, -5.640245E-06, 918.1432    , 31.9619713  , 824.0489    , 1.25        , 3           , 255         , 0           , 0
-0.135730088, 0.105375566 , -9.796738   , 0.000319153944, -0.000215805427, -0.0008031588, -0.0105077289, -0.0151018146, -1.364942E-05, 918.1432    , 31.9619713  , 824.0488    , 1.26        , 3           , 255         , 0           , 0
-0.148348853, 0.09919571  , -9.789305   , 0.0005122277, 0.000312489574, -3.46590932E-05, -0.010502601, -0.0150986928, -1.4028853E-05, 918.1432    , 31.9619713  , 824.048767  , 1.27        , 3           , 255         , 0           , 0
-0.146894842, 0.09893078  , -9.7952     , 1.16298324E-05, 2.80907843E-05, 0.0002502656, -0.0105025219, -0.0150983855, -1.15290723E-05, 918.1432    , 31.9619713  , 824.0487    , 1.28        , 3           , 255         , 0           , 0
-0.146019384, 0.102723025 , -9.786275   , 0.000313757861, 6.739481E-05, -0.0003198167, -0.0104993358, -0.0150977448, -1.47344253E-05, 918.1432    , 31.9619713  , 824.048645  , 1.29        , 3           , 255         , 0           , 0
-0.153266683, 0.10652107  , -9.792344   , 0.000376057 , -0.000113931019, -0.000335253659, -0.0104955239, -0.0150989182, -1.807512E-05, 918.1432    , 31.9619713  , 824.0486    , 1.3         , 3           , 255         , 0           , 0
-0.145103782, 0.09959562  , -9.7923975  , 0.0004851754, -0.000403526821, 2.98068662E-05, -0.0104861287, -0.0150989927, -1.78033952E-05, 918.1432    , 31.9619713  , 824.0154    , 1.31        , 3           , 255         , 0           , 0
-0.140363544, 0.103912935 , -9.783983   , -0.000174399058, -0.000138823525, -0.000211692619, -0.0104878405, -0.0151004028, -1.99058341E-05, 918.1432    , 31.9619713  , 824.0152    , 1.32        , 3           , 255         , 0           , 0
-0.144220978, 0.102248117 , -9.780688   , -0.0004674422, 8.339295E-06, -0.00066274486, -0.0104924152, -0.01510039 , -2.65343879E-05, 918.1212    , 31.9633961  , 824.015     , 1.33        , 3           , 255         , 0           , 0
-0.153288946, 0.10362567  , -9.794337   , -0.0002858576, 2.58809887E-05, 0.000100094519, -0.0104952883, -0.01510012 , -2.55361228E-05, 918.1212    , 31.9633961  , 824.014832  , 1.34        , 3           , 255         , 0           , 0
-0.1447289  , 0.107954517 , -9.789687   , -0.000148208579, -0.000131621549, -0.0005373047, -0.0104966881, -0.0151014924, -3.089555E-05, 918.1212    , 31.9633961  , 824.014648  , 1.35        , 3           , 255         , 0           , 0
-0.144759908, 0.100628451 , -9.788457   , 0.0005856911, 0.000156372029, 0.000423654885, -0.0104908962, -0.0150998831, -2.66752668E-05, 918.1212    , 31.9633961  , 824.014465  , 1.36        , 3           , 255         , 0           , 0
-0.14312759 , 0.1012089   , -9.78974152 , -0.000112523558, 0.000424026919, 0.000228461955, -0.0104920557, -0.0150956195, -2.443505E-05, 918.1212    , 31.9633961  , 824.0143    , 1.37        , 3           , 255         , 0           , 0
-0.143494129, 0.102520682 , -9.794922   , -0.000540998648, -0.0005295466, 9.818103E-05, -0.0104974806, -0.0151009047, -2.3397628E-05, 918.1212    , 31.9633961  , 824.0141    , 1.38        , 3           , 255         , 0           , 0
-0.151686758, 0.100428164 , -9.793421   , 0.0007239317, 2.72690668E-05, 2.81266839E-05, -0.0104902452, -0.0151006281, -2.31192171E-05, 918.1212    , 31.9633961  , 824.0139    , 1.39        , 3           , 255         , 0           , 0
-0.149344042, 0.102120578 , -9.792864   , 0.0002861297, 0.000131171808, 0.0001469803, -0.0104874065, -0.015099301, -2.166312E-05, 918.1212    , 31.9633961  , 824.013733  , 1.4         , 3           , 255         , 0           , 0
-0.145939156, 0.104127564 , -9.791178   , 8.89675E-06 , 6.68009743E-05, -0.000132677611, -0.01048617 , -0.0150924753, -2.30139522E-05, 918.1212    , 31.9633961  , 824.0069    , 1.41        , 3           , 255         , 0           , 0
-0.147236913, 0.1059232   , -9.797025   , 0.000790874765, 0.000590298558, 0.00014678626, -0.0104782842, -0.0150865577, -2.16079225E-05, 918.1212    , 31.9633961  , 824.0067    , 1.42        , 3           , 255         , 0           , 0
-0.14827393 , 0.105454363 , -9.795518   , 8.320375E-05, 2.34518666E-05, 0.000220317947, -0.0104774851, -0.0150863007, -1.94071235E-05, 918.1128    , 31.9654312  , 824.006531  , 1.43        , 3           , 255         , 0           , 0
-0.1490241  , 0.09985067  , -9.791661   , 1.941243E-05, 0.000126750558, -0.0003756624, -0.0104772346, -0.0150850723, -2.31771464E-05, 918.1128    , 31.9654312  , 824.006348  , 1.44        , 3           , 255         , 0           , 0
-0.155189812, 0.09939177  , -9.797055   , 0.000590884243, 0.000418199284, 0.000207186851, -0.0104713589, -0.0150808729, -2.114902E-05, 918.1128    , 31.9654312  , 824.006165  , 1.45        , 3           , 255         , 0           , 0
-0.150493786, 0.101968572 , -9.791802   , 0.0005814325, 0.000419917051, 0.00018494617, -0.0104655717, -0.0150766531, -1.93434535E-05, 918.1128    , 31.9654312  , 824.006     , 1.46        , 3           , 255         , 0           , 0
-0.139727369, 0.103052653 , -9.789969   , -0.000213595049, 0.000278165739, -0.000300916232, -0.0104676615, -0.0150739029, -2.23818224E-05, 918.1128    , 31.9654312  , 824.0058    , 1.47        , 3           , 255         , 0           , 0
-0.149395153, 0.10135217  , -9.798645   , -1.44347432E-05, -0.000288602081, 0.000557480264, -0.0104678907, -0.01507673 , -1.67766248E-05, 918.1128    , 31.9654312  , 824.0056    , 1.48        , 3           , 255         , 0           , 0
-0.14333722 , 0.101470672 , -9.79931    , 9.040427E-05, 7.063302E-05, 5.75528029E-05, -0.0104669947, -0.015076017, -1.62084762E-05, 918.1128    , 31.9654312  , 824.005432  , 1.49        , 3           , 255         , 0           , 0
-0.142880112, 0.09664929  , -9.795697   , 0.000394412782, -5.08712255E-05, 0.000437756564, -0.0104631158, -0.01507648 , -1.18254438E-05, 918.1128    , 31.9654312  , 824.005249  , 1.5         , 3           , 255         , 0           , 0
-0.14667733 , 0.10103792  , -9.789547   , -2.1634216E-05, -0.000428270956, 0.000231789178, -0.0104618324, -0.0150793586, -9.485828E-06, 918.1128    , 31.9654312  , 824.0079    , 1.51        , 3           , 255         , 0           , 0
-0.145752445, 0.1069141   , -9.790355   , 0.000189388025, -0.000200048555, 0.000133357258, -0.0104599586, -0.0150813451, -8.131283E-06, 918.1128    , 31.9654312  , 824.0077    , 1.52        , 3           , 255         , 0           , 0
-0.143038079, 0.103776023 , -9.790685   , 0.0006977108, -0.000500455848, 0.0004645908, -0.0104530528, -0.0150862969, -3.43288229E-06, 918.1218    , 31.9641418  , 824.0075    , 1.53        , 3           , 255         , 0           , 0
-0.152081311, 0.10231062  , -9.787265   , 0.000134379487, -0.000223378651, 0.000671557966, -0.0104518095, -0.0150884613, 3.30627336E-06, 918.1218    , 31.9641418  , 824.0073    , 1.54        , 3           , 255         , 0           , 0
-0.13643682 , 0.0970537439, -9.790808   , -0.00015335303, 0.000342523825, 0.0005528604, -0.0104534272, -0.0150849773, 8.799264E-06, 918.1218    , 31.9641418  , 824.007141  , 1.55        , 3           , 255         , 0           , 0
-0.134104773, 0.103140339 , -9.793811   , 1.67098478E-05, -3.461429E-05, 0.000150660024, -0.0104532829, -0.0150853079, 1.0309539E-05, 918.1218    , 31.9641418  , 824.006958  , 1.56        , 3           , 255         , 0           , 0
-0.148252457, 0.105953589 , -9.79427052 , 0.0005115477, -0.000484583317, -0.0002437572, -0.0104481317, -0.01509018 , 7.922528E-06, 918.1218    , 31.9641418  , 824.0068    , 1.57        , 3           , 255         , 0           , 0
-0.150920838, 0.0999424756, -9.791955   , 0.0007515955, 0.0004065456, 0.000132044923, -0.0104406364, -0.0150861032, 9.200563E-06, 918.1218    , 31.9641418  , 824.0066    , 1.58        , 3           , 255         , 0           , 0
-0.1542238  , 0.09588399  , -9.790357   , 0.000354298973, -5.68541E-05, 0.0003616691, -0.0104371458, -0.0150866313, 1.2823305E-05, 918.1218    , 31.9641418  , 824.0064    , 1.59        , 3           , 255         , 0           , 0
-0.147707433, 0.0951350555, -9.793719   , 0.000399664947, 0.000324813474, 0.000502462 , -0.0104332268, -0.0150833307, 1.78141963E-05, 918.1218    , 31.9641418  , 824.0062    , 1.6         , 3           , 255         , 0           , 0
-0.14383024 , 0.102577433 , -9.795535   , 0.0004398015, 6.338151E-05, 0.000527392 , -0.0104253618, -0.0150774363, 2.30282367E-05, 918.1218    , 31.9641418  , 823.9994    , 1.61        , 3           , 255         , 0           , 0
-0.136866957, 0.111827113 , -9.789309   , 0.0003605308, 0.0005738238, -0.000536137843, -0.0104216766, -0.0150717543, 1.760686E-05, 918.1218    , 31.9641418  , 823.9992    , 1.62        , 3           , 255         , 0           , 0
-0.146435216, 0.105348423 , -9.78861    , 0.000425657781, 0.000108930748, -0.0004200433, -0.0104173552, -0.0150707122, 1.33949352E-05, 918.1017    , 31.9665165  , 823.999     , 1.63        , 3           , 255         , 0           , 0
-0.14682059 , 0.10731075  , -9.79379    , 9.98775358E-05, 8.6183456E-05, -0.000146231148, -0.0104163345, -0.0150698628, 1.19235929E-05, 918.1017    , 31.9665165  , 823.99884   , 1.64        , 3           , 255         , 0           , 0
-0.137491226, 0.09704838  , -9.788743   , -0.0001731618, 6.197908E-05, 0.0003190101, -0.0104181143, -0.0150692109, 1.51073527E-05, 918.1017    , 31.9665165  , 823.998657  , 1.65        , 3           , 255         , 0           , 0
-0.1389114  , 0.106548168 , -9.79013252 , -0.000116751587, -0.000291715318, 2.64590635E-05, -0.0104192868, -0.0150721259, 1.54023473E-05, 918.1017    , 31.9665165  , 823.9985    , 1.66        , 3           , 255         , 0           , 0
-0.139049277, 0.108080909 , -9.785482   , -0.000105004059, -0.0009289812, -0.00010581431, -0.0104203215, -0.0150814261, 1.44409632E-05, 918.1017    , 31.9665165  , 823.9983    , 1.67        , 3           , 255         , 0           , 0
-0.145813555, 0.105989613 , -9.79268    , 0.000428377942, -0.000290533237, 0.000112526941, -0.0104160551, -0.0150843179, 1.55965536E-05, 918.1017    , 31.9665165  , 823.9981    , 1.68        , 3           , 255         , 0           , 0
-0.150083035, 0.106707975 , -9.782709   , 0.000173539942, -3.00674E-05, -6.559232E-05, -0.0104143107, -0.0150846252, 1.4943731E-05, 918.1017    , 31.9665165  , 823.9979    , 1.69        , 3           , 255         , 0           , 0
-0.14503558 , 0.109745957 , -9.7931385  , 0.0005223009, 1.757039E-05, -0.001004642, -0.0104089351, -0.0150845554, 4.89514423E-06, 918.1017    , 31.9665165  , 823.997742  , 1.7         , 3           , 255         , 0           , 0
-0.136812508, 0.09681523  , -9.792441   , 0.0006396586, -3.05572175E-05, -0.0003331352, -0.0104152625, -0.0150709273, 1.75937339E-06, 918.1017    , 31.9665165  , 824.013733  , 1.71        , 3           , 255         , 0           , 0
-0.144209132, 0.09831229  , -9.791639   , -0.00039837003, 3.9452163E-05, 0.0006688392, -0.0104193464, -0.0150704617, 8.443879E-06, 918.1017    , 31.9665165  , 824.0136    , 1.72        , 3           , 255         , 0           , 0
-0.140622109, 0.101830259 , -9.783671   , 9.63834755E-05, -6.794324E-05, 7.85190059E-05, -0.0104183946, -0.0150711322, 9.236175E-06, 918.1402    , 31.9690266  , 824.0135    , 1.73        , 3           , 255         , 0           , 0
-0.1423277  , 0.110515356 , -9.79541    , 0.000388666231, -0.000299772073, 0.000208601108, -0.01041454 , -0.0150741078, 1.13534788E-05, 918.1402    , 31.9690266  , 824.0134    , 1.74        , 3           , 255         , 0           , 0
-0.152160212, 0.111620761 , -9.795031   , 0.000102599442, -0.000251231249, -5.69039839E-05, -0.0104135042, -0.0150766261, 1.081058E-05, 918.1402    , 31.9690266  , 824.013367  , 1.75        , 3           , 255         , 0           , 0
-0.157103419, 0.107267343 , -9.795306   , 0.000186005083, -6.5637345E-05, -8.245464E-06, -0.0104116425, -0.0150772836, 1.073496E-05, 918.1402    , 31.9690266  , 824.0133    , 1.76        , 3           , 255         , 0           , 0
-0.144995138, 0.108012617 , -9.799644   , -0.000179376919, -4.594098E-06, -5.464212E-05, -0.0104134288, -0.0150773348, 1.01889973E-05, 918.1402    , 31.9690266  , 824.013245  , 1.77        , 3           , 255         , 0           , 0
-0.146218866, 0.100337639 , -9.792189   , 1.28510874E-05, 1.58649636E-05, -0.000198307665, -0.01041327 , -0.015077197, 8.204203E-06, 918.1402    , 31.9690266  , 824.0132    , 1.78        , 3           , 255         , 0           , 0
-0.14697063 , 0.09733401  , -9.796057   , -0.000203725474, -0.000289470481, -0.000457726768, -0.0104152393, -0.0150801409, 3.65692631E-06, 918.1402    , 31.9690266  , 824.0131    , 1.79        , 3           , 255         , 0           , 0
-0.143021375, 0.106432118 , -9.79852    , 0.000145312079, -0.0004432457, -0.00062629726, -0.0104136905, -0.0150846345, -2.56010412E-06, 918.1402    , 31.9690266  , 824.013062  , 1.8         , 3           , 255         , 0           , 0
-0.144841745, 0.107583925 , -9.790281   , -0.000240016845, -0.000140700547, 0.00102807616, -0.0104203839, -0.01508096 , 7.798072E-06, 918.1402    , 31.9690266  , 823.984131  , 1.81        , 3           , 255         , 0           , 0
-0.143290013, 0.103933312 , -9.794827   , 2.50911689E-05, -6.429793E-05, 0.000220899383, -0.010420166, -0.0150815779, 1.00138468E-05, 918.1402    , 31.9690266  , 823.9839    , 1.82        , 3           , 255         , 0           , 0
-0.133848548, 0.09392808  , -9.797026   , 0.000389964844, 0.000344861939, -0.0003050411, -0.010416219, -0.015078159, 6.927405E-06, 918.1328    , 31.9686184  , 823.983643  , 1.83        , 3           , 255         , 0           , 0
-0.151469767, 0.09143802  , -9.804959   , -0.000128540385, 0.000176135392, -0.0005804165, -0.0104174167, -0.0150764585, 1.10468875E-06, 918.1328    , 31.9686184  , 823.9834    , 1.84        , 3           , 255         , 0           , 0
-0.148501351, 0.106015325 , -9.797188   , -0.0001268214, -0.000119966164, -0.0001912335, -0.0104186572, -0.0150776785, -7.95214362E-07, 918.1328    , 31.9686184  , 823.983154  , 1.85        , 3           , 255         , 0           , 0
-0.1459786  , 0.112878338 , -9.798109   , -0.0006001327, -0.000563062844, 0.000404485036, -0.0104247211, -0.0150832664, 3.308456E-06, 918.1328    , 31.9686184  , 823.9829    , 1.86        , 3           , 255         , 0           , 0
-0.156185538, 0.1114613   , -9.791713   , -7.72475E-05, -4.19605058E-05, -7.527953E-05, -0.010425481, -0.0150836948, 2.560002E-06, 918.1328    , 31.9686184  , 823.982666  , 1.87        , 3           , 255         , 0           , 0
-0.1480186  , 0.11571525  , -9.79572    , 0.000396713964, -0.000147045008, 0.00111228053, -0.0104216812, -0.0150850508, 1.36985245E-05, 918.1328    , 31.9686184  , 823.9824    , 1.88        , 3           , 255         , 0           , 0
-0.141704559, 0.103295706 , -9.80024    , 5.18760935E-05, -0.000108838722, 0.0005897573, -0.0104212519, -0.0150860762, 1.96076417E-05, 918.1328    , 31.9686184  , 823.9822    , 1.89        , 3           , 255         , 0           , 0
-0.149670467, 0.0975610241, -9.790346   , -0.000154077949, 2.241938E-05, 0.000443104247, -0.01042286 , -0.0150858061, 2.40365043E-05, 918.1328    , 31.9686184  , 823.981934  , 1.9         , 3           , 255         , 0           , 0
-0.156054944, 0.108429812 , -9.799579   , -0.000225417723, 7.3100935E-05, -0.000125386257, -0.01042958 , -0.0150824487, 2.284265E-05, 918.1328    , 31.9686184  , 823.9645    , 1.91        , 3           , 255         , 0           , 0
-0.15245    , 0.092919305 , -9.802706   , -0.000205683464, 0.000136170769, -0.000672300637, -0.0104315365, -0.0150811588, 1.61052067E-05, 918.1328    , 31.9686184  , 823.9642    , 1.92        , 3           , 255         , 0           , 0
-0.159857348, 0.105149165 , -9.796864   , -7.02223042E-06, -9.5262425E-05, -0.000176705973, -0.0104315793, -0.01508213 , 1.434803E-05, 918.123535  , 31.968483   , 823.963867  , 1.93        , 3           , 255         , 0           , 0
-0.1528177  , 0.112127766 , -9.79774    , 0.0002244917, -1.80052011E-05, 0.0001375624, -0.0104293553, -0.0150822951, 1.57255763E-05, 918.123535  , 31.968483   , 823.963562  , 1.94        , 3           , 255         , 0           , 0
-0.1481859  , 0.109044708 , -9.796885   , -3.41339037E-05, -0.00052225386, -0.000540665, -0.0104296152, -0.0150875747, 1.03732109E-05, 918.123535  , 31.968483   , 823.963257  , 1.95        , 3           , 255         , 0           , 0
-0.155499145, 0.09539096  , -9.795056   , 0.0003323814, -0.000170111889, 0.0005126877, -0.0104263686, -0.0150892222, 1.55180223E-05, 918.123535  , 31.968483   , 823.962952  , 1.96        , 3           , 255         , 0           , 0
-0.146753833, 0.100609764 , -9.798021   , 0.000521950133, 5.001237E-05, 5.29631834E-05, -0.0104211578, -0.0150887165, 1.60424534E-05, 918.123535  , 31.968483   , 823.962646  , 1.97        , 3           , 255         , 0           , 0
-0.147315487, 0.09765841  , -9.800161   , 0.000105223677, 8.072262E-05, -0.000337142963, -0.0104200551, -0.0150879445, 1.26624955E-05, 918.123535  , 31.968483   , 823.962341  , 1.98        , 3           , 255         , 0           , 0
-0.149962157, 0.103554785 , -9.794532   , 0.00020863433, -0.000480354473, -0.0004290514, -0.0104179028, -0.015092792, 8.421868E-06, 918.123535  , 31.968483   , 823.962036  , 1.99        , 3           , 255         , 0           , 0
-0.143935084, 0.09372984  , -9.786838   , -3.004499E-05, 3.18570528E-07, -0.000439535885, -0.0104181375, -0.0150928339, 4.026333E-06, 918.123535  , 31.968483   , 823.961731  , 2           , 3           , 0           , 7.49623632  , 200
-0.139934823, 0.101438522 , -9.791458   , 0.00013113633, 0.000239105808, 0.0004283211, -0.010416314, -0.01509669 , 8.276073E-06, 918.123535  , 31.968483   , 823.957642  , 2.01        , 3           , 1           , 0           , 0
-0.142380625, 0.0923039541, -9.797419   , 0.000238166278, 0.0001139674, -0.0009386658, -0.0104137911, -0.01509565 , -1.122779E-06, 918.123535  , 31.968483   , 823.957336  , 2.02        , 3           , 2           , 0           , 0
-0.153051183, 0.09941401  , -9.789106   , 0.0004196228, 0.000371315982, -0.001113169, -0.0104094259, -0.0150920544, -1.22935107E-05, 918.15      , 31.9694328  , 823.957031  , 2.03        , 3           , 3           , 0           , 0
-0.147916645, 0.10868676  , -9.785775   , 0.000364682 , 0.000128850777, -0.000828116667, -0.010405655, -0.01509085 , -2.05883716E-05, 918.15      , 31.9694328  , 823.9567    , 2.04        , 3           , 4           , 0           , 0
-0.148847863, 0.105284646 , -9.794624   , 0.000308089337, 0.000431287684, 8.336427E-05, -0.0104025872, -0.0150865279, -1.97995687E-05, 918.15      , 31.9694328  , 823.9564    , 2.05        , 3           , 5           , 0           , 0
-0.145025492, 0.102618359 , -9.797816   , 0.00047574396, 8.984134E-05, 0.000133271329, -0.0103978487, -0.0150856189, -1.84761575E-05, 918.15      , 31.9694328  , 823.9561    , 2.06        , 3           , 6           , 0           , 0
-0.146413416, 0.09826648  , -9.788531   , -0.000203736359, 0.000225507771, -0.000346058136, -0.0103998324, -0.0150833987, -2.19603116E-05, 918.15      , 31.9694328  , 823.9558    , 2.07        , 3           , 7           , 0           , 0
-0.144580126, 0.1018576   , -9.798246   , 2.74827762E-05, -8.974905E-05, 2.45110641E-06, -0.0103995577, -0.0150842946, -2.19264675E-05, 918.15      , 31.9694328  , 823.9555    , 2.08        , 3           , 8           , 5           , 5
-0.139469713, 0.10546799  , -9.798121   , 0.000253076025, -0.0001517993, 0.0002680122, -0.0103970692, -0.0150857847, -1.92304724E-05, 918.15      , 31.9694328  , 823.9552    , 2.09        , 3           , 9           , 5           , 0.1
-0.1385494  , 0.102729321 , -9.794748   , 0.000173402019, -0.000272909238, 0.000316022924, -0.0103953844, -0.0150884818, -1.60417476E-05, 918.15      , 31.9694328  , 823.9549    , 2.1         , 3           , 10          , 0.1         , 0.1
-0.150764078, 0.09915273  , -9.796361   , -0.0003508416, -0.000290014141, -0.0003427887, -0.01039865 , -0.0150845209, -1.9442472E-05, 918.15      , 31.9694328  , 823.9185    , 2.11        , 3           , 11          , 0.00812972151, 0.00812972
-0.160200417, 0.103486463 , -9.79305649 , -6.08323026E-05, -0.0001318152, -0.0008032583, -0.0103991358, -0.0150859226, -2.74616286E-05, 918.15      , 31.9694328  , 823.917969  , 2.12        , 3           , 12          , 0.174643889 , 0
-0.147617653, 0.100637689 , -9.794043   , 0.0001385367, -0.0005571914, -0.000534441264, -0.0103976727, -0.0150915505, -3.274829E-05, 918.08374   , 31.9696369  , 823.9174    , 2.13        , 3           , 13          , 0           , 0
-0.153703079, 0.101065651 , -9.796888   , -0.000179701659, -0.000133168418, 3.075369E-05, -0.010399472, -0.0150928767, -3.24268876E-05, 918.08374   , 31.9696369  , 823.9169    , 2.14        , 3           , 14          , -0.000505530566, -0.000538020453
-0.142196029, 0.102917291 , -9.78857    , 6.4990134E-05, 0.000306693866, -0.0006461128, -0.010398726, -0.0150898769, -3.892014E-05, 918.08374   , 31.9696369  , 823.9163    , 2.15        , 3           , 15          , 0           , -5.66910749E-05
-0.141703144, 0.09679389  , -9.793266   , 0.000298953732, 5.2228017E-05, 0.000107085027, -0.0103957523, -0.0150893433, -3.78546829E-05, 918.08374   , 31.9696369  , 823.9158    , 2.16        , 3           , 16          , 0           , 1.401298E-45
-0.152214617, 0.107847668 , -9.795131   , 0.000439011434, 0.0005402591, 9.736038E-05, -0.010391375, -0.0150839332, -3.69372E-05, 918.08374   , 31.9696369  , 823.9152    , 2.17        , 3           , 20          , 0           , 0
-0.15874441 , 0.105338    , -9.797777   , 3.08135059E-05, 0.0003034252, 8.027888E-06, -0.0103910686, -0.0150809  , -3.68884539E-05, 918.08374   , 31.9696369  , 823.9147    , 2.18        , 3           , 21          , 0           , 0
-0.145257011, 0.112117507 , -9.807123   , -5.7172263E-05, -4.359719E-05, 0.000440603239, -0.0103917075, -0.0150812892, -3.2477732E-05, 918.08374   , 31.9696369  , 823.9142    , 2.19        , 3           , 22          , 0           , 0
-0.144126579, 0.103133678 , -9.79501152 , 0.000146977662, -0.000474806118, 0.000273144949, -0.01039028 , -0.0150860073, -2.96968483E-05, 918.08374   , 31.9696369  , 823.9137    , 2.2         , 3           , 40          , 0           , 0
-0.150812134, 0.09784542  , -9.793465   , 9.2051836E-05, -0.000194161083, -0.000259461463, -0.0103918836, -0.0150913317, -3.2232685E-05, 918.08374   , 31.9696369  , 823.9658    , 2.21        , 3           , 41          , 0           , 0
-0.1477436  , 0.107190333 , -9.798749   , -0.000220195914, 0.000307425 , -0.000333092234, -0.0103940349, -0.0150882928, -3.559568E-05, 918.08374   , 31.9696369  , 823.965637  , 2.22        , 3           , 42          , 0           , 0
-0.14507167 , 0.104322053 , -9.786108   , 0.000296196551, -9.78327E-05, -0.0005524061, -0.0103909895, -0.0150893284, -4.110977E-05, 918.0884    , 31.9699078  , 823.965454  , 2.23        , 3           , 255         , 0           , 0
-0.1487231  , 0.103378139 , -9.789594   , -0.000154928828, -0.0004333288, -0.00045320866, -0.0103924694, -0.0150937084, -4.55969857E-05, 918.0884    , 31.9699078  , 823.9653    , 2.24        , 3           , 255         , 0           , 0
-0.142735884, 0.107429959 , -9.795637   , 0.000139246724, -6.70171E-05, -0.000145222948, -0.0103910547, -0.0150943939, -4.70423E-05, 918.0884    , 31.9699078  , 823.9651    , 2.25        , 3           , 255         , 0           , 0
-0.138337463, 0.106346294 , -9.7911     , 0.000274240825, -0.00043674378, 0.0002215027, -0.0103883473, -0.0150987385, -4.47818165E-05, 918.0884    , 31.9699078  , 823.9649    , 2.26        , 3           , 255         , 0           , 0
-0.145086408, 0.103907369 , -9.792147   , 0.000617824 , -0.000260533241, 0.000522842631, -0.0103822472, -0.0151012884, -3.95261377E-05, 918.0884    , 31.9699078  , 823.9647    , 2.27        , 3           , 255         , 0           , 0
-0.143797249, 0.10468068  , -9.796868   , 0.0002840559, 0.000335022341, -0.000151507047, -0.0103793852, -0.0150979534, -4.10760367E-05, 918.0884    , 31.9699078  , 823.964539  , 2.28        , 3           , 255         , 0           , 0
-0.143514335, 0.09574017  , -9.796757   , -0.0001136536, -5.455216E-05, 0.000163086515, -0.0103805456, -0.0150984833, -3.94394629E-05, 918.0884    , 31.9699078  , 823.964355  , 2.29        , 3           , 255         , 0           , 0
-0.134047121, 0.109546468 , -9.799466   , -9.72033E-06, -8.37192638E-05, 0.000157093164, -0.0103806667, -0.0150993038, -3.78597833E-05, 918.0884    , 31.9699078  , 823.9642    , 2.3         , 3           , 255         , 0           , 0
-0.141311154, 0.10875871  , -9.790529   , 0.0004404118, 0.000269460172, 0.000139894 , -0.0103808912, -0.0150887137, -3.641924E-05, 918.0884    , 31.9699078  , 824.0054    , 2.31        , 3           , 255         , 0           , 0
-0.145095736, 0.101613976 , -9.788789   , -0.000106168678, -0.000325784669, 0.0007554835, -0.0103820665, -0.0150918933, -2.88303218E-05, 918.0884    , 31.9699078  , 824.0055    , 2.32        , 3           , 255         , 0           , 0
-0.13680315 , 0.111074463 , -9.793714   , -0.000214317115, -0.0003016641, 0.0004844928, -0.010384283, -0.01509486 , -2.39539022E-05, 918.128845  , 31.972147   , 824.0056    , 2.33        , 3           , 255         , 0           , 0
-0.143217325, 0.103284478 , -9.79560852 , 0.000303649722, -0.000357934856, 0.000497932 , -0.0103813214, -0.0150983874, -1.893724E-05, 918.128845  , 31.972147   , 824.005737  , 2.34        , 3           , 255         , 0           , 0
-0.152516812, 0.100068852 , -9.790892   , 0.000206212571, 0.0003854181, -0.0005021504, -0.010379184, -0.0150945848, -2.39989313E-05, 918.128845  , 31.972147   , 824.005859  , 2.35        , 3           , 255         , 0           , 0
-0.143027246, 0.102574982 , -9.794031   , 0.000418336655, 0.00035032208, 0.000251830061, -0.0103750369, -0.015091056, -2.15168984E-05, 918.128845  , 31.972147   , 824.006     , 2.36        , 3           , 255         , 0           , 0
-0.137956619, 0.0950046852, -9.789377   , 0.000314701028, 0.000198234338, 0.00033849178, -0.0103719411, -0.0150890388, -1.81524247E-05, 918.128845  , 31.972147   , 824.0061    , 2.37        , 3           , 255         , 0           , 0
-0.145258471, 0.100402176 , -9.787155   , -0.000245149131, -0.000150281412, 0.000397392985, -0.0103744511, -0.0150905  , -1.41627743E-05, 918.128845  , 31.972147   , 824.0062    , 2.38        , 3           , 255         , 0           , 0
-0.147531793, 0.102969028 , -9.788984   , -9.21064056E-05, -1.09809334E-05, 0.00034111744, -0.0103754252, -0.0150905745, -1.07503392E-05, 918.128845  , 31.972147   , 824.006348  , 2.39        , 3           , 255         , 0           , 0
-0.152915388, 0.1028255   , -9.793746   , 0.000355304626, 8.620875E-05, -0.000352639065, -0.0103718182, -0.0150897484, -1.4285788E-05, 918.128845  , 31.972147   , 824.0065    , 2.4         , 3           , 255         , 0           , 0
-0.152849987, 0.106400713 , -9.796748   , 0.000642582 , 5.204373E-05, -0.0002996932, -0.0103683034, -0.0150813488, -1.72436539E-05, 918.128845  , 31.972147   , 823.989441  , 2.41        , 3           , 255         , 0           , 0
-0.147930533, 0.104719877 , -9.799608   , 0.000126147148, -0.000315151119, 0.00020887953, -0.0103670741, -0.0150844781, -1.51221138E-05, 918.128845  , 31.972147   , 823.989441  , 2.42        , 3           , 255         , 0           , 0
-0.1437816  , 0.09325877  , -9.792506   , 0.000587176 , 1.41822384E-05, 0.000311109761, -0.01036125 , -0.015084303, -1.20123877E-05, 918.1017    , 31.9712639  , 823.989441  , 2.43        , 3           , 255         , 0           , 0
-0.157315612, 0.101534985 , -9.791899   , -9.539077E-05, 0.0002211614, -0.000213250591, -0.0103621725, -0.0150821144, -1.416788E-05, 918.1017    , 31.9712639  , 823.989441  , 2.44        , 3           , 255         , 0           , 0
-0.150213152, 0.106761038 , -9.790232   , -0.000100362871, 0.000231018843, 0.000615960162, -0.0103632687, -0.01507974 , -8.032007E-06, 918.1017    , 31.9712639  , 823.989441  , 2.45        , 3           , 255         , 0           , 0
-0.148603216, 0.107623436 , -9.793003   , 0.000206029246, -0.0002647976, -0.000707619241, -0.0103611015, -0.0150824608, -1.50810083E-05, 918.1017    , 31.9712639  , 823.989441  , 2.46        , 3           , 255         , 0           , 0
-0.149579138, 0.114953876 , -9.787987   , 9.89772961E-05, -0.000138557516, -0.000285776041, -0.0103600686, -0.0150838755, -1.79245144E-05, 918.1017    , 31.9712639  , 823.989441  , 2.47        , 3           , 255         , 0           , 0
-0.147077769, 0.101829216 , -9.785978   , 0.000176408008, 0.000339910883, 0.000485739671, -0.0103583774, -0.01508043 , -1.31021561E-05, 918.1017    , 31.9712639  , 823.989441  , 2.48        , 3           , 255         , 0           , 0
-0.153770983, 0.09089648  , -9.796036   , 0.000329187867, 0.00023997837, -0.000428029918, -0.0103550209, -0.0150780724, -1.740746E-05, 918.1017    , 31.9712639  , 823.989441  , 2.49        , 3           , 255         , 0           , 0
-0.147454783, 0.09484453  , -9.796843   , -0.000153139234, 0.000180596369, -0.000771287538, -0.0103564365, -0.0150763467, -2.51392976E-05, 918.1017    , 31.9712639  , 823.989441  , 2.5         , 3           , 255         , 0           , 0
-0.146981448, 0.107339665 , -9.798712   , -3.33378557E-06, 0.00013600057, -0.0005155844, -0.0103580346, -0.015079488, -3.02846474E-05, 918.1017    , 31.9712639  , 824.0107    , 2.51        , 3           , 255         , 0           , 0
-0.146012545, 0.103253387 , -9.790937   , 0.000262720918, 5.72653371E-05, -0.000509498059, -0.010355331, -0.0150789674, -3.538574E-05, 918.1017    , 31.9712639  , 824.010864  , 2.52        , 3           , 255         , 0           , 0
-0.146795228, 0.100671671 , -9.792186   , -0.000165289675, 0.000253537961, -0.000447384635, -0.0103569152, -0.015076478, -3.9885992E-05, 918.1281    , 31.9726219  , 824.011047  , 2.53        , 3           , 255         , 0           , 0
-0.1487294  , 0.0995745361, -9.792797   , -0.0004947857, 0.000323733169, -0.000230883132, -0.010361827, -0.0150732649, -4.222844E-05, 918.1281    , 31.9726219  , 824.0112    , 2.54        , 3           , 255         , 0           , 0
-0.142603949, 0.104734346 , -9.795366   , -0.000153154775, 0.000116260489, 0.000148040155, -0.01036338 , -0.0150720878, -4.076004E-05, 918.1281    , 31.9726219  , 824.0114    , 2.55        , 3           , 255         , 0           , 0
-0.147046745, 0.107053086 , -9.79509    , 2.76471837E-05, 0.000261522073, 0.00015732499, -0.0103631271, -0.0150694558, -3.92138354E-05, 918.1281    , 31.9726219  , 824.0116    , 2.56        , 3           , 255         , 0           , 0
-0.137595579, 0.0940109044, -9.793895   , -0.0005489838, -9.125442E-05, 0.0005482715, -0.0103686992, -0.0150703127, -3.37214769E-05, 918.1281    , 31.9726219  , 824.0118    , 2.57        , 3           , 255         , 0           , 0
-0.140217528, 0.101200067 , -9.793075   , -0.000109991175, -0.000304579153, 0.000412933878, -0.0103698615, -0.0150733152, -2.9560415E-05, 918.1281    , 31.9726219  , 824.011963  , 2.58        , 3           , 255         , 0           , 0
-0.152076215, 0.107782342 , -9.799312   , 3.17988452E-06, -0.000524622854, -0.000164171885, -0.0103698056, -0.0150785791, -3.114778E-05, 918.1281    , 31.9726219  , 824.012146  , 2.59        , 3           , 255         , 0           , 0
-0.154170468, 0.116449632 , -9.802838   , -0.0002732483, -0.0003214543, -0.000300150015, -0.0103724925, -0.0150818219, -3.41160448E-05, 918.1281    , 31.9726219  , 824.0123    , 2.6         , 3           , 255         , 0           , 0
-0.1412673  , 0.111664988 , -9.802379   , -0.000131641747, -0.000104459294, -0.000444190053, -0.0103784669, -0.0150803914, -3.8476046E-05, 918.1281    , 31.9726219  , 823.9948    , 2.61        , 3           , 255         , 0           , 0
-0.148938134, 0.1138453   , -9.799586   , -5.45662479E-05, -0.000217225286, 6.158709E-05, -0.010379022, -0.0150825568, -3.78375953E-05, 918.1281    , 31.9726219  , 823.9949    , 2.62        , 3           , 255         , 0           , 0
-0.1569289  , 0.111314416 , -9.784149   , 0.000308057235, -0.0005154608, 0.000363117666, -0.0103759952, -0.0150876734, -3.41528066E-05, 918.14386   , 31.9730968  , 823.994934  , 2.63        , 3           , 255         , 0           , 0
-0.153764933, 0.105158545 , -9.798645   , 0.0005904311, -0.000373069721, -0.000101455153, -0.0103700757, -0.0150914136, -3.512869E-05, 918.14386   , 31.9730968  , 823.995     , 2.64        , 3           , 255         , 0           , 0
-0.154040337, 0.1059729   , -9.797118   , -0.0002685347, -0.00057743123, -0.0001059403, -0.0103727467, -0.0150971981, -3.612825E-05, 918.14386   , 31.9730968  , 823.995056  , 2.65        , 3           , 255         , 0           , 0
-0.156205162, 0.10081812  , -9.786458   , -5.39019238E-05, -0.000120626821, 0.000112608963, -0.0103733018, -0.015098393, -3.498961E-05, 918.14386   , 31.9730968  , 823.9951    , 2.66        , 3           , 255         , 0           , 0
-0.139533   , 0.09490725  , -9.787943   , 0.000111635105, 0.000111259433, 0.00060919096, -0.0103722773, -0.0150972176, -2.89090312E-05, 918.14386   , 31.9730968  , 823.9952    , 2.67        , 3           , 255         , 0           , 0
-0.144874513, 0.101873316 , -9.79702    , 0.0005107171, 0.000660697464, 0.000407155341, -0.0103672314, -0.0150905717, -2.49058521E-05, 918.14386   , 31.9730968  , 823.995239  , 2.68        , 3           , 255         , 0           , 0
-0.148000985, 0.108175    , -9.7899     , 0.00107026123, 0.000463929 , -0.000122405225, -0.0103565091, -0.015085943, -2.61780133E-05, 918.14386   , 31.9730968  , 823.9953    , 2.69        , 3           , 255         , 0           , 0
-0.139628455, 0.116069973 , -9.792822   , 0.000549889 , -0.000158352486, -6.669131E-05, -0.0103510013, -0.0150875337, -2.682856E-05, 918.14386   , 31.9730968  , 823.995361  , 2.7         , 3           , 255         , 0           , 0
-0.150425181, 0.111539975 , -9.799995   , 7.418555E-05, -0.000212050218, -9.197508E-05, -0.0103606321, -0.0150905559, -2.75696475E-05, 918.14386   , 31.9730968  , 823.9582    , 2.71        , 3           , 255         , 0           , 0
-0.147041947, 0.106101349 , -9.793308   , 0.0001472559, -6.256829E-05, 0.000979109 , -0.0103593068, -0.0150910821, -1.777173E-05, 918.14386   , 31.9730968  , 823.958     , 2.72        , 3           , 255         , 0           , 0
-0.143516809, 0.103864573 , -9.788824   , -0.0002453965, 0.0001074684, 0.00108625321, -0.0103619248, -0.0150898928, -6.91995456E-06, 918.154053  , 31.9711285  , 823.9578    , 2.73        , 3           , 255         , 0           , 0
-0.146918327, 0.104843572 , -9.796153   , -0.0005729508, -0.000178989023, 0.000128946311, -0.0103676738, -0.0150916707, -5.611894E-06, 918.154053  , 31.9711285  , 823.9577    , 2.74        , 3           , 255         , 0           , 0
-0.151429266, 0.104927227 , -9.793745   , -0.000755091431, 5.077335E-05, 0.000132841553, -0.0103752427, -0.0150911491, -4.28869043E-06, 918.154053  , 31.9711285  , 823.9576    , 2.75        , 3           , 255         , 0           , 0
-0.144099981, 0.1013988   , -9.792062   , -0.000289953547, 8.28300253E-05, 0.000172174681, -0.0103781689, -0.0150903035, -2.57548E-06, 918.154053  , 31.9711285  , 823.957458  , 2.76        , 3           , 255         , 0           , 0
-0.151784584, 0.102757417 , -9.787469   , 9.999779E-05, -0.000121641438, -0.000316799327, -0.01037712 , -0.0150915524, -5.73096349E-06, 918.154053  , 31.9711285  , 823.957336  , 2.77        , 3           , 255         , 0           , 0
-0.145877585, 0.103713848 , -9.788894   , -7.107115E-05, 2.79713422E-05, 0.0005730204, -0.0103779174, -0.0150912134, -3.46375E-09, 918.154053  , 31.9711285  , 823.9572    , 2.78        , 3           , 255         , 0           , 0
-0.141903758, 0.104092553 , -9.790444   , -0.0006516898, 0.000700490142, 0.000759822666, -0.0103845475, -0.0150841288, 7.52230471E-06, 918.154053  , 31.9711285  , 823.9571    , 2.79        , 3           , 255         , 0           , 0
-0.150837824, 0.10552527  , -9.795009   , 0.000115916046, 0.0002441821, 0.000253837556, -0.0103834262, -0.0150816608, 1.00354155E-05, 918.154053  , 31.9711285  , 823.957     , 2.8         , 3           , 255         , 0           , 0
-0.158594772, 0.100859426 , -9.798177   , -0.000110227207, 0.000494424836, 0.0002882487, -0.0103912707, -0.0150758354, 1.2967661E-05, 918.154053  , 31.9711285  , 823.911     , 2.81        , 3           , 255         , 0           , 0
-0.149393469, 0.102892891 , -9.797694   , 0.000273257319, 0.000103573228, -8.791161E-06, -0.0103885364, -0.0150748035, 1.286897E-05, 918.154053  , 31.9711285  , 823.9106    , 2.82        , 3           , 255         , 0           , 0
-0.145694152, 0.09962841  , -9.790593   , -0.00017132517, -2.91455071E-05, -0.0005360239, -0.01039017 , -0.015075149, 7.511577E-06, 918.1681    , 31.9720116  , 823.910156  , 2.83        , 3           , 255         , 0           , 0
-0.147765249, 0.09952436  , -9.786259   , 0.0005922038, -5.46783558E-05, -1.65458187E-06, -0.0103842467, -0.0150756957, 7.50071331E-06, 918.1681    , 31.9720116  , 823.9097    , 2.84        , 3           , 255         , 0           , 0
-0.146060243, 0.10744302  , -9.794478   , 0.0009189254, 0.000149972126, 0.000138103191, -0.0103750788, -0.01507418 , 8.866225E-06, 918.1681    , 31.9720116  , 823.9093    , 2.85        , 3           , 255         , 0           , 0
-0.152516872, 0.100812115 , -9.790777   , 0.000800629 , 0.000367111585, -0.000158490177, -0.01036705 , -0.0150705287, 7.24320853E-06, 918.1681    , 31.9720116  , 823.9089    , 2.86        , 3           , 255         , 0           , 0
-0.144874871, 0.0967453942, -9.798052   , -0.0003576529, 0.0003925454, -5.41300324E-05, -0.0103706168, -0.0150666069, 6.66118967E-06, 918.1681    , 31.9720116  , 823.908447  , 2.87        , 3           , 255         , 0           , 0
-0.142072842, 0.10169705  , -9.791583   , -0.0005377318, 2.67083524E-05, -0.0005238643, -0.0103759151, -0.0150663937, 1.419584E-06, 918.1681    , 31.9720116  , 823.908     , 2.88        , 3           , 255         , 0           , 0
-0.14829497 , 0.110494353 , -9.788111   , -0.0005883139, -0.000457616057, -0.000424639875, -0.0103817349, -0.0150710158, -2.779455E-06, 918.1681    , 31.9720116  , 823.9076    , 2.89        , 3           , 255         , 0           , 0
-0.1383032  , 0.108448431 , -9.791913   , -0.000700413133, -0.000243476941, 0.000110297406, -0.0103887562, -0.0150734372, -1.65116785E-06, 918.1681    , 31.9720116  , 823.907166  , 2.9         , 3           , 255         , 0           , 0
-0.15207535 , 0.104012348 , -9.792091   , 0.000527115655, 0.000189930986, 8.99624E-05 , -0.0103858905, -0.0150709655, -7.35180834E-07, 918.1681    , 31.9720116  , 823.8482    , 2.91        , 3           , 255         , 0           , 0
-0.164469719, 0.1064292   , -9.797686   , 0.000584660738, 0.0005007496, 0.000623617845, -0.0103801377, -0.0150658945, 5.44922659E-06, 918.1681    , 31.9720116  , 823.8474    , 2.92        , 3           , 255         , 0           , 0
-0.148809657, 0.104577735 , -9.794329   , 0.000158314186, 0.00027735898, 9.04376357E-05, -0.0103785666, -0.0150631117, 6.32484171E-06, 918.135254  , 31.9716034  , 823.8466    , 2.93        , 3           , 255         , 0           , 0
-0.137627333, 0.108533606 , -9.796709   , 0.000277265848, 0.000425082573, -0.000211742139, -0.0103757614, -0.0150588825, 4.16323655E-06, 918.135254  , 31.9716034  , 823.8458    , 2.94        , 3           , 255         , 0           , 0
-0.158527166, 0.100809529 , -9.800909   , 9.930314E-05, 0.000239673129, -0.000502145558, -0.0103746923, -0.0150565393, -8.8325595E-07, 918.135254  , 31.9716034  , 823.845032  , 2.95        , 3           , 255         , 0           , 0
-0.157745   , 0.09087356  , -9.786977   , 0.0005761511, 0.000168449624, -0.000263805734, -0.0103688911, -0.0150548853, -3.53886639E-06, 918.135254  , 31.9716034  , 823.844238  , 2.96        , 3           , 255         , 0           , 0
-0.14288047 , 0.103006706 , -9.787211   , 8.631265E-05, 0.000481923373, -1.18003227E-05, -0.0103680268, -0.0150500666, -3.70685052E-06, 918.135254  , 31.9716034  , 823.843445  , 2.97        , 3           , 255         , 0           , 0
-0.152748421, 0.101732254 , -9.786539   , 0.000126580184, 0.000469568535, 0.000354725751, -0.0103668133, -0.0150453337, -2.08145039E-07, 918.135254  , 31.9716034  , 823.842651  , 2.98        , 3           , 255         , 0           , 0
-0.142926738, 0.099465616 , -9.791512   , -0.00018729025, 0.000372848532, -2.32966922E-05, -0.0103686815, -0.0150416084, -4.7978E-07 , 918.135254  , 31.9716034  , 823.841858  , 2.99        , 3           , 255         , 0           , 0
-0.13192898 , 0.10470482  , -9.785601   , 9.677204E-05, 4.4121407E-06, 0.000780702569, -0.0103678331, -0.0150414826, 7.327049E-06, 918.135254  , 31.9716034  , 823.841064  , 3           , 3           , 0           , 8.496237    , 300
-0.1470002  , 0.100263156 , -9.792466   , 0.000490805 , -0.000316813472, 0.0004930754, -0.010364674, -0.0150476964, 1.2316018E-05, 918.135254  , 31.9716034  , 823.8374    , 3.01        , 3           , 1           , 0           , 0
-0.151072532, 0.102302074 , -9.800293   , 0.000246078969, 0.000241565576, -3.9103E-05 , -0.010362206, -0.0150452843, 1.1899946E-05, 918.135254  , 31.9716034  , 823.8366    , 3.02        , 3           , 2           , 0           , 0
-0.15260604 , 0.101177834 , -9.796722   , 0.000227883313, 0.000147365034, 0.00041233364, -0.0103599895, -0.0150437681, 1.60081472E-05, 918.11615   , 31.9741135  , 823.8358    , 3.03        , 3           , 3           , 0           , 0
-0.147995546, 0.09945348  , -9.796738   , 0.000139417214, -0.000287438044, -6.751092E-05, -0.010358586, -0.0150466505, 1.53627989E-05, 918.11615   , 31.9741135  , 823.835     , 3.04        , 3           , 4           , 0           , 0
-0.138412938, 0.10885556  , -9.791113   , 0.000782250834, -3.99883138E-05, -7.212315E-05, -0.0103507517, -0.0150470566, 1.46456814E-05, 918.11615   , 31.9741135  , 823.8342    , 3.05        , 3           , 5           , 0           , 0
-0.156630591, 0.111643218 , -9.79879    , 0.000341674 , 7.831966E-05, -0.0001201486, -0.010347317, -0.0150462864, 1.343604E-05, 918.11615   , 31.9741135  , 823.833435  , 3.06        , 3           , 6           , 0           , 0
-0.160305783, 0.103908435 , -9.790492   , -2.23552343E-05, -6.714568E-05, -0.000607074355, -0.01034745 , -0.01504702 , 7.37203527E-06, 918.11615   , 31.9741135  , 823.832642  , 3.07        , 3           , 7           , 0           , 0
-0.1450016  , 0.09525591  , -9.796941   , -0.000294633559, 0.000238513312, 0.00023086225, -0.01035043 , -0.0150446109, 9.656056E-06, 918.11615   , 31.9741135  , 823.831848  , 3.08        , 3           , 8           , 5           , 5
-0.143334791, 0.09596876  , -9.799284   , -0.0005181882, 0.0006848774, -7.773185E-05, -0.0103556011, -0.0150377713, 8.807816E-06, 918.11615   , 31.9741135  , 823.831055  , 3.09        , 3           , 9           , 5           , 0.1
-0.153360367, 0.103827454 , -9.793112   , -0.000199687143, 0.000424289668, -3.55399425E-05, -0.0103575913, -0.0150335357, 8.408457E-06, 918.11615   , 31.9741135  , 823.830261  , 3.1         , 3           , 10          , 0.1         , 0.1
-0.150310487, 0.110815264 , -9.791301   , -0.000193695247, -0.000161130039, 0.000126200684, -0.010360877, -0.0150385508, 9.707189E-06, 918.11615   , 31.9741135  , 823.8553    , 3.11        , 3           , 11          , 0.00738315471, 0.007383153
-0.143872   , 0.108492516 , -9.788833   , -0.000236786436, -0.000263667258, 0.00048279253, -0.0103633171, -0.0150411362, 1.45626E-05 , 918.11615   , 31.9741135  , 823.8547    , 3.12        , 3           , 12          , 0.174645633 , 0
-0.144034415, 0.109881721 , -9.786618   , -0.0002112168, -0.000441404933, 0.000104917781, -0.0103654452, -0.0150455385, 1.56575588E-05, 918.119751  , 31.9716721  , 823.854065  , 3.13        , 3           , 13          , 0           , 0
-0.140230924, 0.109963015 , -9.796978   , -0.000369990536, -1.475279E-05, 0.000336152065, -0.0103691937, -0.0150456522, 1.90207229E-05, 918.119751  , 31.9716721  , 823.853455  , 3.14        , 3           , 14          , -0.000505375559, -0.0005380279
-0.136752367, 0.104371212 , -9.796886   , -0.000265543582, -0.0001021708, 0.000522771734, -0.0103719281, -0.01504662 , 2.42592141E-05, 918.119751  , 31.9716721  , 823.852844  , 3.15        , 3           , 15          , 0           , -5.66934941E-05
-0.145609349, 0.109127566 , -9.79977    , 0.000119003904, 0.000279072177, 0.000109221073, -0.0103707537, -0.0150438175, 2.532252E-05, 918.119751  , 31.9716721  , 823.852234  , 3.16        , 3           , 16          , 0           , 1.401298E-45
-0.144029051, 0.10409601  , -9.792986   , 0.000308212242, 9.990437E-05, -0.0005780273, -0.0103675853, -0.0150428787, 1.95316916E-05, 918.119751  , 31.9716721  , 823.8516    , 3.17        , 3           , 20          , 0           , 0
-0.147145316, 0.1090857   , -9.789493   , 0.0004175682, 0.000219453941, -0.0004978275, -0.0103633357, -0.0150407357, 1.45305021E-05, 918.119751  , 31.9716721  , 823.851     , 3.18        , 3           , 21          , 0           , 0
-0.149823308, 0.106854722 , -9.79042    , 0.000362052175, -0.000305933529, -3.3220942E-05, -0.01035971 , -0.0150437979, 1.42299714E-05, 918.119751  , 31.9716721  , 823.8504    , 3.19        , 3           , 22          , 0           , 0
-0.1428335  , 0.104890943 , -9.790441   , 0.00011992504, -0.0003521791, 0.000109893634, -0.0103585273, -0.015047309, 1.53654346E-05, 918.119751  , 31.9716721  , 823.8498    , 3.2         , 3           , 40          , 0           , 0
-0.147251308, 0.09503138  , -9.797214   , -0.000437045062, 2.932828E-05, -0.000378159661, -0.0103747621, -0.0150414882, 1.175997E-05, 918.119751  , 31.9716721  , 823.867249  , 3.21        , 3           , 41          , 0           , 0
-0.1480403  , 0.09344244  , -9.793313   , -0.000115594768, 0.000389921974, -0.000434446323, -0.0103758518, -0.0150376381, 7.37489927E-06, 918.119751  , 31.9716721  , 823.86676   , 3.22        , 3           , 42          , 0           , 0
-0.1408894  , 0.102205135 , -9.794001   , -0.000403980142, 0.000470968866, -0.000446947757, -0.0103798229, -0.0150329741, 2.856391E-06, 918.1312    , 31.9716721  , 823.8663    , 3.23        , 3           , 255         , 0           , 0
-0.138593063, 0.100077853 , -9.797838   , 0.000617280661, 0.0005041041, -0.0008550328, -0.01037352 , -0.0150280222, -5.74654541E-06, 918.1312    , 31.9716721  , 823.8658    , 3.24        , 3           , 255         , 0           , 0
-0.145383447, 0.1061736   , -9.791603   , 0.0006501166, 0.00056000927, -0.0006278154, -0.0103669241, -0.0150224892, -1.20829955E-05, 918.1312    , 31.9716721  , 823.8653    , 3.25        , 3           , 255         , 0           , 0
-0.147944808, 0.102377556 , -9.790731   , 0.0001752346, -0.0001460205, 0.000223015464, -0.0103652058, -0.0150239235, -9.837623E-06, 918.1312    , 31.9716721  , 823.8648    , 3.26        , 3           , 255         , 0           , 0
-0.145530611, 0.101805724 , -9.791741   , 0.000283064 , -0.000242593873, 0.000117414143, -0.0103623923, -0.0150263365, -8.638309E-06, 918.1312    , 31.9716721  , 823.8643    , 3.27        , 3           , 255         , 0           , 0
-0.146841064, 0.101440907 , -9.795566   , 0.000132164423, -0.0004150492, 0.000318887876, -0.0103611182, -0.0150304548, -5.40630572E-06, 918.1312    , 31.9716721  , 823.863831  , 3.28        , 3           , 255         , 0           , 0
-0.146921426, 0.108286224 , -9.78929    , 7.78443937E-05, 0.000264187751, 0.0008107943, -0.0103604626, -0.0150277279, 2.67453674E-06, 918.1312    , 31.9716721  , 823.863342  , 3.29        , 3           , 255         , 0           , 0
-0.142741337, 0.100562438 , -9.79151    , 0.000254539365, 6.03350927E-05, 4.56565867E-05, -0.0103579238, -0.01502712 , 3.12487464E-06, 918.1312    , 31.9716721  , 823.862854  , 3.3         , 3           , 255         , 0           , 0
-0.147999242, 0.100964233 , -9.790436   , 0.0004499336, -0.0001739029, 0.000172915752, -0.0103527121, -0.0150250187, 4.86099771E-06, 918.1312    , 31.9716721  , 823.861938  , 3.31        , 3           , 255         , 0           , 0
-0.15451622 , 0.09920535  , -9.787767   , 0.0005345811, 0.0005992359, -9.652561E-05, -0.0103473486, -0.01501904 , 3.833683E-06, 918.1312    , 31.9716721  , 823.86145   , 3.32        , 3           , 255         , 0           , 0
-0.1513936  , 0.105597474 , -9.794245   , -4.303665E-05, 0.0003161662, -8.44006354E-05, -0.0103477668, -0.0150158871, 2.95693326E-06, 918.1401    , 31.9711285  , 823.860962  , 3.33        , 3           , 255         , 0           , 0
-0.144433469, 0.1125619   , -9.797222   , 0.000186976016, 0.000226748525, -0.000169635256, -0.0103458716, -0.015013637, 1.23705217E-06, 918.1401    , 31.9711285  , 823.8605    , 3.34        , 3           , 255         , 0           , 0
-0.1431601  , 0.104990125 , -9.802258   , -0.000113369315, -0.00023388362, 0.0003204725, -0.0103470525, -0.015015943, 4.466086E-06, 918.1401    , 31.9711285  , 823.86      , 3.35        , 3           , 255         , 0           , 0
-0.1416653  , 0.09932289  , -9.785029   , 0.000143948244, -0.000471234962, -0.0006151875, -0.01034552 , -0.0150207169, -1.6372461E-06, 918.1401    , 31.9711285  , 823.8595    , 3.36        , 3           , 255         , 0           , 0
-0.144124836, 0.09700317  , -9.787834   , 0.000289859949, 3.880792E-05, 0.0005433536, -0.0103427041, -0.0150202718, 3.79246057E-06, 918.1401    , 31.9711285  , 823.859     , 3.37        , 3           , 255         , 0           , 0
-0.146525174, 0.106773891 , -9.7946825  , -0.000397882774, -0.0005406357, 0.000365634653, -0.0103467377, -0.0150256408, 7.5048697E-06, 918.1401    , 31.9711285  , 823.8586    , 3.38        , 3           , 255         , 0           , 0
-0.142770454, 0.108876981 , -9.794334   , -7.17096264E-05, -0.000622711435, 0.000460662 , -0.0103475247, -0.01503182 , 1.2176075E-05, 918.1401    , 31.9711285  , 823.858154  , 3.39        , 3           , 255         , 0           , 0
-0.153801531, 0.09878747  , -9.791987   , 0.000343820429, -0.0008922228, 0.0003235489, -0.0103441356, -0.01504071 , 1.5503987E-05, 918.1401    , 31.9711285  , 823.8577    , 3.4         , 3           , 255         , 0           , 0
-0.150437027, 0.10718888  , -9.790491   , 0.000107507221, 0.00018331001, 0.000219251015, -0.0103469156, -0.0150388228, 1.77351012E-05, 918.1401    , 31.9711285  , 823.845154  , 3.41        , 3           , 255         , 0           , 0
-0.144587979, 0.10194125  , -9.79387951 , -0.0001573572, 0.000335204066, 0.000234887921, -0.010348523, -0.0150354458, 2.00493778E-05, 918.1401    , 31.9711285  , 823.8446    , 3.42        , 3           , 255         , 0           , 0
-0.144086912, 0.100270152 , -9.794498   , 5.48921525E-06, 0.000640894345, -9.181051E-05, -0.0103484541, -0.0150290467, 1.90649153E-05, 918.126465  , 31.9713326  , 823.844055  , 3.43        , 3           , 255         , 0           , 0
-0.146727726, 0.09826219  , -9.795387   , -0.000133782625, 0.000334992132, 0.000503648247, -0.0103498679, -0.0150256446, 2.40669051E-05, 918.126465  , 31.9713326  , 823.8435    , 3.44        , 3           , 255         , 0           , 0
-0.147899464, 0.101513281 , -9.795099   , 0.000215744716, 0.0003157335, -0.00014383049, -0.0103476876, -0.015022506, 2.259587E-05, 918.126465  , 31.9713326  , 823.842957  , 3.45        , 3           , 255         , 0           , 0
-0.146976531, 0.104994275 , -9.79712    , 0.000175372232, -8.653512E-05, 6.31962539E-05, -0.0103459451, -0.0150233638, 2.32368038E-05, 918.126465  , 31.9713326  , 823.842468  , 3.46        , 3           , 255         , 0           , 0
-0.1511667  , 0.09500348  , -9.794528   , 0.000234143023, -0.000157264934, 6.89316657E-05, -0.0103436131, -0.0150249293, 2.39424153E-05, 918.126465  , 31.9713326  , 823.842     , 3.47        , 3           , 255         , 0           , 0
-0.1443459  , 0.09859917  , -9.786753   , -0.000109346875, -0.000200586859, -0.000167303, -0.0103446832, -0.0150269521, 2.22900762E-05, 918.126465  , 31.9713326  , 823.8415    , 3.48        , 3           , 255         , 0           , 0
-0.146070153, 0.109110355 , -9.78314    , 0.000202169991, 0.0006328614, -0.000104916515, -0.0103426445, -0.015020634, 2.11754159E-05, 918.126465  , 31.9713326  , 823.841     , 3.49        , 3           , 255         , 0           , 0
-0.150404215, 0.09632564  , -9.78661251 , 0.000417208037, 0.000111094967, -0.000632596959, -0.0103383772, -0.0150195882, 1.48377385E-05, 918.126465  , 31.9713326  , 823.8405    , 3.5         , 3           , 255         , 0           , 0
-0.139814943, 0.102862157 , -9.787832   , 0.0003566028, 0.000195856264, -0.0001961978, -0.0103347572, -0.0150179267, 1.285506E-05, 918.126465  , 31.9713326  , 823.850159  , 3.51        , 3           , 255         , 0           , 0
-0.149530813, 0.100448944 , -9.793516   , -0.000166817219, 0.0003787718, 0.000452187058, -0.0103364913, -0.0150140906, 1.73379376E-05, 918.126465  , 31.9713326  , 823.849731  , 3.52        , 3           , 255         , 0           , 0
-0.148521841, 0.108137704 , -9.790068   , 0.00025204  , 8.840041E-05, 0.000466722151, -0.010334041, -0.0150131583, 2.19961821E-05, 918.1447    , 31.9726887  , 823.8493    , 3.53        , 3           , 255         , 0           , 0
-0.149379045, 0.1125981   , -9.790167   , 0.00057946943, 1.816079E-07, -0.000109344459, -0.01032823 , -0.0150131676, 2.090268E-05, 918.1447    , 31.9726887  , 823.8489    , 3.54        , 3           , 255         , 0           , 0
-0.148096681, 0.10966371  , -9.790752   , -1.65476231E-05, -0.000213061925, 7.326297E-05, -0.0103284074, -0.0150152911, 2.1657348E-05, 918.1447    , 31.9726887  , 823.84845   , 3.55        , 3           , 255         , 0           , 0
-0.149705961, 0.108928248 , -9.795228   , 0.000262696616, -2.30670557E-05, -0.000224375282, -0.0103257475, -0.0150155444, 1.94159E-05 , 918.1447    , 31.9726887  , 823.848     , 3.56        , 3           , 255         , 0           , 0
-0.153250352, 0.103921756 , -9.793706   , 0.0006342377, -0.000103294849, -0.000535796862, -0.0103193261, -0.0150166322, 1.40684069E-05, 918.1447    , 31.9726887  , 823.8476    , 3.57        , 3           , 255         , 0           , 0
-0.154101551, 0.09204472  , -9.794211   , 0.000439597439, -0.000128163549, -0.000184247241, -0.0103149  , -0.0150179323, 1.22390838E-05, 918.1447    , 31.9726887  , 823.847168  , 3.58        , 3           , 255         , 0           , 0
-0.140992254, 0.103925548 , -9.790187   , 0.00054980017, -6.81029633E-09, -0.00023287168, -0.0103093684, -0.01501796 , 9.910287E-06, 918.1447    , 31.9726887  , 823.846741  , 3.59        , 3           , 255         , 0           , 0
-0.138093665, 0.100361727 , -9.791262   , -0.000304391026, 0.000183967961, 0.000109028515, -0.0103124268, -0.0150161078, 1.09816556E-05, 918.1447    , 31.9726887  , 823.8463    , 3.6         , 3           , 255         , 0           , 0
-0.142617479, 0.09885853  , -9.794337   , 5.14009153E-05, -0.000180634554, -0.000674000534, -0.010317768, -0.0150181949, 4.349498E-06, 918.1447    , 31.9726887  , 823.829346  , 3.61        , 3           , 255         , 0           , 0
-0.1458871  , 0.109296188 , -9.79178    , -0.000194156833, 0.000369173067, -0.0006030256, -0.01031962 , -0.0150145665, -1.71905867E-06, 918.1447    , 31.9726887  , 823.8288    , 3.62        , 3           , 255         , 0           , 0
-0.145771459, 0.104331754 , -9.790974   , 0.000116922049, 9.58438E-05 , -1.09652246E-05, -0.01031845 , -0.0150136091, -1.8386088E-06, 918.123657  , 31.969841   , 823.828247  , 3.63        , 3           , 255         , 0           , 0
-0.143273562, 0.1009437   , -9.796207   , 0.0006220842, -6.02426E-06, 3.81732025E-05, -0.0103122341, -0.0150136659, -1.45623608E-06, 918.123657  , 31.969841   , 823.8277    , 3.64        , 3           , 255         , 0           , 0
-0.139831036, 0.102283992 , -9.786923   , 0.00033359442, 0.000323648332, -0.000432064582, -0.0103088338, -0.0150104724, -5.810405E-06, 918.123657  , 31.969841   , 823.827148  , 3.65        , 3           , 255         , 0           , 0
-0.146989271, 0.1023322   , -9.795211   , 0.000118767319, 0.000271419529, -0.000409031, -0.0103075849, -0.0150078014, -9.928828E-06, 918.123657  , 31.969841   , 823.8266    , 3.66        , 3           , 255         , 0           , 0
-0.14599672 , 0.102326766 , -9.792223   , 0.000165876874, 2.81467219E-05, 0.0005300139, -0.0103060054, -0.0150074642, -4.631422E-06, 918.123657  , 31.969841   , 823.82605   , 3.67        , 3           , 255         , 0           , 0
-0.1560717  , 0.100048386 , -9.800283   , 2.54716724E-06, -0.000123611477, 0.000462145545, -0.0103060491, -0.0150086526, 2.94709523E-09, 918.123657  , 31.969841   , 823.8255    , 3.68        , 3           , 255         , 0           , 0
-0.141326591, 0.09688045  , -9.798841   , 0.00062074844, 6.352877E-05, -1.15457515E-05, -0.01029984 , -0.0150080221, -1.19062619E-07, 918.123657  , 31.969841   , 823.824951  , 3.69        , 3           , 255         , 0           , 0
-0.154171228, 0.0975962058, -9.791357   , 0.0004833157, 0.000175498542, 0.000702529855, -0.0102951126, -0.0150061948, 6.88841465E-06, 918.123657  , 31.969841   , 823.8244    , 3.7         , 3           , 255         , 0           , 0
-0.162017047, 0.102349676 , -9.783709   , -7.076835E-05, 0.000158749754, 0.00079096586, -0.0102967592, -0.0150031662, 1.479429E-05, 918.123657  , 31.969841   , 823.8403    , 3.71        , 3           , 255         , 0           , 0
-0.1486189  , 0.106378593 , -9.784513   , 5.69327967E-05, 3.89880734E-05, -5.896234E-05, -0.0102961808, -0.0150027825, 1.42006356E-05, 918.123657  , 31.969841   , 823.839844  , 3.72        , 3           , 255         , 0           , 0
-0.15230827 , 0.091168046 , -9.783255   , -0.00053287 , -4.683365E-05, -0.0004155909, -0.0103014475, -0.0150032928, 1.00494035E-05, 918.100159  , 31.9735031  , 823.8394    , 3.73        , 3           , 255         , 0           , 0
-0.148168147, 0.09751208  , -9.78416252 , 6.838923E-05, 4.93812258E-05, -0.000171400286, -0.0103007378, -0.015002816, 8.33025E-06 , 918.100159  , 31.9735031  , 823.839     , 3.74        , 3           , 255         , 0           , 0
-0.152437925, 0.106140852 , -9.787999   , 0.000451050815, -0.000193204323, 0.00017114346, -0.0102962526, -0.0150047308, 1.00616435E-05, 918.100159  , 31.9735031  , 823.838562  , 3.75        , 3           , 255         , 0           , 0
-0.147209972, 0.09480486  , -9.795561   , 0.000102372258, 0.000207375735, -0.000167799648, -0.010295203, -0.0150026744, 8.362239E-06, 918.100159  , 31.9735031  , 823.838135  , 3.76        , 3           , 255         , 0           , 0
-0.150548741, 0.104789458 , -9.798505   , -0.00013222819, -0.000187724188, -0.0006088029, -0.0102964342, -0.0150046144, 2.29333455E-06, 918.100159  , 31.9735031  , 823.8377    , 3.77        , 3           , 255         , 0           , 0
-0.147033364, 0.111795627 , -9.796381   , -0.000100095407, 0.000195829314, -0.000359074038, -0.0102973823, -0.0150026921, -1.31770787E-06, 918.100159  , 31.9735031  , 823.8373    , 3.78        , 3           , 255         , 0           , 0
-0.1456726  , 0.106649324 , -9.788182   , 7.295594E-05, 6.4867374E-05, 0.000482126838, -0.0102967247, -0.0150019946, 3.49705169E-06, 918.100159  , 31.9735031  , 823.836853  , 3.79        , 3           , 255         , 0           , 0
-0.148528129, 0.103126362 , -9.793478   , -0.000753941538, 0.000307198585, 0.000246649928, -0.010304302, -0.0149988979, 5.93199957E-06, 918.100159  , 31.9735031  , 823.8364    , 3.8         , 3           , 255         , 0           , 0
-0.140615985, 0.111203015 , -9.794632   , -0.000218133442, -0.000150782, -0.0008956191, -0.0103099458, -0.0150077846, -2.95498262E-06, 918.100159  , 31.9735031  , 823.8841    , 3.81        , 3           , 255         , 0           , 0
-0.150092989, 0.103650734 , -9.787267   , -0.00040245225, 1.44174555E-05, -0.000603075663, -0.0103138788, -0.0150077026, -8.987438E-06, 918.100159  , 31.9735031  , 823.884     , 3.82        , 3           , 255         , 0           , 0
-0.143736213, 0.103694007 , -9.787375   , -0.000191936328, 0.000183883385, -0.0004474067, -0.01031573 , -0.0150059108, -1.34806287E-05, 918.0826    , 31.9750633  , 823.88385   , 3.83        , 3           , 255         , 0           , 0
-0.147840485, 0.09186987  , -9.787947   , 0.000165428151, -0.000424525759, -0.000669047935, -0.0103139766, -0.0150102219, -2.01275525E-05, 918.0826    , 31.9750633  , 823.8837    , 3.84        , 3           , 255         , 0           , 0
-0.15332453 , 0.08987467  , -9.796076   , -0.000191833649, -0.000349732931, -5.021094E-05, -0.0103158867, -0.0150137255, -2.05936012E-05, 918.0826    , 31.9750633  , 823.8836    , 3.85        , 3           , 255         , 0           , 0
-0.145197079, 0.101528212 , -9.792208   , 8.481197E-05, 9.496749E-05, -0.00062814384, -0.0103149442, -0.0150128407, -2.688506E-05, 918.0826    , 31.9750633  , 823.8835    , 3.86        , 3           , 255         , 0           , 0
-0.138400719, 0.103785992 , -9.802104   , 0.000761118252, 3.78686236E-05, -0.000461454765, -0.0103072654, -0.0150125073, -3.15036741E-05, 918.0826    , 31.9750633  , 823.883362  , 3.87        , 3           , 255         , 0           , 0
-0.143919066, 0.09499295  , -9.795178   , 0.0006389428, -0.000488044927, -0.000353400363, -0.0103008235, -0.0150174247, -3.49875154E-05, 918.0826    , 31.9750633  , 823.8833    , 3.88        , 3           , 255         , 0           , 0
-0.14764376 , 0.09746945  , -9.79011    , 0.000814851257, -0.0004002396, -0.0004343365, -0.0102926092, -0.0150214732, -3.928983E-05, 918.0826    , 31.9750633  , 823.88324   , 3.89        , 3           , 255         , 0           , 0
-0.143345371, 0.09720675  , -9.795825   , 0.0005345352, -0.0005530071, 0.000146172883, -0.0102872867, -0.0150269866, -3.7771144E-05, 918.0826    , 31.9750633  , 823.8832    , 3.9         , 3           , 255         , 0           , 0
-0.15031144 , 0.09099068  , -9.795134   , 0.000210695463, 3.26186419E-05, -9.017326E-05, -0.0102826981, -0.015023984, -3.87133659E-05, 918.0826    , 31.9750633  , 823.9493    , 3.91        , 3           , 255         , 0           , 0
-0.148381576, 0.0894530863, -9.7967205  , 0.000443060359, -7.908943E-05, -0.00111530232, -0.0102780974, -0.0150248911, -4.985866E-05, 918.0826    , 31.9750633  , 823.9496    , 3.92        , 3           , 255         , 0           , 0
-0.149499133, 0.101924136 , -9.787958   , 0.000189900777, -0.000199292786, -0.0007040329, -0.0102760931, -0.0150269549, -5.68787254E-05, 918.100647  , 31.9733     , 823.9499    , 3.93        , 3           , 255         , 0           , 0
-0.145110786, 0.110752545 , -9.785777   , 0.000516314351, -3.894308E-05, 6.056267E-06, -0.01027093 , -0.0150273433, -5.68141768E-05, 918.100647  , 31.9733     , 823.9502    , 3.94        , 3           , 255         , 0           , 0
-0.153710514, 0.104453705 , -9.7993145  , 0.000386334781, -0.000248083321, -0.00012162434, -0.0102670481, -0.0150298364, -5.80049855E-05, 918.100647  , 31.9733     , 823.9505    , 3.95        , 3           , 255         , 0           , 0
-0.149754748, 0.105782107 , -9.792949   , 0.0005053928, -0.000111979549, 8.44799652E-05, -0.0102620088, -0.0150309466, -5.71486635E-05, 918.100647  , 31.9733     , 823.9508    , 3.96        , 3           , 255         , 0           , 0
-0.150450066, 0.104880109 , -9.788638   , 0.000292174722, -0.000252094644, -0.0004400855, -0.0102590211, -0.0150335124, -6.152381E-05, 918.100647  , 31.9733     , 823.9512    , 3.97        , 3           , 255         , 0           , 0
-0.137145236, 0.106530942 , -9.790006   , 0.0003344942, 0.00036361962, 0.000174053042, -0.0102557009, -0.0150298588, -5.98205224E-05, 918.100647  , 31.9733     , 823.951538  , 3.98        , 3           , 255         , 0           , 0
-0.137246743, 0.101075545 , -9.79442    , 6.629544E-05, -7.1035116E-05, 0.000376034848, -0.0102550946, -0.0150305294, -5.60527624E-05, 918.100647  , 31.9733     , 823.9519    , 3.99        , 3           , 255         , 0           , 0
-0.142603487, 0.0953879356, -9.796797   , 7.91849743E-05, 0.000363426545, -0.0002467061, -0.0102542657, -0.0150269214, -5.85571652E-05, 918.100647  , 31.9733     , 823.9523    , 4           , 3           , 0           , 9.496237    , 400
-0.143938109, 0.0999357551, -9.79451752 , 8.116351E-05, 6.861525E-05, -0.000219417692, -0.010254343, -0.0150249954, -6.07446236E-05, 918.100647  , 31.9733     , 823.9831    , 4.01        , 3           , 1           , 0           , 0
-0.147580132, 0.1081997   , -9.792597   , -5.062163E-05, -5.566777E-05, 0.000121443678, -0.0102548674, -0.0150255375, -5.95244237E-05, 918.100647  , 31.9733     , 823.983643  , 4.02        , 3           , 2           , 0           , 0
-0.144245178, 0.111357406 , -9.781393   , 0.000178976188, 0.000150221487, -6.72073947E-05, -0.0102530681, -0.0150240418, -6.0211918E-05, 918.1041    , 31.975132   , 823.9842    , 4.03        , 3           , 3           , 0           , 0
-0.14435181 , 0.110217109 , -9.787137   , 4.73447726E-05, 0.000179896771, -0.000101003257, -0.0102525791, -0.0150222536, -6.124043E-05, 918.1041    , 31.975132   , 823.984741  , 4.04        , 3           , 4           , 0           , 0
-0.149039119, 0.107035659 , -9.796497   , -0.000219267269, 0.000349631417, -0.0003102175, -0.0102547249, -0.0150187882, -6.437857E-05, 918.1041    , 31.975132   , 823.9853    , 4.05        , 3           , 5           , 0           , 0
-0.158097208, 0.0988408849, -9.792738   , -0.000359574857, 0.000108422217, -0.000348316447, -0.0102582686, -0.01501774 , -6.787298E-05, 918.1041    , 31.975132   , 823.98584   , 4.06        , 3           , 6           , 0           , 0
-0.145640492, 0.09992756  , -9.791391   , 0.0004883043, -0.000228160585, 0.0002729678, -0.0102534266, -0.0150199933, -6.51198061E-05, 918.1041    , 31.975132   , 823.9864    , 4.07        , 3           , 7           , 0           , 0
-0.139345348, 0.101241864 , -9.786128   , 0.000203574746, -0.000308890129, -0.0004230503, -0.0102513274, -0.0150231263, -6.93188E-05, 918.1041    , 31.975132   , 823.986938  , 4.08        , 3           , 8           , 5           , 5
-0.153615043, 0.101144269 , -9.798858   , -0.000199178, -4.20601573E-05, -0.000108519278, -0.0102533037, -0.0150235584, -7.03997139E-05, 918.1041    , 31.975132   , 823.9875    , 4.09        , 3           , 9           , 5           , 0.1
-0.1402161  , 0.101960644 , -9.792368   , 0.00048384472, -4.785706E-05, -0.0005309022, -0.0102483854, -0.0150240911, -7.57040252E-05, 918.1041    , 31.975132   , 823.988037  , 4.1         , 3           , 10          , 0.1         , 0.1
-0.150240034, 0.101714231 , -9.794461   , 0.000579151 , -9.357021E-05, -0.000215408712, -0.0102489758, -0.01502419 , -7.77522437E-05, 918.1041    , 31.975132   , 824.0087    , 4.11        , 3           , 11          , 0.00679670461, 0.006796701
-0.1520875  , 0.09712682  , -9.805726   , -0.000104971754, 0.000288545329, 0.000315606332, -0.0102500711, -0.0150212729, -7.462564E-05, 918.1041    , 31.975132   , 824.0094    , 4.12        , 3           , 12          , 0.174648076 , 0
-0.1440864  , 0.09677916  , -9.787371   , 9.027615E-05, -8.038309E-05, 0.00035784865, -0.0102492226, -0.0150220394, -7.10388E-05, 918.1143    , 31.974453   , 824.0101    , 4.13        , 3           , 13          , 0           , 0
-0.148103148, 0.09887656  , -9.787709   , 0.000238455774, -0.0002946314, 0.000161343414, -0.0102468627, -0.0150249684, -6.939512E-05, 918.1143    , 31.974453   , 824.010742  , 4.14        , 3           , 14          , -0.0005051947, -0.00053806894
-0.155161023, 0.104269706 , -9.792084   , -0.000161014614, -0.000131811015, 0.000123848382, -0.0102484925, -0.0150262741, -6.81430756E-05, 918.1143    , 31.974453   , 824.0114    , 4.15        , 3           , 15          , 0           , -5.66966555E-05
-0.1485677  , 0.104407884 , -9.801762   , 7.440569E-05, 0.000299943378, -3.71082642E-05, -0.0102477409, -0.015023279, -6.854492E-05, 918.1143    , 31.974453   , 824.0121    , 4.16        , 3           , 16          , 0           , 1.401298E-45
-0.136397153, 0.09801524  , -9.79716    , -0.000399569, -9.175361E-05, -0.00039761918, -0.0102516776, -0.0150242373, -7.251185E-05, 918.1143    , 31.974453   , 824.012756  , 4.17        , 3           , 20          , 0           , 0
-0.149884135, 0.106261872 , -9.8001     , -0.000149247877, -0.000337470847, 0.000323945627, -0.0102532189, -0.015027578, -6.92376852E-05, 918.1143    , 31.974453   , 824.0134    , 4.18        , 3           , 21          , 0           , 0
-0.144776881, 0.103560194 , -9.794825   , 0.0003824074, 8.79543659E-05, 4.31969529E-05, -0.0102494014, -0.0150266932, -6.881473E-05, 918.1143    , 31.974453   , 824.0141    , 4.19        , 3           , 22          , 0           , 0
-0.148984432, 0.106946312 , -9.789418   , 0.000193399959, -0.000201571267, -0.00022443835, -0.0102474336, -0.0150287319, -7.103853E-05, 918.1143    , 31.974453   , 824.0148    , 4.2         , 3           , 40          , 0           , 0
-0.153094158, 0.106516734 , -9.790226   , -0.000162710669, -2.23739771E-05, -0.000289490854, -0.0102509521, -0.01502985 , -7.39021561E-05, 918.1143    , 31.974453   , 824.016968  , 4.21        , 3           , 41          , 0           , 0
-0.16009514 , 0.103213251 , -9.795642   , 9.817275E-05, -2.67632422E-05, -0.0006909118, -0.0102498671, -0.0150301885, -8.080877E-05, 918.1143    , 31.974453   , 824.0177    , 4.22        , 3           , 42          , 0           , 0
-0.146961778, 0.106913961 , -9.790817   , 0.000237819972, -0.000306695758, -0.0005571859, -0.0102474065, -0.0150333121, -8.634939E-05, 918.1844    , 31.9749279  , 824.018433  , 4.23        , 3           , 255         , 0           , 0
-0.151504129, 0.108311847 , -9.785841   , 0.000188636855, -0.000221783877, -1.48071558E-05, -0.0102455169, -0.0150355306, -8.647474E-05, 918.1844    , 31.9749279  , 824.019165  , 4.24        , 3           , 255         , 0           , 0
-0.136823386, 0.106152013 , -9.795229   , 0.000296653074, -0.000461018528, 0.00039245683, -0.01024261 , -0.0150401006, -8.250281E-05, 918.1844    , 31.9749279  , 824.0199    , 4.25        , 3           , 255         , 0           , 0
-0.1464225  , 0.112021342 , -9.797366   , 6.632402E-05, -0.0004575121, 9.93320937E-05, -0.010241962, -0.015044664, -8.146258E-05, 918.1844    , 31.9749279  , 824.0206    , 4.26        , 3           , 255         , 0           , 0
-0.154896781, 0.09685287  , -9.791746   , 0.000118584023, 0.000342161919, -0.000435325666, -0.0102407113, -0.0150412861, -8.585103E-05, 918.1844    , 31.9749279  , 824.021362  , 4.27        , 3           , 255         , 0           , 0
-0.14525041 , 0.103753164 , -9.798371   , 0.0001213426, 0.000162723241, -0.000309568015, -0.0102394521, -0.0150396908, -8.89635E-05, 918.1844    , 31.9749279  , 824.0221    , 4.28        , 3           , 255         , 0           , 0
-0.136193782, 0.1151502   , -9.78711    , 9.543248E-05, -0.00017992768, 0.0002915928, -0.0102385422, -0.01504146 , -8.602903E-05, 918.1844    , 31.9749279  , 824.0228    , 4.29        , 3           , 255         , 0           , 0
-0.148066834, 0.112066969 , -9.793311   , 0.000647988636, 7.21738E-05 , -0.000120487923, -0.0102320435, -0.0150407515, -8.72413439E-05, 918.1844    , 31.9749279  , 824.02356   , 4.3         , 3           , 255         , 0           , 0
-0.143224061, 0.09881495  , -9.791586   , 0.000201195042, -0.000137628231, 0.000361196144, -0.010240837, -0.0150431171, -8.34534148E-05, 918.1844    , 31.9749279  , 823.925     , 4.31        , 3           , 255         , 0           , 0
-0.142043427, 0.102781415 , -9.794535   , 0.0002408557, -0.0001696407, 1.32858913E-05, -0.0102384314, -0.0150448121, -8.330319E-05, 918.1844    , 31.9749279  , 823.9251    , 4.32        , 3           , 255         , 0           , 0
-0.150689736, 0.104801282 , -9.7953825  , -4.10167268E-05, 0.000107145956, -0.0006391198, -0.0102387452, -0.0150438063, -8.970559E-05, 918.136169  , 31.97079    , 823.925232  , 4.33        , 3           , 255         , 0           , 0
-0.158413485, 0.109726451 , -9.798493   , 9.043998E-05, -0.0001230078, -1.46200327E-05, -0.0102378381, -0.0150450384, -8.98392E-05, 918.136169  , 31.97079    , 823.925354  , 4.34        , 3           , 255         , 0           , 0
-0.146008953, 0.11041981  , -9.79577351 , -4.52908571E-05, -0.000321863336, -0.000326161826, -0.0102382433, -0.0150482915, -9.306799E-05, 918.136169  , 31.97079    , 823.9255    , 4.35        , 3           , 255         , 0           , 0
-0.155901641, 0.105957344 , -9.790609   , 0.000329142844, 2.07356061E-05, 0.000136312912, -0.0102349706, -0.01504807 , -9.170694E-05, 918.136169  , 31.97079    , 823.9256    , 4.36        , 3           , 255         , 0           , 0
-0.148851544, 0.105773464 , -9.788492   , 0.000299341162, 0.00012818267, 0.000450892985, -0.0102320453, -0.0150467418, -8.721097E-05, 918.136169  , 31.97079    , 823.9257    , 4.37        , 3           , 255         , 0           , 0
-0.149953544, 0.104383491 , -9.790889   , 4.96213324E-05, 0.000271498517, -0.000286564056, -0.0102315061, -0.0150440559, -9.010447E-05, 918.136169  , 31.97079    , 823.925842  , 4.38        , 3           , 255         , 0           , 0
-0.154529408, 0.0972100049, -9.793456   , -7.92473438E-05, -0.000451140921, 0.00015512979, -0.0102323228, -0.0150485514, -8.850695E-05, 918.136169  , 31.97079    , 823.925964  , 4.39        , 3           , 255         , 0           , 0
-0.155385658, 0.100942351 , -9.800822   , 0.000434428337, 0.000100202014, -1.013829E-05, -0.0102279773, -0.01504755 , -8.86186E-05, 918.136169  , 31.97079    , 823.9261    , 4.4         , 3           , 255         , 0           , 0
-0.1447517  , 0.100228623 , -9.792731   , -0.000176807458, -0.000100753095, 0.000211730468, -0.0102351764, -0.0150529491, -8.640961E-05, 918.136169  , 31.97079    , 823.910034  , 4.41        , 3           , 255         , 0           , 0
-0.141560942, 0.113224804 , -9.793047   , 0.000284180045, -0.000279448228, -0.000745774538, -0.0102322251, -0.01505582 , -9.383902E-05, 918.136169  , 31.97079    , 823.910034  , 4.42        , 3           , 255         , 0           , 0
-0.1423355  , 0.103758752 , -9.799735   , -0.00023899792, -0.000108139007, -0.000471591949, -0.0102345431, -0.01505695 , -9.85440347E-05, 918.116     , 31.9740467  , 823.910034  , 4.43        , 3           , 255         , 0           , 0
-0.139974013, 0.101233259 , -9.79984    , 0.00018679371, 0.000456715643, -8.80534353E-05, -0.0102326619, -0.0150523921, -9.94713555E-05, 918.116     , 31.9740467  , 823.910034  , 4.44        , 3           , 255         , 0           , 0
-0.143329725, 0.108190395 , -9.79511452 , 0.00052821025, 1.357554E-05, -7.823823E-05, -0.0102273682, -0.0150522646, -0.000100255122, 918.116     , 31.9740467  , 823.910034  , 4.45        , 3           , 255         , 0           , 0
-0.1465236  , 0.105750605 , -9.79422    , 0.00045267964, -0.000235393236, -0.0002780379, -0.010222801, -0.0150546469, -0.000103011545, 918.116     , 31.9740467  , 823.910034  , 4.46        , 3           , 255         , 0           , 0
-0.1372561  , 0.109649219 , -9.796725   , -0.000279955158, 0.000269380835, 0.000134252216, -0.01022562 , -0.0150519395, -0.0001016965, 918.116     , 31.9740467  , 823.9101    , 4.47        , 3           , 255         , 0           , 0
-0.1545808  , 0.111399136 , -9.796753   , -0.0008024198, 0.000253800972, 0.0006536495, -0.0102337413, -0.0150493365, -9.518574E-05, 918.116     , 31.9740467  , 823.910156  , 4.48        , 3           , 255         , 0           , 0
-0.143129125, 0.106447324 , -9.796977   , -0.000183587545, -0.000239033019, 5.469045E-05, -0.0102355853, -0.0150517188, -9.46143336E-05, 918.116     , 31.9740467  , 823.9102    , 4.49        , 3           , 255         , 0           , 0
-0.142114177, 0.11284633  , -9.7988615  , 0.000101763406, 0.000334978133, -6.873117E-05, -0.0102345562, -0.0150483763, -9.533598E-05, 918.116     , 31.9740467  , 823.9103    , 4.5         , 3           , 255         , 0           , 0
-0.149389148, 0.107847594 , -9.802608   , 0.000134422822, 0.000242507085, -0.000148479128, -0.0102417981, -0.0150411809, -9.671617E-05, 918.116     , 31.9740467  , 823.9248    , 4.51        , 3           , 255         , 0           , 0
-0.150211185, 0.103412271 , -9.797542   , 0.0005646197, 0.000121670309, 0.000208748068, -0.010236185, -0.0150399432, -9.464105E-05, 918.116     , 31.9740467  , 823.9249    , 4.52        , 3           , 255         , 0           , 0
-0.14874725 , 0.103921734 , -9.791747   , 0.0002664817, 5.85637754E-05, 2.33942919E-05, -0.0102335215, -0.0150393592, -9.441312E-05, 918.1089    , 31.9720116  , 823.925049  , 4.53        , 3           , 255         , 0           , 0
-0.156078964, 0.106061317 , -9.787135   , 0.000229891535, -0.00014847453, -0.000795971, -0.0102311056, -0.0150409229, -0.00010235791, 918.1089    , 31.9720116  , 823.9252    , 4.54        , 3           , 255         , 0           , 0
-0.1527116  , 0.09858991  , -9.794759   , 0.000203564879, -2.75902567E-05, -0.0004977807, -0.0102289943, -0.01504125 , -0.000107333071, 918.1089    , 31.9720116  , 823.9253    , 4.55        , 3           , 255         , 0           , 0
-0.1504813  , 0.100840412 , -9.794462   , -0.000117939024, 0.000249987148, 0.000373566756, -0.0102302292, -0.015038712, -0.000103622857, 918.1089    , 31.9720116  , 823.9254    , 4.56        , 3           , 255         , 0           , 0
-0.150465131, 0.107847355 , -9.794225   , 0.000351823284, 0.000323558925, 0.000392431743, -0.01022677 , -0.0150354346, -9.973149E-05, 918.1089    , 31.9720116  , 823.925537  , 4.57        , 3           , 255         , 0           , 0
-0.144901708, 0.103629827 , -9.792669   , 0.000162080745, 0.000283276953, 0.000586439739, -0.0102252383, -0.015032541, -9.38958547E-05, 918.1089    , 31.9720116  , 823.925659  , 4.58        , 3           , 255         , 0           , 0
-0.143476024, 0.102688335 , -9.79509    , -0.0004452222, -0.0002967688, -0.0009985444, -0.0102295391, -0.0150356134, -0.0001038513, 918.1089    , 31.9720116  , 823.9258    , 4.59        , 3           , 255         , 0           , 0
-0.145973325, 0.10427618  , -9.782408   , -0.000322521664, 3.870268E-05, -5.67320967E-07, -0.0102327624, -0.0150352241, -0.000103860933, 918.1089    , 31.9720116  , 823.9259    , 4.6         , 3           , 255         , 0           , 0
-0.144793615, 0.10450618  , -9.793912   , -0.0006065866, -0.000113657967, -0.000427855819, -0.0102442  , -0.0150392111, -0.000108046268, 918.1089    , 31.9720116  , 823.948669  , 4.61        , 3           , 255         , 0           , 0
-0.137554377, 0.100768209 , -9.798619   , -0.000230077188, -0.000185211364, 7.293925E-05, -0.0102465106, -0.0150410542, -0.00010729787, 918.1089    , 31.9720116  , 823.949     , 4.62        , 3           , 255         , 0           , 0
-0.145593673, 0.108758487 , -9.801017   , -0.0003428259, -3.93521041E-05, -0.0006020085, -0.01024985 , -0.0150415106, -0.000113314141, 918.1711    , 31.9735718  , 823.9493    , 4.63        , 3           , 255         , 0           , 0
-0.143886015, 0.109709755 , -9.801837   , 7.880683E-05, -0.000207163335, 7.668081E-05, -0.0102490736, -0.0150435735, -0.000112526068, 918.1711    , 31.9735718  , 823.9496    , 4.64        , 3           , 255         , 0           , 0
-0.137234375, 0.0971790254, -9.797625   , 0.000149846979, 0.000125285762, 0.000142450823, -0.0102475956, -0.0150423059, -0.00011111435, 918.1711    , 31.9735718  , 823.9499    , 4.65        , 3           , 255         , 0           , 0
-0.140561983, 0.09992878  , -9.78977    , -6.893638E-05, -7.46139E-05, 0.0004300596, -0.01024835 , -0.0150430081, -0.000106805957, 918.1711    , 31.9735718  , 823.9502    , 4.66        , 3           , 255         , 0           , 0
-0.141690418, 0.101852849 , -9.794762   , -5.65992668E-05, -0.000253141217, -0.0005415908, -0.0102488352, -0.0150455954, -0.0001121961, 918.1711    , 31.9735718  , 823.9505    , 4.67        , 3           , 255         , 0           , 0
-0.145696372, 0.106114939 , -9.790375   , 0.000129806635, -0.000137274852, -0.000645354448, -0.0102474391, -0.0150470342, -0.000118635835, 918.1711    , 31.9735718  , 823.9508    , 4.68        , 3           , 255         , 0           , 0
-0.148753628, 0.110172845 , -9.785715   , -0.000177298323, 0.000210670318, -0.000105412182, -0.0102491966, -0.0150449378, -0.000119711563, 918.1711    , 31.9735718  , 823.9511    , 4.69        , 3           , 255         , 0           , 0
-0.14263016 , 0.106192753 , -9.79068    , -0.000226868084, -5.49024553E-05, -0.0004932284, -0.01025139 , -0.0150455376, -0.000124638391, 918.1711    , 31.9735718  , 823.9514    , 4.7         , 3           , 255         , 0           , 0
-0.1394265  , 0.112130657 , -9.802048   , -0.0001228858, -3.04045388E-05, -0.00021458097, -0.01025815 , -0.0150397988, -0.000126697516, 918.1711    , 31.9735718  , 823.882     , 4.71        , 3           , 255         , 0           , 0
-0.140286237, 0.109147623 , -9.789417   , 0.000182468619, 3.48025933E-05, -0.000663429, -0.0102562252, -0.0150395185, -0.000133335634, 918.1711    , 31.9735718  , 823.8819    , 4.72        , 3           , 255         , 0           , 0
-0.141781837, 0.108689092 , -9.792963   , -6.380817E-05, 0.000159438729, -3.17919E-05, -0.0102568576, -0.0150379278, -0.0001336699, 918.1317    , 31.9736385  , 823.8818    , 4.73        , 3           , 255         , 0           , 0
-0.133358151, 0.103807256 , -9.792437   , 0.00035800098, -0.000282822468, -0.000745269936, -0.0102531658, -0.0150408316, -0.000141093871, 918.1317    , 31.9736385  , 823.881653  , 4.74        , 3           , 255         , 0           , 0
-0.144533485, 0.1060487   , -9.793686   , 0.0009284519, 4.87771467E-05, -0.00032693916, -0.0102438312, -0.015040379, -0.000144368387, 918.1317    , 31.9736385  , 823.881531  , 4.75        , 3           , 255         , 0           , 0
-0.152031273, 0.100362062 , -9.797451   , 0.00056104135, -0.0002700562, 0.000377095159, -0.0102382787, -0.0150430407, -0.000140569638, 918.1317    , 31.9736385  , 823.8814    , 4.76        , 3           , 255         , 0           , 0
-0.145748585, 0.09873533  , -9.790204   , 0.0005146309, 0.000350419956, -0.00067233 , -0.01023303 , -0.015039606, -0.000147329032, 918.1317    , 31.9736385  , 823.8813    , 4.77        , 3           , 255         , 0           , 0
-0.149189979, 0.107018784 , -9.79737    , 0.000682264566, -0.000216308865, -0.000209758611, -0.0102261789, -0.0150417909, -0.0001494046, 918.1317    , 31.9736385  , 823.881165  , 4.78        , 3           , 255         , 0           , 0
-0.1464781  , 0.10375537  , -9.791196   , 0.000806742639, -0.000216230168, -0.0006807111, -0.0102180075, -0.0150440242, -0.000156189839, 918.1317    , 31.9736385  , 823.881042  , 4.79        , 3           , 255         , 0           , 0
-0.151411951, 0.100676    , -9.787474   , 0.0002026264, 0.000718708849, -0.0006769663, -0.0102158776, -0.0150369043, -0.000163033183, 918.1317    , 31.9736385  , 823.8809    , 4.8         , 3           , 255         , 0           , 0
-0.148581177, 0.106710032 , -9.791761   , 0.000156956608, 0.0006948132, -0.000605491456, -0.010220835, -0.0150259249, -0.000169059873, 918.1317    , 31.9736385  , 823.8777    , 4.81        , 3           , 255         , 0           , 0
-0.147748739, 0.10630288  , -9.80098    , -6.48846E-05, 0.0005513328, -0.000120490477, -0.0102214646, -0.0150204236, -0.00017032116, 918.1317    , 31.9736385  , 823.877563  , 4.82        , 3           , 255         , 0           , 0
-0.151360109, 0.1061395   , -9.795637   , 0.000377635472, -1.92063744E-05, 0.000373397052, -0.010217743, -0.0150205782, -0.0001665851, 918.121643  , 31.9718075  , 823.877441  , 4.83        , 3           , 255         , 0           , 0
-0.142838746, 0.109726407 , -9.791731   , -4.04283055E-05, 0.000101259619, 0.000171337917, -0.0102181742, -0.0150195481, -0.000164882, 918.121643  , 31.9718075  , 823.8773    , 4.84        , 3           , 255         , 0           , 0
-0.143949136, 0.11369741  , -9.789063   , -9.229634E-05, 0.000196805428, 0.000347733381, -0.0102191493, -0.0150175449, -0.000161424658, 918.121643  , 31.9718075  , 823.8772    , 4.85        , 3           , 255         , 0           , 0
-0.141535759, 0.09765126  , -9.785555   , -0.000474236556, -0.000167721533, -0.0007711984, -0.0102237761, -0.0150193  , -0.000169119783, 918.121643  , 31.9718075  , 823.8771    , 4.86        , 3           , 255         , 0           , 0
-0.1474675  , 0.0991873   , -9.793711   , 0.000578631763, -0.000147707, -5.14794738E-05, -0.0102179823, -0.0150207831, -0.0001696195, 918.121643  , 31.9718075  , 823.876953  , 4.87        , 3           , 255         , 0           , 0
-0.1487169  , 0.1028314   , -9.794704   , -9.117881E-06, -4.17081756E-05, -1.73696681E-05, -0.0102180708, -0.0150212031, -0.000169788938, 918.121643  , 31.9718075  , 823.876831  , 4.88        , 3           , 255         , 0           , 0
-0.145646453, 0.09504859  , -9.78712749 , 0.000327356538, 8.761918E-05, -0.000219081878, -0.0102147646, -0.0150203472, -0.00017198878, 918.121643  , 31.9718075  , 823.8767    , 4.89        , 3           , 255         , 0           , 0
-0.156473547, 0.104705647 , -9.796614   , 9.76008E-05 , -0.000214602915, 0.000120575969, -0.0102138063, -0.0150224818, -0.000170761079, 918.121643  , 31.9718075  , 823.8766    , 4.9         , 3           , 255         , 0           , 0
-0.149506167, 0.117256537 , -9.795675   , 0.0003381202, 9.85958E-05 , 0.000117630712, -0.0102165  , -0.0150219873, -0.000169503808, 918.121643  , 31.9718075  , 823.8881    , 4.91        , 3           , 255         , 0           , 0
-0.145760775, 0.102905311 , -9.801958   , -0.000180942414, 1.59083866E-05, -0.000127811043, -0.0102182915, -0.015021841, -0.000170783576, 918.121643  , 31.9718075  , 823.888062  , 4.92        , 3           , 255         , 0           , 0
-0.150894716, 0.10619764  , -9.787817   , -0.000175374153, 7.134798E-05, -0.000237279048, -0.01022001 , -0.0150211519, -0.0001731637, 918.1423    , 31.9714012  , 823.888     , 4.93        , 3           , 255         , 0           , 0
-0.149701387, 0.102105275 , -9.794554   , 0.000243889808, 0.0006408428, 0.000119918746, -0.0102175865, -0.0150147351, -0.000172029992, 918.1423    , 31.9714012  , 823.887939  , 4.94        , 3           , 255         , 0           , 0
-0.1524863  , 0.1000932   , -9.793586   , -7.415167E-05, 0.0003504447, 0.0006136938, -0.01021842 , -0.0150111653, -0.000165928635, 918.1423    , 31.9714012  , 823.8879    , 4.95        , 3           , 255         , 0           , 0
-0.147341788, 0.104486659 , -9.794575   , 0.0003471798, 6.54360338E-05, 0.00114764983, -0.0102151195, -0.0150103951, -0.000154458437, 918.1423    , 31.9714012  , 823.8879    , 4.96        , 3           , 255         , 0           , 0
-0.146292955, 0.108770333 , -9.798154   , 7.77237E-05 , -0.000116486859, 0.000901269435, -0.0102144787, -0.015011467, -0.000145433514, 918.1423    , 31.9714012  , 823.8879    , 4.97        , 3           , 255         , 0           , 0
-0.141841561, 0.109863043 , -9.794373   , -8.62531E-05, 0.0003695867, 0.0009434101, -0.0102154808, -0.0150076738, -0.000136036862, 918.1423    , 31.9714012  , 823.8879    , 4.98        , 3           , 255         , 0           , 0
-0.142734453, 0.103080906 , -9.79581451 , 5.44459035E-05, 0.0003107382, 0.000138020565, -0.0102149574, -0.0150045529, -0.000134688336, 918.1423    , 31.9714012  , 823.8879    , 4.99        , 3           , 255         , 0           , 0
-0.147479653, 0.101334527 , -9.798259   , -0.000271087862, 0.000111669156, 0.000238943961, -0.0102177039, -0.0150034111, -0.0001323102, 918.1423    , 31.9714012  , 823.8879    , 5           , 3           , 0           , -1          , 500
-0.143322349, 0.107979655 , -9.792162   , 0.000220868853, 9.248918E-05, 0.000450957479, -0.0102222413, -0.0150028383, -0.000127709747, 918.1423    , 31.9714012  , 823.868835  , 5.01        , 3           , 1           , 0           , 0
-0.142807   , 0.107058093 , -9.786868   , 0.0007510818, -0.000264327449, 0.000133287132, -0.0102147516, -0.0150054675, -0.0001263498, 918.1423    , 31.9714012  , 823.8687    , 5.02        , 3           , 2           , 0           , 0
-0.146520048, 0.103589639 , -9.800692   , 0.000261439651, -0.000531015161, -0.000360622827, -0.0102120843, -0.0150108133, -0.000129901935, 918.092163  , 31.9727573  , 823.8686    , 5.03        , 3           , 3           , 0           , 0
-0.149478272, 0.103607856 , -9.801798   , 0.0008669201, -0.0001319428, -0.000711158966, -0.0102033084, -0.0150122074, -0.000137000286, 918.092163  , 31.9727573  , 823.868469  , 5.04        , 3           , 4           , 0           , 0
-0.148008555, 0.102217175 , -9.794001   , 7.281898E-05, 9.139662E-05, -0.000282626337, -0.0102025373, -0.0150113218, -0.000139835975, 918.092163  , 31.9727573  , 823.868347  , 5.05        , 3           , 5           , 0           , 0
-0.143086523, 0.104789019 , -9.795067   , -0.0001731558, 6.22556254E-05, -3.11596232E-05, -0.010204264, -0.0150107024, -0.000140153934, 918.092163  , 31.9727573  , 823.8682    , 5.06        , 3           , 6           , 0           , 0
-0.147354424, 0.105073527 , -9.799589   , -0.000147153216, -0.000352231727, 0.000182225835, -0.0102057625, -0.0150142079, -0.000138295683, 918.092163  , 31.9727573  , 823.8681    , 5.07        , 3           , 7           , 0           , 0
-0.1443347  , 0.101798832 , -9.796724   , -7.27810548E-05, -0.000443004246, -0.00038536574, -0.0102064312, -0.0150186755, -0.000142104254, 918.092163  , 31.9727573  , 823.868     , 5.08        , 3           , 8           , 5           , 5
