Acc X       , Acc Y       , Acc Z       , Gyro X      , Gyro Y      , Gyro Z      , Euler X     , Euler Y     , Euler Z     , Pres X      , Pres Y      , Pres Z      , Time        , Status      , LowRate X   , LowRate Y   , LowRate Z    
-0.144775584, 0.141404718 , -9.784942   , 0           , 0           , 0           , -0.0144502521, -0.0147931287, 0           , 921.2307    , 32.12886    , 795.953857  , 0           , 2           , 0           , 5.45823145  , 0
-0.147840753, 0.1402858   , -9.794722   , 0.000304995279, 0.000131678768, 3.84945743E-05, -0.0144469636, -0.0147917373, 3.65904327E-07, 921.2307    , 32.12886    , 795.953857  , 0.01        , 3           , 1           , 0           , 0
-0.148849666, 0.136796191 , -9.7974205  , 0.0003796665, -5.25407377E-05, 3.88526969E-05, -0.014443174, -0.0147922561, 7.62014452E-07, 921.2307    , 32.12886    , 795.953857  , 0.02        , 3           , 2           , 0           , 0
-0.1459817  , 0.1479399   , -9.800822   , 0.000382389844, -0.0004139939, 0.00011234924, -0.0144393649, -0.01479638 , 1.945273E-06, 921.1504    , 31.6927738  , 795.953857  , 0.03        , 3           , 3           , 0           , 0
-0.146495849, 0.146415547 , -9.783471   , -0.000121639925, -0.000357178564, 0.0005052955, -0.0144406576, -0.014799878, 7.049698E-06, 921.1504    , 31.6927738  , 795.953857  , 0.04        , 3           , 4           , 0           , 0
-0.1466153  , 0.146124959 , -9.786723   , -0.000246236566, -0.000104571576, 4.53571E-05 , -0.0144431274, -0.0148009164, 7.518372E-06, 921.1504    , 31.6927738  , 795.953857  , 0.05        , 3           , 5           , 0           , 0
-0.15147306 , 0.15261054  , -9.788164   , -0.0003043557, -0.000290987024, 0.0002455464, -0.0144462083, -0.0148037923, 1.00158195E-05, 921.1504    , 31.6927738  , 795.953857  , 0.06        , 3           , 6           , 0           , 0
-0.142043456, 0.1444576   , -9.787333   , -0.000544131151, 0.000230382517, 4.067896E-05, -0.0144516546, -0.0148014817, 1.03893135E-05, 921.1504    , 31.6927738  , 795.953857  , 0.07        , 3           , 7           , 0           , 0
-0.1485239  , 0.142959386 , -9.784866   , -0.000235455926, 0.000481943251, 0.0007209943, -0.0144541133, -0.0147965606, 1.75294535E-05, 921.1504    , 31.6927738  , 795.953857  , 0.08        , 3           , 8           , 5           , 5
-0.143584087, 0.1469601   , -9.793548   , 0.0002820237, 0.000185737183, -0.000212656218, -0.0144512625, -0.0147947334, 1.53760939E-05, 921.1504    , 31.6927738  , 795.953857  , 0.09        , 3           , 9           , 5           , 0.1
-0.1464009  , 0.147340357 , -9.790029   , 0.000128712054, 0.000192901614, 1.2591554E-06, -0.0144499745, -0.0147928037, 1.5360798E-05, 921.1504    , 31.6927738  , 795.953857  , 0.1         , 3           , 10          , 0.1         , 0.1
-0.1516374  , 0.1449341   , -9.788311   , 0.000330139272, -0.000268935, -0.000321402069, -0.014463868, -0.0148039609, 1.24409453E-05, 921.1504    , 31.6927738  , 796.675232  , 0.11        , 3           , 11          , 0.0109544508, 0.0109544508
-0.152636245, 0.146022633 , -9.793657   , -6.804487E-05, 8.18214E-05 , 0.000193462358, -0.0144645767, -0.0148031143, 1.436369E-05, 921.1504    , 31.6927738  , 796.675232  , 0.12        , 3           , 12          , 0.174642488 , 0
-0.142643541, 0.145743623 , -9.789242   , -0.0001717222, -0.000197247078, 0.000705163344, -0.0144663993, -0.0148049844, 2.14437168E-05, 921.144958  , 31.7341576  , 796.675232  , 0.13        , 3           , 13          , 0           , 0
-0.153239027, 0.145787388 , -9.7969265  , 0.000252605038, -0.000349160517, 0.000120156059, -0.0144638922, -0.0148084573, 2.26957654E-05, 921.144958  , 31.7341576  , 796.675232  , 0.14        , 3           , 14          , -0.0003386052, -0.0006209614
-0.140211612, 0.141252026 , -9.791265   , 0.000212002313, -0.0003132664, -0.00014094467, -0.014461752, -0.0148116108, 2.133165E-05, 921.144958  , 31.7341576  , 796.675232  , 0.15        , 3           , 15          , 0           , -9.077243E-05
-0.143350184, 0.138887018 , -9.790555   , -0.0002199004, -0.000170471088, -0.000705452054, -0.0144638466, -0.0148134176, 1.43019261E-05, 921.144958  , 31.7341576  , 796.675232  , 0.16        , 3           , 16          , 0           , 1.401298E-45
-0.142730534, 0.1385106   , -9.788086   , 0.0006096088, -4.809408E-06, -0.00074781233, -0.0144576412, -0.014813575, 6.8246577E-06, 921.144958  , 31.7341576  , 796.675232  , 0.17        , 3           , 20          , 0           , 0
-0.135013089, 0.136486843 , -9.794558   , 0.0003165278, -0.000147866958, -0.000338273763, -0.0144544253, -0.0148151023, 3.46336469E-06, 921.144958  , 31.7341576  , 796.675232  , 0.18        , 3           , 21          , 0           , 0
-0.146327645, 0.129172176 , -9.786089   , 0.00035435363, 0.00039153907, -0.0003613139, -0.0144508285, -0.0148112383, -2.06296022E-07, 921.144958  , 31.7341576  , 796.675232  , 0.19        , 3           , 22          , 0           , 0
-0.148704156, 0.136541516 , -9.791235   , 0.000471498555, 0.000296437938, 0.000204163385, -0.014446144, -0.0148082441, 1.79246149E-06, 921.144958  , 31.7341576  , 796.675232  , 0.2         , 3           , 40          , 0           , 0
-0.143728018, 0.1489254   , -9.791277   , -7.48425955E-05, -0.000163837685, 0.00024070908, -0.014441424, -0.0148124956, 4.1416456E-06, 921.144958  , 31.7341576  , 796.700562  , 0.21        , 3           , 41          , 0           , 0
-0.144128188, 0.140444756 , -9.789194   , -0.000669752655, -0.000190466, -3.271331E-05, -0.0144481156, -0.0148144048, 3.84202531E-06, 921.144958  , 31.7341576  , 796.7006    , 0.22        , 3           , 42          , 0           , 0
-0.147407681, 0.132052854 , -9.786379   , -0.0005543909, 3.71131464E-05, -0.000110544679, -0.0144536421, -0.0148140509, 2.73122828E-06, 921.194153  , 31.7576981  , 796.7007    , 0.23        , 3           , 255         , 0           , 0
-0.147507951, 0.14330028  , -9.787396   , 0.000339522 , 0.000173780834, 4.26261977E-07, -0.0144502493, -0.0148123121, 2.71038039E-06, 921.194153  , 31.7576981  , 796.700745  , 0.24        , 3           , 255         , 0           , 0
-0.138636485, 0.152910218 , -9.783681   , -1.73342414E-06, -0.0002180119, 0.0008162221, -0.0144503871, -0.014814374, 1.0903942E-05, 921.194153  , 31.7576981  , 796.7008    , 0.25        , 3           , 255         , 0           , 0
-0.145110115, 0.143708676 , -9.794851   , 0.000160714859, -0.000164778321, -0.000190546474, -0.0144487526, -0.0148160486, 9.022327E-06, 921.194153  , 31.7576981  , 796.700867  , 0.26        , 3           , 255         , 0           , 0
-0.151141733, 0.1395913   , -9.784216   , 0.000436190719, 4.174863E-05, -0.0008166843, -0.01444427 , -0.0148157487, 8.49612263E-07, 921.194153  , 31.7576981  , 796.7009    , 0.27        , 3           , 255         , 0           , 0
-0.146187618, 0.150897846 , -9.793366   , 7.8764424E-05, -8.57441337E-05, -0.0005399919, -0.0144434022, -0.0148166828, -4.53781468E-06, 921.194153  , 31.7576981  , 796.701     , 0.28        , 3           , 255         , 0           , 0
-0.1526465  , 0.146610022 , -9.790181   , 0.000339414662, -0.000266064133, -0.0003688429, -0.0144399544, -0.0148193957, -8.187755E-06, 921.194153  , 31.7576981  , 796.70105   , 0.29        , 3           , 255         , 0           , 0
-0.146398112, 0.136394024 , -9.790794   , 8.320168E-05, -0.00014027115, -0.0001869282, -0.0144390939, -0.0148208262, -1.00367433E-05, 921.194153  , 31.7576981  , 796.7011    , 0.3         , 3           , 255         , 0           , 0
-0.136546224, 0.145414338 , -9.789091   , -0.000333674572, -0.0001320978, 0.00053030136, -0.014452152, -0.0148280477, -4.57180477E-06, 921.194153  , 31.7576981  , 796.56134   , 0.31        , 3           , 255         , 0           , 0
-0.146075577, 0.143948391 , -9.794365   , -0.000225526717, 0.00021298285, -5.80651031E-05, -0.0144543964, -0.0148259271, -5.18323441E-06, 921.194153  , 31.7576981  , 796.5614    , 0.32        , 3           , 255         , 0           , 0
-0.1459932  , 0.13799578  , -9.792147   , -0.000487730751, 0.000190654158, 4.52702625E-05, -0.0144592812, -0.0148240151, -4.75808929E-06, 921.142639  , 31.7716064  , 796.561462  , 0.33        , 3           , 255         , 0           , 0
-0.146532208, 0.135712415 , -9.784998   , -0.0004332372, 0.000113089394, -0.000251160149, -0.0144635746, -0.0148229208, -7.28599844E-06, 921.142639  , 31.7716064  , 796.5615    , 0.34        , 3           , 255         , 0           , 0
-0.139714167, 0.144120291 , -9.785035   , -0.000277318672, -1.85560784E-05, 8.0009E-05  , -0.0144663583, -0.0148230931, -6.483249E-06, 921.142639  , 31.7716064  , 796.5616    , 0.35        , 3           , 255         , 0           , 0
-0.152105376, 0.136055008 , -9.79117    , -0.000301742257, 0.0001401348, 0.0002084056, -0.0144694084, -0.0148216616, -4.419495E-06, 921.142639  , 31.7716064  , 796.561646  , 0.36        , 3           , 255         , 0           , 0
-0.141087025, 0.140827984 , -9.784536   , -0.0002811254, -0.000216782035, 0.0001594974, -0.0144722424, -0.0148238065, -2.79318328E-06, 921.142639  , 31.7716064  , 796.5617    , 0.37        , 3           , 255         , 0           , 0
-0.141021267, 0.143250912 , -9.787598   , 0.000138001807, 1.55112357E-05, -0.0005452477, -0.0144707821, -0.01482373 , -8.24779E-06, 921.142639  , 31.7716064  , 796.561768  , 0.38        , 3           , 255         , 0           , 0
-0.141905785, 0.144411474 , -9.791811   , 9.530966E-05, -8.269242E-05, 0.0004396867, -0.0144698955, -0.0148244938, -3.83904262E-06, 921.142639  , 31.7716064  , 796.5618    , 0.39        , 3           , 255         , 0           , 0
-0.138618737, 0.143302247 , -9.793216   , -0.0002961489, -0.00023255375, -0.00115163764, -0.0144726848, -0.0148269841, -1.53215424E-05, 921.142639  , 31.7716064  , 796.5619    , 0.4         , 3           , 255         , 0           , 0
-0.143064588, 0.147168368 , -9.786377   , -0.000203409756, 8.32685037E-05, -0.000397834636, -0.0144741572, -0.0148164434, -1.93193155E-05, 921.142639  , 31.7716064  , 796.608948  , 0.41        , 3           , 255         , 0           , 0
-0.146398678, 0.1410608   , -9.782682   , 0.000308053422, 0.000196704437, 0.000101786383, -0.0144710913, -0.0148144616, -1.832994E-05, 921.142639  , 31.7716064  , 796.609     , 0.42        , 3           , 255         , 0           , 0
-0.152540132, 0.138497457 , -9.786147   , 0.0002837598, 0.00019949436, 1.51478234E-05, -0.0144682564, -0.0148124648, -1.820734E-05, 921.1748    , 31.78626    , 796.6091    , 0.43        , 3           , 255         , 0           , 0
-0.148514956, 0.139102966 , -9.789446   , 0.000285864924, 4.63830074E-05, 0.00058831874, -0.0144654866, -0.0148119191, -1.23309774E-05, 921.1748    , 31.78626    , 796.609131  , 0.44        , 3           , 255         , 0           , 0
-0.144161567, 0.142448157 , -9.78731251 , 6.110873E-05, 5.44198556E-05, 0.000176901958, -0.0144649008, -0.0148113463, -1.05698664E-05, 921.1748    , 31.78626    , 796.6092    , 0.45        , 3           , 255         , 0           , 0
-0.138067752, 0.1400383   , -9.796475   , 0.000133104011, -0.0001818054, -0.0006666152, -0.01446347 , -0.0148132611, -1.72095861E-05, 921.1748    , 31.78626    , 796.609253  , 0.46        , 3           , 255         , 0           , 0
-0.1415712  , 0.152157262 , -9.797983   , -8.566247E-05, -1.3607787E-05, -0.000294976635, -0.0144642843, -0.01481344 , -2.015732E-05, 921.1748    , 31.78626    , 796.6093    , 0.47        , 3           , 255         , 0           , 0
-0.148818314, 0.152745917 , -9.789491   , -0.000320811057, 0.0001802975, -0.000830966455, -0.0144673688, -0.014811758, -2.8492901E-05, 921.1748    , 31.78626    , 796.6094    , 0.48        , 3           , 255         , 0           , 0
-0.151310325, 0.145163819 , -9.791302   , -0.00015697733, -0.0003154924, -0.000698022952, -0.0144688347, -0.0148150148, -3.5427347E-05, 921.1748    , 31.78626    , 796.609436  , 0.49        , 3           , 255         , 0           , 0
-0.15112868 , 0.142192185 , -9.801064   , -0.000392845541, -0.000152893364, -0.0001225841, -0.0144727454, -0.01481656 , -3.663103E-05, 921.1748    , 31.78626    , 796.6095    , 0.5         , 3           , 255         , 0           , 0
-0.15387781 , 0.133362278 , -9.801837   , -0.000232678052, 0.000101209676, 0.0008149716, -0.0144844074, -0.0148211885, -2.83595309E-05, 921.1748    , 31.78626    , 796.5781    , 0.51        , 3           , 255         , 0           , 0
-0.140700608, 0.137856275 , -9.794168   , -0.000449177722, -0.000223147275, -0.00012023512, -0.0144888805, -0.0148234377, -2.952954E-05, 921.1748    , 31.78626    , 796.5782    , 0.52        , 3           , 255         , 0           , 0
-0.141480088, 0.135510787 , -9.801622   , -6.851644E-05, -4.39335126E-05, 0.000215616281, -0.0144895995, -0.0148238456, -2.73670539E-05, 921.188965  , 31.792366   , 796.578247  , 0.53        , 3           , 255         , 0           , 0
-0.133912951, 0.137918144 , -9.785379   , 6.67525746E-05, 0.000111683039, 0.0005681159, -0.0144890146, -0.014822647, -2.17021934E-05, 921.188965  , 31.792366   , 796.5783    , 0.54        , 3           , 255         , 0           , 0
-0.146762162, 0.139394492 , -9.79467    , -0.000175111374, 6.641017E-05, 0.000113927825, -0.0144907832, -0.0148219662, -2.05725555E-05, 921.188965  , 31.792366   , 796.578369  , 0.55        , 3           , 255         , 0           , 0
-0.144120961, 0.149094492 , -9.792296   , -0.000385151448, 0.000131242967, -0.000271108845, -0.0144945923, -0.014820694, -2.330262E-05, 921.188965  , 31.792366   , 796.5784    , 0.56        , 3           , 255         , 0           , 0
-0.1474676  , 0.150244132 , -9.792435   , -0.000168965285, -7.564365E-05, 0.00019344945, -0.0144963106, -0.0148214223, -2.13572075E-05, 921.188965  , 31.792366   , 796.5785    , 0.57        , 3           , 255         , 0           , 0
-0.146288633, 0.143809527 , -9.790333   , 0.000143080135, -0.0002001911, 3.13842975E-05, -0.0144948848, -0.01482342 , -2.10143571E-05, 921.188965  , 31.792366   , 796.578552  , 0.58        , 3           , 255         , 0           , 0
-0.14472121 , 0.146332711 , -9.787452   , 7.631548E-06, -7.4700336E-05, -9.954004E-05, -0.0144947935, -0.0148241809, -2.19989033E-05, 921.188965  , 31.792366   , 796.5786    , 0.59        , 3           , 255         , 0           , 0
-0.144938082, 0.1571013   , -9.7906065  , 0.0005208106, 0.000214828411, -4.951626E-05, -0.0144895772, -0.01482204 , -2.25252E-05, 921.188965  , 31.792366   , 796.5787    , 0.6         , 3           , 255         , 0           , 0
-0.1396747  , 0.141124308 , -9.792158   , 0.000223722265, -0.000153448083, 0.00082305196, -0.0144910738, -0.0148210851, -1.42190947E-05, 921.188965  , 31.792366   , 796.535339  , 0.61        , 3           , 255         , 0           , 0
-0.149689853, 0.144679353 , -9.790045   , -7.822734E-05, 0.000125909515, 0.000360402017, -0.01449191 , -0.0148197729, -1.06333937E-05, 921.188965  , 31.792366   , 796.5354    , 0.62        , 3           , 255         , 0           , 0
-0.141734079, 0.147064835 , -9.7895565  , 0.000283321133, -9.312702E-06, 0.0005016102, -0.0144891506, -0.0148197934, -5.616041E-06, 921.203247  , 31.7959614  , 796.535461  , 0.63        , 3           , 255         , 0           , 0
-0.139811069, 0.137877971 , -9.795248   , -3.91551876E-05, -0.000178834132, -0.000513583655, -0.0144894663, -0.014821657, -1.07258666E-05, 921.203247  , 31.7959614  , 796.5355    , 0.64        , 3           , 255         , 0           , 0
-0.1500129  , 0.138649032 , -9.786414   , -0.00050333445, -2.86998111E-05, -0.000366556138, -0.0144944442, -0.0148219978, -1.43871957E-05, 921.203247  , 31.7959614  , 796.5356    , 0.65        , 3           , 255         , 0           , 0
-0.15639089 , 0.133347183 , -9.795811   , 2.13115418E-05, -3.507419E-06, -0.000248239143, -0.0144941937, -0.0148220686, -1.68690276E-05, 921.203247  , 31.7959614  , 796.535645  , 0.66        , 3           , 255         , 0           , 0
-0.152501658, 0.133830085 , -9.793961   , 3.731216E-05, 0.000214526139, -0.00084655924, -0.0144936955, -0.0148200458, -2.536555E-05, 921.203247  , 31.7959614  , 796.5357    , 0.67        , 3           , 255         , 0           , 0
-0.144731343, 0.1458955   , -9.791634   , -7.564755E-06, 0.000444394536, 3.849994E-05, -0.0144937756, -0.0148155978, -2.504496E-05, 921.203247  , 31.7959614  , 796.535767  , 0.68        , 3           , 255         , 0           , 0
-0.148063928, 0.13136965  , -9.788794   , 7.89897458E-05, 0.000170723535, 7.56667E-05 , -0.014492997, -0.0148138795, -2.43130617E-05, 921.203247  , 31.7959614  , 796.5358    , 0.69        , 3           , 255         , 0           , 0
-0.1447237  , 0.135852844 , -9.797805   , 0.000127924126, -0.000469334016, 2.00626528E-05, -0.0144917239, -0.0148185687, -2.40444188E-05, 921.203247  , 31.7959614  , 796.5359    , 0.7         , 3           , 255         , 0           , 0
-0.1321297  , 0.134406522 , -9.793993   , 0.000218434943, -0.000324117718, -0.000387494278, -0.0144798793, -0.0148269692, -2.80146742E-05, 921.203247  , 31.7959614  , 796.4849    , 0.71        , 3           , 255         , 0           , 0
-0.139174417, 0.143353209 , -9.79994    , 0.000239834728, -0.000160385971, -1.49527332E-05, -0.01447748 , -0.0148285758, -2.8140983E-05, 921.203247  , 31.7959614  , 796.485     , 0.72        , 3           , 255         , 0           , 0
-0.1426359  , 0.148744524 , -9.793157   , 0.000510489 , 8.82633E-05 , 0.0002549027, -0.0144724119, -0.0148276556, -2.56047879E-05, 921.2054    , 31.8039665  , 796.485046  , 0.73        , 3           , 255         , 0           , 0
-0.155845731, 0.146348789 , -9.791084   , -0.00013568654, -8.50822544E-05, 0.000113179223, -0.0144737866, -0.01482849 , -2.446069E-05, 921.2054    , 31.8039665  , 796.4851    , 0.74        , 3           , 255         , 0           , 0
-0.149760738, 0.147405058 , -9.795688   , -0.0008057271, -0.000377997465, 0.000264183444, -0.0144818835, -0.0148322321, -2.176418E-05, 921.2054    , 31.8039665  , 796.485168  , 0.75        , 3           , 255         , 0           , 0
-0.141944066, 0.140231758 , -9.792972   , -0.0002681999, 5.53191057E-05, -0.000249045144, -0.0144845285, -0.0148317153, -2.42625956E-05, 921.2054    , 31.8039665  , 796.4852    , 0.76        , 3           , 255         , 0           , 0
-0.13730076 , 0.144066781 , -9.793793   , 0.000248222379, 0.0005065254, -4.25446633E-05, -0.01448204 , -0.0148266554, -2.47613862E-05, 921.2054    , 31.8039665  , 796.4853    , 0.77        , 3           , 255         , 0           , 0
-0.143596888, 0.14846012  , -9.790942   , -0.000126598985, 0.0003864331, 8.953168E-05, -0.0144833177, -0.0148227792, -2.392207E-05, 921.2054    , 31.8039665  , 796.485352  , 0.78        , 3           , 255         , 0           , 0
-0.149172276, 0.15176408  , -9.78245    , -0.000151746091, 0.000511417747, 0.000390651869, -0.0144848926, -0.0148176095, -2.00897066E-05, 921.2054    , 31.8039665  , 796.4854    , 0.79        , 3           , 255         , 0           , 0
-0.140151769, 0.146950215 , -9.796158   , -3.74733354E-05, 0.0004300285, -0.000186345729, -0.0144852381, -0.0148133365, -2.2015427E-05, 921.2054    , 31.8039665  , 796.4855    , 0.8         , 3           , 255         , 0           , 0
-0.147136956, 0.1457885   , -9.794805   , -0.000104354142, -0.000123028352, -0.000743605255, -0.0144961681, -0.0148084722, -2.928548E-05, 921.2054    , 31.8039665  , 796.4435    , 0.81        , 3           , 255         , 0           , 0
-0.141121581, 0.143981814 , -9.790457   , -6.294658E-05, 0.000101632962, 0.000127300678, -0.0144968145, -0.0148074375, -2.8027227E-05, 921.2054    , 31.8039665  , 796.443542  , 0.82        , 3           , 255         , 0           , 0
-0.150141746, 0.144256577 , -9.79245949 , -0.000111269124, -0.000159498013, 3.58826946E-06, -0.0144979293, -0.014809032, -2.79682317E-05, 921.1763    , 31.8033562  , 796.4436    , 0.83        , 3           , 255         , 0           , 0
-0.144768432, 0.1369953   , -9.793138   , 0.000107797736, -0.000136793009, -0.0006765068, -0.01449675 , -0.0148104979, -3.471332E-05, 921.1763    , 31.8033562  , 796.443665  , 0.84        , 3           , 255         , 0           , 0
-0.142828688, 0.136468574 , -9.798086   , -0.0003806133, -0.000131555484, 8.00339549E-05, -0.01450057 , -0.0148118027, -3.38939353E-05, 921.1763    , 31.8033562  , 796.4437    , 0.85        , 3           , 255         , 0           , 0
-0.148765042, 0.144219652 , -9.791979   , -0.000114849594, 0.000495274551, -0.000350174465, -0.0145016639, -0.0148069011, -3.74674273E-05, 921.1763    , 31.8033562  , 796.4438    , 0.86        , 3           , 255         , 0           , 0
-0.15616931 , 0.137030154 , -9.788241   , 0.000305916823, -0.000179769821, -0.000123375008, -0.0144985877, -0.0148087163, -3.86750762E-05, 921.1763    , 31.8033562  , 796.443848  , 0.87        , 3           , 255         , 0           , 0
-0.1467752  , 0.133592591 , -9.793437   , 0.000202973883, -0.000219443871, 2.896085E-05, -0.0144965621, -0.0148109058, -3.83536571E-05, 921.1763    , 31.8033562  , 796.4439    , 0.88        , 3           , 255         , 0           , 0
-0.140667737, 0.136116    , -9.78869152 , -0.00019918484, -0.000153945759, -0.000164375233, -0.01449853 , -0.01481247 , -3.99750534E-05, 921.1763    , 31.8033562  , 796.444     , 0.89        , 3           , 255         , 0           , 0
-0.1480262  , 0.147531673 , -9.793294   , 7.11563043E-05, 0.000104822975, 0.000685224 , -0.01449792 , -0.0148113221, -3.31381561E-05, 921.1763    , 31.8033562  , 796.444031  , 0.9         , 3           , 255         , 0           , 0
-0.136597127, 0.144924462 , -9.794741   , 3.44824221E-05, 0.0002898151, -8.698488E-05, -0.0144933918, -0.0148131521, -3.41117666E-05, 921.1763    , 31.8033562  , 796.444     , 0.91        , 3           , 255         , 0           , 0
-0.1346964  , 0.154045135 , -9.791232   , 0.000590648735, -0.000256214116, -0.000163569261, -0.0144874621, -0.0148157366, -3.571029E-05, 921.1763    , 31.8033562  , 796.444031  , 0.92        , 3           , 255         , 0           , 0
-0.149931669, 0.15062508  , -9.78908348 , 0.0005585018, -9.668467E-05, 0.000163351884, -0.014481904, -0.0148166791, -3.40628E-05, 921.1756    , 31.8068829  , 796.4441    , 0.93        , 3           , 255         , 0           , 0
-0.145769432, 0.143420875 , -9.790911   , -0.00014249605, -0.000302375935, -7.02746E-05, -0.0144833177, -0.0148197114, -3.47217574E-05, 921.1756    , 31.8068829  , 796.444153  , 0.94        , 3           , 255         , 0           , 0
-0.147067219, 0.14230454  , -9.782213   , -0.000173836539, -7.721828E-05, -0.000110468369, -0.0144850379, -0.0148205012, -3.58152356E-05, 921.1756    , 31.8068829  , 796.4442    , 0.95        , 3           , 255         , 0           , 0
-0.138751537, 0.1369339   , -9.787877   , 0.00035258822, -0.000185132609, 0.000220896909, -0.0144815464, -0.01482232 , -3.357949E-05, 921.1756    , 31.8068829  , 796.4443    , 0.96        , 3           , 255         , 0           , 0
-0.1390086  , 0.131056875 , -9.795134   , 0.000285984628, -3.960909E-05, 0.000151399654, -0.0144787086, -0.0148226935, -3.20598E-05, 921.1756    , 31.8068829  , 796.444336  , 0.97        , 3           , 255         , 0           , 0
-0.148582414, 0.132965371 , -9.78771    , -5.45406074E-05, 0.00020210509, 0.0004547161, -0.0144793205, -0.0148206074, -2.75419734E-05, 921.1756    , 31.8068829  , 796.4444    , 0.98        , 3           , 255         , 0           , 0
-0.150238186, 0.134597614 , -9.795545   , 0.000477225956, 3.2165728E-05, 0.000327508576, -0.0144745978, -0.0148202414, -2.427161E-05, 921.1756    , 31.8068829  , 796.444458  , 0.99        , 3           , 255         , 0           , 0
-0.145758674, 0.139507145 , -9.794765   , 8.65592447E-05, -0.000163119286, 0.0006814822, -0.0144738341, -0.0148217715, -1.74333036E-05, 921.1756    , 31.8068829  , 796.4445    , 1           , 3           , 0           , 6.458236    , 100
-0.146369874, 0.139077336 , -9.793947   , 8.251186E-05, -0.000179778319, 0.000467732723, -0.014470512, -0.0148186469, -1.27680669E-05, 921.1756    , 31.8068829  , 796.4454    , 1.01        , 3           , 1           , 0           , 0
-0.144500241, 0.1356509   , -9.790151   , 0.000390198868, -0.000285761256, -0.0002576519, -0.0144665735, -0.0148215415, -1.530318E-05, 921.1756    , 31.8068829  , 796.445435  , 1.02        , 3           , 2           , 0           , 0
-0.136761367, 0.147708759 , -9.793024   , 0.0001749866, 0.000134089991, 0.00017918169, -0.0144648515, -0.0148201743, -1.35308092E-05, 921.1759    , 31.806612   , 796.4455    , 1.03        , 3           , 3           , 0           , 0
-0.144643813, 0.136501044 , -9.787918   , 6.35674223E-06, 0.000431442517, -3.472455E-05, -0.0144647826, -0.0148158651, -1.39404619E-05, 921.1759    , 31.806612   , 796.445557  , 1.04        , 3           , 4           , 0           , 0
-0.146220654, 0.138354972 , -9.786331   , 0.000279601256, 0.0002070464, -0.000470296829, -0.0144619159, -0.0148138674, -1.86732741E-05, 921.1759    , 31.806612   , 796.4456    , 1.05        , 3           , 5           , 0           , 0
-0.142843187, 0.138588384 , -9.781006   , 0.000222524017, 1.61877251E-05, -8.975004E-05, -0.014459678, -0.0148137156, -1.95731063E-05, 921.1759    , 31.806612   , 796.4457    , 1.06        , 3           , 6           , 0           , 0
-0.1488077  , 0.137466162 , -9.780306   , -0.000326100679, -0.000162018929, -0.00043595623, -0.0144628733, -0.0148153985, -2.39091441E-05, 921.1759    , 31.806612   , 796.44574   , 1.07        , 3           , 7           , 0           , 0
-0.151435524, 0.136593863 , -9.7908     , -0.000199509086, 0.000461507647, -0.000167403326, -0.014464844, -0.014810808, -2.56498879E-05, 921.1759    , 31.806612   , 796.4458    , 1.08        , 3           , 8           , 5           , 5
-0.141526729, 0.148472071 , -9.795668   , -9.476536E-05, 3.74504E-05 , -0.000167267412, -0.014465766, -0.0148104578, -2.73279584E-05, 921.1759    , 31.806612   , 796.445862  , 1.09        , 3           , 9           , 5           , 0.1
-0.1517934  , 0.154915422 , -9.79706    , 0.000309455 , 0.000163134828, -0.0005166261, -0.0144625958, -0.0148089016, -3.25177061E-05, 921.1759    , 31.806612   , 796.4459    , 1.1         , 3           , 10          , 0.1         , 0.1
-0.15239355 , 0.139818624 , -9.7867775  , 0.000458839058, 0.000720802345, -7.13017E-05, -0.0144570693, -0.01480323 , -3.334865E-05, 921.1759    , 31.806612   , 796.4463    , 1.11        , 3           , 11          , 0.009089991 , 0.00908999052
-0.145259455, 0.139584213 , -9.795825   , 0.000752544845, 0.0003419136, -0.000107059393, -0.0144495275, -0.0147998258, -3.446866E-05, 921.1759    , 31.806612   , 796.44635   , 1.12        , 3           , 12          , 0.174642846 , 0
-0.144119844, 0.1375736   , -9.793845   , 0.000217609384, -0.000329198374, -0.0002492978, -0.0144473156, -0.0148031544, -3.69140253E-05, 921.13855   , 31.8124466  , 796.4464    , 1.13        , 3           , 13          , 0           , 0
-0.150908217, 0.1333157   , -9.796122   , 0.000662792 , -0.0004358741, -0.000703705649, -0.0144405831, -0.0148076117, -4.38879651E-05, 921.13855   , 31.8124466  , 796.4465    , 1.14        , 3           , 14          , -0.000338603684, -0.000620962353
-0.145725846, 0.1359832   , -9.789607   , 0.000302174478, -0.000356037053, -0.00025116888, -0.0144375246, -0.0148112075, -4.63482029E-05, 921.13855   , 31.8124466  , 796.446533  , 1.15        , 3           , 15          , 0           , -9.077245E-05
-0.147537082, 0.138924316 , -9.792421   , -0.000171937922, -0.000102363469, -0.0009994182, -0.0144390967, -0.0148123791, -5.63273861E-05, 921.13855   , 31.8124466  , 796.4466    , 1.16        , 3           , 16          , 0           , 1.401298E-45
-0.1550208  , 0.150930271 , -9.79496    , 0.0005250055, 0.000261106383, -7.907482E-06, -0.0144338468, -0.0148097677, -5.64441652E-05, 921.13855   , 31.8124466  , 796.446655  , 1.17        , 3           , 20          , 0           , 0
-0.142365813, 0.145041347 , -9.782277   , 0.000296465034, 0.000205552351, 0.000165635545, -0.0144309048, -0.0148076871, -5.48175121E-05, 921.13855   , 31.8124466  , 796.4467    , 1.18        , 3           , 21          , 0           , 0
-0.147041827, 0.151620984 , -9.792898   , 3.55299562E-06, -0.000103640719, 0.000139362877, -0.0144308908, -0.0148087041, -5.34089522E-05, 921.13855   , 31.8124466  , 796.446838  , 1.19        , 3           , 22          , 0           , 0
-0.157432377, 0.148078471 , -9.801018   , -0.000299736566, -7.07100844E-05, 2.72894322E-05, -0.0144338924, -0.0148094073, -5.31258629E-05, 921.13855   , 31.8124466  , 796.44696   , 1.2         , 3           , 40          , 0           , 0
-0.149816066, 0.143614218 , -9.796177   , -0.000385647756, -0.000205768039, 0.000161963428, -0.0144396182, -0.0148214884, -5.1449173E-05, 921.13855   , 31.8124466  , 796.48584   , 1.21        , 3           , 41          , 0           , 0
-0.13780205 , 0.1420777   , -9.793906   , 0.000438092422, 0.000164482481, 0.000437747 , -0.0144353015, -0.0148197794, -4.70955347E-05, 921.13855   , 31.8124466  , 796.4861    , 1.22        , 3           , 42          , 0           , 0
-0.151090026, 0.134426862 , -9.794279   , -0.000112835958, 1.38583709E-05, 0.001051935 , -0.0144365858, -0.0148194917, -3.657839E-05, 921.1187    , 31.8098011  , 796.4863    , 1.23        , 3           , 255         , 0           , 0
-0.14393428 , 0.142535046 , -9.79311    , -5.851104E-05, 0.000162676472, 0.0007357731, -0.0144372806, -0.0148177566, -2.92442819E-05, 921.1187    , 31.8098011  , 796.4866    , 1.24        , 3           , 255         , 0           , 0
-0.144738346, 0.134474486 , -9.79645    , 0.000205163844, 0.000363311177, 8.563434E-05, -0.014435241, -0.0148141123, -2.84403959E-05, 921.1187    , 31.8098011  , 796.4868    , 1.25        , 3           , 255         , 0           , 0
-0.141913816, 0.12710388  , -9.790527   , -0.000297085731, 0.000526614836, 4.00545978E-05, -0.0144382184, -0.014808841, -2.81158809E-05, 921.1187    , 31.8098011  , 796.487061  , 1.26        , 3           , 255         , 0           , 0
-0.1352499  , 0.128009766 , -9.794073   , 0.000286149385, 0.000237263128, 0.00027459173, -0.0144353965, -0.0148064317, -2.54042861E-05, 921.1187    , 31.8098011  , 796.4873    , 1.27        , 3           , 255         , 0           , 0
-0.135926872, 0.132552072 , -9.788914   , 0.00039050472, 9.740784E-05, 0.0001795007, -0.0144315176, -0.0148054315, -2.362338E-05, 921.1187    , 31.8098011  , 796.487549  , 1.28        , 3           , 255         , 0           , 0
-0.145074636, 0.142690808 , -9.788183   , 0.000335318182, -0.000200194074, 0.0003550044, -0.0144282188, -0.0148073817, -2.00445211E-05, 921.1187    , 31.8098011  , 796.4878    , 1.29        , 3           , 255         , 0           , 0
-0.1480522  , 0.14401032  , -9.789381   , 0.000113768314, 5.254871E-06, 0.00102942612, -0.0144272326, -0.0148071786, -9.751202E-06, 921.1187    , 31.8098011  , 796.488037  , 1.3         , 3           , 255         , 0           , 0
-0.1529182  , 0.15317601  , -9.801222   , -9.632201E-05, -0.000460434938, 0.000271535 , -0.0144169647, -0.0148070874, -7.13637246E-06, 921.1187    , 31.8098011  , 796.5425    , 1.31        , 3           , 255         , 0           , 0
-0.145509586, 0.154362813 , -9.796704   , 0.0006964421, -0.000331265561, 8.63021851E-05, -0.0144100161, -0.014810387, -6.225614E-06, 921.1187    , 31.8098011  , 796.5429    , 1.32        , 3           , 255         , 0           , 0
-0.148091733, 0.148652285 , -9.804588   , 0.00110640726, -0.0006591126, 0.000527713564, -0.01439903 , -0.0148169  , -8.53643655E-07, 921.18634   , 31.8116322  , 796.543335  , 1.33        , 3           , 255         , 0           , 0
-0.137000814, 0.140869021 , -9.793317   , 0.000813945546, -0.000433536479, 9.077684E-05, -0.0143909054, -0.0148212258, 1.16515409E-07, 921.18634   , 31.8116322  , 796.543762  , 1.34        , 3           , 255         , 0           , 0
-0.14531064 , 0.148687258 , -9.784863   , -0.000425534177, -5.73933939E-05, 0.000905239664, -0.0143952928, -0.0148216682, 9.177002E-06, 921.18634   , 31.8116322  , 796.5442    , 1.35        , 3           , 255         , 0           , 0
-0.144128755, 0.15729779  , -9.786502   , -0.00046729474, 0.000186809717, 0.000226192176, -0.0144     , -0.0148197673, 1.14119839E-05, 921.18634   , 31.8116322  , 796.5446    , 1.36        , 3           , 255         , 0           , 0
-0.135255247, 0.145148158 , -9.785731   , 0.000266256277, 0.00017494295, 4.85261044E-05, -0.0143973446, -0.0148180109, 1.18720427E-05, 921.18634   , 31.8116322  , 796.545044  , 1.37        , 3           , 255         , 0           , 0
-0.136409983, 0.148137972 , -9.793674   , 1.64194789E-05, -9.84051148E-05, 0.000113586546, -0.0143971974, -0.0148189785, 1.30220615E-05, 921.18634   , 31.8116322  , 796.5455    , 1.38        , 3           , 255         , 0           , 0
-0.148886   , 0.135218665 , -9.789824   , 0.000339754915, 0.000218614849, -0.000605040463, -0.0143937115, -0.0148168793, 6.940294E-06, 921.18634   , 31.8116322  , 796.5459    , 1.39        , 3           , 255         , 0           , 0
-0.1377232  , 0.137357026 , -9.78537    , 0.0002696616, 4.28565545E-06, -0.0002684171, -0.0143909752, -0.0148168756, 4.255556E-06, 921.18634   , 31.8116322  , 796.5463    , 1.4         , 3           , 255         , 0           , 0
-0.145989344, 0.1465978   , -9.781558   , -9.518274E-05, -8.389744E-05, -0.000354751741, -0.014407509, -0.0148124  , 9.517633E-07, 921.18634   , 31.8116322  , 796.525     , 1.41        , 3           , 255         , 0           , 0
-0.145033211, 0.14435944  , -9.786173   , -0.0003806052, -0.0001183952, -0.00014657955, -0.014411292, -0.0148136048, -4.969515E-07, 921.18634   , 31.8116322  , 796.5254    , 1.42        , 3           , 255         , 0           , 0
-0.14038375 , 0.1432839   , -9.78535    , 0.000239058849, 0.000130677479, 0.0002101449, -0.0144089321, -0.0148122674, 1.58563421E-06, 921.1963    , 31.8150921  , 796.525757  , 1.43        , 3           , 255         , 0           , 0
-0.1453372  , 0.150939748 , -9.795225   , 0.0001368415, 0.000312808435, -0.000472398446, -0.014407495, -0.0148092071, -3.18333332E-06, 921.1963    , 31.8150921  , 796.5261    , 1.44        , 3           , 255         , 0           , 0
-0.152147382, 0.1503847   , -9.790639   , -0.000243896473, 9.02783941E-05, -0.000379630976, -0.0144098774, -0.0148083586, -6.992577E-06, 921.1963    , 31.8150921  , 796.5265    , 1.45        , 3           , 255         , 0           , 0
-0.14550364 , 0.151408553 , -9.779747   , -0.000404837338, 0.0001205678, 7.498912E-05, -0.0144139351, -0.0148071432, -6.26006977E-06, 921.1963    , 31.8150921  , 796.526855  , 1.46        , 3           , 255         , 0           , 0
-0.137251377, 0.1478096   , -9.788211   , -0.000197389483, 6.229238E-05, -0.000338127371, -0.0144158592, -0.01480657 , -9.650259E-06, 921.1963    , 31.8150921  , 796.5272    , 1.47        , 3           , 255         , 0           , 0
-0.144356072, 0.146877557 , -9.790033   , 1.36866583E-06, -0.0002928733, -6.398392E-05, -0.0144158369, -0.014809506, -1.024787E-05, 921.1963    , 31.8150921  , 796.5276    , 1.48        , 3           , 255         , 0           , 0
-0.141930431, 0.1395114   , -9.79511    , -0.000322082575, 0.000365818123, 0.000110812296, -0.0144190732, -0.0148058329, -9.192507E-06, 921.1963    , 31.8150921  , 796.527954  , 1.49        , 3           , 255         , 0           , 0
-0.1352378  , 0.1471533   , -9.793383   , -0.0001271469, 0.000396415126, 0.00011237849, -0.01442036 , -0.0148018524, -8.125909E-06, 921.1963    , 31.8150921  , 796.5283    , 1.5         , 3           , 255         , 0           , 0
-0.144338235, 0.144109726 , -9.79082    , 0.0001730063, -7.89995538E-05, 6.716882E-05, -0.0144385276, -0.0147969043, -7.14856742E-06, 921.1963    , 31.8150921  , 796.498169  , 1.51        , 3           , 255         , 0           , 0
-0.152443081, 0.1350726   , -9.792603   , -0.000121696037, -0.000182527117, -0.000161554373, -0.01443972 , -0.014798752, -8.737724E-06, 921.1963    , 31.8150921  , 796.4984    , 1.52        , 3           , 255         , 0           , 0
-0.15253368 , 0.153632447 , -9.788439   , 6.41177758E-06, -0.000319853949, 0.000317795551, -0.014439703, -0.0148019046, -5.513641E-06, 921.1999    , 31.8169918  , 796.498657  , 1.53        , 3           , 255         , 0           , 0
-0.157187968, 0.155511111 , -9.79107952 , -0.00024372997, -0.000132534013, 0.000123802471, -0.0144421607, -0.0148032131, -4.256501E-06, 921.1999    , 31.8169918  , 796.4989    , 1.54        , 3           , 255         , 0           , 0
-0.14878419 , 0.150887951 , -9.79858    , 0.000352907839, 0.0003712345, -0.000686916232, -0.0144385286, -0.0147995986, -1.11791405E-05, 921.1999    , 31.8169918  , 796.499146  , 1.55        , 3           , 255         , 0           , 0
-0.140150368, 0.146542817 , -9.788132   , -0.000197387475, 0.000309277559, -0.0002700033, -0.014440462, -0.0147965457, -1.39237854E-05, 921.1999    , 31.8169918  , 796.4994    , 1.56        , 3           , 255         , 0           , 0
-0.145669252, 0.143340424 , -9.787994   , -0.00031613122, 0.00021316  , 0.000125911509, -0.0144436415, -0.0147943962, -1.26954765E-05, 921.1999    , 31.8169918  , 796.499634  , 1.57        , 3           , 255         , 0           , 0
-0.144168139, 0.14563109  , -9.789424   , 6.107756E-05, -0.000106571359, -0.00125382375, -0.0144428452, -0.0147956451, -2.52180689E-05, 921.1999    , 31.8169918  , 796.4999    , 1.58        , 3           , 255         , 0           , 0
-0.147261053, 0.14316076  , -9.800347   , -0.000162487791, 0.000109861838, -0.000678356155, -0.0144443689, -0.014794643, -3.2017364E-05, 921.1999    , 31.8169918  , 796.5001    , 1.59        , 3           , 255         , 0           , 0
-0.148371264, 0.14218919  , -9.79847    , -0.000171790365, 0.000775326742, 0.0004348023, -0.0144461505, -0.0147868274, -2.77814379E-05, 921.1999    , 31.8169918  , 796.500366  , 1.6         , 3           , 255         , 0           , 0
-0.1499919  , 0.142843619 , -9.792239   , -0.000208813639, 3.238255E-05, 0.0005103844, -0.0144593641, -0.0147939445, -2.25188851E-05, 921.1999    , 31.8169918  , 796.46875   , 1.61        , 3           , 255         , 0           , 0
-0.14578183 , 0.143322632 , -9.788422   , 0.000287839066, 2.10331054E-05, -4.90652E-06, -0.0144564873, -0.014793735, -2.257098E-05, 921.1999    , 31.8169918  , 796.4688    , 1.62        , 3           , 255         , 0           , 0
-0.146489218, 0.138898164 , -9.797144   , 8.589443E-06, 0.0004990223, 0.000196635738, -0.0144564295, -0.0147887208, -2.06767891E-05, 921.159851  , 31.813261   , 796.4689    , 1.63        , 3           , 255         , 0           , 0
-0.1416674  , 0.140844464 , -9.801275   , -0.000206403842, 0.000122507859, 8.53134552E-05, -0.0144585054, -0.0147874821, -1.98413691E-05, 921.159851  , 31.813261   , 796.468933  , 1.64        , 3           , 255         , 0           , 0
-0.141221136, 0.139804214 , -9.801392   , 0.0003436052, 0.000319523562, 5.089854E-05, -0.0144550772, -0.0147842783, -1.937859E-05, 921.159851  , 31.813261   , 796.469     , 1.65        , 3           , 255         , 0           , 0
-0.145029455, 0.1441864   , -9.792212   , -0.000123144186, -4.98361769E-05, -0.000233475861, -0.014456274, -0.01478481 , -2.17061188E-05, 921.159851  , 31.813261   , 796.469055  , 1.66        , 3           , 255         , 0           , 0
-0.148811534, 0.1446364   , -9.795675   , 0.000214158572, -0.000252716185, 0.0005278471, -0.01445421 , -0.01478726 , -1.63912155E-05, 921.159851  , 31.813261   , 796.4692    , 1.67        , 3           , 255         , 0           , 0
-0.1481519  , 0.145462751 , -9.799393   , -0.00020630128, -0.000263974536, -0.0001890481, -0.0144562451, -0.0147899278, -1.82435051E-05, 921.159851  , 31.813261   , 796.4693    , 1.68        , 3           , 255         , 0           , 0
-0.147921532, 0.149193928 , -9.788256   , -0.000237490982, 9.96755552E-05, 9.411356E-05, -0.014458634, -0.0147889182, -1.731681E-05, 921.159851  , 31.813261   , 796.4694    , 1.69        , 3           , 255         , 0           , 0
-0.148686856, 0.149864882 , -9.789442   , 0.000258548127, -7.61000556E-05, 2.076289E-06, -0.0144560486, -0.0147896791, -1.72850469E-05, 921.159851  , 31.813261   , 796.469543  , 1.7         , 3           , 255         , 0           , 0
-0.149952874, 0.135521322 , -9.792757   , -0.000186404563, -0.00027658965, -0.000448496954, -0.0144626424, -0.0147957  , -2.16589833E-05, 921.159851  , 31.813261   , 796.4846    , 1.71        , 3           , 255         , 0           , 0
-0.149365008, 0.1395624   , -9.787342   , 3.455268E-05, -0.000215135864, -0.000132472545, -0.0144622773, -0.01479787 , -2.295258E-05, 921.159851  , 31.813261   , 796.4848    , 1.72        , 3           , 255         , 0           , 0
-0.146054417, 0.140325561 , -9.786421   , 0.0003363682, -3.551977E-05, -0.000329422124, -0.0144588659, -0.0147982724, -2.62416E-05, 921.17804   , 31.8163128  , 796.485     , 1.73        , 3           , 255         , 0           , 0
-0.1480507  , 0.137726218 , -9.797383   , 0.00016015883, -0.000273236132, 0.0005366742, -0.0144573441, -0.0148009257, -2.08354668E-05, 921.17804   , 31.8163128  , 796.485168  , 1.74        , 3           , 255         , 0           , 0
-0.151961178, 0.143212512 , -9.791751   , -0.000655073731, -0.000152071239, 0.0002442866, -0.0144639295, -0.0148024121, -1.83706543E-05, 921.17804   , 31.8163128  , 796.485352  , 1.75        , 3           , 255         , 0           , 0
-0.14255245 , 0.144017309 , -9.790286   , 0.000229797763, -0.000187024067, -0.000242171038, -0.0144615965, -0.0148043176, -2.07652538E-05, 921.17804   , 31.8163128  , 796.485535  , 1.76        , 3           , 255         , 0           , 0
-0.146221653, 0.1464941   , -9.78533    , 0.000161994787, 1.82035728E-05, 0.000159195566, -0.0144600011, -0.0148041127, -1.91759664E-05, 921.17804   , 31.8163128  , 796.4857    , 1.77        , 3           , 255         , 0           , 0
-0.150352553, 0.143723    , -9.795116   , 0.000625410932, 0.000365671818, -0.0001877112, -0.0144537184, -0.0148004824, -2.11059087E-05, 921.17804   , 31.8163128  , 796.4859    , 1.78        , 3           , 255         , 0           , 0
-0.144138917, 0.141104311 , -9.793429   , 3.22188134E-05, -0.000137605763, -0.0003443929, -0.0144533459, -0.0148019074, -2.45298688E-05, 921.17804   , 31.8163128  , 796.4861    , 1.79        , 3           , 255         , 0           , 0
-0.143475682, 0.152165443 , -9.793909   , 1.36610179E-05, 6.118743E-05, 2.4121211E-05, -0.0144532127, -0.0148012917, -2.42975148E-05, 921.17804   , 31.8163128  , 796.486267  , 1.8         , 3           , 255         , 0           , 0
-0.154462934, 0.149592787 , -9.79509449 , 0.000135132315, 0.000129432883, 0.000243637856, -0.0144538647, -0.0148056615, -2.18507575E-05, 921.17804   , 31.8163128  , 796.479248  , 1.81        , 3           , 255         , 0           , 0
-0.149472937, 0.136586308 , -9.786401   , 1.7931714E-05, -4.46854974E-05, -0.000400520861, -0.0144536253, -0.0148061663, -2.58494219E-05, 921.17804   , 31.8163128  , 796.479431  , 1.82        , 3           , 255         , 0           , 0
-0.1396995  , 0.13163498  , -9.796321   , -0.000472283427, -0.00037041452, 3.544243E-05, -0.0144583555, -0.0148098646, -2.54414645E-05, 921.243347  , 31.81862    , 796.4796    , 1.83        , 3           , 255         , 0           , 0
-0.148925275, 0.135440826 , -9.798166   , 8.413094E-05, 0.000116835989, 4.04838938E-05, -0.01445752 , -0.01480869 , -2.505352E-05, 921.243347  , 31.81862    , 796.4798    , 1.84        , 3           , 255         , 0           , 0
-0.143601179, 0.137687117 , -9.794551   , -2.65014532E-05, 0.0002500079, -0.000495690969, -0.014457711, -0.0148062622, -3.004647E-05, 921.243347  , 31.81862    , 796.48      , 1.85        , 3           , 255         , 0           , 0
-0.142050564, 0.134987622 , -9.791849   , -0.000258833257, 2.81147659E-05, -0.000463988, -0.01446023 , -0.014806048, -3.469032E-05, 921.243347  , 31.81862    , 796.480164  , 1.86        , 3           , 255         , 0           , 0
-0.145201832, 0.132150456 , -9.796362   , -0.0002699824, 0.000311065378, -0.000167443417, -0.0144629059, -0.0148029616, -3.64096923E-05, 921.243347  , 31.81862    , 796.480347  , 1.87        , 3           , 255         , 0           , 0
-0.139551416, 0.133700654 , -9.78868    , 0.00060221093, 0.0004292695, -0.000291870878, -0.01445684 , -0.014798712, -3.93904338E-05, 921.243347  , 31.81862    , 796.4805    , 1.88        , 3           , 255         , 0           , 0
-0.1334496  , 0.1355972   , -9.786331   , 0.0002975566, 0.00015634892, -0.000309903728, -0.0144538181, -0.014797193, -4.2512E-05 , 921.243347  , 31.81862    , 796.4807    , 1.89        , 3           , 255         , 0           , 0
-0.145820335, 0.1325656   , -9.790823   , 0.000393881433, -4.803593E-05, 0.0003597456, -0.0144499345, -0.0147976205, -3.890768E-05, 921.243347  , 31.81862    , 796.4809    , 1.9         , 3           , 255         , 0           , 0
-0.147750467, 0.141161472 , -9.795649   , 2.604138E-05, 0.000305811671, 8.34446255E-05, -0.0144368056, -0.0147927087, -3.83079678E-05, 921.243347  , 31.81862    , 796.398     , 1.91        , 3           , 255         , 0           , 0
-0.14227131 , 0.135059744 , -9.7909     , -3.884072E-05, 0.0002728309, -3.948409E-05, -0.0144371875, -0.0147899874, -3.8742186E-05, 921.243347  , 31.81862    , 796.3977    , 1.92        , 3           , 255         , 0           , 0
-0.1474108  , 0.135158464 , -9.787096   , 3.71564529E-05, -0.000311553478, 0.000405606581, -0.0144368764, -0.014793044, -3.464122E-05, 921.1838    , 31.8163128  , 796.3974    , 1.93        , 3           , 255         , 0           , 0
-0.146187246, 0.144211084 , -9.78684    , -7.284482E-05, -0.0005434633, 0.0007469447, -0.0144377146, -0.01479837 , -2.7093467E-05, 921.1838    , 31.8163128  , 796.3971    , 1.94        , 3           , 255         , 0           , 0
-0.143096283, 0.1445066   , -9.784616   , -0.0005711105, -0.000151160464, -3.51086783E-06, -0.0144434255, -0.0147998808, -2.7106742E-05, 921.1838    , 31.8163128  , 796.3968    , 1.95        , 3           , 255         , 0           , 0
-0.148291439, 0.149969816 , -9.794905   , -1.86878024E-05, 0.000317143917, 0.000279090367, -0.0144436536, -0.01479667 , -2.43617069E-05, 921.1838    , 31.8163128  , 796.3965    , 1.96        , 3           , 255         , 0           , 0
-0.151849747, 0.143600315 , -9.799257   , -5.09539677E-05, -0.000211579551, 0.000413980742, -0.0144442245, -0.014798725, -2.01914154E-05, 921.1838    , 31.8163128  , 796.3962    , 1.97        , 3           , 255         , 0           , 0
-0.147676259, 0.146794125 , -9.787202   , -0.000355231081, -0.0003777974, 0.000568781048, -0.01444786 , -0.0148024205, -1.4449146E-05, 921.1838    , 31.8163128  , 796.3959    , 1.98        , 3           , 255         , 0           , 0
-0.154971585, 0.147299334 , -9.783187   , 0.0007419643, -0.0005308965, -3.80498532E-05, -0.0144404378, -0.0148077346, -1.47529372E-05, 921.1838    , 31.8163128  , 796.395569  , 1.99        , 3           , 255         , 0           , 0
-0.1499621  , 0.15568912  , -9.792994   , 0.0007912887, -0.000109846995, -0.0006520577, -0.0144324284, -0.0148089295, -2.12575324E-05, 921.1838    , 31.8163128  , 796.395264  , 2           , 3           , 0           , 7.458236    , 200
-0.142345384, 0.150369808 , -9.78813648 , 0.000123480742, 0.0004436684, -0.0001267813, -0.01443891 , -0.0148124509, -2.24747364E-05, 921.1838    , 31.8163128  , 796.3921    , 2.01        , 3           , 1           , 0           , 0
-0.140611947, 0.137212291 , -9.788485   , 0.000297979917, 0.000512959 , 0.0003971853, -0.01443599 , -0.0148072671, -1.85770168E-05, 921.1838    , 31.8163128  , 796.3918    , 2.02        , 3           , 2           , 0           , 0
-0.1431622  , 0.134205669 , -9.782985   , 0.000140591888, 0.000208506681, 0.000325090979, -0.0144346328, -0.0148051335, -1.53562523E-05, 921.1437    , 31.818552   , 796.3915    , 2.03        , 3           , 3           , 0           , 0
-0.150520086, 0.132840008 , -9.78204    , -0.000104674691, 0.00026394747, -5.991431E-05, -0.01443567 , -0.0148025025, -1.59934934E-05, 921.1437    , 31.818552   , 796.3912    , 2.04        , 3           , 4           , 0           , 0
-0.155290872, 0.133273572 , -9.786951   , 0.000181161566, -2.64283153E-05, -0.0004053714, -0.0144338  , -0.0148028247, -2.0043306E-05, 921.1437    , 31.818552   , 796.390869  , 2.05        , 3           , 5           , 0           , 0
-0.142479315, 0.14517042  , -9.790582   , -0.000253268779, -0.000392514165, -0.000445587182, -0.0144362655, -0.0148068154, -2.44424409E-05, 921.1437    , 31.818552   , 796.390564  , 2.06        , 3           , 6           , 0           , 0
-0.13445732 , 0.149681136 , -9.793027   , -0.000636880752, 0.000100345 , -0.000880455947, -0.0144425053, -0.0148059381, -3.32612944E-05, 921.1437    , 31.818552   , 796.390259  , 2.07        , 3           , 7           , 0           , 0
-0.139139324, 0.146126121 , -9.79278    , -0.000261176116, -0.00013988791, -0.0009700693, -0.0144449724, -0.0148074785, -4.294158E-05, 921.1437    , 31.818552   , 796.389954  , 2.08        , 3           , 8           , 5           , 5
-0.138032049, 0.1415472   , -9.789281   , -6.934264E-05, -0.000202063122, 0.000116528077, -0.0144456839, -0.01480948 , -4.17471347E-05, 921.1437    , 31.818552   , 796.389648  , 2.09        , 3           , 9           , 5           , 0.1
-0.15344891 , 0.139384165 , -9.792703   , -2.00175273E-05, 0.000176296337, -3.78241821E-05, -0.0144458776, -0.0148077225, -4.21508339E-05, 921.1437    , 31.818552   , 796.389343  , 2.1         , 3           , 10          , 0.1         , 0.1
-0.153613448, 0.1437109   , -9.790834   , -0.000104528706, -0.000152963446, -0.0007928178, -0.0144458478, -0.014806482, -5.007093E-05, 921.1437    , 31.818552   , 796.4362    , 2.11        , 3           , 11          , 0.007972869 , 0.007972867
-0.146602035, 0.133216068 , -9.791117   , 0.000106595107, 7.392012E-05, 0.000319752056, -0.014444829, -0.0148056969, -4.68841426E-05, 921.1437    , 31.818552   , 796.4362    , 2.12        , 3           , 12          , 0.174643889 , 0
-0.144681737, 0.132005185 , -9.789004   , 0.000513954146, -4.896708E-05, 0.000467361126, -0.01443976 , -0.0148061216, -4.22035664E-05, 921.1549    , 31.8184166  , 796.4362    , 2.13        , 3           , 13          , 0           , 0
-0.144647643, 0.139307424 , -9.79651451 , 1.419842E-05, -7.315498E-05, 0.000206133176, -0.0144396471, -0.014806821, -4.013171E-05, 921.1549    , 31.8184166  , 796.4362    , 2.14        , 3           , 14          , -0.000338528276, -0.0006209296
-0.141446754, 0.147148117 , -9.793627   , 0.000128010724, -4.29840875E-05, -6.275487E-05, -0.0144383591, -0.0148072587, -4.07530424E-05, 921.1549    , 31.8184166  , 796.4362    , 2.15        , 3           , 15          , 0           , -9.07731E-05
-0.145180076, 0.138727814 , -9.786407   , -1.36514136E-05, 0.0003359909, -0.000510863, -0.0144384205, -0.014803973, -4.591008E-05, 921.1549    , 31.8184166  , 796.4362    , 2.16        , 3           , 16          , 0           , 1.401298E-45
-0.146131083, 0.142854422 , -9.786917   , 0.0001929871, 4.00944846E-05, 0.000342468236, -0.01443654 , -0.0148035223, -4.24912359E-05, 921.1549    , 31.8184166  , 796.4362    , 2.17        , 3           , 20          , 0           , 0
-0.150473729, 0.144699961 , -9.791324   , -6.519997E-05, 0.000265536422, 0.0002263978, -0.0144372266, -0.0148008345, -4.026564E-05, 921.1549    , 31.8184166  , 796.4362    , 2.18        , 3           , 21          , 0           , 0
-0.158795908, 0.13885355  , -9.790237   , -0.000338517566, 0.000140782329, -0.000142907651, -0.0144405905, -0.0147994487, -4.17149931E-05, 921.1549    , 31.8184166  , 796.4362    , 2.19        , 3           , 22          , 0           , 0
-0.1511346  , 0.145807043 , -9.78777    , 0.000541946036, 0.000124396116, -0.000744121731, -0.01443506 , -0.0147983124, -4.91740357E-05, 921.1549    , 31.8184166  , 796.4362    , 2.2         , 3           , 40          , 0           , 0
-0.146410272, 0.147887245 , -9.793725   , 0.0001410757, -0.0002605893, 0.000416072522, -0.0144318864, -0.0148089668, -4.50028274E-05, 921.1549    , 31.8184166  , 796.4643    , 2.21        , 3           , 41          , 0           , 0
-0.142389327, 0.145825937 , -9.784133   , 0.000335907651, 6.132416E-05, -0.000499167654, -0.0144284535, -0.0148084247, -5.00032547E-05, 921.1549    , 31.8184166  , 796.4645    , 2.22        , 3           , 42          , 0           , 0
-0.142398432, 0.139720783 , -9.788883   , 0.000331360759, 5.175732E-05, -0.000206960074, -0.0144251091, -0.0148079358, -5.208029E-05, 921.149536  , 31.81862    , 796.464661  , 2.23        , 3           , 255         , 0           , 0
-0.1317052  , 0.145446345 , -9.793303   , 0.000540930952, -0.000195931061, -0.00051599287, -0.0144196237, -0.0148099689, -5.7211877E-05, 921.149536  , 31.81862    , 796.464844  , 2.24        , 3           , 255         , 0           , 0
-0.13155058 , 0.1444778   , -9.783549   , 5.01334725E-05, -9.357312E-05, 0.000245897274, -0.0144191589, -0.0148108695, -5.47394447E-05, 921.149536  , 31.81862    , 796.465     , 2.25        , 3           , 255         , 0           , 0
-0.149505273, 0.147024363 , -9.782626   , 5.03764022E-05, -0.0005036683, 0.000256699976, -0.0144186923, -0.01481587 , -5.20998619E-05, 921.149536  , 31.81862    , 796.4652    , 2.26        , 3           , 255         , 0           , 0
-0.142198667, 0.14429839  , -9.782464   , 0.00013232432, -0.00027901557, 0.000200570008, -0.0144174  , -0.0148186292, -5.005397E-05, 921.149536  , 31.81862    , 796.4654    , 2.27        , 3           , 255         , 0           , 0
-0.146961764, 0.139836073 , -9.792624   , 0.000222237708, 5.497114E-05, 0.0005339358, -0.0144152576, -0.0148180025, -4.472264E-05, 921.149536  , 31.81862    , 796.4656    , 2.28        , 3           , 255         , 0           , 0
-0.15246506 , 0.141613275 , -9.800374   , 5.82045759E-05, 0.000118475291, -3.406356E-06, -0.0144146727, -0.0148168178, -4.47737948E-05, 921.149536  , 31.81862    , 796.465759  , 2.29        , 3           , 255         , 0           , 0
-0.145810351, 0.152082592 , -9.790931   , -7.336779E-05, -0.0002725742, -0.000101949059, -0.0144153936, -0.0148195578, -4.57539645E-05, 921.149536  , 31.81862    , 796.465942  , 2.3         , 3           , 255         , 0           , 0
-0.142743647, 0.145248026 , -9.792234   , 0.000378240162, -7.813028E-05, -0.000259231078, -0.01442129 , -0.0148154059, -4.819097E-05, 921.149536  , 31.81862    , 796.4976    , 2.31        , 3           , 255         , 0           , 0
-0.1427761  , 0.137997538 , -9.79158    , 7.503806E-05, -0.000357955578, -0.00063623843, -0.014420446, -0.0148190754, -5.45016228E-05, 921.149536  , 31.81862    , 796.498     , 2.32        , 3           , 255         , 0           , 0
-0.147763819, 0.150688753 , -9.791876   , -0.0001303386, -0.000161381671, 0.000397711527, -0.0144218076, -0.0148206325, -5.05013122E-05, 921.1316    , 31.8186874  , 796.498352  , 2.33        , 3           , 255         , 0           , 0
-0.155701652, 0.140608937 , -9.801483   , -0.000354422431, 0.0003244699, -0.000581938541, -0.0144252675, -0.0148174716, -5.636738E-05, 921.1316    , 31.8186874  , 796.4987    , 2.34        , 3           , 255         , 0           , 0
-0.154163614, 0.146692842 , -9.794823   , 4.8323127E-05, -4.03701561E-05, -0.000685734, -0.0144246817, -0.0148179745, -6.321877E-05, 921.1316    , 31.8186874  , 796.4991    , 2.35        , 3           , 255         , 0           , 0
-0.14175646 , 0.143370569 , -9.79173851 , 0.000447629922, 0.0003816699, 0.000111734291, -0.0144202206, -0.0148141431, -6.215648E-05, 921.1316    , 31.8186874  , 796.4995    , 2.36        , 3           , 255         , 0           , 0
-0.149483   , 0.145699412 , -9.78889    , 0.000143094978, 0.000483644049, 0.000454135472, -0.0144188581, -0.0148092443, -5.76849525E-05, 921.1316    , 31.8186874  , 796.499939  , 2.37        , 3           , 255         , 0           , 0
-0.148631781, 0.135985866 , -9.792127   , -0.000356013363, 0.000413507369, -0.0004951991, -0.0144223422, -0.01480518 , -6.269647E-05, 921.1316    , 31.8186874  , 796.500366  , 2.38        , 3           , 255         , 0           , 0
-0.145088211, 0.13683103  , -9.794699   , -0.000385638152, 0.000303632667, -0.000389846682, -0.014426141, -0.0148022  , -6.663866E-05, 921.1316    , 31.8186874  , 796.5008    , 2.39        , 3           , 255         , 0           , 0
-0.154468149, 0.138170242 , -9.799188   , 0.000311915734, 3.8251048E-05, -0.000691818248, -0.0144229205, -0.0148019167, -7.356222E-05, 921.1316    , 31.8186874  , 796.5012    , 2.4         , 3           , 255         , 0           , 0
-0.154665619, 0.142902076 , -9.795535   , 0.000629583257, -0.000176809612, -0.000267784228, -0.0144181363, -0.014809438, -7.619155E-05, 921.1316    , 31.8186874  , 796.552551  , 2.41        , 3           , 255         , 0           , 0
-0.1433362  , 0.140749052 , -9.792093   , 0.000139753989, -0.000251038, -0.000327619025, -0.01441669 , -0.0148119964, -7.94314838E-05, 921.1316    , 31.8186874  , 796.5533    , 2.42        , 3           , 255         , 0           , 0
-0.142706186, 0.142909259 , -9.784992   , -2.82621477E-06, -2.435944E-05, -0.0004713388, -0.014416649, -0.0148123084, -8.41412548E-05, 921.161     , 31.8168564  , 796.554     , 2.43        , 3           , 255         , 0           , 0
-0.147928745, 0.138128713 , -9.785565   , 0.000531924656, 0.000100696634, -4.90323218E-05, -0.0144113237, -0.0148113081, -8.46461E-05, 921.161     , 31.8168564  , 796.554749  , 2.44        , 3           , 255         , 0           , 0
-0.150618225, 0.141704723 , -9.79014    , 0.000614415447, -0.000143971934, 0.000246993121, -0.0144052161, -0.0148127126, -8.215546E-05, 921.161     , 31.8168564  , 796.5555    , 2.45        , 3           , 255         , 0           , 0
-0.1509595  , 0.150275812 , -9.791368   , 0.0005396625, -0.000232803519, -7.741215E-05, -0.0143998079, -0.014815052, -8.28960256E-05, 921.161     , 31.8168564  , 796.5562    , 2.46        , 3           , 255         , 0           , 0
-0.15115428 , 0.15134497  , -9.787259   , -0.000197468617, -0.000183767639, 0.0007877715, -0.0144019015, -0.0148167759, -7.499199E-05, 921.161     , 31.8168564  , 796.556946  , 2.47        , 3           , 255         , 0           , 0
-0.143858939, 0.137278557 , -9.786098   , 4.72433749E-05, -0.000396416639, -0.000486327, -0.0144013567, -0.01482081 , -7.97980756E-05, 921.161     , 31.8168564  , 796.5577    , 2.48        , 3           , 255         , 0           , 0
-0.138944387, 0.136177912 , -9.790832   , 0.0003958564, -0.000117925752, -0.000265138, -0.0143973585, -0.0148220276, -8.243243E-05, 921.161     , 31.8168564  , 796.5584    , 2.49        , 3           , 255         , 0           , 0
-0.154141545, 0.139724761 , -9.787088   , -0.000212694227, -5.97547041E-05, -0.000106312036, -0.0143994708, -0.01482264 , -8.348692E-05, 921.161     , 31.8168564  , 796.559143  , 2.5         , 3           , 255         , 0           , 0
-0.153609753, 0.137913182 , -9.78282    , -0.000364787877, -0.000253282546, 0.000555421 , -0.0144059649, -0.0148323337, -7.78553149E-05, 921.161     , 31.8168564  , 796.5641    , 2.51        , 3           , 255         , 0           , 0
-0.150518268, 0.152122453 , -9.785492   , -0.000157772738, -0.000462429482, 0.0006405244, -0.0144076394, -0.0148368645, -7.13835543E-05, 921.161     , 31.8168564  , 796.5649    , 2.52        , 3           , 255         , 0           , 0
-0.142539218, 0.138039    , -9.793494   , -0.0003640214, 1.21839694E-05, 0.000448466162, -0.014411347, -0.0148366783, -6.6900735E-05, 921.110046  , 31.81991    , 796.5657    , 2.53        , 3           , 255         , 0           , 0
-0.1407316  , 0.1391887   , -9.791433   , 3.749854E-05, 0.000315581448, -3.813533E-06, -0.0144109707, -0.014833523, -6.698435E-05, 921.110046  , 31.81991    , 796.566467  , 2.54        , 3           , 255         , 0           , 0
-0.1451807  , 0.1426277   , -9.793516   , -0.000353931973, 0.000283166 , 7.974611E-05, -0.0144145191, -0.0148306824, -6.622772E-05, 921.110046  , 31.81991    , 796.567261  , 2.55        , 3           , 255         , 0           , 0
-0.14696385 , 0.135845631 , -9.786632   , -0.000549796736, 0.000236032443, 0.0004066847, -0.0144200781, -0.0148282619, -6.21949948E-05, 921.110046  , 31.81991    , 796.568054  , 2.56        , 3           , 255         , 0           , 0
-0.139656439, 0.140997112 , -9.784781   , -0.000608231756, 0.000385325751, 8.303473E-05, -0.0144261718, -0.0148243969, -6.142023E-05, 921.110046  , 31.81991    , 796.568848  , 2.57        , 3           , 255         , 0           , 0
-0.15395391 , 0.143272281 , -9.785763   , 0.000141740966, 0.0001590036, 8.671486E-05, -0.0144247673, -0.0148227941, -6.05760542E-05, 921.110046  , 31.81991    , 796.569641  , 2.58        , 3           , 255         , 0           , 0
-0.143475562, 0.142967969 , -9.795451   , 0.00113186671, -0.00010807364, 7.838649E-05, -0.0144134592, -0.0148238614, -5.977661E-05, 921.110046  , 31.81991    , 796.570435  , 2.59        , 3           , 255         , 0           , 0
-0.142996147, 0.139964268 , -9.790015   , 0.0009963575, 0.000355071621, 0.000462463184, -0.0144035649, -0.014820247, -5.520319E-05, 921.110046  , 31.81991    , 796.5712    , 2.6         , 3           , 255         , 0           , 0
-0.137574628, 0.135164768 , -9.785802   , 0.0005299833, 0.000106452266, 0.00035386096, -0.014398817, -0.01482105 , -5.16725777E-05, 921.110046  , 31.81991    , 796.644     , 2.61        , 3           , 255         , 0           , 0
-0.149324924, 0.138166368 , -9.786398   , 0.0001375857, -8.68128263E-05, 1.80113857E-05, -0.0143974433, -0.0148219159, -5.14799649E-05, 921.110046  , 31.81991    , 796.645264  , 2.62        , 3           , 255         , 0           , 0
-0.1512427  , 0.136012062 , -9.788089   , -5.111267E-05, 7.002067E-05, -0.0002668401, -0.0143979155, -0.0148212537, -5.41584E-05, 921.1727    , 31.8199768  , 796.646545  , 2.63        , 3           , 255         , 0           , 0
-0.144711018, 0.1379601   , -9.7923     , -2.13762978E-05, 0.000286766328, -7.111445E-05, -0.0143981194, -0.0148183964, -5.491081E-05, 921.1727    , 31.8199768  , 796.6478    , 2.64        , 3           , 255         , 0           , 0
-0.143537372, 0.146097228 , -9.789834   , 0.0002589299, 3.343163E-05, -0.000272480771, -0.0143954894, -0.0148181012, -5.76403872E-05, 921.1727    , 31.8199768  , 796.6491    , 2.65        , 3           , 255         , 0           , 0
-0.14095898 , 0.145175144 , -9.792147   , -3.14724166E-05, -2.459751E-05, 0.000286447583, -0.0143958461, -0.0148183061, -5.47724376E-05, 921.1727    , 31.8199768  , 796.6504    , 2.66        , 3           , 255         , 0           , 0
-0.139306948, 0.146872059 , -9.785254   , 0.000242716225, -0.000125915336, 1.90359569E-05, -0.0143934237, -0.0148195615, -5.456394E-05, 921.1727    , 31.8199768  , 796.6517    , 2.67        , 3           , 255         , 0           , 0
-0.145424381, 0.139900446 , -9.787278   , -0.00014872459, 0.000266487652, -0.000280631881, -0.0143948691, -0.0148169417, -5.740856E-05, 921.1727    , 31.8199768  , 796.652954  , 2.68        , 3           , 255         , 0           , 0
-0.143844843, 0.1483167   , -9.793526   , -9.958912E-05, -1.79724884E-05, -0.0004155962, -0.0143958032, -0.0148171792, -6.156185E-05, 921.1727    , 31.8199768  , 796.654236  , 2.69        , 3           , 255         , 0           , 0
-0.134584337, 0.146928445 , -9.792251   , 0.000112940412, -7.425842E-05, -0.000206818659, -0.0143946428, -0.0148179512, -6.361931E-05, 921.1727    , 31.8199768  , 796.6555    , 2.7         , 3           , 255         , 0           , 0
-0.135807246, 0.147630036 , -9.790556   , 1.14319846E-06, -7.793389E-05, 0.000173350883, -0.0143973762, -0.0148137556, -6.183434E-05, 921.1727    , 31.8199768  , 796.631     , 2.71        , 3           , 255         , 0           , 0
-0.147264481, 0.158306837 , -9.79910851 , -9.684323E-05, 0.000586800568, 0.0003426331, -0.0143983951, -0.014807838, -5.84925838E-05, 921.1727    , 31.8199768  , 796.6321    , 2.72        , 3           , 255         , 0           , 0
-0.141084224, 0.14953728  , -9.789423   , -0.000194948254, 0.000278570747, 2.62789181E-05, -0.0144003481, -0.01480505 , -5.826992E-05, 921.178     , 31.819706   , 796.6332    , 2.73        , 3           , 255         , 0           , 0
-0.153887168, 0.1409935   , -9.789243   , 0.000305057532, -0.000126951316, 6.28863054E-05, -0.0143973064, -0.0148063088, -5.76227831E-05, 921.178     , 31.819706   , 796.6343    , 2.74        , 3           , 255         , 0           , 0
-0.145536512, 0.144952208 , -9.794179   , 0.0007340446, -1.37867173E-05, -0.000481511554, -0.0143898958, -0.0148065155, -6.243582E-05, 921.178     , 31.819706   , 796.6354    , 2.75        , 3           , 255         , 0           , 0
-0.142334774, 0.142984226 , -9.785124   , 0.000372945651, 0.00023436331, 0.000282693072, -0.0143862087, -0.0148041351, -5.96426362E-05, 921.178     , 31.819706   , 796.6365    , 2.76        , 3           , 255         , 0           , 0
-0.145725459, 0.1384938   , -9.781483   , -0.000100497971, -1.39894546E-05, -7.009273E-05, -0.0143872024, -0.0148042841, -6.03415465E-05, 921.178     , 31.819706   , 796.6376    , 2.77        , 3           , 255         , 0           , 0
-0.147753775, 0.134814918 , -9.783028   , -1.443291E-05, 0.000170013693, 0.000102121339, -0.0143873617, -0.0148025686, -5.934482E-05, 921.178     , 31.819706   , 796.6387    , 2.78        , 3           , 255         , 0           , 0
-0.149120808, 0.13552843  , -9.786998   , 0.000241237009, -4.03316226E-05, -0.000314096, -0.014384903, -0.0148030166, -6.247991E-05, 921.178     , 31.819706   , 796.6398    , 2.79        , 3           , 255         , 0           , 0
-0.148464888, 0.140743017 , -9.791468   , 0.000215727778, -0.000163381628, -0.000443580648, -0.0143826809, -0.0148047144, -6.68921348E-05, 921.178     , 31.819706   , 796.640869  , 2.8         , 3           , 255         , 0           , 0
-0.1517853  , 0.143409669 , -9.78823948 , 0.000322407 , -0.000129687949, 0.000201064831, -0.0143855112, -0.0148077458, -6.477366E-05, 921.178     , 31.819706   , 796.6106    , 2.81        , 3           , 255         , 0           , 0
-0.142932713, 0.13984625  , -9.786931   , -5.24967036E-05, -2.95398058E-05, -0.000355926255, -0.0143859843, -0.0148080923, -6.83286053E-05, 921.178     , 31.819706   , 796.6115    , 2.82        , 3           , 255         , 0           , 0
-0.138029233, 0.138776273 , -9.788618   , 0.0003904873, -0.00026485417, -0.000309166819, -0.0143820355, -0.0148107847, -7.13821137E-05, 921.230835  , 31.8202477  , 796.6124    , 2.83        , 3           , 255         , 0           , 0
-0.144598573, 0.136661381 , -9.784629   , -0.000460356416, 0.000208982208, -0.00021064785, -0.0143866073, -0.0148087274, -7.3518604E-05, 921.230835  , 31.8202477  , 796.613342  , 2.84        , 3           , 255         , 0           , 0
-0.148099571, 0.148573875 , -9.78519    , -0.000116175564, 0.00012854801, -0.000661410159, -0.014387669, -0.0148075372, -8.015106E-05, 921.230835  , 31.8202477  , 796.614258  , 2.85        , 3           , 255         , 0           , 0
-0.147195026, 0.147221118 , -9.795488   , -0.000224874, 2.893235E-05, -0.0007093875, -0.0143898139, -0.01480735 , -8.724896E-05, 921.230835  , 31.8202477  , 796.6152    , 2.86        , 3           , 255         , 0           , 0
-0.152223751, 0.14934589  , -9.791644   , 0.00062648  , -0.00016315782, -0.0005453399, -0.01438347 , -0.01480906 , -9.267879E-05, 921.230835  , 31.8202477  , 796.6161    , 2.87        , 3           , 255         , 0           , 0
-0.143471628, 0.145380035 , -9.79344    , 0.00030439152, -0.000266263552, 1.30022017E-05, -0.0143804271, -0.0148117207, -9.251047E-05, 921.230835  , 31.8202477  , 796.617     , 2.88        , 3           , 255         , 0           , 0
-0.132941246, 0.141551271 , -9.79772949 , 0.0002452857, -0.000159648713, 0.00105199043, -0.0143781295, -0.014813167, -8.196782E-05, 921.230835  , 31.8202477  , 796.6179    , 2.89        , 3           , 255         , 0           , 0
-0.146577746, 0.141681343 , -9.79487    , 0.000145733124, -0.00024450646, 0.0002052681, -0.0143767027, -0.01481558 , -7.988002E-05, 921.230835  , 31.8202477  , 796.618835  , 2.9         , 3           , 255         , 0           , 0
-0.142281249, 0.1432809   , -9.793503   , 2.80264067E-06, 0.000272845617, -7.907147E-06, -0.0143815717, -0.0148123978, -7.992576E-05, 921.230835  , 31.8202477  , 796.517761  , 2.91        , 3           , 255         , 0           , 0
-0.154573053, 0.14537625  , -9.787726   , 5.05166827E-06, 6.655656E-05, 0.000611483469, -0.0143816117, -0.0148116443, -7.382062E-05, 921.230835  , 31.8202477  , 796.518     , 2.92        , 3           , 255         , 0           , 0
-0.150154307, 0.147205666 , -9.789499   , 0.000236038846, -0.0004771051, -0.000117089687, -0.0143792341, -0.0148164313, -7.492289E-05, 921.1752    , 31.820385   , 796.5183    , 2.93        , 3           , 255         , 0           , 0
-0.141015619, 0.1444698   , -9.79263    , 0.000109849294, -0.000254535, -0.000281912, -0.014378095, -0.0148190167, -7.77053356E-05, 921.1752    , 31.820385   , 796.5186    , 2.94        , 3           , 255         , 0           , 0
-0.145605266, 0.140713543 , -9.78512    , 0.000788763 , 0.0002295599, 0.0008039937, -0.0143703278, -0.0148166073, -6.969854E-05, 921.1752    , 31.820385   , 796.5189    , 2.95        , 3           , 255         , 0           , 0
-0.146496952, 0.134116158 , -9.786042   , 0.0008017231, -0.000324922672, 1.86775287E-06, -0.014362311, -0.0148198549, -6.963318E-05, 921.1752    , 31.820385   , 796.5192    , 2.96        , 3           , 255         , 0           , 0
-0.150173143, 0.13908875  , -9.783476   , 0.0002887665, -0.0003504402, -0.000372365816, -0.014359368, -0.0148234135, -7.330645E-05, 921.1752    , 31.820385   , 796.519531  , 2.97        , 3           , 255         , 0           , 0
-0.153115228, 0.137994289 , -9.785776   , 0.00011361872, -0.000121841789, 7.832718E-05, -0.0143582439, -0.0148246195, -7.25056962E-05, 921.1752    , 31.820385   , 796.519836  , 2.98        , 3           , 255         , 0           , 0
-0.154401958, 0.13833113  , -9.787407   , 0.000185392608, 8.777133E-07, -7.566571E-05, -0.0143563794, -0.0148246214, -7.326246E-05, 921.1752    , 31.820385   , 796.520142  , 2.99        , 3           , 255         , 0           , 0
-0.142438516, 0.135412559 , -9.790806   , 0.00015254083, -0.000290869735, -0.00035870017, -0.0143548008, -0.0148275811, -7.680764E-05, 921.1752    , 31.820385   , 796.520447  , 3           , 3           , 0           , 8.458237    , 300
-0.148814127, 0.137915045 , -9.790358   , -0.000284364447, 0.000112164591, -0.000522452756, -0.0143573135, -0.0148339774, -8.205193E-05, 921.1752    , 31.820385   , 796.5107    , 3.01        , 3           , 1           , 0           , 0
-0.14226231 , 0.134008929 , -9.794971   , 9.01071762E-05, -1.016882E-05, -0.000376563927, -0.0143563561, -0.014834133, -8.581603E-05, 921.1752    , 31.820385   , 796.5109    , 3.02        , 3           , 2           , 0           , 0
-0.139406368, 0.139445335 , -9.78917    , 0.000100806981, 6.133132E-05, 0.000158711147, -0.0143553717, -0.0148334969, -8.423776E-05, 921.1447    , 31.820385   , 796.511169  , 3.03        , 3           , 3           , 0           , 0
-0.14700231 , 0.141938522 , -9.793625   , -0.000170897285, 0.000236428255, 2.73904443E-05, -0.0143570853, -0.0148311285, -8.39978E-05, 921.1447    , 31.820385   , 796.5114    , 3.04        , 3           , 4           , 0           , 0
-0.146125764, 0.144110754 , -9.792081   , -0.000884479145, 0.000211754465, 0.0004333864, -0.0143659944, -0.0148289511, -7.969442E-05, 921.1447    , 31.820385   , 796.511658  , 3.05        , 3           , 5           , 0           , 0
-0.145588428, 0.148014635 , -9.792091   , -0.000274718623, 0.000402004778, 0.000106690175, -0.0143687567, -0.0148249166, -7.86853052E-05, 921.1447    , 31.820385   , 796.5119    , 3.06        , 3           , 6           , 0           , 0
-0.1420422  , 0.141741186 , -9.794826   , 2.86481227E-05, 8.147664E-05, -4.497927E-05, -0.0143684624, -0.0148241082, -7.914679E-05, 921.1447    , 31.820385   , 796.512146  , 3.07        , 3           , 7           , 0           , 0
-0.141662642, 0.144147709 , -9.79877949 , -4.645635E-05, -8.882466E-05, 0.000409973756, -0.0143689886, -0.0148249371, -7.50343461E-05, 921.1447    , 31.820385   , 796.5124    , 3.08        , 3           , 8           , 5           , 5
-0.147132039, 0.147345    , -9.792536   , -0.000157078612, -0.000139369862, 0.000307577255, -0.0143706044, -0.0148262875, -7.193861E-05, 921.1447    , 31.820385   , 796.512634  , 3.09        , 3           , 9           , 5           , 0.1
-0.150701091, 0.147639185 , -9.79256248 , 0.000170836545, -0.000196625886, -0.0003024298, -0.0143688517, -0.0148282964, -7.49346145E-05, 921.1447    , 31.820385   , 796.5129    , 3.1         , 3           , 10          , 0.1         , 0.1
-0.142022148, 0.141071022 , -9.794344   , -0.000131533481, -5.87321119E-05, 0.0002150895, -0.0143734673, -0.0148285506, -7.272683E-05, 921.1447    , 31.820385   , 796.5472    , 3.11        , 3           , 11          , 0.00709102  , 0.007091019
-0.13781932 , 0.146071345 , -9.792672   , -0.0006463485, 0.000217045425, -0.0006027827, -0.0143798394, -0.0148264645, -7.87857643E-05, 921.1447    , 31.820385   , 796.5476    , 3.12        , 3           , 12          , 0.174645633 , 0
-0.1505246  , 0.143469378 , -9.789561   , -0.000183034455, 0.000134426838, 0.0003242185, -0.0143817179, -0.0148250749, -7.55629662E-05, 921.142151  , 31.81991    , 796.5481    , 3.13        , 3           , 13          , 0           , 0
-0.1486649  , 0.136911377 , -9.790323   , -0.000110060151, -0.000391821552, 4.439619E-05, -0.0143828271, -0.0148289865, -7.50626641E-05, 921.142151  , 31.81991    , 796.5486    , 3.14        , 3           , 14          , -0.0003384052, -0.000620844134
-0.1358644  , 0.148560211 , -9.790962   , 0.0004417129, -0.000552664569, -0.000298323866, -0.014378367, -0.0148345539, -7.796636E-05, 921.142151  , 31.81991    , 796.5491    , 3.15        , 3           , 15          , 0           , -9.077369E-05
-0.1430476  , 0.14668408  , -9.794628   , 0.000226821634, -0.0006368347, -0.0005417594, -0.0143760219, -0.014841   , -8.3292296E-05, 921.142151  , 31.81991    , 796.549561  , 3.16        , 3           , 16          , 0           , 1.401298E-45
-0.14233005 , 0.143388912 , -9.783134   , 0.000318931037, 0.00017049766, -0.000169959589, -0.0143728042, -0.0148393195, -8.501636E-05, 921.142151  , 31.81991    , 796.550049  , 3.17        , 3           , 20          , 0           , 0
-0.144286215, 0.15123193  , -9.783578   , 0.000404237944, 0.000276858 , -0.000316367572, -0.0143687157, -0.0148365954, -8.82197637E-05, 921.142151  , 31.81991    , 796.550537  , 3.18        , 3           , 21          , 0           , 0
-0.149427012, 0.154264882 , -9.787312   , 5.98258048E-05, 0.000140063668, -3.390167E-06, -0.0143681178, -0.0148351947, -8.8273795E-05, 921.142151  , 31.81991    , 796.551     , 3.19        , 3           , 22          , 0           , 0
-0.142999977, 0.156652883 , -9.788679   , 0.000133745241, 0.000128640619, -0.0007348843, -0.0143666724, -0.0148340147, -9.564097E-05, 921.142151  , 31.81991    , 796.5515    , 3.2         , 3           , 40          , 0           , 0
-0.146143243, 0.1500184   , -9.790599   , 0.000216139422, 4.019466E-05, -0.000884954934, -0.0143772978, -0.0148304719, -0.000104304541, 921.142151  , 31.81991    , 796.5842    , 3.21        , 3           , 41          , 0           , 0
-0.130310684, 0.146580666 , -9.79293251 , -5.02035546E-05, 0.000109751476, -0.0003054568, -0.014377756, -0.0148294186, -0.000107374835, 921.142151  , 31.81991    , 796.5849    , 3.22        , 3           , 42          , 0           , 0
-0.141623527, 0.148273513 , -9.78974152 , -5.86179667E-05, 6.750855E-05, -0.0003915628, -0.0143782832, -0.0148287993, -0.000111300091, 921.1872    , 31.8202477  , 796.5856    , 3.23        , 3           , 255         , 0           , 0
-0.146187589, 0.141719028 , -9.794947   , 0.000496286841, -7.388991E-05, -0.00018381502, -0.014373295, -0.0148295648, -0.000113127579, 921.1872    , 31.8202477  , 796.586243  , 3.24        , 3           , 255         , 0           , 0
-0.152455539, 0.142499536 , -9.788834   , 0.000229536774, -0.000250635436, -5.24880234E-05, -0.0143709918, -0.0148320775, -0.000113616443, 921.1872    , 31.8202477  , 796.5869    , 3.25        , 3           , 255         , 0           , 0
-0.149188563, 0.1375108   , -9.783984   , -0.000161351432, -0.0002904029, -0.000222495844, -0.0143725714, -0.0148350131, -0.000115799623, 921.1872    , 31.8202477  , 796.5876    , 3.26        , 3           , 255         , 0           , 0
-0.136738628, 0.136466563 , -9.785765   , -0.000367672154, 0.00025439664, -0.000428552827, -0.0143761849, -0.014832532, -0.000120121629, 921.1872    , 31.8202477  , 796.588257  , 3.27        , 3           , 255         , 0           , 0
-0.133436367, 0.140655711 , -9.7876215  , -0.000168991537, 0.000361523766, 0.0003800144, -0.01437793 , -0.0148288636, -0.000116373536, 921.1872    , 31.8202477  , 796.5889    , 3.28        , 3           , 255         , 0           , 0
-0.134576827, 0.137055725 , -9.790915   , 0.000693824 , -0.000101649435, 0.0003745997, -0.0143710487, -0.0148298256, -0.000112613008, 921.1872    , 31.8202477  , 796.5896    , 3.29        , 3           , 255         , 0           , 0
-0.136696488, 0.146307424 , -9.789572   , 4.004629E-05, 0.000375417585, -0.0003205722, -0.0143706007, -0.0148261171, -0.000115872623, 921.1872    , 31.8202477  , 796.5903    , 3.3         , 3           , 255         , 0           , 0
-0.144209281, 0.139152437 , -9.784625   , -0.000130199391, -8.076418E-05, 0.000311695563, -0.0143761979, -0.0148173878, -0.000112681133, 921.1872    , 31.8202477  , 796.5533    , 3.31        , 3           , 255         , 0           , 0
-0.15275529 , 0.138392374 , -9.79802    , 0.000554986764, 0.000163530116, 0.000102077123, -0.0143706631, -0.0148157375, -0.00011168389, 921.1872    , 31.8202477  , 796.5537    , 3.32        , 3           , 255         , 0           , 0
-0.145964354, 0.140306965 , -9.795115   , -6.441749E-05, -1.16439187E-05, 0.00033275882, -0.0143713569, -0.0148158055, -0.000108354689, 921.1212    , 31.8222847  , 796.554138  , 3.33        , 3           , 255         , 0           , 0
-0.130474433, 0.147246391 , -9.791388   , -4.75072E-05, -4.06437321E-05, 0.0005136651, -0.0143719073, -0.0148161389, -0.0001032123, 921.1212    , 31.8222847  , 796.554565  , 3.34        , 3           , 255         , 0           , 0
-0.137129277, 0.149488851 , -9.791162   , -0.0004555524, 0.000108218112, 9.787644E-05, -0.0143764773, -0.0148150427, -0.000102249105, 921.1212    , 31.8222847  , 796.555     , 3.35        , 3           , 255         , 0           , 0
-0.140150547, 0.14351435  , -9.788733   , -0.0005116615, 7.464172E-05, -3.911658E-05, -0.0143815884, -0.0148143023, -0.000102651, 921.1212    , 31.8222847  , 796.5554    , 3.36        , 3           , 255         , 0           , 0
-0.141297668, 0.149191782 , -9.793121   , 0.000163946926, 0.00023016028, -0.0005743831, -0.0143798627, -0.0148120839, -0.000108427826, 921.1212    , 31.8222847  , 796.5559    , 3.37        , 3           , 255         , 0           , 0
-0.149476588, 0.146750435 , -9.793645   , -9.129787E-05, -0.000213827239, -0.0003601255, -0.0143807214, -0.0148142735, -0.00011199827, 921.1212    , 31.8222847  , 796.5564    , 3.38        , 3           , 255         , 0           , 0
-0.145037323, 0.1484667   , -9.794656   , 0.0002186634, -6.698584E-05, -0.000125529143, -0.014378516, -0.0148149608, -0.0001132439, 921.1212    , 31.8222847  , 796.5569    , 3.39        , 3           , 255         , 0           , 0
-0.1411728  , 0.158558413 , -9.801148   , 0.00075135217, 0.000255093415, -0.000250007433, -0.0143709667, -0.0148124462, -0.000115780589, 921.1212    , 31.8222847  , 796.5574    , 3.4         , 3           , 255         , 0           , 0
-0.1384917  , 0.157407641 , -9.792014   , -0.0002789971, 0.000223607145, 6.615196E-05, -0.0143820988, -0.0148065239, -0.000115027869, 921.1212    , 31.8222847  , 796.6189    , 3.41        , 3           , 255         , 0           , 0
-0.141954541, 0.149661109 , -9.79559    , 0.0001488633, 5.0970295E-05, 0.0001832484, -0.0143806376, -0.0148059884, -0.000113202746, 921.1212    , 31.8222847  , 796.619751  , 3.42        , 3           , 255         , 0           , 0
-0.153084636, 0.1507039   , -9.801302   , 0.0004098139, -0.000330528128, -3.63510262E-05, -0.0143765351, -0.0148092983, -0.000113518712, 921.173     , 31.8175354  , 796.6206    , 3.43        , 3           , 255         , 0           , 0
-0.15498361 , 0.138725474 , -9.789541   , 0.000235543412, 0.00010301295, 0.0001047247, -0.0143741956, -0.0148082525, -0.00011248629, 921.173     , 31.8175354  , 796.62146   , 3.44        , 3           , 255         , 0           , 0
-0.14993611 , 0.134777114 , -9.801156   , -0.00019013221, 7.30876345E-05, -0.000120282661, -0.0143760778, -0.01480754 , -0.000113699607, 921.173     , 31.8175354  , 796.6223    , 3.45        , 3           , 255         , 0           , 0
-0.147366256, 0.132511154 , -9.792101   , 0.000241615155, 0.000186805613, 0.0002019922, -0.0143736927, -0.0148056429, -0.000111706555, 921.173     , 31.8175354  , 796.623169  , 3.46        , 3           , 255         , 0           , 0
-0.140814424, 0.1301126   , -9.788908   , 0.000468053069, 0.0009403184, 3.89567358E-05, -0.0143690147, -0.0147962375, -0.000111452129, 921.173     , 31.8175354  , 796.624     , 3.47        , 3           , 255         , 0           , 0
-0.1307905  , 0.136065811 , -9.778293   , -0.00037230624, 0.000161493575, -0.000393483439, -0.0143726785, -0.0147946794, -0.000115410105, 921.173     , 31.8175354  , 796.6249    , 3.48        , 3           , 255         , 0           , 0
-0.138186187, 0.139733434 , -9.784266   , -0.0006698136, -0.00018245558, -0.000152163237, -0.0143793551, -0.0147965243, -0.000116905459, 921.173     , 31.8175354  , 796.625732  , 3.49        , 3           , 255         , 0           , 0
-0.143554777, 0.130934477 , -9.791983   , 0.000215460284, -6.914348E-05, -0.000447016, -0.0143771339, -0.01479728 , -0.000121365592, 921.173     , 31.8175354  , 796.6266    , 3.5         , 3           , 255         , 0           , 0
-0.15089725 , 0.137319654 , -9.790986   , -1.58581242E-05, 0.0003248213, -0.000119104938, -0.0143760527, -0.0147921341, -0.000122621437, 921.173     , 31.8175354  , 796.604736  , 3.51        , 3           , 255         , 0           , 0
-0.14971073 , 0.144941419 , -9.790916   , 0.000448413775, 1.17440359E-05, -0.0004975697, -0.0143714957, -0.0147920884, -0.000127598731, 921.173     , 31.8175354  , 796.605469  , 3.52        , 3           , 255         , 0           , 0
-0.145399779, 0.129097462 , -9.794249   , 0.00027827188, 0.00015239371, -0.000644840358, -0.0143686179, -0.0147906607, -0.0001340689, 921.137146  , 31.8216057  , 796.6062    , 3.53        , 3           , 255         , 0           , 0
-0.1407077  , 0.130509645 , -9.783258   , -0.0002955072, 0.000345535082, -0.0006411281, -0.014371478, -0.0147872968, -0.000140529679, 921.137146  , 31.8216057  , 796.606934  , 3.54        , 3           , 255         , 0           , 0
-0.142068058, 0.137386128 , -9.78346348 , -0.000190989871, 0.000267238822, -0.000190399573, -0.0143733583, -0.0147846509, -0.000142472069, 921.137146  , 31.8216057  , 796.607666  , 3.55        , 3           , 255         , 0           , 0
-0.14355807 , 0.152732283 , -9.789541   , 9.95898E-05 , 0.000507135352, 0.000530332443, -0.01437244 , -0.0147795035, -0.000137241746, 921.137146  , 31.8216057  , 796.6084    , 3.56        , 3           , 255         , 0           , 0
-0.135319561, 0.1556349   , -9.787382   , -0.000911225041, 0.000162285636, 0.000121260171, -0.0143815717, -0.0147778671, -0.000136052491, 921.137146  , 31.8216057  , 796.609131  , 3.57        , 3           , 255         , 0           , 0
-0.1385445  , 0.157495365 , -9.798333   , -0.0006864373, 0.000311654469, 0.000110004032, -0.0143884514, -0.0147747332, -0.000134997317, 921.137146  , 31.8216057  , 796.609863  , 3.58        , 3           , 255         , 0           , 0
-0.144983128, 0.150403053 , -9.787424   , -7.492196E-05, -6.1919156E-05, -0.000103533792, -0.0143891852, -0.0147753675, -0.000136023722, 921.137146  , 31.8216057  , 796.6106    , 3.59        , 3           , 255         , 0           , 0
-0.161754772, 0.134134308 , -9.792432   , -1.79745839E-05, -2.06317636E-05, -0.0003331158, -0.0143893175, -0.0147756217, -0.000139351832, 921.137146  , 31.8216057  , 796.6113    , 3.6         , 3           , 255         , 0           , 0
-0.154242545, 0.136981681 , -9.79083    , -0.000118514377, -0.000320344174, 0.0005000555, -0.0143949715, -0.014779767, -0.000134240283, 921.137146  , 31.8216057  , 796.6425    , 3.61        , 3           , 255         , 0           , 0
-0.15277341 , 0.129438728 , -9.791852   , -0.000112666225, 0.000229954283, -0.0005647079, -0.0143960137, -0.01477755 , -0.000139920376, 921.137146  , 31.8216057  , 796.643433  , 3.62        , 3           , 255         , 0           , 0
-0.161904141, 0.126928076 , -9.7864275  , -0.000378532131, -0.00017104391, -0.000127879888, -0.0143997818, -0.0147792771, -0.0001411745, 921.1401    , 31.8214016  , 796.644348  , 3.63        , 3           , 255         , 0           , 0
-0.141226292, 0.124280475 , -9.79111    , -0.00018745588, 0.000154648616, 0.0005040195, -0.014401732, -0.01477766 , -0.0001361567, 921.1401    , 31.8214016  , 796.645264  , 3.64        , 3           , 255         , 0           , 0
-0.12098477 , 0.141930014 , -9.795844   , 0.000354992022, 0.000131326145, -0.0002502526, -0.0143981446, -0.0147763807, -0.000138678108, 921.1401    , 31.8214016  , 796.6462    , 3.65        , 3           , 255         , 0           , 0
-0.144812629, 0.141572118 , -9.795191   , -0.0001795333, 0.0003397283, 0.0006581672, -0.014400037, -0.01477289 , -0.000132145462, 921.1401    , 31.8214016  , 796.6471    , 3.66        , 3           , 255         , 0           , 0
-0.156021208, 0.135618687 , -9.788728   , 5.58587781E-05, 0.00053911627, -3.11760232E-05, -0.0143994726, -0.0147675034, -0.000132534857, 921.1401    , 31.8214016  , 796.648     , 3.67        , 3           , 255         , 0           , 0
-0.15949367 , 0.149622247 , -9.784899   , 0.000528804259, 0.000536466 , 0.000304430316, -0.0143942274, -0.0147620989, -0.000129567867, 921.1401    , 31.8214016  , 796.6489    , 3.68        , 3           , 255         , 0           , 0
-0.154337883, 0.145735085 , -9.79029    , -0.000293315243, -5.152094E-05, 0.0003950536, -0.0143972188, -0.0147625562, -0.00012561 , 921.1401    , 31.8214016  , 796.649841  , 3.69        , 3           , 255         , 0           , 0
-0.1448691  , 0.139661461 , -9.788282   , -0.000161313947, 0.000150092412, -0.000311741722, -0.0143987853, -0.0147611015, -0.000128748943, 921.1401    , 31.8214016  , 796.650757  , 3.7         , 3           , 255         , 0           , 0
-0.147357643, 0.147790372 , -9.801024   , -0.0003234115, 9.51520051E-05, -0.000120705045, -0.0143949967, -0.0147682047, -0.000130073124, 921.1401    , 31.8214016  , 796.672058  , 3.71        , 3           , 255         , 0           , 0
-0.155624926, 0.161265925 , -9.804469   , -0.000453814544, 0.000313903322, 0.000375021365, -0.0143995909, -0.0147650121, -0.000126368177, 921.1401    , 31.8214016  , 796.673157  , 3.72        , 3           , 255         , 0           , 0
-0.153399572, 0.163807124 , -9.783548   , -0.000349872251, 0.000253111823, -0.000102398022, -0.014403075, -0.0147624956, -0.00012742859, 921.1912    , 31.8184853  , 796.674255  , 3.73        , 3           , 255         , 0           , 0
-0.150446743, 0.166225016 , -9.791725   , -9.49016539E-05, 0.00015130348, 0.00016192811, -0.0144040463, -0.01476096 , -0.000125831139, 921.1912    , 31.8184853  , 796.675354  , 3.74        , 3           , 255         , 0           , 0
-0.147189274, 0.159442157 , -9.791042   , 0.000105125539, 0.000213683175, -0.0001409938, -0.0144029753, -0.0147588439, -0.000127271851, 921.1912    , 31.8184853  , 796.676453  , 3.75        , 3           , 255         , 0           , 0
-0.150675923, 0.145387873 , -9.782756   , 0.000250864483, -0.0001272962, -0.0001666036, -0.0144004421, -0.0147601394, -0.0001289195, 921.1912    , 31.8184853  , 796.677551  , 3.76        , 3           , 255         , 0           , 0
-0.151270971, 0.13689366  , -9.791859   , 0.000125977851, -0.000302840781, 0.000338761049, -0.0143992323, -0.01476312 , -0.000125488354, 921.1912    , 31.8184853  , 796.67865   , 3.77        , 3           , 255         , 0           , 0
-0.153375834, 0.127719328 , -9.787711   , 0.0002397445, 0.0001896109, 0.000148706633, -0.0143968575, -0.014761202, -0.000124028622, 921.1912    , 31.8184853  , 796.679749  , 3.78        , 3           , 255         , 0           , 0
-0.136353761, 0.130414382 , -9.78903    , -7.619322E-05, 5.05666249E-05, -0.0008284069, -0.0143974964, -0.0147608155, -0.0001323198, 921.1912    , 31.8184853  , 796.680847  , 3.79        , 3           , 255         , 0           , 0
-0.141202658, 0.132356122 , -9.795201   , 6.37644553E-05, -0.0002332995, -0.0005717103, -0.0143967746, -0.01476323 , -0.000138003234, 921.1912    , 31.8184853  , 796.681946  , 3.8         , 3           , 255         , 0           , 0
-0.144335508, 0.132253021 , -9.791774   , 0.0004933529, -1.588749E-05, 0.0003432675, -0.0144016109, -0.0147699509, -0.000134424758, 921.1912    , 31.8184853  , 796.6256    , 3.81        , 3           , 255         , 0           , 0
-0.148670718, 0.130394623 , -9.793811   , 0.000694065238, 0.000227091543, 0.000351436262, -0.014394721, -0.0147676319, -0.000130943168, 921.1912    , 31.8184853  , 796.626343  , 3.82        , 3           , 255         , 0           , 0
-0.145015717, 0.1291801   , -9.789251   , 0.000190068 , -0.0002082829, -0.0002825472, -0.01439278 , -0.0147697544, -0.00013373862, 921.131836  , 31.8201122  , 796.6271    , 3.83        , 3           , 255         , 0           , 0
-0.144140735, 0.133360386 , -9.787982   , -0.0004499677, -0.0003712275, -8.111279E-05, -0.0143972673, -0.0147734778, -0.00013449628, 921.131836  , 31.8201122  , 796.6278    , 3.84        , 3           , 255         , 0           , 0
-0.143454984, 0.135889679 , -9.788349   , -0.000377262477, -0.000170774816, 0.000152616136, -0.0144010633, -0.0147751616, -0.00013294557, 921.131836  , 31.8201122  , 796.62854   , 3.85        , 3           , 255         , 0           , 0
-0.152611554, 0.132358119 , -9.801081   , -0.000192098785, -0.000364791951, 0.0001909082, -0.0144030126, -0.0147787826, -0.000130983986, 921.131836  , 31.8201122  , 796.6293    , 3.86        , 3           , 255         , 0           , 0
-0.152062416, 0.138165668 , -9.795998   , 0.0003141088, 4.96670255E-05, -0.000405454717, -0.0143998116, -0.014778344, -0.0001350456, 921.131836  , 31.8201122  , 796.63      , 3.87        , 3           , 255         , 0           , 0
-0.14542909 , 0.154341608 , -9.78669    , 0.000448646781, 0.000280083623, -0.0005629454, -0.01439524 , -0.0147756236, -0.000140715289, 921.131836  , 31.8201122  , 796.630737  , 3.88        , 3           , 255         , 0           , 0
-0.153694957, 0.157949671 , -9.791269   , 0.00018167714, 0.000334375654, -0.000470670639, -0.0143933548, -0.0147723481, -0.000145470054, 921.131836  , 31.8201122  , 796.6315    , 3.89        , 3           , 255         , 0           , 0
-0.142543718, 0.161974624 , -9.791178   , -0.000198526774, 0.000258424145, -0.000134182192, -0.0143953189, -0.0147697842, -0.000146849037, 921.131836  , 31.8201122  , 796.6322    , 3.9         , 3           , 255         , 0           , 0
-0.14245455 , 0.162575081 , -9.785065   , 0.0005878692, 0.000343407737, -0.0005284995, -0.0143886907, -0.0147704333, -0.000152193272, 921.131836  , 31.8201122  , 796.6676    , 3.91        , 3           , 255         , 0           , 0
-0.135662392, 0.147208691 , -9.784648   , 0.000314834 , -0.000207193079, -0.0004062441, -0.0143854832, -0.01477256 , -0.000156225855, 921.131836  , 31.8201122  , 796.6686    , 3.92        , 3           , 255         , 0           , 0
-0.144289076, 0.147685513 , -9.78535    , 0.000342361076, -0.000100421486, -0.0006462827, -0.0143819638, -0.0147736566, -0.000162674129, 921.2181    , 31.8200455  , 796.669556  , 3.93        , 3           , 255         , 0           , 0
-0.142770126, 0.136301547 , -9.789447   , -2.53700127E-05, 0.0005633715, -0.0005662994, -0.0143821333, -0.0147681041, -0.000168418, 921.2181    , 31.8200455  , 796.670532  , 3.94        , 3           , 255         , 0           , 0
-0.148393869, 0.134115249 , -9.786428   , -0.0006433938, -0.0002577784, -0.0008573049, -0.0143884392, -0.0147708086, -0.0001769538, 921.2181    , 31.8200455  , 796.6715    , 3.95        , 3           , 255         , 0           , 0
-0.144898549, 0.139784843 , -9.785124   , 0.000168169587, 0.000376493845, 3.70598E-06 , -0.0143867573, -0.0147670414, -0.000176970934, 921.2181    , 31.8200455  , 796.6725    , 3.96        , 3           , 255         , 0           , 0
-0.135141134, 0.13158229  , -9.787043   , 0.000570932345, 0.000513454 , -0.0002220824, -0.0143810138, -0.01476194 , -0.000179265568, 921.2181    , 31.8200455  , 796.673462  , 3.97        , 3           , 255         , 0           , 0
-0.1454382  , 0.130348533 , -9.779475   , 5.56539162E-05, -0.000230893551, 0.0004343464, -0.0143805211, -0.0147641851, -0.000174889021, 921.2181    , 31.8200455  , 796.674438  , 3.98        , 3           , 255         , 0           , 0
-0.146135285, 0.133347392 , -9.782737   , -0.0007159765, -3.966631E-05, 0.000450572581, -0.0143877473, -0.0147645175, -0.000170377665, 921.2181    , 31.8200455  , 796.6754    , 3.99        , 3           , 255         , 0           , 0
-0.145930767, 0.1449578   , -9.788233   , 0.0001627535, -0.0001230301, 8.061626E-05, -0.0143861314, -0.0147657357, -0.000169553838, 921.2181    , 31.8200455  , 796.6764    , 4           , 3           , 0           , 9.458237    , 400
-0.14763537 , 0.138596952 , -9.787107   , 0.000849701639, 5.735841E-06, 8.113259E-05, -0.0143776741, -0.0147613818, -0.000168742932, 921.2181    , 31.8200455  , 796.5827    , 4.01        , 3           , 1           , 0           , 0
-0.148438692, 0.1341961   , -9.789511   , 0.000204683311, 8.989737E-05, 0.0004549312, -0.0143756941, -0.014760416, -0.000164206635, 921.2181    , 31.8200455  , 796.583069  , 4.02        , 3           , 2           , 0           , 0
-0.148614824, 0.138944179 , -9.784744   , 0.000299334526, -8.262106E-05, -4.412679E-06, -0.0143727008, -0.014761243, -0.000164238882, 921.1586    , 31.8207912  , 796.583435  , 4.03        , 3           , 3           , 0           , 0
-0.154076859, 0.143762544 , -9.797838   , 0.000332931522, -0.000277087849, 0.000239588611, -0.0143694077, -0.0147639783, -0.000161803226, 921.1586    , 31.8207912  , 796.5838    , 4.04        , 3           , 4           , 0           , 0
-0.156796068, 0.149750158 , -9.791446   , 0.000248859433, 5.779357E-05, 3.44026666E-05, -0.0143669248, -0.0147633944, -0.000161467528, 921.1586    , 31.8207912  , 796.584167  , 4.05        , 3           , 5           , 0           , 0
-0.155482024, 0.15035601  , -9.77859    , 2.282142E-05, 0.000109106011, 5.75301819E-05, -0.0143667068, -0.0147622991, -0.0001609079, 921.1586    , 31.8207912  , 796.584534  , 4.06        , 3           , 6           , 0           , 0
-0.15422371 , 0.151492879 , -9.788218   , 0.000563668669, -0.00020904385, -0.000226157048, -0.0143610351, -0.01476442 , -0.0001631394, 921.1586    , 31.8207912  , 796.5849    , 4.07        , 3           , 7           , 0           , 0
-0.149190977, 0.147580951 , -9.790746   , 0.000317418453, -2.618134E-05, 0.00019412738, -0.01435789 , -0.0147646535, -0.000161194432, 921.1586    , 31.8207912  , 796.585266  , 4.08        , 3           , 8           , 5           , 5
-0.143636569, 0.144488573 , -9.785116   , 0.000225695258, 1.66430254E-05, -0.000547682168, -0.0143555515, -0.014764565, -0.000166673519, 921.1586    , 31.8207912  , 796.585632  , 4.09        , 3           , 9           , 5           , 0.1
-0.145442337, 0.141181976 , -9.78681    , -0.000242351787, -0.000225459167, -0.000152083128, -0.0143579543, -0.0147668412, -0.000168161961, 921.1586    , 31.8207912  , 796.586     , 4.1         , 3           , 10          , 0.1         , 0.1
-0.144150823, 0.141154289 , -9.790715   , -8.89964E-05, 9.41514154E-05, -0.000492229243, -0.0143658482, -0.0147781167, -0.000172993081, 921.1586    , 31.8207912  , 796.5894    , 4.11        , 3           , 11          , 0.006491399 , 0.00649139658
-0.129692942, 0.134054229 , -9.793349   , -0.000889952062, 0.000522681745, -0.000178303279, -0.01437472 , -0.0147729181, -0.000174851171, 921.1586    , 31.8207912  , 796.589844  , 4.12        , 3           , 12          , 0.174648076 , 0
-0.144152477, 0.146878511 , -9.790388   , 8.31575E-05 , 0.000403679325, 0.000317698 , -0.0143739339, -0.0147688342, -0.000171732288, 921.1748    , 31.8197727  , 796.5903    , 4.13        , 3           , 13          , 0           , 0
-0.149089739, 0.1551176   , -9.786085   , 0.000263646158, -0.0001452943, -0.00041199493, -0.0143712349, -0.0147703476, -0.0001758313, 921.1748    , 31.8197727  , 796.5907    , 4.14        , 3           , 14          , -0.000338169979, -0.000620752049
-0.149109274, 0.138860419 , -9.789277   , 0.00023298146, 0.000227686745, -0.000151664484, -0.0143688852, -0.014768091, -0.000177380658, 921.1748    , 31.8197727  , 796.5911    , 4.15        , 3           , 15          , 0           , -9.0775844E-05
-0.151040912, 0.136349    , -9.78911    , 0.0008234085, 0.0006154892, 0.00028308513, -0.0143606905, -0.0147618977, -0.000174638277, 921.1748    , 31.8197727  , 796.591553  , 4.16        , 3           , 16          , 0           , 1.401298E-45
-0.136386484, 0.137821585 , -9.793473   , 0.000317505182, 4.13460657E-05, -0.000437673181, -0.0143574523, -0.0147615466, -0.000179020877, 921.1748    , 31.8197727  , 796.592     , 4.17        , 3           , 20          , 0           , 0
-0.135458946, 0.13936621  , -9.793956   , 0.0004288118, -3.415282E-05, -8.884278E-05, -0.0143531505, -0.0147619015, -0.000179904382, 921.1748    , 31.8197727  , 796.5924    , 4.18        , 3           , 21          , 0           , 0
-0.146959856, 0.142605513 , -9.783849   , 0.000463547884, -3.321044E-05, -0.000286224618, -0.0143484743, -0.0147622786, -0.000182761782, 921.1748    , 31.8197727  , 796.592834  , 4.19        , 3           , 22          , 0           , 0
-0.148416668, 0.145824581 , -9.786106   , 0.0003133749, 0.0002645984, -0.000164606987, -0.0143453144, -0.0147596532, -0.000184445787, 921.1748    , 31.8197727  , 796.593262  , 4.2         , 3           , 40          , 0           , 0
-0.14590387 , 0.147140592 , -9.792018   , -9.755898E-05, 0.000125926279, 8.695552E-05, -0.0143483  , -0.014756307, -0.000183564873, 921.1748    , 31.8197727  , 796.5727    , 4.21        , 3           , 41          , 0           , 0
-0.152424946, 0.147333577 , -9.798188   , -0.0005435912, -0.000279639149, -0.0006073842, -0.0143536441, -0.0147591885, -0.000189598475, 921.1748    , 31.8197727  , 796.573     , 4.22        , 3           , 42          , 0           , 0
-0.15418382 , 0.140716463 , -9.781456   , 0.000101105456, 0.000125618826, 0.000164034514, -0.0143526578, -0.01475791 , -0.000187976184, 921.1766    , 31.8198414  , 796.5733    , 4.23        , 3           , 255         , 0           , 0
-0.151139557, 0.1417979   , -9.790474   , 5.265136E-05, -0.0002935839, -4.5298686E-05, -0.0143521242, -0.0147608528, -0.000188387043, 921.1766    , 31.8198414  , 796.5736    , 4.24        , 3           , 255         , 0           , 0
-0.151654944, 0.138169855 , -9.789049   , 0.000177053909, -4.662032E-05, -0.0009628628, -0.0143502112, -0.0147614591, -0.00019800874, 921.1766    , 31.8198414  , 796.5739    , 4.25        , 3           , 255         , 0           , 0
-0.141969651, 0.134143353 , -9.796867   , 0.0005386357, 2.09599384E-05, -0.000531627, -0.0143447472, -0.0147613231, -0.0002033279, 921.1766    , 31.8198414  , 796.5742    , 4.26        , 3           , 255         , 0           , 0
-0.13327086 , 0.143571973 , -9.795365   , 0.0004062866, 3.39029357E-05, -0.0003868299, -0.0143406279, -0.01476104 , -0.000207201, 921.1766    , 31.8198414  , 796.5745    , 4.27        , 3           , 255         , 0           , 0
-0.1445228  , 0.143402383 , -9.790413   , 0.0007823801, -9.842211E-05, 0.000169548846, -0.014332829, -0.014762003, -0.000205491451, 921.1766    , 31.8198414  , 796.5748    , 4.28        , 3           , 255         , 0           , 0
-0.1494909  , 0.14507705  , -9.784674   , 0.000195689412, -0.00047203654, 0.0002911181, -0.0143309161, -0.0147666791, -0.000202512645, 921.1766    , 31.8198414  , 796.575134  , 4.29        , 3           , 255         , 0           , 0
-0.144612387, 0.13773492  , -9.782509   , 0.000146700855, 1.612032E-05, 5.907714E-05, -0.0143294595, -0.0147665087, -0.0002019242, 921.1766    , 31.8198414  , 796.575439  , 4.3         , 3           , 255         , 0           , 0
-0.143061191, 0.140622512 , -9.793655   , 0.000376238633, 0.00019916083, 0.0003177997, -0.0143281  , -0.014768471, -0.000198739974, 921.1766    , 31.8198414  , 796.5549    , 4.31        , 3           , 255         , 0           , 0
-0.15071407 , 0.1475786   , -9.790295   , -0.00022574063, 0.00027846283, 0.0005258248, -0.0143304365, -0.0147656118, -0.00019352173, 921.1766    , 31.8198414  , 796.555054  , 4.32        , 3           , 255         , 0           , 0
-0.1342777  , 0.149166435 , -9.795647   , -0.0005237077, 0.000132319517, -7.71213E-05, -0.01433566 , -0.0147643  , -0.00019431187, 921.1306    , 31.8228951  , 796.555237  , 4.33        , 3           , 255         , 0           , 0
-0.134444624, 0.146676168 , -9.795931   , 0.000404158316, -0.000418056676, -0.000151776272, -0.0143315978, -0.0147685017, -0.0001957697, 921.1306    , 31.8228951  , 796.5554    , 4.34        , 3           , 255         , 0           , 0
-0.139500231, 0.147268444 , -9.788187   , 0.000436177535, -0.0001352444, -0.000436771661, -0.0143271722, -0.0147699174, -0.000200117938, 921.1306    , 31.8228951  , 796.5556    , 4.35        , 3           , 255         , 0           , 0
-0.144480616, 0.1632581   , -9.792471   , 0.000111483329, 6.15330646E-06, 0.0005387072, -0.0143261375, -0.0147697786, -0.000194731809, 921.1306    , 31.8228951  , 796.5558    , 4.36        , 3           , 255         , 0           , 0
-0.147476286, 0.15773955  , -9.794649   , 0.0004398715, 3.344164E-05, 0.0006033676, -0.0143218273, -0.0147693576, -0.000188703052, 921.1306    , 31.8228951  , 796.555969  , 4.37        , 3           , 255         , 0           , 0
-0.145948231, 0.150345162 , -9.786846   , 0.000595984 , 0.000438493531, 0.000656218152, -0.0143159647, -0.0147648808, -0.000182203759, 921.1306    , 31.8228951  , 796.556152  , 4.38        , 3           , 255         , 0           , 0
-0.139196277, 0.1470907   , -9.800619   , 0.000366917084, -0.00011709315, 0.0005149051, -0.0143123716, -0.0147659779, -0.000177038033, 921.1306    , 31.8228951  , 796.556335  , 4.39        , 3           , 255         , 0           , 0
-0.138900369, 0.146927625 , -9.793727   , -2.80634849E-05, -0.000292648969, -0.000144759746, -0.0143126305, -0.0147689246, -0.000178443748, 921.1306    , 31.8228951  , 796.5565    , 4.4         , 3           , 255         , 0           , 0
-0.153946549, 0.131061122 , -9.777371   , -1.64780649E-05, -0.0009755287, 0.000159198578, -0.0143250981, -0.014774886, -0.0001765308, 921.1306    , 31.8228951  , 796.604     , 4.41        , 3           , 255         , 0           , 0
-0.140831262, 0.122939013 , -9.789442   , 0.000248079043, -0.0001380177, 0.000228667137, -0.01432265 , -0.0147762317, -0.000174224391, 921.1306    , 31.8228951  , 796.6045    , 4.42        , 3           , 255         , 0           , 0
-0.141438991, 0.115700588 , -9.803465   , -0.000229190453, 9.566959E-05, -0.000143644575, -0.0143249212, -0.0147752967, -0.00017567449, 921.1892    , 31.82086    , 796.605     , 4.43        , 3           , 255         , 0           , 0
-0.142744988, 0.123661183 , -9.78899    , -0.0008072553, 0.000128093292, -9.46736E-06, -0.01433299 , -0.0147740161, -0.0001757875, 921.1892    , 31.82086    , 796.605469  , 4.44        , 3           , 255         , 0           , 0
-0.13554804 , 0.13068828  , -9.786374   , 3.42975254E-05, 3.061269E-05, 0.000480839866, -0.0143327182, -0.0147736408, -0.000170983592, 921.1892    , 31.82086    , 796.605957  , 4.45        , 3           , 255         , 0           , 0
-0.142627984, 0.12793009  , -9.786027   , -0.000157825532, -8.846767E-05, -0.000525088341, -0.01433422 , -0.0147746  , -0.000176221685, 921.1892    , 31.82086    , 796.606445  , 4.46        , 3           , 255         , 0           , 0
-0.143066257, 0.132419437 , -9.782078   , 0.000189990475, -0.000423065445, -0.000282129273, -0.0143322805, -0.0147788711, -0.000178982285, 921.1892    , 31.82086    , 796.606934  , 4.47        , 3           , 255         , 0           , 0
-0.1372918  , 0.133935258 , -9.784393   , 0.000372909271, -9.59271E-05, -0.0003271635, -0.0143285021, -0.0147798769, -0.0001822401, 921.1892    , 31.82086    , 796.6074    , 4.48        , 3           , 255         , 0           , 0
-0.135071784, 0.1416573   , -9.787318   , -0.000525515643, 0.0002502558, -0.00073113 , -0.0143336477, -0.0147774788, -0.000189587168, 921.1892    , 31.82086    , 796.6079    , 4.49        , 3           , 255         , 0           , 0
-0.145001948, 0.155008629 , -9.794252   , -0.0005614003, -5.24509232E-07, -0.000107633357, -0.0143392468, -0.0147774993, -0.000190663384, 921.1892    , 31.82086    , 796.6084    , 4.5         , 3           , 255         , 0           , 0
-0.146777019, 0.156910151 , -9.797663   , -3.94244562E-05, 3.764796E-05, 5.57857857E-05, -0.01432174 , -0.0147712706, -0.00019037546, 921.1892    , 31.82086    , 796.5653    , 4.51        , 3           , 255         , 0           , 0
-0.1479845  , 0.153362125 , -9.790458   , 0.000293660065, -0.000106522639, 8.399917E-05, -0.0143188154, -0.014772323, -0.000189520229, 921.1892    , 31.82086    , 796.565552  , 4.52        , 3           , 255         , 0           , 0
-0.16057    , 0.152481109 , -9.783682   , 3.64126172E-05, 0.0001272969, 0.000110232933, -0.0143184671, -0.0147710349, -0.000188436141, 921.198853  , 31.8203163  , 796.5658    , 4.53        , 3           , 255         , 0           , 0
-0.145261571, 0.153452262 , -9.779223   , -0.000210027938, 3.02792178E-05, -0.000540749752, -0.0143204872, -0.01477081 , -0.000193847882, 921.198853  , 31.8203163  , 796.56604   , 4.54        , 3           , 255         , 0           , 0
-0.142611161, 0.15195626  , -9.782578   , -0.0001516488, -0.000102072314, -0.00023582521, -0.0143219689, -0.0147718638, -0.000196191468, 921.198853  , 31.8203163  , 796.5663    , 4.55        , 3           , 255         , 0           , 0
-0.1519344  , 0.142459691 , -9.796102   , -4.80620947E-05, -4.82659671E-05, 0.000573975965, -0.0143225351, -0.0147722643, -0.0001904449, 921.198853  , 31.8203163  , 796.5665    , 4.56        , 3           , 255         , 0           , 0
-0.147825271, 0.147423416 , -9.794744   , 0.00039793324, -0.000288861978, -0.0002869388, -0.0143185128, -0.0147751924, -0.000193272863, 921.198853  , 31.8203163  , 796.5668    , 4.57        , 3           , 255         , 0           , 0
-0.149736673, 0.146954447 , -9.793551   , -0.000416573923, -5.523808E-05, -3.22962442E-05, -0.0143226739, -0.0147757493, -0.000193587912, 921.198853  , 31.8203163  , 796.567     , 4.58        , 3           , 255         , 0           , 0
-0.1523023  , 0.140505075 , -9.794878   , 0.0007177588, -0.0002863097, 0.000104471546, -0.014315513, -0.0147785982, -0.000192502208, 921.198853  , 31.8203163  , 796.567261  , 4.59        , 3           , 255         , 0           , 0
-0.145923585, 0.1397465   , -9.793761   , 0.0006318543, -0.0004717061, -0.000238150926, -0.01430916 , -0.014783348, -0.000194816108, 921.198853  , 31.8203163  , 796.5675    , 4.6         , 3           , 255         , 0           , 0
-0.147451326, 0.140066579 , -9.787607   , -0.000204133976, 2.18235655E-05, -0.0002532367, -0.0143238  , -0.0147899305, -0.0001971647, 921.198853  , 31.8203163  , 796.5169    , 4.61        , 3           , 255         , 0           , 0
-0.14820385 , 0.133196265 , -9.799974   , -0.000765430566, -0.000123744481, 0.000208127283, -0.0143314851, -0.0147911366, -0.000195065717, 921.198853  , 31.8203163  , 796.516846  , 4.62        , 3           , 255         , 0           , 0
-0.146214277, 0.146580651 , -9.78232    , -0.0003047058, -8.279376E-05, -0.00010563941, -0.0143345147, -0.01479198 , -0.000196110239, 921.1875    , 31.8212662  , 796.5168    , 4.63        , 3           , 255         , 0           , 0
-0.144800365, 0.1431595   , -9.789948   , 0.0006444801, -0.000120089506, 0.0007019872, -0.0143281743, -0.0147930812, -0.000189073282, 921.1875    , 31.8212662  , 796.5167    , 4.64        , 3           , 255         , 0           , 0
-0.149505079, 0.14216952  , -9.798449   , 0.000123646023, -6.9973E-05 , 1.21883058E-05, -0.0143269394, -0.014793776, -0.000188941369, 921.1875    , 31.8212662  , 796.516663  , 4.65        , 3           , 255         , 0           , 0
-0.143785536, 0.134603843 , -9.78694    , -0.000103965082, 2.240052E-05, 0.000119089513, -0.0143279955, -0.0147935357, -0.000187753743, 921.1875    , 31.8212662  , 796.5166    , 4.66        , 3           , 255         , 0           , 0
-0.152299464, 0.142007664 , -9.793462   , 2.71913887E-05, -0.000260913454, -8.97488644E-05, -0.0143277114, -0.0147961574, -0.00018861382, 921.1875    , 31.8212662  , 796.516541  , 4.67        , 3           , 255         , 0           , 0
-0.156467736, 0.1474916   , -9.786844   , 3.27907619E-05, 0.000186038582, -0.000104628067, -0.0143273678, -0.0147943115, -0.000189686732, 921.1875    , 31.8212662  , 796.5165    , 4.68        , 3           , 255         , 0           , 0
-0.1501272  , 0.149409443 , -9.785666   , -5.967944E-05, 0.00029437794, 4.02002879E-05, -0.01432797 , -0.0147913639, -0.000189326951, 921.1875    , 31.8212662  , 796.5164    , 4.69        , 3           , 255         , 0           , 0
-0.143254116, 0.14748466  , -9.795332   , -0.000355208933, -0.000210998871, -0.000134378774, -0.0143315028, -0.0147934919, -0.000190640465, 921.1875    , 31.8212662  , 796.516357  , 4.7         , 3           , 255         , 0           , 0
-0.142808467, 0.153003857 , -9.794559   , 5.17897424E-05, 3.19491955E-05, 0.000193880929, -0.0143345492, -0.0147982193, -0.000188653925, 921.1875    , 31.8212662  , 796.488831  , 4.71        , 3           , 255         , 0           , 0
-0.143336147, 0.150575548 , -9.797907   , 0.000102821708, 0.00054515485, -0.00018816191, -0.0143334931, -0.0147927953, -0.00019061366, 921.1875    , 31.8212662  , 796.4886    , 4.72        , 3           , 255         , 0           , 0
-0.143672153, 0.145190686 , -9.791879   , -8.38494743E-05, 0.000241829723, -0.00116613286, -0.0143341571, -0.0147905461, -0.000202309457, 921.1853    , 31.8230972  , 796.488342  , 4.73        , 3           , 255         , 0           , 0
-0.157754928, 0.143908352 , -9.789337   , 0.000113841539, -4.53695538E-05, -0.0003666593, -0.0143329659, -0.01479105 , -0.000205969438, 921.1853    , 31.8230972  , 796.4881    , 4.74        , 3           , 255         , 0           , 0
-0.152423769, 0.143674791 , -9.790819   , 0.000161730917, -8.115999E-05, -0.00047800265, -0.0143312784, -0.0147919292, -0.000210737766, 921.1853    , 31.8230972  , 796.487854  , 4.75        , 3           , 255         , 0           , 0
-0.150027424, 0.143901244 , -9.791384   , 0.000184716511, 0.0004361897, -0.0008037946, -0.0143293105, -0.0147876833, -0.000218838075, 921.1853    , 31.8230972  , 796.4876    , 4.76        , 3           , 255         , 0           , 0
-0.14755699 , 0.143623739 , -9.799676   , -0.000291016069, 0.000814974657, 0.000169695428, -0.0143322432, -0.01477951 , -0.000217257941, 921.1853    , 31.8230972  , 796.4874    , 4.77        , 3           , 255         , 0           , 0
-0.139612287, 0.13595067  , -9.797892   , 0.00010821801, 0.000534406048, 8.822279E-05, -0.014331175, -0.0147741539, -0.0002164523, 921.1853    , 31.8230972  , 796.487244  , 4.78        , 3           , 255         , 0           , 0
-0.145439357, 0.137813747 , -9.793711   , -0.000124324142, 7.743231E-05, -0.00024742508, -0.01433238 , -0.0147734154, -0.000218937625, 921.1853    , 31.8230972  , 796.487061  , 4.79        , 3           , 255         , 0           , 0
-0.146403551, 0.140672222 , -9.79225349 , -2.28481949E-05, 0.000122276251, 0.000421243778, -0.0143326707, -0.014772133, -0.000214742773, 921.1853    , 31.8230972  , 796.4869    , 4.8         , 3           , 255         , 0           , 0
-0.146969765, 0.1412948   , -9.788088   , 0.0001460676, 0.000501222 , 0.000204687822, -0.0143353445, -0.01476948 , -0.000212707135, 921.1853    , 31.8230972  , 796.467     , 4.81        , 3           , 255         , 0           , 0
-0.14437212 , 0.148338079 , -9.803819   , 0.000291303266, 0.000216186309, 0.0004584499, -0.0143324984, -0.014767251, -0.000208153724, 921.1853    , 31.8230972  , 796.4667    , 4.82        , 3           , 255         , 0           , 0
-0.147710979, 0.141833574 , -9.779538   , 9.542114E-05, -6.690441E-05, -0.00114432117, -0.0143313743, -0.0147680854, -0.00021958712, 921.0904    , 31.8207912  , 796.4664    , 4.83        , 3           , 255         , 0           , 0
-0.1529042  , 0.1459733   , -9.796797   , -0.000304920744, 0.00013885001, -0.00011541944, -0.0143344076, -0.0147667127, -0.0002207612, 921.0904    , 31.8207912  , 796.466064  , 4.84        , 3           , 255         , 0           , 0
-0.141528487, 0.138142839 , -9.79818    , -0.000104380044, 0.000148524035, -0.00045878932, -0.0143353846, -0.0147652943, -0.0002253703, 921.0904    , 31.8207912  , 796.465759  , 4.85        , 3           , 255         , 0           , 0
-0.1501639  , 0.144408256 , -9.793871   , -1.664774E-05, 0.000335990684, -0.0003234666, -0.014335501, -0.0147619816, -0.000228653051, 921.0904    , 31.8207912  , 796.465454  , 4.86        , 3           , 255         , 0           , 0
-0.139912531, 0.1467693   , -9.789637   , 0.000156438124, -0.000357355573, -5.48317548E-05, -0.0143339308, -0.0147655625, -0.000229150159, 921.0904    , 31.8207912  , 796.465149  , 4.87        , 3           , 255         , 0           , 0
-0.1422281  , 0.147185117 , -9.793885   , 2.61025561E-05, -8.562254E-05, 0.000244763243, -0.0143337054, -0.014766383, -0.000226690259, 921.0904    , 31.8207912  , 796.464844  , 4.88        , 3           , 255         , 0           , 0
-0.141445488, 0.1508817   , -9.792467   , 0.0001445564, 0.000177737908, 0.00023664211, -0.0143322945, -0.0147645716, -0.0002243494, 921.0904    , 31.8207912  , 796.464539  , 4.89        , 3           , 255         , 0           , 0
-0.146697223, 0.136676475 , -9.783899   , 0.000117547985, -0.000316775171, 0.000133803493, -0.0143311406, -0.0147677194, -0.000222965959, 921.0904    , 31.8207912  , 796.464233  , 4.9         , 3           , 255         , 0           , 0
-0.155999675, 0.13987112  , -9.786804   , -5.922682E-05, -0.000117158634, -0.0009866658, -0.0143366419, -0.0147700785, -0.000232740946, 921.0904    , 31.8207912  , 796.5817    , 4.91        , 3           , 255         , 0           , 0
-0.1563708  , 0.1495244   , -9.807465   , 0.000182285075, 0.000390262983, -0.000107559143, -0.0143348034, -0.01476619 , -0.000233872473, 921.0904    , 31.8207912  , 796.582153  , 4.92        , 3           , 255         , 0           , 0
-0.148837656, 0.148735732 , -9.782958   , 0.000134771719, 7.217837E-05, -0.000388841436, -0.014333399, -0.0147655243, -0.00023777115, 921.192     , 31.8227577  , 796.5826    , 4.93        , 3           , 255         , 0           , 0
-0.144617483, 0.1473243   , -9.79044151 , -0.000189322862, -0.000317496655, 0.000245989475, -0.0143353287, -0.0147686619, -0.00023526579, 921.192     , 31.8227577  , 796.583     , 4.94        , 3           , 255         , 0           , 0
-0.134928882, 0.141272217 , -9.789735   , 0.0002356268, 1.869083E-05, 0.00024578633, -0.0143330069, -0.0147684393, -0.000232810649, 921.192     , 31.8227577  , 796.583435  , 4.95        , 3           , 255         , 0           , 0
-0.13523981 , 0.151428536 , -9.79344749 , -0.000380561862, 1.80259813E-05, 0.000156283611, -0.0143368356, -0.0147682363, -0.000231250422, 921.192     , 31.8227577  , 796.583862  , 4.96        , 3           , 255         , 0           , 0
-0.1404941  , 0.147999644 , -9.791584   , 0.000405972532, -0.000187450671, -0.000476012356, -0.0143327052, -0.0147701791, -0.0002359836, 921.192     , 31.8227577  , 796.5843    , 4.97        , 3           , 255         , 0           , 0
-0.152725548, 0.136731714 , -9.78626251 , 0.0005776853, 0.000183234515, -0.000765777135, -0.0143268164, -0.014768458, -0.000243667426, 921.192     , 31.8227577  , 796.5847    , 4.98        , 3           , 255         , 0           , 0
-0.14748919 , 0.1366829   , -9.795993   , 0.000236862266, 0.000195117813, -0.00039529847, -0.0143243913, -0.0147665637, -0.000247648277, 921.192     , 31.8227577  , 796.585144  , 4.99        , 3           , 255         , 0           , 0
-0.146135658, 0.138176069 , -9.789583   , -0.00035780872, 0.000194669992, -0.000333742239, -0.0143279191, -0.0147646656, -0.000251013582, 921.192     , 31.8227577  , 796.5856    , 5           , 3           , 0           , -1          , 500
-0.140657574, 0.147420213 , -9.790135   , -0.0004257945, -0.000110208406, -0.000326880225, -0.0143368505, -0.0147680994, -0.000254196726, 921.192     , 31.8227577  , 796.542236  , 5.01        , 3           , 1           , 0           , 0
-0.137291238, 0.147830442 , -9.789288   , -0.000280520471, 0.000133792957, 5.32008853E-05, -0.014339665, -0.0147667527, -0.000253683917, 921.192     , 31.8227577  , 796.5424    , 5.02        , 3           , 2           , 0           , 0
-0.147554666, 0.136529133 , -9.784901   , 0.000212724975, 2.23692041E-07, 2.67862124E-05, -0.01433754 , -0.0147667471, -0.0002534161, 921.170349  , 31.8191624  , 796.5426    , 5.03        , 3           , 3           , 0           , 0
-0.16064474 , 0.134885639 , -9.786898   , -0.000303459063, 0.000184386387, 0.000282817869, -0.0143406168, -0.0147648631, -0.0002506144, 921.170349  , 31.8191624  , 796.5428    , 5.04        , 3           , 4           , 0           , 0
-0.1458575  , 0.143193647 , -9.788979   , -0.00020427152, -0.000339051185, -0.0005486582, -0.0143425791, -0.0147683313, -0.000256052241, 921.170349  , 31.8191624  , 796.542969  , 5.05        , 3           , 5           , 0           , 0
-0.141736493, 0.140619472 , -9.791651   , 0.000389139721, 1.18835014E-05, -0.000570702134, -0.0143386051, -0.0147682941, -0.00026176087, 921.170349  , 31.8191624  , 796.543152  , 5.06        , 3           , 6           , 0           , 0
-0.1496897  , 0.13797164  , -9.791136   , 3.40967963E-05, 6.131595E-06, -0.00025468177, -0.0143382261, -0.01476827 , -0.000264308532, 921.170349  , 31.8191624  , 796.543335  , 5.07        , 3           , 7           , 0           , 0
