Acc X       , Acc Y       , Acc Z       , Gyro X      , Gyro Y      , Gyro Z      , Euler X     , Euler Y     , Euler Z     , Pres X      , Pres Y      , Pres Z      , Time        , Status      , LowRate X   , LowRate Y   , LowRate Z    
-0.09348127 , -0.09301093 , -9.787063   , 0           , 0           , 0           , 0.009503172 , -0.009550792, 0           , 919.8301    , 31.9051189  , 808.5577    , 0           , 2           , 0           , 5.93723154  , 0
-0.0898425952, -0.09350602 , -9.795946   , -0.000130656874, -9.814213E-05, -0.000145938684, 0.009501847 , -0.00955161452, -1.46867546E-06, 919.8301    , 31.9051189  , 808.5577    , 0.01        , 3           , 1           , 0           , 0
-0.100127473, -0.09313631 , -9.790698   , -0.000308214454, 0.000208475074, -0.000873977, 0.009498848 , -0.009549446, -1.01884352E-05, 919.8301    , 31.9051189  , 808.5577    , 0.02        , 3           , 2           , 0           , 0
-0.0961288363, -0.100866638, -9.798658   , 0.000281523651, -4.30601649E-05, 8.84727342E-05, 0.009501656 , -0.009549886, -9.307819E-06, 919.8267    , 31.46903    , 808.5577    , 0.03        , 3           , 3           , 0           , 0
-0.09920661 , -0.0914001241, -9.793856   , -0.0002761369, -2.35693E-05, 0.000161130214, 0.009498878 , -0.00955013651, -7.698795E-06, 919.8267    , 31.46903    , 808.5577    , 0.04        , 3           , 4           , 0           , 0
-0.09470218 , -0.0916082561, -9.798922   , -0.0003744361, -0.0001680177, 0.000270044664, 0.009495109 , -0.009551843, -5.01437171E-06, 919.8267    , 31.46903    , 808.5577    , 0.05        , 3           , 5           , 0           , 0
-0.09623923 , -0.100180231, -9.79808    , -0.000148321968, 0.0002315886, 0.0001377669, 0.009493613 , -0.00954954 , -3.6147444E-06, 919.8267    , 31.46903    , 808.5577    , 0.06        , 3           , 6           , 0           , 0
-0.0961034745, -0.08801472 , -9.793689   , 3.97829E-05 , 0.0005089382, 4.291252E-05, 0.009494007 , -0.00954445451, -3.13731425E-06, 919.8267    , 31.46903    , 808.5577    , 0.07        , 3           , 7           , 0           , 0
-0.09046069 , -0.08943342 , -9.797144   , 2.59096851E-05, -1.55734015E-05, 0.0002544984, 0.00949424  , -0.009544634, -5.93868947E-07, 919.8267    , 31.46903    , 808.5577    , 0.08        , 3           , 8           , 5           , 5
-0.09035434 , -0.09392535 , -9.800015   , 0.0002596989, -5.72043064E-05, -0.00042215 , 0.009496876 , -0.009545167, -4.820702E-06, 919.8267    , 31.46903    , 808.5577    , 0.09        , 3           , 9           , 5           , 0.1
-0.0939956456, -0.0951540843, -9.791925   , 6.89684239E-05, -0.0002506825, 0.000282373978, 0.00949754  , -0.0095477  , -2.02084038E-06, 919.8267    , 31.46903    , 808.5577    , 0.1         , 3           , 10          , 0.1         , 0.1
-0.0913015455, -0.09661848 , -9.792643   , -0.0004903219, -1.78349437E-05, 0.0002181731, 0.009495049 , -0.009551927, 1.35932012E-07, 919.8267    , 31.46903    , 808.587     , 0.11        , 3           , 11          , 0.0109544508, 0.0109544508
-0.08814497 , -0.09889809 , -9.794401   , 1.68342376E-05, -0.000423603051, 6.211278E-05, 0.009495212 , -0.009556169, 7.16823763E-07, 919.8267    , 31.46903    , 808.587     , 0.12        , 3           , 12          , 0.174642488 , 0
-0.08724521 , -0.08734925 , -9.796869   , 0.0003175946, 0.000239724352, -0.000219950743, 0.009498407 , -0.009553751, -1.4598603E-06, 919.8084    , 31.5036983  , 808.587     , 0.13        , 3           , 13          , 0           , 0
-0.0926494  , -0.09183632 , -9.795675   , -8.074095E-05, -0.000266632, -0.000179505223, 0.009497616 , -0.009556401, -3.280199E-06, 919.8084    , 31.5036983  , 808.587     , 0.14        , 3           , 14          , -0.0005485483, -0.000244972121
-0.09977484 , -0.08585453 , -9.797187   , -0.000246359559, -0.0003563299, -0.000210429847, 0.00949517451, -0.009559943, -5.41827876E-06, 919.8084    , 31.5036983  , 808.587     , 0.15        , 3           , 15          , 0           , 1.66036389E-05
-0.0872265846, -0.09599179 , -9.80588    , 9.457697E-05, -0.0002648523, -0.000279833068, 0.009496145 , -0.009562564, -8.241687E-06, 919.8084    , 31.5036983  , 808.587036  , 0.16        , 3           , 16          , 0           , 1.401298E-45
-0.08297616 , -0.0946607441, -9.80063    , 0.00010636315, 0.0003493576, 0.0001001013, 0.009497199 , -0.009559081, -7.20751859E-06, 919.8084    , 31.5036983  , 808.5871    , 0.17        , 3           , 20          , 0           , 0
-0.0858977  , -0.09712927 , -9.794848   , -0.000131832785, 0.000243303657, -0.00030904825, 0.009495912 , -0.00955661852, -1.02748236E-05, 919.8084    , 31.5036983  , 808.587158  , 0.18        , 3           , 21          , 0           , 0
-0.0910564438, -0.0962496251, -9.791174   , -6.56006159E-06, 0.000262217771, -0.000693319249, 0.009495913 , -0.009553931, -1.71829524E-05, 919.8084    , 31.5036983  , 808.5872    , 0.19        , 3           , 22          , 0           , 0
-0.09298596 , -0.104544021, -9.798674   , 0.000312940654, -0.0001034599, -4.043952E-05, 0.009499045 , -0.009554962, -1.75971636E-05, 919.8084    , 31.5036983  , 808.5873    , 0.2         , 3           , 40          , 0           , 0
-0.0909114555, -0.09688062 , -9.800318   , 4.706066E-05, 0.000358393037, 0.000337338279, 0.009505554 , -0.009539377, -1.424772E-05, 919.8084    , 31.5036983  , 808.670654  , 0.21        , 3           , 41          , 0           , 0
-0.09566442 , -0.09282061 , -9.797379   , 0.000399778073, 0.0004042553, 0.000273156445, 0.009509523 , -0.00953536 , -1.14777822E-05, 919.8084    , 31.5036983  , 808.6707    , 0.22        , 3           , 42          , 0           , 0
-0.0946074352, -0.09764582 , -9.791705   , -0.0004531658, 0.0002455656, -0.000598560262, 0.009505049 , -0.009532848, -1.743989E-05, 919.794067  , 31.5314445  , 808.6708    , 0.23        , 3           , 255         , 0           , 0
-0.09625336 , -0.09496554 , -9.8029     , -0.0003528715, 0.000103170722, 0.000496273 , 0.009501474 , -0.009531866, -1.24674852E-05, 919.794067  , 31.5314445  , 808.670837  , 0.24        , 3           , 255         , 0           , 0
-0.104499422, -0.09271486 , -9.807223   , 0.0005520497, 0.000458048627, 0.0005939352, 0.009506937 , -0.00952734053, -6.484748E-06, 919.794067  , 31.5314445  , 808.6709    , 0.25        , 3           , 255         , 0           , 0
-0.100935362, -0.0967925638, -9.802355   , -0.000234171341, 0.000278823485, -0.000368637848, 0.00950463  , -0.009524517, -1.01445276E-05, 919.794067  , 31.5314445  , 808.670959  , 0.26        , 3           , 255         , 0           , 0
-0.09419838 , -0.08772613 , -9.797466   , 0.000156804133, -0.000113516377, -2.03653926E-05, 0.009506201 , -0.00952565 , -1.03589709E-05, 919.794067  , 31.5314445  , 808.671     , 0.27        , 3           , 255         , 0           , 0
-0.08692424 , -0.090437606, -9.795389   , -0.0001410296, -0.000354391639, -0.0005900076, 0.009504848 , -0.009529138, -1.6292588E-05, 919.794067  , 31.5314445  , 808.6711    , 0.28        , 3           , 255         , 0           , 0
-0.0884674862, -0.0905315354, -9.79559    , 5.787931E-05, -0.000258013781, -0.000395148818, 0.009505464 , -0.00953168049, -2.02684987E-05, 919.794067  , 31.5314445  , 808.671143  , 0.29        , 3           , 255         , 0           , 0
-0.097081244, -0.0966990963, -9.7922     , -0.0007051415, 0.000453941582, -0.000348656467, 0.009498444 , -0.009527108, -2.37118456E-05, 919.794067  , 31.5314445  , 808.6712    , 0.3         , 3           , 255         , 0           , 0
-0.0909003  , -0.103154421, -9.804418   , -0.00031457498, 0.0002050944, 0.000568924355, 0.009496945 , -0.009529674, -1.801948E-05, 919.794067  , 31.5314445  , 808.742432  , 0.31        , 3           , 255         , 0           , 0
-0.087865144, -0.0964089  , -9.79356    , -0.00061774574, -0.0001729985, 0.0006521144, 0.009490706 , -0.009531466, -1.151492E-05, 919.794067  , 31.5314445  , 808.7425    , 0.32        , 3           , 255         , 0           , 0
-0.09568679 , -0.0940622538, -9.799129   , -0.000498264853, -0.000214322819, 0.000287126779, 0.009485696 , -0.009533636, -8.664056E-06, 919.797058  , 31.5458946  , 808.742554  , 0.33        , 3           , 255         , 0           , 0
-0.09559832 , -0.09903792 , -9.801796   , 0.000249718432, 3.43561842E-05, -0.0006369789, 0.009488253 , -0.009533233, -1.50304295E-05, 919.797058  , 31.5458946  , 808.7426    , 0.34        , 3           , 255         , 0           , 0
-0.09355636 , -0.08887015 , -9.80113    , 0.000444187346, -0.000368892768, -0.0004442659, 0.009492738 , -0.009536879, -1.95079883E-05, 919.797058  , 31.5458946  , 808.7427    , 0.35        , 3           , 255         , 0           , 0
-0.0928835645, -0.08012125 , -9.79814    , 0.001040932 , -0.0005001988, 0.000293404 , 0.009503119 , -0.009541908, -1.66215177E-05, 919.797058  , 31.5458946  , 808.742737  , 0.36        , 3           , 255         , 0           , 0
-0.0864229  , -0.08624007 , -9.802405   , 0.00107623567, 0.000297492224, 0.000489581435, 0.00951383449, -0.009538981, -1.16975207E-05, 919.797058  , 31.5458946  , 808.7428    , 0.37        , 3           , 255         , 0           , 0
-0.0952873453, -0.0928408355, -9.7877     , 0.000557223451, 0.000616247067, -0.000119781762, 0.009519415 , -0.009532806, -1.28366646E-05, 919.797058  , 31.5458946  , 808.742859  , 0.38        , 3           , 255         , 0           , 0
-0.09746711 , -0.09501247 , -9.790095   , 0.00051371695, -0.000208611164, 0.00038790924, 0.009524516 , -0.00953493 , -8.977539E-06, 919.797058  , 31.5458946  , 808.7429    , 0.39        , 3           , 255         , 0           , 0
-0.08993876 , -0.0956401  , -9.797623   , 0.000309947063, -0.000281670917, 0.00013275833, 0.009527603 , -0.009537758, -7.676819E-06, 919.797058  , 31.5458946  , 808.743     , 0.4         , 3           , 255         , 0           , 0
-0.0944131  , -0.0864886  , -9.793877   , -0.0001371972, -0.000269623823, 0.000253306644, 0.009526638 , -0.009537941, -5.17360832E-06, 919.797058  , 31.5458946  , 808.772     , 0.41        , 3           , 255         , 0           , 0
-0.09415406 , -0.0835702  , -9.793852   , -0.000337750476, -0.0002614697, 0.0003612828, 0.009523226 , -0.00954058953, -1.58577984E-06, 919.797058  , 31.5458946  , 808.772034  , 0.42        , 3           , 255         , 0           , 0
-0.08871659 , -0.09167476 , -9.791281   , 0.000242493785, -0.000380925019, -0.000561171444, 0.009525706 , -0.009544346, -7.23363837E-06, 919.847     , 31.5582428  , 808.7721    , 0.43        , 3           , 255         , 0           , 0
-0.09701754 , -0.08725096 , -9.794874   , 0.000227995159, -0.0003442255, 0.000221223527, 0.009527964 , -0.009547808, -5.054249E-06, 919.847     , 31.5582428  , 808.772156  , 0.44        , 3           , 255         , 0           , 0
-0.09943352 , -0.094460234, -9.788418   , 0.0004611031, -0.000493525644, 0.000421121338, 0.00953253452, -0.00955278147, -8.901704E-07, 919.847     , 31.5582428  , 808.7722    , 0.45        , 3           , 255         , 0           , 0
-0.09467382 , -0.09672629 , -9.795848   , -0.000568922842, -0.000214793428, -2.49160548E-05, 0.009526849 , -0.009554927, -1.1598006E-06, 919.847     , 31.5582428  , 808.772339  , 0.46        , 3           , 255         , 0           , 0
-0.0893723443, -0.101093806, -9.802541   , -3.27889E-05, 0.000133610636, 0.000293329678, 0.009526493 , -0.009553619, 1.78615448E-06, 919.847     , 31.5582428  , 808.772461  , 0.47        , 3           , 255         , 0           , 0
-0.08999132 , -0.0959216058, -9.796378   , 6.81667E-05 , -0.000390378351, -6.733336E-05, 0.00952718  , -0.009557515, 1.07565029E-06, 919.847     , 31.5582428  , 808.7726    , 0.48        , 3           , 255         , 0           , 0
-0.09394338 , -0.09665605 , -9.793601   , -8.256431E-05, -0.000144915772, 0.000289065851, 0.009526328 , -0.009558992, 3.952426E-06, 919.847     , 31.5582428  , 808.7727    , 0.49        , 3           , 255         , 0           , 0
-0.0897319  , -0.0866489857, -9.795095   , -2.72167963E-05, -3.36002267E-05, 0.000372832117, 0.009526021 , -0.009559364, 7.677453E-06, 919.847     , 31.5582428  , 808.7728    , 0.5         , 3           , 255         , 0           , 0
-0.07643671 , -0.0917480141, -9.786481   , -0.000155842572, 0.000108473643, 0.000391239184, 0.009520016 , -0.009556933, 1.164221E-05, 919.847     , 31.5582428  , 808.6979    , 0.51        , 3           , 255         , 0           , 0
-0.0812618658, -0.100404181, -9.799921   , -0.000160279218, -5.58339525E-05, 0.0004607999, 0.009518368 , -0.009557535, 1.62447832E-05, 919.847     , 31.5582428  , 808.697937  , 0.52        , 3           , 255         , 0           , 0
-0.09380248 , -0.09499553 , -9.796478   , 0.000297689927, -0.0003398819, -8.33573358E-05, 0.009521353 , -0.009560926, 1.537888E-05, 919.795349  , 31.5665188  , 808.698059  , 0.53        , 3           , 255         , 0           , 0
-0.09695552 , -0.09994937 , -9.80207348 , 0.0002988647, 0.000141457349, 0.0002519791, 0.009524317 , -0.009559535, 1.79120725E-05, 919.795349  , 31.5665188  , 808.6982    , 0.54        , 3           , 255         , 0           , 0
-0.0925444  , -0.09268532 , -9.798465   , 0.000160462572, -0.0005136868, 0.0004185087, 0.009525884 , -0.009564714, 2.2048127E-05, 919.795349  , 31.5665188  , 808.6983    , 0.55        , 3           , 255         , 0           , 0
-0.0933257341, -0.0867185444, -9.790163   , 0.0001726743, -0.0001324974, 0.0002167667, 0.009527589 , -0.009566059, 2.420312E-05, 919.795349  , 31.5665188  , 808.6984    , 0.56        , 3           , 255         , 0           , 0
-0.09537344 , -0.09775208 , -9.785777   , -0.00029868522, 0.0004031476, -0.000545317365, 0.009524655 , -0.00956197549, 1.878848E-05, 919.795349  , 31.5665188  , 808.698547  , 0.57        , 3           , 255         , 0           , 0
-0.09463014 , -0.09411201 , -9.792759   , 0.0002529973, 3.716009E-05, -0.000733017339, 0.009527254 , -0.009561535, 1.14620225E-05, 919.795349  , 31.5665188  , 808.698669  , 0.58        , 3           , 255         , 0           , 0
-0.08766228 , -0.08888738 , -9.807963   , 0.000110831606, 0.000219024223, -0.000252532365, 0.009528386 , -0.00955932 , 8.957633E-06, 919.795349  , 31.5665188  , 808.6988    , 0.59        , 3           , 255         , 0           , 0
-0.08926112 , -0.09613244 , -9.8018055  , 9.727993E-05, -9.523408E-05, 0.000131382811, 0.009529347 , -0.009560285, 1.0262359E-05, 919.795349  , 31.5665188  , 808.6989    , 0.6         , 3           , 255         , 0           , 0
-0.09884149 , -0.100795828, -9.798168   , -0.0005010773, 3.13344935E-06, 0.00014793039, 0.009527363 , -0.009549699, 1.171288E-05, 919.795349  , 31.5665188  , 808.729     , 0.61        , 3           , 255         , 0           , 0
-0.09153753 , -0.0882834941, -9.7964325  , -1.26939267E-05, 6.02476939E-05, 9.590534E-05, 0.009527227 , -0.009549106, 1.26776467E-05, 919.795349  , 31.5665188  , 808.7291    , 0.62        , 3           , 255         , 0           , 0
-0.0941089839, -0.09585868 , -9.792782   , 0.000337320118, 0.0003590051, -0.000290735043, 0.009530628 , -0.009545488, 9.804575E-06, 919.8269    , 31.5705223  , 808.729248  , 0.63        , 3           , 255         , 0           , 0
-0.101406671, -0.09115742 , -9.80405    , -0.000214476371, 0.0003702756, -0.0006912484, 0.009528548 , -0.009541719, 2.92755317E-06, 919.8269    , 31.5705223  , 808.7294    , 0.64        , 3           , 255         , 0           , 0
-0.09638987 , -0.09830467 , -9.80606651 , -0.0006266652, 0.000488129444, -0.000658493838, 0.009522345 , -0.009536775, -3.61072716E-06, 919.8269    , 31.5705223  , 808.7295    , 0.65        , 3           , 255         , 0           , 0
-0.08950106 , -0.09018836 , -9.800085   , 0.000235443178, 0.000321615953, -0.000181146708, 0.009524716 , -0.009533543, -5.391526E-06, 919.8269    , 31.5705223  , 808.7296    , 0.66        , 3           , 255         , 0           , 0
-0.09015681 , -0.09185159 , -9.787414   , -6.189372E-05, 0.000347014866, 0.000205691162, 0.009524077 , -0.009530093, -3.3016122E-06, 919.8269    , 31.5705223  , 808.729736  , 0.67        , 3           , 255         , 0           , 0
-0.09605809 , -0.0956795  , -9.799224   , -5.56973973E-05, 8.354489E-05, 4.561021E-05, 0.009523516 , -0.009529261, -2.837567E-06, 919.8269    , 31.5705223  , 808.729858  , 0.68        , 3           , 255         , 0           , 0
-0.0912896246, -0.106887773, -9.797122   , -9.733194E-05, -0.000384926243, -0.000264491, 0.009522568 , -0.009533085, -5.51906851E-06, 919.8269    , 31.5705223  , 808.73      , 0.69        , 3           , 255         , 0           , 0
-0.0887322  , -0.105875447, -9.800062   , -5.770405E-05, -0.000169418141, -0.0005735571, 0.009522045 , -0.009534724, -1.12706293E-05, 919.8269    , 31.5705223  , 808.7301    , 0.7         , 3           , 255         , 0           , 0
-0.09322444 , -0.09362417 , -9.803037   , -5.00999158E-05, -0.000219143723, -0.000129726424, 0.009529723 , -0.009537764, -1.26666064E-05, 919.8269    , 31.5705223  , 808.7085    , 0.71        , 3           , 255         , 0           , 0
-0.09942885 , -0.0909391046, -9.800971   , 0.0002386971, 0.000396714662, 0.0004273384, 0.009532069 , -0.009533838, -8.355514E-06, 919.8269    , 31.5705223  , 808.7086    , 0.72        , 3           , 255         , 0           , 0
-0.09316667 , -0.0853735059, -9.793264   , 0.000278145919, -3.50974442E-05, -8.8951565E-05, 0.009534859 , -0.00953418 , -9.248355E-06, 919.8252    , 31.5769672  , 808.70874   , 0.73        , 3           , 255         , 0           , 0
-0.0965319648, -0.0968028754, -9.795602   , 0.0001979055, 0.000156269089, -0.000435382448, 0.009536878 , -0.009532576, -1.358717E-05, 919.8252    , 31.5769672  , 808.708862  , 0.74        , 3           , 255         , 0           , 0
-0.0950019  , -0.09580575 , -9.800583   , 0.000174206885, 0.000484182528, 0.0002518009, 0.009538596 , -0.009527759, -1.10230376E-05, 919.8252    , 31.5769672  , 808.709     , 0.75        , 3           , 255         , 0           , 0
-0.0949362442, -0.09761393 , -9.789364   , -6.406882E-05, 4.720129E-05, 0.000443792873, 0.009537912 , -0.009527329, -6.580718E-06, 919.8252    , 31.5769672  , 808.7091    , 0.76        , 3           , 255         , 0           , 0
-0.08616839 , -0.09097036 , -9.798013   , 0.000363468425, 0.00011549599, 0.0004826103, 0.0095415   , -0.009526221, -1.743726E-06, 919.8252    , 31.5769672  , 808.7092    , 0.77        , 3           , 255         , 0           , 0
-0.093689695, -0.09135472 , -9.795337   , 0.0003272888, -0.000132597925, -0.000415842544, 0.009544814 , -0.009527507, -5.914698E-06, 919.8252    , 31.5769672  , 808.709351  , 0.78        , 3           , 255         , 0           , 0
-0.1013634  , -0.0988549739, -9.802915   , -0.000384663348, 0.0001364292, -8.330171E-07, 0.009540967 , -0.009526143, -5.91000435E-06, 919.8252    , 31.5769672  , 808.7095    , 0.79        , 3           , 255         , 0           , 0
-0.099176906, -0.08946129 , -9.796545   , 5.05777425E-05, -9.192657E-05, 3.777779E-06, 0.009541472 , -0.009527062, -5.880998E-06, 919.8252    , 31.5769672  , 808.7096    , 0.8         , 3           , 255         , 0           , 0
-0.104020074, -0.09428521 , -9.794035   , -9.17612342E-05, 0.000110909765, 0.00041986446, 0.00953955  , -0.00953092147, -1.662679E-06, 919.8252    , 31.5769672  , 808.695068  , 0.81        , 3           , 255         , 0           , 0
-0.108844161, -0.107784078, -9.785299   , 4.6826317E-05, -0.000212910061, -0.0003464971, 0.009540052 , -0.009533018, -5.147875E-06, 919.8252    , 31.5769672  , 808.6952    , 0.82        , 3           , 255         , 0           , 0
-0.1062026  , -0.09908776 , -9.782948   , -0.000103541766, -0.000256344327, 9.39990859E-05, 0.009539007 , -0.009535587, -4.23235861E-06, 919.867737  , 31.5768318  , 808.6953    , 0.83        , 3           , 255         , 0           , 0
-0.0880101249, -0.0979198441, -9.799843   , 9.621668E-05, -0.000195832719, 0.0001518003, 0.009539955 , -0.00953756 , -2.73307228E-06, 919.867737  , 31.5768318  , 808.695435  , 0.84        , 3           , 255         , 0           , 0
-0.08878992 , -0.09543671 , -9.814105   , 0.000225564145, -0.000379968085, 0.000179035385, 0.009542194 , -0.00954137649, -9.790174E-07, 919.867737  , 31.5768318  , 808.695557  , 0.85        , 3           , 255         , 0           , 0
-0.0990994  , -0.100614831, -9.804727   , 7.350149E-05, -0.0004491745, -0.000295766222, 0.009542957 , -0.009545841, -3.979472E-06, 919.867737  , 31.5768318  , 808.6957    , 0.86        , 3           , 255         , 0           , 0
-0.09784504 , -0.09136572 , -9.791964   , -6.872107E-05, -0.000405753264, -0.000101158977, 0.00954228  , -0.009549889, -5.02974945E-06, 919.867737  , 31.5768318  , 808.6958    , 0.87        , 3           , 255         , 0           , 0
-0.09922527 , -0.09949861 , -9.787759   , 0.00014774708, 6.92041649E-05, -0.000317691884, 0.009543786 , -0.009549166, -8.19998149E-06, 919.867737  , 31.5768318  , 808.6959    , 0.88        , 3           , 255         , 0           , 0
-0.0876096562, -0.09837156 , -9.788287   , 0.0001799058, 0.000170400061, -0.000351026247, 0.00954562  , -0.009547429, -1.16938918E-05, 919.867737  , 31.5768318  , 808.696045  , 0.89        , 3           , 255         , 0           , 0
-0.09160645 , -0.0852410048, -9.793714   , 0.0001683422, -0.000221319, -0.000595513848, 0.00954736  , -0.009549585, -1.76700087E-05, 919.867737  , 31.5768318  , 808.696167  , 0.9         , 3           , 255         , 0           , 0
-0.0881262645, -0.09925636 , -9.80947    , -0.00016441691, -2.42984679E-05, -1.877005E-05, 0.009556499 , -0.00956114 , -1.79631134E-05, 919.867737  , 31.5768318  , 808.6353    , 0.91        , 3           , 255         , 0           , 0
-0.100763462, -0.0970751  , -9.800534   , 0.0001846168, 9.5211E-05  , -0.0001314939, 0.009558356 , -0.009560176, -1.926892E-05, 919.867737  , 31.5768318  , 808.6354    , 0.92        , 3           , 255         , 0           , 0
-0.0997278  , -0.0809179842, -9.784802   , -2.709683E-05, -1.09011307E-06, 0.000187225131, 0.009558068 , -0.009560204, -1.73968147E-05, 919.806152  , 31.5846329  , 808.635437  , 0.93        , 3           , 255         , 0           , 0
-0.09716214 , -0.09284219 , -9.779129   , 0.000315877172, 0.000375802018, 5.36295775E-05, 0.009561221 , -0.009556452, -1.68246061E-05, 919.806152  , 31.5846329  , 808.6355    , 0.94        , 3           , 255         , 0           , 0
-0.0955966339, -0.08969079 , -9.791966   , -0.000285207236, 0.000338505139, 0.000125704522, 0.009558358 , -0.00955307949, -1.55352336E-05, 919.806152  , 31.5846329  , 808.635559  , 0.95        , 3           , 255         , 0           , 0
-0.102102973, -0.0811172053, -9.805775   , -6.34302851E-05, 0.000177093287, 1.934088E-05, 0.009557722 , -0.009551311, -1.532491E-05, 919.806152  , 31.5846329  , 808.6356    , 0.96        , 3           , 255         , 0           , 0
-0.09489572 , -0.0988508239, -9.810809   , 1.15841976E-05, 0.000144005739, -0.000280005042, 0.009557864 , -0.009549843, -1.81111191E-05, 919.806152  , 31.5846329  , 808.6357    , 0.97        , 3           , 255         , 0           , 0
-0.0971345156, -0.097131215, -9.798796   , 7.999595E-05, -0.0001299566, -0.000453045854, 0.009558707 , -0.0095510995, -2.26538868E-05, 919.806152  , 31.5846329  , 808.635742  , 0.98        , 3           , 255         , 0           , 0
-0.106163338, -0.09046815 , -9.780607   , 5.826092E-05, 0.000142442586, -0.000165281774, 0.009559305 , -0.00954966 , -2.42930455E-05, 919.806152  , 31.5846329  , 808.6358    , 0.99        , 3           , 255         , 0           , 0
-0.09740775 , -0.09345217 , -9.78084    , 0.000128720771, 6.40874641E-05, -0.000182988908, 0.009560609 , -0.009549001, -2.61167588E-05, 919.806152  , 31.5846329  , 808.635864  , 1           , 3           , 0           , 6.93723631  , 100
-0.0970263258, -0.0951029658, -9.799795   , 0.0003343034, 0.000217335168, 0.00011145811, 0.009559301 , -0.009559769, -2.493707E-05, 919.806152  , 31.5846329  , 808.652832  , 1.01        , 3           , 1           , 0           , 0
-0.09316467 , -0.101394236, -9.802755   , 1.13444985E-05, 0.000119040778, 0.000323720451, 0.009559384 , -0.009558609, -2.16885619E-05, 919.806152  , 31.5846329  , 808.652954  , 1.02        , 3           , 2           , 0           , 0
-0.0901102647, -0.09467044 , -9.799162   , 0.000143063982, 0.000474412867, -0.0004631793, 0.009560859 , -0.009553821, -2.62748836E-05, 919.8336    , 31.5817833  , 808.6531    , 1.03        , 3           , 3           , 0           , 0
-0.09243737 , -0.09650636 , -9.793419   , -0.00046520622, 0.000448462553, -0.0002101398, 0.0095562255, -0.009549319, -2.83333575E-05, 919.8336    , 31.5817833  , 808.6532    , 1.04        , 3           , 4           , 0           , 0
-0.09702188 , -0.09283997 , -9.7976     , -0.000254364626, 4.78396541E-05, 0.000189856655, 0.009553664 , -0.009548856, -2.64302653E-05, 919.8336    , 31.5817833  , 808.6533    , 1.05        , 3           , 5           , 0           , 0
-0.09642225 , -0.09368227 , -9.803325   , 5.61203924E-05, -0.0002334365, 7.510257E-05, 0.009554219 , -0.009551197, -2.570156E-05, 919.8336    , 31.5817833  , 808.653442  , 1.06        , 3           , 6           , 0           , 0
-0.0939105  , -0.09081803 , -9.7943325  , 7.132141E-05, 0.000477555674, 0.000198034846, 0.009554913 , -0.009546442, -2.367563E-05, 919.8336    , 31.5817833  , 808.653564  , 1.07        , 3           , 7           , 0           , 0
-0.0966726  , -0.08909645 , -9.78347    , -0.0002313822, 0.000465425837, 7.597021E-05, 0.009552592 , -0.009541794, -2.28714853E-05, 919.8336    , 31.5817833  , 808.6537    , 1.08        , 3           , 8           , 5           , 5
-0.09516557 , -0.0904552341, -9.79066849 , -0.000308761373, -0.000201669551, 0.00045616398, 0.00954946  , -0.009543856, -1.83292286E-05, 919.8336    , 31.5817833  , 808.6538    , 1.09        , 3           , 9           , 5           , 0.1
-0.103946045, -0.08319487 , -9.799772   , -0.0002175325, 2.43804825E-05, 0.000120697776, 0.009547275 , -0.009543623, -1.71199517E-05, 919.8336    , 31.5817833  , 808.653931  , 1.1         , 3           , 10          , 0.1         , 0.1
-0.09109538 , -0.09341047 , -9.806459   , 0.0007339955, 0.000308543764, -0.0006449087, 0.009552562 , -0.009545663, -2.35192383E-05, 919.8336    , 31.5817833  , 808.6393    , 1.11        , 3           , 11          , 0.009437119 , 0.009437119
-0.0912305862, -0.096933946, -9.801599   , 0.000213492458, 0.0002474251, -5.527858E-05, 0.009554702 , -0.009543185, -2.40483714E-05, 919.8336    , 31.5817833  , 808.6394    , 1.12        , 3           , 12          , 0.174642846 , 0
-0.0885411  , -0.08956605 , -9.795124   , 0.0004939395, 0.000146036269, 6.55499462E-05, 0.009559634 , -0.009541728, -2.33789287E-05, 919.8039    , 31.5868721  , 808.6395    , 1.13        , 3           , 13          , 0           , 0
-0.08885438 , -0.0955676138, -9.787537   , 0.000438506715, -1.27247476E-05, -6.2173036E-05, 0.009564025 , -0.009541849, -2.40018526E-05, 919.8039    , 31.5868721  , 808.639648  , 1.14        , 3           , 14          , -0.0005485575, -0.000244943862
-0.08878748 , -0.09682461 , -9.79077148 , -0.000106246851, 0.00019517637, -0.0004227189, 0.009563004 , -0.009539857, -2.82102719E-05, 919.8039    , 31.5868721  , 808.6398    , 1.15        , 3           , 15          , 0           , 1.6603457E-05
-0.0874721557, -0.0907700658, -9.8141     , -0.000134220812, 0.0001171239, -0.00058905757, 0.009561717 , -0.009538629, -3.40895022E-05, 919.8039    , 31.5868721  , 808.6399    , 1.16        , 3           , 16          , 0           , 1.401298E-45
-0.0962407142, -0.09141152 , -9.804696   , 0.000394580333, 5.31727419E-05, 0.0006991961, 0.00956559647, -0.009538164, -2.709263E-05, 919.8039    , 31.5868721  , 808.64      , 1.17        , 3           , 20          , 0           , 0
-0.08712788 , -0.08674098 , -9.794415   , 0.0007511012, 0.000205076387, 0.000300721 , 0.009573078 , -0.009536143, -2.4065881E-05, 919.8039    , 31.5868721  , 808.640137  , 1.18        , 3           , 21          , 0           , 0
-0.08084815 , -0.09007199 , -9.781134   , 0.0009795704, -0.000102535065, -0.000211580074, 0.009582893 , -0.009537147, -2.61914447E-05, 919.8039    , 31.5868721  , 808.640259  , 1.19        , 3           , 22          , 0           , 0
-0.0936958045, -0.08322461 , -9.781347   , 0.000431693043, 9.010703E-05, 0.000286342431, 0.009587182 , -0.009536274, -2.33194532E-05, 919.8039    , 31.5868721  , 808.6404    , 1.2         , 3           , 40          , 0           , 0
-0.102637395, -0.08890434 , -9.797725   , 0.0004664453, 0.000148732928, 0.0003449094, 0.009585999 , -0.009524203, -1.98008038E-05, 919.8039    , 31.5868721  , 808.658142  , 1.21        , 3           , 41          , 0           , 0
-0.09715219 , -0.092040956, -9.797541   , 0.000390780682, -4.030933E-05, 0.000338402257, 0.009589874 , -0.009524639, -1.6420734E-05, 919.8039    , 31.5868721  , 808.6583    , 1.22        , 3           , 42          , 0           , 0
-0.09254025 , -0.0915183  , -9.796587   , 0.000436337461, -0.0003397384, -5.59870059E-05, 0.009594244 , -0.00952803 , -1.701318E-05, 919.809     , 31.5861263  , 808.6585    , 1.23        , 3           , 255         , 0           , 0
-0.09985044 , -0.09031028 , -9.790934   , 0.0002941628, 1.26579835E-06, -1.39845833E-05, 0.009597187 , -0.009528015, -1.71528991E-05, 919.809     , 31.5861263  , 808.6587    , 1.24        , 3           , 255         , 0           , 0
-0.111787342, -0.09326997 , -9.78533649 , -7.838401E-05, -0.000141657278, 0.0005519945, 0.009596351 , -0.009529484, -1.16466817E-05, 919.809     , 31.5861263  , 808.6589    , 1.25        , 3           , 255         , 0           , 0
-0.10390313 , -0.09441984 , -9.79186249 , 0.000190893654, -1.28306856E-05, 1.36408562E-05, 0.009598258 , -0.009529613, -1.15115072E-05, 919.809     , 31.5861263  , 808.659058  , 1.26        , 3           , 255         , 0           , 0
-0.0957372561, -0.09566481 , -9.797255   , 0.0003034614, -6.63524552E-05, 0.000167485239, 0.009601275 , -0.009530293, -9.843065E-06, 919.809     , 31.5861263  , 808.659241  , 1.27        , 3           , 255         , 0           , 0
-0.09339313 , -0.103263855, -9.797742   , -7.92031642E-07, -0.000134829752, 0.00035222774, 0.00960123353, -0.009531675, -6.33382E-06, 919.809     , 31.5861263  , 808.6594    , 1.28        , 3           , 255         , 0           , 0
-0.0937610045, -0.09377287 , -9.794525   , -0.000150952837, -9.659192E-05, -0.000278258638, 0.009599751 , -0.009532615, -9.125604E-06, 919.809     , 31.5861263  , 808.6596    , 1.29        , 3           , 255         , 0           , 0
-0.0881091  , -0.09075608 , -9.785986   , 0.000274038815, 0.000316278165, -0.000245608273, 0.009602514 , -0.009529428, -1.15512566E-05, 919.809     , 31.5861263  , 808.6598    , 1.3         , 3           , 255         , 0           , 0
-0.08020429 , -0.0972774252, -9.792634   , -7.10280146E-05, 0.000451545464, 9.862092E-05, 0.009600063 , -0.009538155, -1.05052013E-05, 919.809     , 31.5861263  , 808.6703    , 1.31        , 3           , 255         , 0           , 0
-0.0854574144, -0.09119667 , -9.796176   , -0.000455057074, 1.28895335E-05, 4.41790871E-06, 0.009595512 , -0.009538028, -1.04597875E-05, 919.809     , 31.5861263  , 808.670532  , 1.32        , 3           , 255         , 0           , 0
-0.094792   , -0.0970019549, -9.806124   , -0.000482474978, 9.608542E-05, 0.000561996654, 0.009590633 , -0.00953712 , -4.83074245E-06, 919.7859    , 31.587347   , 808.6708    , 1.33        , 3           , 255         , 0           , 0
-0.0954646  , -0.09343216 , -9.806894   , 0.0004397103, 0.000147078768, 0.0004556146, 0.009594987 , -0.009535693, -2.606039E-07, 919.7859    , 31.587347   , 808.671     , 1.34        , 3           , 255         , 0           , 0
-0.0961294547, -0.10484235 , -9.799596   , 0.000295546371, 0.000184495089, -0.0003593403, 0.009597976 , -0.009533814, -3.83621227E-06, 919.7859    , 31.587347   , 808.671265  , 1.35        , 3           , 255         , 0           , 0
-0.101085424, -0.09797555 , -9.78805    , 0.0002161155, 0.000310743577, -0.000396631163, 0.009600175 , -0.009530669, -7.772585E-06, 919.7859    , 31.587347   , 808.6715    , 1.36        , 3           , 255         , 0           , 0
-0.09096422 , -0.08379998 , -9.789309   , 6.990775E-05, -0.000106044405, -0.000482880569, 0.00960092  , -0.009531683, -1.26114555E-05, 919.7859    , 31.587347   , 808.671753  , 1.37        , 3           , 255         , 0           , 0
-0.09386557 , -0.09006286 , -9.79106    , 0.0003494077, -0.0002304732, -0.000978697, 0.009604506 , -0.009533891, -2.24203013E-05, 919.7859    , 31.587347   , 808.672     , 1.38        , 3           , 255         , 0           , 0
-0.09698808 , -0.0934130251, -9.799068   , 0.000153969566, -0.000404956139, -0.000508389261, 0.009606095 , -0.009537892, -2.754296E-05, 919.7859    , 31.587347   , 808.672241  , 1.39        , 3           , 255         , 0           , 0
-0.105478957, -0.105575755, -9.799647   , 5.191815E-05, -0.00024840163, 0.000274782244, 0.009606588 , -0.009540402, -2.48190681E-05, 919.7859    , 31.587347   , 808.6725    , 1.4         , 3           , 255         , 0           , 0
-0.106430791, -0.09960638 , -9.792646   , -4.15543327E-05, 0.000194446548, 0.0003220816, 0.009609451 , -0.009539934, -2.161122E-05, 919.7859    , 31.587347   , 808.7056    , 1.41        , 3           , 255         , 0           , 0
-0.08744098 , -0.09096153 , -9.793978   , -9.882037E-05, -5.80136257E-05, -0.0003222048, 0.009608492 , -0.009540482, -2.48387623E-05, 919.7859    , 31.587347   , 808.706     , 1.42        , 3           , 255         , 0           , 0
-0.09940181 , -0.08533246 , -9.789049   , -0.000194405147, 7.6035285E-05, 0.0006934216, 0.009606483 , -0.009539789, -1.78974151E-05, 919.807068  , 31.5893822  , 808.70636   , 1.43        , 3           , 255         , 0           , 0
-0.09929465 , -0.08194693 , -9.790232   , -0.0002939222, -0.000187845726, 0.0002916075, 0.009603516 , -0.009541695, -1.49994521E-05, 919.807068  , 31.5893822  , 808.7067    , 1.44        , 3           , 255         , 0           , 0
-0.0904625356, -0.09721707 , -9.799241   , 0.0002210396, -0.000120371755, 0.0005376273, 0.009605675 , -0.009542951, -9.634873E-06, 919.807068  , 31.5893822  , 808.7071    , 1.45        , 3           , 255         , 0           , 0
-0.09545394 , -0.104125142, -9.804426   , -8.91456148E-05, 4.51641681E-05, 0.00027926825, 0.009604757 , -0.009542526, -6.837926E-06, 919.807068  , 31.5893822  , 808.707458  , 1.46        , 3           , 255         , 0           , 0
-0.0980468243, -0.09148486 , -9.805956   , -9.89952241E-05, 0.000450180436, 0.000417212257, 0.009603728 , -0.009538064, -2.6226694E-06, 919.807068  , 31.5893822  , 808.7078    , 1.47        , 3           , 255         , 0           , 0
-0.09250567 , -0.0936688  , -9.790477   , -0.0003167654, 0.0005881337, 0.0004772913, 0.00960051548, -0.00953223 , 2.206596E-06, 919.807068  , 31.5893822  , 808.7082    , 1.48        , 3           , 255         , 0           , 0
-0.09664147 , -0.09667464 , -9.79476452 , -0.0001265207, -0.000175994472, -0.000153616988, 0.009599263 , -0.009533974, 6.53567156E-07, 919.807068  , 31.5893822  , 808.708557  , 1.49        , 3           , 255         , 0           , 0
-0.09624737 , -0.0975348055, -9.800918   , -0.000256016443, -7.0045935E-05, -2.22182971E-05, 0.009596706 , -0.009534673, 4.24666041E-07, 919.807068  , 31.5893822  , 808.709     , 1.5         , 3           , 255         , 0           , 0
-0.109143451, -0.09439133 , -9.798798   , -5.61008346E-05, -0.000123269245, 0.000308964343, 0.009595558 , -0.00954227149, 3.50772439E-06, 919.807068  , 31.5893822  , 808.716553  , 1.51        , 3           , 255         , 0           , 0
-0.09681554 , -0.103448294, -9.791156   , -0.000130377186, -5.354191E-05, 0.000442030316, 0.009594212 , -0.009542851, 7.922777E-06, 919.807068  , 31.5893822  , 808.717     , 1.52        , 3           , 255         , 0           , 0
-0.0989966542, -0.08636932 , -9.790761   , 1.3884448E-05, 0.000118229 , 0.000169121224, 0.009594334 , -0.009541684, 9.625293E-06, 919.811157  , 31.5880928  , 808.7174    , 1.53        , 3           , 255         , 0           , 0
-0.100772895, -0.09453745 , -9.796385   , -0.000140490069, 0.0005283442, 0.000277949031, 0.009592903 , -0.009536428, 1.24553944E-05, 919.811157  , 31.5880928  , 808.717834  , 1.54        , 3           , 255         , 0           , 0
-0.0901036263, -0.09289499 , -9.803693   , 0.000374961324, 0.000111781788, -8.484266E-05, 0.009596661 , -0.009535302, 1.16177152E-05, 919.811157  , 31.5880928  , 808.718262  , 1.55        , 3           , 255         , 0           , 0
-0.09031418 , -0.0990189537, -9.799691   , 0.000371601462, 0.00016483877, 0.000225566313, 0.009600355 , -0.009533675, 1.38891464E-05, 919.811157  , 31.5880928  , 808.7187    , 1.56        , 3           , 255         , 0           , 0
-0.08780488 , -0.09760446 , -9.799471   , -0.0002524791, -7.768246E-05, -0.0004860165, 0.009597877 , -0.009534406, 9.021648E-06, 919.811157  , 31.5880928  , 808.7191    , 1.57        , 3           , 255         , 0           , 0
-0.08137187 , -0.09423686 , -9.798236   , -1.53956353E-05, -0.000392659975, -0.000374678057, 0.00959776  , -0.009538297, 5.237276E-06, 919.811157  , 31.5880928  , 808.719543  , 1.58        , 3           , 255         , 0           , 0
-0.09393542 , -0.09549232 , -9.79018    , -0.000160815427, -0.000221248309, -0.00072573754, 0.009596219 , -0.009540439, -2.04114463E-06, 919.811157  , 31.5880928  , 808.72      , 1.59        , 3           , 255         , 0           , 0
-0.09625702 , -0.103581168, -9.798348   , -0.00011590455, -8.264728E-05, -0.000349142472, 0.009595094 , -0.009541231, -5.54041026E-06, 919.811157  , 31.5880928  , 808.7204    , 1.6         , 3           , 255         , 0           , 0
-0.09082337 , -0.09041034 , -9.801159   , -0.0003110874, -6.86017738E-05, -0.0002095457, 0.009596796 , -0.009544401, -7.688138E-06, 919.811157  , 31.5880928  , 808.7225    , 1.61        , 3           , 255         , 0           , 0
-0.09404474 , -0.093734324, -9.804037   , -9.96472663E-05, 0.000205484583, -0.000131678884, 0.009595811 , -0.009542334, -8.98517646E-06, 919.811157  , 31.5880928  , 808.722961  , 1.62        , 3           , 255         , 0           , 0
-0.09348992 , -0.09021966 , -9.80457    , 0.000104154577, 0.000114121009, 0.000101675541, 0.009596843 , -0.009541203, -7.957495E-06, 919.8443    , 31.5920963  , 808.72345   , 1.63        , 3           , 255         , 0           , 0
-0.08418898 , -0.0928529948, -9.794658   , 0.000459222356, 0.000133623427, -0.000435687543, 0.00960147753, -0.009539826, -1.23014315E-05, 919.8443    , 31.5920963  , 808.723938  , 1.64        , 3           , 255         , 0           , 0
-0.09322528 , -0.0899419338, -9.795206   , 6.29999E-05 , 1.513079E-05, -0.000407821673, 0.009602146 , -0.009539636, -1.63780933E-05, 919.8443    , 31.5920963  , 808.7244    , 1.65        , 3           , 255         , 0           , 0
-0.102947854, -0.09223531 , -9.796059   , 0.0003086542, -0.000102751714, -0.0003496261, 0.009605266 , -0.00954063 , -1.98841317E-05, 919.8443    , 31.5920963  , 808.7249    , 1.66        , 3           , 255         , 0           , 0
-0.100089565, -0.08332896 , -9.796234   , -0.000181286479, -0.0005649661, 0.000401277473, 0.009603415 , -0.009546316, -1.592572E-05, 919.8443    , 31.5920963  , 808.7254    , 1.67        , 3           , 255         , 0           , 0
-0.09495836 , -0.0920764953, -9.797361   , 4.34790272E-05, 3.23445274E-05, 0.000241048649, 0.009603826 , -0.009546016, -1.35121927E-05, 919.8443    , 31.5920963  , 808.7259    , 1.68        , 3           , 255         , 0           , 0
-0.09862958 , -0.0936459452, -9.786392   , 9.041748E-05, -0.00028302506, 0.0006284099, 0.009604671 , -0.009548906, -7.255436E-06, 919.8443    , 31.5920963  , 808.7264    , 1.69        , 3           , 255         , 0           , 0
-0.11122185 , -0.0925009847, -9.797079   , -0.000473373919, -0.000469357154, 0.0007887505, 0.009599863 , -0.009553675, 5.868036E-07, 919.8443    , 31.5920963  , 808.726868  , 1.7         , 3           , 255         , 0           , 0
-0.100657068, -0.0906948745, -9.793981   , -0.0003344813, -7.554499E-05, 0.0007684124, 0.009590158 , -0.009560602, 8.323588E-06, 919.8443    , 31.5920963  , 808.69165   , 1.71        , 3           , 255         , 0           , 0
-0.0876421854, -0.09293406 , -9.792996   , 0.000343897671, -4.70978848E-05, 0.000140519172, 0.009593584 , -0.009561086, 9.724227E-06, 919.8443    , 31.5920963  , 808.691956  , 1.72        , 3           , 255         , 0           , 0
-0.094028905, -0.08416554 , -9.811023   , -0.000119690667, 0.000285898073, 9.327397E-05, 0.009592378 , -0.009558236, 1.06843736E-05, 919.829834  , 31.5914173  , 808.692261  , 1.73        , 3           , 255         , 0           , 0
-0.09576298 , -0.09733092 , -9.800435   , -0.000108104839, -0.000267798023, -0.000554253755, 0.00959134847, -0.009560861, 5.11629423E-06, 919.829834  , 31.5914173  , 808.692566  , 1.74        , 3           , 255         , 0           , 0
-0.104698025, -0.08771935 , -9.796453   , -2.04721582E-05, 0.000188527934, -0.0001680859, 0.00959116  , -0.00955896 , 3.45356E-06 , 919.829834  , 31.5914173  , 808.6929    , 1.75        , 3           , 255         , 0           , 0
-0.09667359 , -0.094303295, -9.799832   , -7.599924E-05, -0.000134108734, 0.000100507379, 0.009590391 , -0.00956031 , 4.445748E-06, 919.829834  , 31.5914173  , 808.6932    , 1.76        , 3           , 255         , 0           , 0
-0.09555793 , -0.10221535 , -9.793516   , 0.000303684472, 0.0003998074, 0.0001210057, 0.009593417 , -0.009556325, 5.694119E-06, 919.829834  , 31.5914173  , 808.6935    , 1.77        , 3           , 255         , 0           , 0
-0.09634974 , -0.09653686 , -9.789507   , -0.000317311555, 0.0005161201, 1.22758938E-05, 0.009590242 , -0.009551166, 5.866378E-06, 919.829834  , 31.5914173  , 808.6938    , 1.78        , 3           , 255         , 0           , 0
-0.0919513255, -0.09424404 , -9.799436   , 0.000155710441, 0.000418429845, 0.0005925845, 0.009591742 , -0.009547039, 1.18322005E-05, 919.829834  , 31.5914173  , 808.6941    , 1.79        , 3           , 255         , 0           , 0
-0.0863514  , -0.09515363 , -9.797575   , -2.18112837E-05, 0.000249358 , 0.0007156209, 0.009591456 , -0.009544617, 1.90121518E-05, 919.829834  , 31.5914173  , 808.6944    , 1.8         , 3           , 255         , 0           , 0
-0.09475005 , -0.0954586938, -9.788858   , -0.000750935462, 0.000213067266, 0.0003076529, 0.009583009 , -0.009545169, 2.21176742E-05, 919.829834  , 31.5914173  , 808.678162  , 1.81        , 3           , 255         , 0           , 0
-0.104351893, -0.09506828 , -9.793051   , -0.0003024537, 0.0003988755, -0.000174636458, 0.009580003 , -0.009541163, 2.040957E-05, 919.829834  , 31.5914173  , 808.678345  , 1.82        , 3           , 255         , 0           , 0
-0.107115984, -0.0904675946, -9.790026   , -0.000103937346, 0.000128186832, 0.0007232287, 0.009578895 , -0.009539951, 2.76539522E-05, 919.8568    , 31.5930462  , 808.6786    , 1.83        , 3           , 255         , 0           , 0
-0.09627463 , -0.09051736 , -9.788157   , 0.000447706727, 0.0003900946, 0.000651970855, 0.009583309 , -0.009536113, 3.42108724E-05, 919.8568    , 31.5930462  , 808.678833  , 1.84        , 3           , 255         , 0           , 0
-0.09938991 , -0.100098208, -9.794319   , 0.0002533842, 0.0001584822, 0.000384387036, 0.009585806 , -0.009534565, 3.806983E-05, 919.8568    , 31.5930462  , 808.6791    , 1.85        , 3           , 255         , 0           , 0
-0.09706791 , -0.09641585 , -9.79428    , 0.000128031184, -7.053089E-05, 0.00116083876, 0.009586978 , -0.009535382, 4.967117E-05, 919.8568    , 31.5930462  , 808.6793    , 1.86        , 3           , 255         , 0           , 0
-0.08848566 , -0.09019746 , -9.795366   , 0.00109521067, 0.000205074553, 0.000545705261, 0.009597876 , -0.009533382, 5.51477569E-05, 919.8568    , 31.5930462  , 808.679565  , 1.87        , 3           , 255         , 0           , 0
-0.09499992 , -0.09342914 , -9.799371   , 0.0002018956, -0.0004047897, -0.00083110237, 0.009599974 , -0.009537349, 4.67980863E-05, 919.8568    , 31.5930462  , 808.6798    , 1.88        , 3           , 255         , 0           , 0
-0.08525203 , -0.09283235 , -9.796086   , 0.00030566132, -0.000362315332, -0.000186447069, 0.00960305  , -0.009540956, 4.489887E-05, 919.8568    , 31.5930462  , 808.680054  , 1.89        , 3           , 255         , 0           , 0
-0.09040479 , -0.100154437, -9.798949   , 0.000194462045, 4.975575E-05, 4.64800469E-05, 0.00960499048, -0.009540462, 4.53684333E-05, 919.8568    , 31.5930462  , 808.6803    , 1.9         , 3           , 255         , 0           , 0
-0.08355838 , -0.0990731344, -9.788763   , 0.0004975187, 0.000215346139, -0.000128229382, 0.009611446 , -0.009544325, 4.409284E-05, 919.8568    , 31.5930462  , 808.6336    , 1.91        , 3           , 255         , 0           , 0
-0.09453261 , -0.10251683 , -9.799892   , -7.3109E-05 , 0.000347742869, -5.13694831E-05, 0.009610721 , -0.009540843, 4.361258E-05, 919.8568    , 31.5930462  , 808.633545  , 1.92        , 3           , 255         , 0           , 0
-0.0973242745, -0.0939482  , -9.792287   , 1.3907731E-05, -0.000109716086, 0.00036570066, 0.009610824 , -0.009541974, 4.725894E-05, 919.7876    , 31.5955563  , 808.6335    , 1.93        , 3           , 255         , 0           , 0
-0.101625264, -0.0971604  , -9.795756   , -0.00021430623, -0.0002622701, 0.0001807849, 0.009608664 , -0.009544616, 4.90415478E-05, 919.7876    , 31.5955563  , 808.6334    , 1.94        , 3           , 255         , 0           , 0
-0.103074268, -0.09292867 , -9.80221    , 4.0593266E-05, 0.000311172218, 9.018949E-05, 0.00960906  , -0.009541512, 4.997332E-05, 919.7876    , 31.5955563  , 808.633362  , 1.95        , 3           , 255         , 0           , 0
-0.102004752, -0.09340083 , -9.798239   , -0.000563871756, 0.000170673622, 0.000431558845, 0.009603382 , -0.009539846, 5.43051865E-05, 919.7876    , 31.5955563  , 808.6333    , 1.96        , 3           , 255         , 0           , 0
-0.10328541 , -0.0895203054, -9.796796   , 0.000109375425, 5.90560521E-05, 6.941929E-05, 0.009604469 , -0.009539263, 5.500503E-05, 919.7876    , 31.5955563  , 808.63324   , 1.97        , 3           , 255         , 0           , 0
-0.0973918  , -0.0920615  , -9.796724   , -0.000315678364, 2.53738835E-06, 8.682516E-05, 0.009601304 , -0.009539246, 5.58734973E-05, 919.7876    , 31.5955563  , 808.6332    , 1.98        , 3           , 255         , 0           , 0
-0.101150826, -0.100364193, -9.792364   , -0.000158718845, 0.000200566967, 0.000199827482, 0.009599698 , -0.009537259, 5.78909821E-05, 919.7876    , 31.5955563  , 808.6331    , 1.99        , 3           , 255         , 0           , 0
-0.0913227  , -0.09790093 , -9.801433   , 0.0006743249, -0.000180363946, -0.0004209462, 0.009606482 , -0.009539023, 5.36643056E-05, 919.7876    , 31.5955563  , 808.633057  , 2           , 3           , 0           , 7.93723631  , 200
-0.0981309861, -0.0892948359, -9.786962   , 0.0003025616, -0.000376242242, -0.000962363, 0.009613222 , -0.009551039, 4.39701726E-05, 919.7876    , 31.5955563  , 808.6742    , 2.01        , 3           , 1           , 0           , 0
-0.09624476 , -0.08332036 , -9.789869   , -0.000252787548, -0.0001952264, -0.000402368663, 0.009610733 , -0.009552952, 3.99278251E-05, 919.7876    , 31.5955563  , 808.674438  , 2.02        , 3           , 2           , 0           , 0
-0.09319869 , -0.08900378 , -9.799329   , 0.000248789031, 0.0002696181, -0.0004933215, 0.009613268 , -0.009550209, 3.50206465E-05, 919.8405    , 31.5931129  , 808.6747    , 2.03        , 3           , 3           , 0           , 0
-0.09830777 , -0.08644399 , -9.790318   , 0.000439285766, 0.000153433968, -0.000887725851, 0.009617746 , -0.00954859052, 2.61583682E-05, 919.8405    , 31.5931129  , 808.6749    , 2.04        , 3           , 4           , 0           , 0
-0.09084934 , -0.0945422947, -9.789815   , -0.000161705946, 0.0002671658, -0.000747017853, 0.0096162   , -0.009545848, 1.8714074E-05, 919.8405    , 31.5931129  , 808.6752    , 2.05        , 3           , 5           , 0           , 0
-0.08923299 , -0.08380058 , -9.788272   , -7.7947916E-05, -0.000155880844, 0.000485226221, 0.009615374 , -0.009547453, 2.35512271E-05, 919.8405    , 31.5931129  , 808.6754    , 2.06        , 3           , 6           , 0           , 0
-0.0956865847, -0.09296361 , -9.791323   , 0.0004600719, -2.60234519E-05, 0.000104687126, 0.009619964 , -0.009547723, 2.45955744E-05, 919.8405    , 31.5931129  , 808.675659  , 2.07        , 3           , 7           , 0           , 0
-0.09396483 , -0.09477439 , -9.786908   , 0.000394068426, 0.000163647113, -0.000652845949, 0.009623967 , -0.009546025, 1.808303E-05, 919.8405    , 31.5931129  , 808.6759    , 2.08        , 3           , 8           , 5           , 5
-0.0895018  , -0.084948   , -9.799479   , -0.000779520546, -0.000401944824, 0.000248055119, 0.009616148 , -0.009550067, 2.05248525E-05, 919.8405    , 31.5931129  , 808.676147  , 2.09        , 3           , 9           , 5           , 0.1
-0.09288351 , -0.08718188 , -9.799344   , -0.000322902342, -0.000119616278, -0.000247635762, 0.009612943 , -0.009551239, 1.80370553E-05, 919.8405    , 31.5931129  , 808.6764    , 2.1         , 3           , 10          , 0.1         , 0.1
-0.08940238 , -0.09073204 , -9.797854   , 7.123253E-05, -0.000437247218, -0.000480214076, 0.00959865  , -0.00955640152, 1.33368248E-05, 919.8405    , 31.5931129  , 808.647949  , 2.11        , 3           , 11          , 0.008411529 , 0.008411529
-0.09902464 , -0.09258576 , -9.795642   , 0.000282966241, 0.0003636692, -0.000174722853, 0.009601497 , -0.009552748, 1.162455E-05, 919.8405    , 31.5931129  , 808.648     , 2.12        , 3           , 12          , 0.174643889 , 0
-0.09492918 , -0.09585744 , -9.793727   , 0.00023409148, 0.000149428932, 0.0006619722, 0.009603775 , -0.009551318, 1.8258459E-05, 919.7877    , 31.5934525  , 808.6481    , 2.13        , 3           , 13          , 0           , 0
-0.08832823 , -0.09752557 , -9.793096   , 9.199069E-05, 0.000224735631, -0.000258947141, 0.009604719 , -0.009549046, 1.56906262E-05, 919.7877    , 31.5934525  , 808.648132  , 2.14        , 3           , 14          , -0.000548516167, -0.0002448609
-0.09753155 , -0.09316559 , -9.793287   , -5.89541742E-05, 0.000118355296, -0.0005299936, 0.00960418  , -0.009547812, 1.04021983E-05, 919.7877    , 31.5934525  , 808.6482    , 2.15        , 3           , 15          , 0           , 1.66022655E-05
-0.105073169, -0.09173016 , -9.798525   , -7.84361036E-05, 0.00019940405, 0.0006160941, 0.009603336 , -0.009545878, 1.658213E-05, 919.7877    , 31.5934525  , 808.648254  , 2.16        , 3           , 16          , 0           , 1.401298E-45
-0.08785495 , -0.0955469757, -9.796809   , -0.000484060729, 0.0007178422, 7.234968E-05, 0.009598489 , -0.00953870453, 1.7374532E-05, 919.7877    , 31.5934525  , 808.6483    , 2.17        , 3           , 20          , 0           , 0
-0.08754718 , -0.0833853558, -9.790505   , -0.000186084071, 0.000461040763, -0.000107957581, 0.009596639 , -0.009534086, 1.63392269E-05, 919.7877    , 31.5934525  , 808.6484    , 2.18        , 3           , 21          , 0           , 0
-0.100073673, -0.0926143155, -9.791403   , -0.000263048278, 0.000609925366, 0.0006090084, 0.009593951 , -0.009528046, 2.248768E-05, 919.7877    , 31.5934525  , 808.648438  , 2.19        , 3           , 22          , 0           , 0
-0.09928898 , -0.0929540545, -9.79737    , -0.000366468856, 1.317283E-05, 0.000219819281, 0.009590265 , -0.009527935, 2.46870768E-05, 919.7877    , 31.5934525  , 808.6485    , 2.2         , 3           , 40          , 0           , 0
-0.09327898 , -0.08093221 , -9.792809   , -5.48625248E-05, 8.35685642E-05, 0.000161558142, 0.009586492 , -0.009530123, 2.63412367E-05, 919.7877    , 31.5934525  , 808.689453  , 2.21        , 3           , 41          , 0           , 0
-0.09933003 , -0.08977091 , -9.79086    , 4.92867548E-06, -0.000146691746, 0.000306537375, 0.009586511 , -0.009531619, 2.93924677E-05, 919.7877    , 31.5934525  , 808.689758  , 2.22        , 3           , 42          , 0           , 0
-0.106454134, -0.08444318 , -9.799472   , -0.000100904843, 0.0003616484, -0.000110471978, 0.009585514 , -0.009527992, 2.83224454E-05, 919.816     , 31.5953522  , 808.6901    , 2.23        , 3           , 255         , 0           , 0
-0.09582573 , -0.0902617946, -9.794512   , 0.000107022119, -4.102831E-05, 6.34878E-05 , 0.009586577 , -0.009528409, 2.89533727E-05, 919.816     , 31.5953522  , 808.6905    , 2.24        , 3           , 255         , 0           , 0
-0.101759173, -0.0917689055, -9.796359   , 0.000436978415, 0.000124516155, -0.0006224728, 0.009591007 , -0.009527104, 2.27407345E-05, 919.816     , 31.5953522  , 808.690857  , 2.25        , 3           , 255         , 0           , 0
-0.100008771, -0.08935452 , -9.794668   , 0.000208299316, -4.04850871E-05, 0.00040946115, 0.00959305  , -0.009527549, 2.68313579E-05, 919.816     , 31.5953522  , 808.6912    , 2.26        , 3           , 255         , 0           , 0
-0.08901048 , -0.08870517 , -9.789342   , 0.000202336989, 0.00019323366, 0.000188298451, 0.009595054 , -0.009525635, 2.87328367E-05, 919.816     , 31.5953522  , 808.6916    , 2.27        , 3           , 255         , 0           , 0
-0.09351418 , -0.0906370059, -9.791881   , -0.000156276335, -0.000196462788, -6.341803E-05, 0.009593498 , -0.009527593, 2.80798376E-05, 919.816     , 31.5953522  , 808.691956  , 2.28        , 3           , 255         , 0           , 0
-0.09202923 , -0.0926962942, -9.793077   , -2.33453466E-05, -0.000146820414, -0.000665513333, 0.00959332753, -0.009528997, 2.141079E-05, 919.816     , 31.5953522  , 808.6923    , 2.29        , 3           , 255         , 0           , 0
-0.0949473  , -0.0897077  , -9.79247    , 8.14127561E-05, -0.00022822342, -0.000353572657, 0.009594175 , -0.009531244, 1.78532609E-05, 919.816     , 31.5953522  , 808.6927    , 2.3         , 3           , 255         , 0           , 0
-0.094051674, -0.106434867, -9.801518   , -0.000196234789, -1.07328815E-05, -0.000255301, 0.009580344 , -0.009539041, 1.541273E-05, 919.816     , 31.5953522  , 808.6924    , 2.31        , 3           , 255         , 0           , 0
-0.08988688 , -0.09037583 , -9.790755   , -0.0001487459, 0.000216019936, -0.0004712578, 0.0095789   , -0.009536835, 1.07209644E-05, 919.816     , 31.5953522  , 808.692749  , 2.32        , 3           , 255         , 0           , 0
-0.08616627 , -0.0952431262, -9.790365   , -0.0002163793, 0.000179372335, 0.000181136682, 0.009576721 , -0.009535058, 1.25494662E-05, 919.8042    , 31.592638   , 808.6931    , 2.33        , 3           , 255         , 0           , 0
-0.101932123, -0.09544055 , -9.791758   , -0.000188081933, 2.93390331E-05, -3.97807453E-05, 0.0095748445, -0.009534763, 1.21544772E-05, 919.8042    , 31.592638   , 808.6935    , 2.34        , 3           , 255         , 0           , 0
-0.106052183, -0.0940775052, -9.796446   , -0.000756577763, 0.000418524985, 4.48607352E-06, 0.009567278 , -0.009530579, 1.22393958E-05, 919.8042    , 31.592638   , 808.693848  , 2.35        , 3           , 255         , 0           , 0
-0.0950102657, -0.09642771 , -9.796552   , -0.0007184536, 0.000148175983, -6.955354E-05, 0.009560101 , -0.00952909 , 1.15580488E-05, 919.8042    , 31.592638   , 808.6942    , 2.36        , 3           , 255         , 0           , 0
-0.09643881 , -0.09157927 , -9.787082   , 0.000100978388, 0.0005686744, 0.000606233254, 0.009561052 , -0.009523461, 1.767459E-05, 919.8042    , 31.592638   , 808.6946    , 2.37        , 3           , 255         , 0           , 0
-0.09672857 , -0.08443518 , -9.790279   , 6.03391381E-05, 0.000114462091, 0.0004618645, 0.00956161  , -0.009522361, 2.23040624E-05, 919.8042    , 31.592638   , 808.694946  , 2.38        , 3           , 255         , 0           , 0
-0.09649112 , -0.101674095, -9.794962   , -0.000652331451, 0.000231797021, -0.000143930578, 0.009555102 , -0.009520028, 2.08869442E-05, 919.8042    , 31.592638   , 808.6953    , 2.39        , 3           , 255         , 0           , 0
-0.0997625738, -0.102940582, -9.795179   , -0.000504846743, 0.000315356534, -0.000320875755, 0.009550084 , -0.00951684453, 1.770839E-05, 919.8042    , 31.592638   , 808.6957    , 2.4         , 3           , 255         , 0           , 0
-0.0917105  , -0.08969088 , -9.79898    , 0.000284688023, 0.000152911627, -0.0006907961, 0.009557871 , -0.009521858, 1.07687711E-05, 919.8042    , 31.592638   , 808.7104    , 2.41        , 3           , 255         , 0           , 0
-0.100745417, -0.09395309 , -9.800212   , 9.727653E-05, -0.0005412912, 6.134804E-05, 0.009558839 , -0.009527277, 1.13305014E-05, 919.8042    , 31.592638   , 808.7109    , 2.42        , 3           , 255         , 0           , 0
-0.09916309 , -0.08728325 , -9.798101   , -0.0002696619, 0.000211837789, 7.885979E-06, 0.009556144 , -0.009525159, 1.14296045E-05, 919.847351  , 31.59196    , 808.711365  , 2.43        , 3           , 255         , 0           , 0
-0.09352052 , -0.09590842 , -9.795366   , -1.57526811E-05, -0.000180141127, 0.00072464667, 0.009555917 , -0.00952702947, 1.865867E-05, 919.847351  , 31.59196    , 808.711853  , 2.44        , 3           , 255         , 0           , 0
-0.102436341, -0.09322791 , -9.792328   , -0.000269307347, 0.000115465911, 0.000129027 , 0.00955321  , -0.009525888, 1.99599417E-05, 919.847351  , 31.59196    , 808.712341  , 2.45        , 3           , 255         , 0           , 0
-0.102140173, -0.08489992 , -9.783857   , -0.000364340667, -0.0002614651, -0.000381801045, 0.009549604 , -0.009528466, 1.611706E-05, 919.847351  , 31.59196    , 808.7128    , 2.46        , 3           , 255         , 0           , 0
-0.0954422951, -0.08393553 , -9.788684   , 7.30908941E-05, 0.000165239166, -6.865524E-05, 0.009550342 , -0.009526806, 1.5446305E-05, 919.847351  , 31.59196    , 808.7133    , 2.47        , 3           , 255         , 0           , 0
-0.0941914842, -0.0952706  , -9.780925   , -0.000246125855, 0.00022804788, 0.0012013081, 0.009547764 , -0.009524642, 2.748086E-05, 919.847351  , 31.59196    , 808.7138    , 2.48        , 3           , 255         , 0           , 0
-0.0933992043, -0.09143625 , -9.783093   , -0.0001338438, 0.000295484031, 0.000798350666, 0.009546351 , -0.009521762, 3.54923759E-05, 919.847351  , 31.59196    , 808.7143    , 2.49        , 3           , 255         , 0           , 0
-0.10344319 , -0.100100972, -9.794774   , 0.0002869618, 0.000133063179, 0.000680055062, 0.009549154 , -0.009520496, 4.23054626E-05, 919.847351  , 31.59196    , 808.7148    , 2.5         , 3           , 255         , 0           , 0
-0.09560017 , -0.09455584 , -9.794244   , -8.46243347E-05, 6.16145262E-05, 1.22490474E-05, 0.0095432   , -0.009531036, 4.2482523E-05, 919.847351  , 31.59196    , 808.66925   , 2.51        , 3           , 255         , 0           , 0
-0.09413356 , -0.0864357948, -9.801105   , 2.026261E-05, 0.000268751959, -3.22082051E-05, 0.009543407 , -0.009528345, 4.21860932E-05, 919.847351  , 31.59196    , 808.669434  , 2.52        , 3           , 255         , 0           , 0
-0.0845233  , -0.0868386  , -9.808561   , 9.039129E-05, -5.700774E-05, 2.50842277E-07, 0.009544311 , -0.009528915, 4.218316E-05, 919.7765    , 31.5931816  , 808.6696    , 2.53        , 3           , 255         , 0           , 0
-0.0934861749, -0.08531504 , -9.794676   , 0.000193897722, 0.00012664136, 0.0003369967, 0.00954621751, -0.009527682, 4.55651279E-05, 919.7765    , 31.5931816  , 808.6698    , 2.54        , 3           , 255         , 0           , 0
-0.09313801 , -0.09508378 , -9.798394   , 0.0001674718, -0.000128193235, 0.0009850744, 0.009547797 , -0.009529059, 5.54033941E-05, 919.7765    , 31.5931816  , 808.67      , 2.55        , 3           , 255         , 0           , 0
-0.092014   , -0.09572202 , -9.794961   , 2.249697E-05, 0.000352377276, -6.02531436E-05, 0.009548027 , -0.009525529, 5.48345233E-05, 919.7765    , 31.5931816  , 808.670166  , 2.56        , 3           , 255         , 0           , 0
-0.103515923, -0.09406376 , -9.79307    , -2.67393771E-05, 0.000269588345, 0.000191540123, 0.009547741 , -0.009522852, 5.67756142E-05, 919.7765    , 31.5931816  , 808.670349  , 2.57        , 3           , 255         , 0           , 0
-0.0989591  , -0.09733471 , -9.800037   , -8.675124E-05, -1.14207505E-05, 8.53927049E-05, 0.009546868 , -0.009522974, 5.76284256E-05, 919.7765    , 31.5931816  , 808.670532  , 2.58        , 3           , 255         , 0           , 0
-0.100943729, -0.0974491239, -9.790798   , 0.000413623522, -0.000372860057, 0.0002783873, 0.0095509775, -0.009526728, 6.037663E-05, 919.7765    , 31.5931816  , 808.6707    , 2.59        , 3           , 255         , 0           , 0
-0.100990593, -0.09513942 , -9.801849   , -1.37849711E-05, 0.000139733733, 0.0006470136, 0.009550777 , -0.009525392, 6.685994E-05, 919.7765    , 31.5931816  , 808.6709    , 2.6         , 3           , 255         , 0           , 0
-0.09861627 , -0.09568783 , -9.79641151 , -9.02809552E-05, 1.22748315E-05, 0.000323751185, 0.009548579 , -0.009529288, 7.01106E-05 , 919.7765    , 31.5931816  , 808.727356  , 2.61        , 3           , 255         , 0           , 0
-0.08891248 , -0.0875042751, -9.794616   , 0.000540266454, 0.000146209408, 0.000313207 , 0.009553952 , -0.009527856, 7.32565459E-05, 919.7765    , 31.5931816  , 808.7279    , 2.62        , 3           , 255         , 0           , 0
-0.08404811 , -0.08009731 , -9.788092   , 0.0005006394, -4.4192042E-05, -0.000308797462, 0.009558987 , -0.009528269, 7.016443E-05, 919.828735  , 31.5929775  , 808.728455  , 2.63        , 3           , 255         , 0           , 0
-0.09875127 , -0.09501228 , -9.790743   , -2.92281038E-05, -0.000331773859, 0.000245529023, 0.00955867  , -0.00953161 , 7.258794E-05, 919.828735  , 31.5929775  , 808.729     , 2.64        , 3           , 255         , 0           , 0
-0.09440227 , -0.09681012 , -9.791277   , -6.97815E-05, 0.00022937356, 0.000348494563, 0.00955794  , -0.009529349, 7.609473E-05, 919.828735  , 31.5929775  , 808.729553  , 2.65        , 3           , 255         , 0           , 0
-0.0940745  , -0.09423983 , -9.793596   , 2.88321171E-05, 5.681037E-05, 0.000298474566, 0.009558201 , -0.00952881 , 7.908483E-05, 919.828735  , 31.5929775  , 808.7301    , 2.66        , 3           , 255         , 0           , 0
-0.09302901 , -0.0999496  , -9.800262   , 0.000366073247, 7.156229E-05, 0.0006125773, 0.009561802 , -0.009528153, 8.521728E-05, 919.828735  , 31.5929775  , 808.730652  , 2.67        , 3           , 255         , 0           , 0
-0.09849968 , -0.0988879353, -9.794912   , 0.000160673051, -0.00016589876, -9.30212555E-05, 0.009563419 , -0.009529803, 8.42712252E-05, 919.828735  , 31.5929775  , 808.7312    , 2.68        , 3           , 255         , 0           , 0
-0.100675777, -0.0909735039, -9.794074   , 0.000457095855, -0.000140807184, 0.000102845079, 0.009567979 , -0.009531219, 8.528618E-05, 919.828735  , 31.5929775  , 808.73175   , 2.69        , 3           , 255         , 0           , 0
-0.09866375 , -0.09240626 , -9.792484   , -0.000646146, -7.915223E-05, -0.000315759971, 0.009561548 , -0.009531979, 8.21210851E-05, 919.828735  , 31.5929775  , 808.7323    , 2.7         , 3           , 255         , 0           , 0
-0.09217428 , -0.09155016 , -9.798928   , -0.0006654683, 8.587299E-05, -0.00025763482, 0.009553947 , -0.00953456 , 7.956228E-05, 919.828735  , 31.5929775  , 808.709045  , 2.71        , 3           , 255         , 0           , 0
-0.09289685 , -0.09049375 , -9.79779    , -0.000484074117, 0.0005217019, 4.877318E-05, 0.0095491   , -0.00952935 , 8.009983E-05, 919.828735  , 31.5929775  , 808.7095    , 2.72        , 3           , 255         , 0           , 0
-0.0906856  , -0.0978810042, -9.784304   , -9.891053E-05, 0.000152210851, 0.000425764 , 0.009548071 , -0.009527868, 8.437189E-05, 919.8348    , 31.593996   , 808.7099    , 2.73        , 3           , 255         , 0           , 0
-0.0981669053, -0.0929960459, -9.794624   , 0.000122880534, 0.000218447443, 0.000372868642, 0.009549264 , -0.009525719, 8.812134E-05, 919.8348    , 31.593996   , 808.7103    , 2.74        , 3           , 255         , 0           , 0
-0.1021383  , -0.09819176 , -9.800459   , -0.000201892981, -0.000182451447, 3.209627E-05, 0.009547242 , -0.009527546, 8.84248657E-05, 919.8348    , 31.593996   , 808.710754  , 2.75        , 3           , 255         , 0           , 0
-0.10070207 , -0.101056114, -9.798944   , -1.14213326E-05, 0.00021752248, 0.000204365671, 0.009547108 , -0.009525391, 9.048924E-05, 919.8348    , 31.593996   , 808.7112    , 2.76        , 3           , 255         , 0           , 0
-0.09732907 , -0.09364936 , -9.801706   , -0.000396496849, 8.636023E-06, 0.000443546451, 0.0095431   , -0.009525347, 9.492541E-05, 919.8348    , 31.593996   , 808.7116    , 2.77        , 3           , 255         , 0           , 0
-0.09631738 , -0.09759436 , -9.79917049 , -0.000169412233, 4.64858022E-05, 0.000154043955, 0.009541391 , -0.009524897, 9.64702558E-05, 919.8348    , 31.593996   , 808.712036  , 2.78        , 3           , 255         , 0           , 0
-0.08971265 , -0.1008239  , -9.789755   , 0.000523851835, -0.000116862793, 3.60332051E-05, 0.009546626 , -0.009526069, 9.68194145E-05, 919.8348    , 31.593996   , 808.712463  , 2.79        , 3           , 255         , 0           , 0
-0.09625385 , -0.0955757052, -9.795675   , 0.000522939838, -7.40070245E-05, 0.0001496727, 0.009551842 , -0.009526824, 9.830904E-05, 919.8348    , 31.593996   , 808.7129    , 2.8         , 3           , 255         , 0           , 0
-0.09063846 , -0.08277014 , -9.792707   , -0.00010823441, 4.654267E-05, -0.000277604267, 0.009555137 , -0.009530434, 9.549602E-05, 919.8348    , 31.593996   , 808.683533  , 2.81        , 3           , 255         , 0           , 0
-0.09094817 , -0.08383751 , -9.797874   , 0.000150189648, 0.000194551481, -0.0004569632, 0.009556684 , -0.009528446, 9.09451E-05 , 919.8348    , 31.593996   , 808.6838    , 2.82        , 3           , 255         , 0           , 0
-0.09188888 , -0.086929   , -9.795463   , 0.000526509248, -0.000122577156, 0.000150801716, 0.009561934 , -0.00952968653, 9.244135E-05, 919.7956    , 31.5937233  , 808.684     , 2.83        , 3           , 255         , 0           , 0
-0.100648165, -0.101463243, -9.799763   , 7.202366E-05, -0.000161910226, -9.116347E-05, 0.009562663 , -0.009531298, 9.151427E-05, 919.7956    , 31.5937233  , 808.684265  , 2.84        , 3           , 255         , 0           , 0
-0.09762503 , -0.09847923 , -9.794432   , -0.000216665678, -0.0002881813, -0.000268379168, 0.009560521 , -0.009534153, 8.88029754E-05, 919.7956    , 31.5937233  , 808.6845    , 2.85        , 3           , 255         , 0           , 0
-0.09307476 , -0.1026896  , -9.796681   , -0.000302598637, 1.24269282E-05, -0.00028620084, 0.009557524 , -0.009534001, 8.59422144E-05, 919.7956    , 31.5937233  , 808.684753  , 2.86        , 3           , 255         , 0           , 0
-0.0945146158, -0.0948425457, -9.79879951 , 0.0007211766, 0.000161854914, 9.869381E-05, 0.009564726 , -0.009532392, 8.694461E-05, 919.7956    , 31.5937233  , 808.685     , 2.87        , 3           , 255         , 0           , 0
-0.09651157 , -0.100520514, -9.795516   , 5.11790277E-05, -0.000212965388, 0.0002496334, 0.009565214 , -0.009534542, 8.942049E-05, 919.7956    , 31.5937233  , 808.685242  , 2.88        , 3           , 255         , 0           , 0
-0.0952754244, -0.09335534 , -9.790487   , -0.000371912378, -0.000187756377, 0.000130073211, 0.009561481 , -0.009536433, 9.07032445E-05, 919.7956    , 31.5937233  , 808.6855    , 2.89        , 3           , 255         , 0           , 0
-0.08832969 , -0.0968739837, -9.793579   , -0.0006523756, -2.23114621E-05, -0.0002179143, 0.00955498  , -0.009536634, 8.85220361E-05, 919.7956    , 31.5937233  , 808.6857    , 2.9         , 3           , 255         , 0           , 0
-0.09361647 , -0.103210643, -9.805378   , -0.000422363344, 0.000142517645, -0.000485653058, 0.009551738 , -0.009536177, 8.36703E-05 , 919.7956    , 31.5937233  , 808.7149    , 2.91        , 3           , 255         , 0           , 0
-0.09943293 , -0.0947606042, -9.795757   , 0.000248537923, 0.0005453431, 0.000197896166, 0.009554205 , -0.009530745, 8.570131E-05, 919.7956    , 31.5937233  , 808.715332  , 2.92        , 3           , 255         , 0           , 0
-0.100445531, -0.09896911 , -9.79255    , -0.000237817178, 0.00036283143, 9.580958E-05, 0.009551818 , -0.009527124, 8.669403E-05, 919.7976    , 31.595623   , 808.715759  , 2.93        , 3           , 255         , 0           , 0
-0.102365628, -0.09093673 , -9.785875   , -5.63219655E-05, 0.000121641293, 0.0003003765, 0.009551225 , -0.009525936, 8.97093341E-05, 919.7976    , 31.595623   , 808.716248  , 2.94        , 3           , 255         , 0           , 0
-0.09852832 , -0.08184097 , -9.79603    , -0.0003057014, 0.0005235132, -1.29089913E-05, 0.009548171 , -0.009520698, 8.96302445E-05, 919.7976    , 31.595623   , 808.716736  , 2.95        , 3           , 255         , 0           , 0
-0.09849968 , -0.08618144 , -9.800239   , -0.0004138337, 0.000245095871, -0.00034094046, 0.009544065 , -0.009518215, 8.624433E-05, 919.7976    , 31.595623   , 808.7172    , 2.96        , 3           , 255         , 0           , 0
-0.09957129 , -0.09269377 , -9.80627    , -0.000221549708, -7.817565E-05, 0.000168057377, 0.009541833 , -0.009519015, 8.79174E-05 , 919.7976    , 31.595623   , 808.7177    , 2.97        , 3           , 255         , 0           , 0
-0.096583806, -0.09561972 , -9.80134    , 0.00013725835, -0.0004962261, 0.0005620212, 0.009543152 , -0.009524031, 9.349012E-05, 919.7976    , 31.595623   , 808.7182    , 2.98        , 3           , 255         , 0           , 0
-0.102169909, -0.0980293751, -9.798174   , -0.00030283822, -0.000289944583, -0.000212654428, 0.00954014249, -0.009526909, 9.13359763E-05, 919.7976    , 31.595623   , 808.7187    , 2.99        , 3           , 255         , 0           , 0
-0.101334   , -0.08994303 , -9.789462   , 0.0002930773, -0.000101026089, -0.000206720491, 0.009543094 , -0.009527899, 8.925918E-05, 919.7976    , 31.595623   , 808.7192    , 3           , 3           , 0           , 8.937237    , 300
-0.0924316645, -0.09446998 , -9.798282   , 0.000170819752, 0.000168227984, -0.0004318257, 0.009544288 , -0.009535867, 8.49623757E-05, 919.7976    , 31.595623   , 808.740967  , 3.01        , 3           , 1           , 0           , 0
-0.0924786  , -0.101445317, -9.795919   , 0.000232099177, 0.000330799143, -7.923907E-05, 0.009546616 , -0.009532551, 8.420157E-05, 919.7976    , 31.595623   , 808.7416    , 3.02        , 3           , 2           , 0           , 0
-0.0948282257, -0.08897344 , -9.796816   , 0.000284911715, 2.6611553E-05, 0.00124799856, 0.009549345 , -0.009532405, 9.668379E-05, 919.793     , 31.5975227  , 808.7422    , 3.03        , 3           , 3           , 0           , 0
-0.0942398757, -0.0853229761, -9.791273   , 0.0004990139, 7.141009E-05, 0.0004660336, 0.009554289 , -0.009531734, 0.00010135083, 919.793     , 31.5975227  , 808.7428    , 3.04        , 3           , 4           , 0           , 0
-0.09015511 , -0.0887315348, -9.7861805  , -8.555758E-05, 0.000322638254, 0.000158854484, 0.00955341849, -0.009528523, 0.000102970174, 919.793     , 31.5975227  , 808.7434    , 3.05        , 3           , 5           , 0           , 0
-0.09672507 , -0.08373214 , -9.788736   , -0.00021947932, -0.000305418071, 1.03523544E-05, 0.009551222 , -0.009531578, 0.00010304452, 919.793     , 31.5975227  , 808.744     , 3.06        , 3           , 6           , 0           , 0
-0.105368808, -0.08907236 , -9.789822   , 0.000282194349, -0.000216525223, -0.000354953663, 0.009554078 , -0.00953371 , 9.947438E-05, 919.793     , 31.5975227  , 808.7446    , 3.07        , 3           , 7           , 0           , 0
-0.09350527 , -0.08658068 , -9.802629   , 0.000299912732, -0.000199485483, -0.000310454838, 0.009557107 , -0.009535675, 9.635086E-05, 919.793     , 31.5975227  , 808.745239  , 3.08        , 3           , 8           , 5           , 5
-0.09955456 , -0.0969816744, -9.80024    , -3.68435867E-05, 0.000108487788, 0.000104757615, 0.009556728 , -0.009534601, 9.740877E-05, 919.793     , 31.5975227  , 808.74585   , 3.09        , 3           , 9           , 5           , 0.1
-0.103617787, -0.097806856, -9.789807   , -0.0004592691, 0.000302860048, 5.20874019E-05, 0.00955213048, -0.009531577, 9.795858E-05, 919.793     , 31.5975227  , 808.74646   , 3.1         , 3           , 10          , 0.1         , 0.1
-0.09770137 , -0.0902252644, -9.786276   , 0.0003241779, -9.95622249E-05, 0.0004971282, 0.009550918 , -0.009538371, 0.000102962273, 919.793     , 31.5975227  , 808.7707    , 3.11        , 3           , 11          , 0.00760470564, 0.00760470424
-0.08990917 , -0.09461161 , -9.800519   , 0.0005312228, 0.000201847346, -1.20057484E-06, 0.009556231 , -0.009536353, 0.000102969549, 919.793     , 31.5975227  , 808.7715    , 3.12        , 3           , 12          , 0.174645633 , 0
-0.0998450145, -0.09576162 , -9.797207   , -0.000597210659, 0.000573663856, -0.000331694668, 0.009550291 , -0.009530585, 9.970748E-05, 919.838135  , 31.5948772  , 808.7723    , 3.13        , 3           , 13          , 0           , 0
-0.102380715, -0.08732428 , -9.806417   , 9.81102639E-05, -2.898206E-05, 4.41851E-05 , 0.009551267 , -0.009530879, 0.00010014655, 919.838135  , 31.5948772  , 808.7731    , 3.14        , 3           , 14          , -0.000548457436, -0.000244645635
-0.09001987 , -0.09117244 , -9.792058   , 0.000283389061, -0.00015681173, 0.000142259581, 0.009554087 , -0.00953246 , 0.000101554135, 919.838135  , 31.5948772  , 808.773865  , 3.15        , 3           , 15          , 0           , 1.65996444E-05
-0.08570032 , -0.0987715051, -9.782942   , -0.000213129737, 5.440964E-05, 5.04496638E-05, 0.009551952 , -0.009531921, 0.000102063823, 919.838135  , 31.5948772  , 808.774658  , 3.16        , 3           , 16          , 0           , 1.401298E-45
-0.0933940858, -0.08139117 , -9.786807   , -0.0002197572, -0.000162206648, -6.214735E-05, 0.00954976  , -0.009533536, 0.000101426878, 919.838135  , 31.5948772  , 808.775452  , 3.17        , 3           , 20          , 0           , 0
-0.09533135 , -0.09069824 , -9.790092   , -0.000152703375, 0.000233197978, -0.000167901584, 0.009548249 , -0.009531189, 9.97701864E-05, 919.838135  , 31.5948772  , 808.776245  , 3.18        , 3           , 21          , 0           , 0
-0.09514163 , -0.09804068 , -9.789811   , 0.000262115325, 0.000155565242, -0.000314232, 0.009550899 , -0.009529604, 9.66428E-05 , 919.838135  , 31.5948772  , 808.777039  , 3.19        , 3           , 22          , 0           , 0
-0.101569578, -0.0984794945, -9.796019   , 8.997193E-05, 0.000521387963, -0.000509927166, 0.009551847 , -0.009524342, 9.159346E-05, 919.838135  , 31.5948772  , 808.777832  , 3.2         , 3           , 40          , 0           , 0
-0.1024434  , -0.09543294 , -9.795566   , -0.000410295615, -5.05175558E-05, -0.000852397468, 0.009545946 , -0.00952839851, 8.30827848E-05, 919.838135  , 31.5948772  , 808.733948  , 3.21        , 3           , 41          , 0           , 0
-0.09781622 , -0.100848019, -9.781931   , 0.000156150723, 0.000299831823, -0.000856258848, 0.00954758748, -0.009525319, 7.45490252E-05, 919.838135  , 31.5948772  , 808.734436  , 3.22        , 3           , 42          , 0           , 0
-0.08807209 , -0.0907930657, -9.786059   , 2.832705E-05, -0.000195817935, -0.000418486423, 0.009547912 , -0.009527237, 7.034559E-05, 919.821167  , 31.596777   , 808.7349    , 3.23        , 3           , 255         , 0           , 0
-0.09007875 , -0.09618656 , -9.794187   , -0.00015091087, 0.00019717036, -0.0008618575, 0.009546485 , -0.009525183, 6.174605E-05, 919.821167  , 31.596777   , 808.7354    , 3.24        , 3           , 255         , 0           , 0
-0.08996029 , -0.0972355  , -9.799093   , 0.0002995031, -2.32499733E-05, 0.000277619052, 0.009549453 , -0.0095254425, 6.451994E-05, 919.821167  , 31.596777   , 808.7359    , 3.25        , 3           , 255         , 0           , 0
-0.09010532 , -0.09574978 , -9.789819   , 0.0006336737, 0.000210849161, 0.000115812189, 0.00955577847, -0.009523345, 6.569817E-05, 919.821167  , 31.596777   , 808.7364    , 3.26        , 3           , 255         , 0           , 0
-0.09429223 , -0.0937243551, -9.791346   , -0.000367368, -0.000179411058, 0.000316294027, 0.00955207553, -0.00952517 , 6.884389E-05, 919.821167  , 31.596777   , 808.7369    , 3.27        , 3           , 255         , 0           , 0
-0.09839922 , -0.09192921 , -9.798188   , 0.000321591971, -0.000131052133, -0.000302811328, 0.00955532  , -0.009526452, 6.580334E-05, 919.821167  , 31.596777   , 808.737366  , 3.28        , 3           , 255         , 0           , 0
-0.0983175337, -0.0992933363, -9.79649448 , 4.85781347E-05, -2.53582548E-05, -0.000268463, 0.00955583248, -0.009526679, 6.311634E-05, 919.821167  , 31.596777   , 808.7379    , 3.29        , 3           , 255         , 0           , 0
-0.09549521 , -0.101292253, -9.790541   , 0.000364170584, -0.000637636753, -0.000289203424, 0.009559501 , -0.009533028, 6.0163442E-05, 919.821167  , 31.596777   , 808.738464  , 3.3         , 3           , 255         , 0           , 0
-0.101285435, -0.09461908 , -9.793188   , 0.0006152731, -0.000329713337, 0.000145856975, 0.009571431 , -0.009538902, 6.15352E-05 , 919.821167  , 31.596777   , 808.723755  , 3.31        , 3           , 255         , 0           , 0
-0.109381258, -0.09329603 , -9.789523   , 0.000624441542, -0.000117954158, 0.0005682252, 0.009577624 , -0.009540136, 6.720601E-05, 919.821167  , 31.596777   , 808.7242    , 3.32        , 3           , 255         , 0           , 0
-0.105361678, -0.089322634, -9.794505   , -0.0005179481, 0.0003393883, 0.000778314832, 0.009572368 , -0.009536818, 7.502146E-05, 919.8373    , 31.597456   , 808.7246    , 3.33        , 3           , 255         , 0           , 0
-0.101276182, -0.0865099058, -9.795568   , -3.35973455E-05, 0.00024436  , 0.00025711552, 0.009572007 , -0.009534397, 7.76159359E-05, 919.8373    , 31.597456   , 808.725037  , 3.34        , 3           , 255         , 0           , 0
-0.0956608057, -0.087156646, -9.794933   , 0.000401542522, 0.000180669755, 2.176381E-05, 0.009576021 , -0.009532593, 7.785086E-05, 919.8373    , 31.597456   , 808.725464  , 3.35        , 3           , 255         , 0           , 0
-0.09340492 , -0.09197532 , -9.800561   , 0.000620437844, 3.36349767E-05, 0.000174246161, 0.00958220847, -0.009532274, 7.95964952E-05, 919.8373    , 31.597456   , 808.7259    , 3.36        , 3           , 255         , 0           , 0
-0.103432477, -0.09719561 , -9.797462   , 0.000211556762, 0.0001554469, -0.000346383749, 0.009584357 , -0.009530687, 7.614765E-05, 919.8373    , 31.597456   , 808.7263    , 3.37        , 3           , 255         , 0           , 0
-0.09276905 , -0.09511562 , -9.792003   , 0.000478764763, 0.000727439648, -0.0002121268, 0.009589164 , -0.00952339452, 7.409617E-05, 919.8373    , 31.597456   , 808.726746  , 3.38        , 3           , 255         , 0           , 0
-0.09386387 , -0.08497326 , -9.78949    , -3.73725779E-05, -0.000104580278, -0.000384963554, 0.009588826 , -0.009524403, 7.023661E-05, 919.8373    , 31.597456   , 808.7272    , 3.39        , 3           , 255         , 0           , 0
-0.0901914  , -0.0798348337, -9.791811   , -5.16902073E-05, -0.000176382833, -0.000255588646, 0.009588335 , -0.009526142, 6.76638738E-05, 919.8373    , 31.597456   , 808.7276    , 3.4         , 3           , 255         , 0           , 0
-0.09574556 , -0.09056401 , -9.792209   , 0.000284721027, 0.000143709767, 0.0005090763, 0.009584152 , -0.009534531, 7.283484E-05, 919.8373    , 31.597456   , 808.691467  , 3.41        , 3           , 255         , 0           , 0
-0.09103994 , -0.0912868  , -9.79116249 , 0.000827266 , 0.000425325183, -0.0001424771, 0.009592438 , -0.009530264, 7.1450886E-05, 919.8373    , 31.597456   , 808.6917    , 3.42        , 3           , 255         , 0           , 0
-0.102308735, -0.08828321 , -9.792485   , 0.000298803323, -0.000183993019, 0.000436189 , 0.009595385 , -0.009532146, 7.579502E-05, 919.799     , 31.5954876  , 808.691956  , 3.43        , 3           , 255         , 0           , 0
-0.09762661 , -0.0943504348, -9.786824   , 0.00022295551, -0.000579762156, -0.0006233742, 0.009597674 , -0.009537884, 6.95058E-05 , 919.799     , 31.5954876  , 808.6922    , 3.44        , 3           , 255         , 0           , 0
-0.09777605 , -0.09791739 , -9.787742   , 0.000946255168, 4.552875E-05, -0.000306287577, 0.009607165 , -0.009537397, 6.644738E-05, 919.799     , 31.5954876  , 808.692444  , 3.45        , 3           , 255         , 0           , 0
-0.09864685 , -0.09504323 , -9.793623   , 0.000118755794, 0.0003259463, 0.000396969146, 0.009608315 , -0.009534176, 7.044827E-05, 919.799     , 31.5954876  , 808.6927    , 3.46        , 3           , 255         , 0           , 0
-0.108828947, -0.09633556 , -9.784681   , 0.000222756964, -4.22923476E-05, 0.000581025553, 0.009610486 , -0.009534655, 7.625431E-05, 919.799     , 31.5954876  , 808.692932  , 3.47        , 3           , 255         , 0           , 0
-0.113709211, -0.09242932 , -9.788155   , -0.000225026452, -9.436664E-05, 0.000433323235, 0.009608196 , -0.00953564048, 8.057837E-05, 919.799     , 31.5954876  , 808.6932    , 3.48        , 3           , 255         , 0           , 0
-0.103301309, -0.08637996 , -9.787629   , -6.29876158E-05, 0.000219985261, 2.05506167E-05, 0.009607565 , -0.009533443, 8.08049954E-05, 919.799     , 31.5954876  , 808.6934    , 3.49        , 3           , 255         , 0           , 0
-0.08719188 , -0.08615537 , -9.790121   , 6.41100341E-05, 2.68434087E-05, 0.000319495564, 0.009608176 , -0.009533205, 8.400245E-05, 919.799     , 31.5954876  , 808.693665  , 3.5         , 3           , 255         , 0           , 0
-0.08911323 , -0.08999745 , -9.793544   , 9.990236E-05, 0.000336634053, 0.000152222361, 0.0096036   , -0.009546066, 8.561006E-05, 919.799     , 31.5954876  , 808.717     , 3.51        , 3           , 255         , 0           , 0
-0.0940809  , -0.09386271 , -9.796122   , 8.563456E-05, 0.000160357187, -0.0004229516, 0.009604497 , -0.009544421, 8.139605E-05, 919.799     , 31.5954876  , 808.717346  , 3.52        , 3           , 255         , 0           , 0
-0.0867373347, -0.100267433, -9.796674   , 0.000123590085, -0.000196660432, -0.000114082577, 0.009605744 , -0.009546377, 8.023636E-05, 919.8173    , 31.5969124  , 808.7177    , 3.53        , 3           , 255         , 0           , 0
-0.08320509 , -0.0947488  , -9.803026   , 0.000493187748, -1.56520982E-05, 0.00025926024, 0.00961065  , -0.009546558, 8.28274E-05 , 919.8173    , 31.5969124  , 808.7181    , 3.54        , 3           , 255         , 0           , 0
-0.08953329 , -0.09212244 , -9.79089    , 1.40858465E-05, -0.000184925389, -0.000460037234, 0.009610835 , -0.009548363, 7.82093557E-05, 919.8173    , 31.5969124  , 808.718445  , 3.55        , 3           , 255         , 0           , 0
-0.09659507 , -0.100268587, -9.791651   , -0.000301094784, 0.0002853374, -0.0007731962, 0.009607899 , -0.009545435, 7.050502E-05, 919.8173    , 31.5969124  , 808.7188    , 3.56        , 3           , 255         , 0           , 0
-0.10260272 , -0.08800772 , -9.791053   , -0.000180324772, 6.503271E-05, -0.000661655038, 0.009606159 , -0.009544722, 6.38948841E-05, 919.8173    , 31.5969124  , 808.7192    , 3.57        , 3           , 255         , 0           , 0
-0.0951295  , -0.08961814 , -9.790964   , 0.00029767293, -0.000221525814, -1.0058704E-05, 0.009609136 , -0.00954693649, 6.377302E-05, 919.8173    , 31.5969124  , 808.719543  , 3.58        , 3           , 255         , 0           , 0
-0.09968599 , -0.08870717 , -9.784281   , -8.18338E-05, -0.000383721985, 0.0005863636, 0.009608263 , -0.009550829, 6.9599635E-05, 919.8173    , 31.5969124  , 808.7199    , 3.59        , 3           , 255         , 0           , 0
-0.105338559, -0.0847557  , -9.791876   , 6.993045E-05, 0.000166608967, 0.000340681843, 0.009608928 , -0.009549196, 7.302237E-05, 919.8173    , 31.5969124  , 808.7203    , 3.6         , 3           , 255         , 0           , 0
-0.104055479, -0.0917252451, -9.800403   , -0.000391569338, 9.358584E-06, -0.00013911842, 0.009601457 , -0.009550404, 7.16662253E-05, 919.8173    , 31.5969124  , 808.7139    , 3.61        , 3           , 255         , 0           , 0
-0.111709654, -0.09145703 , -9.79873    , 5.832396E-05, 0.000226057149, 0.000182046468, 0.009602022 , -0.00954816 , 7.350835E-05, 919.8173    , 31.5969124  , 808.7143    , 3.62        , 3           , 255         , 0           , 0
-0.09669031 , -0.0963487849, -9.799428   , 0.000498765847, 0.000372744 , -0.0002364354, 0.009607032 , -0.009544412, 7.117985E-05, 919.8088    , 31.5950127  , 808.714661  , 3.63        , 3           , 255         , 0           , 0
-0.09825672 , -0.09758563 , -9.786624   , 0.00053436833, -2.20662914E-05, -0.0006396727, 0.009612436 , -0.009544571, 6.478116E-05, 919.8088    , 31.5950127  , 808.715     , 3.64        , 3           , 255         , 0           , 0
-0.09021546 , -0.09499185 , -9.796655   , 6.581162E-05, -0.000131260575, 0.000283063884, 0.009613067 , -0.009545911, 6.759911E-05, 919.8088    , 31.5950127  , 808.7154    , 3.65        , 3           , 255         , 0           , 0
-0.09484086 , -0.08849807 , -9.80185    , -4.93951957E-05, 0.00048771326, 0.000366247143, 0.009612539 , -0.009541068, 7.130836E-05, 919.8088    , 31.5950127  , 808.715759  , 3.66        , 3           , 255         , 0           , 0
-0.08387444 , -0.09336914 , -9.787804   , 0.00015305393, -1.68929982E-05, 0.000441753218, 0.009614027 , -0.00954128 , 7.572417E-05, 919.8088    , 31.5950127  , 808.7161    , 3.67        , 3           , 255         , 0           , 0
-0.08423667 , -0.09103911 , -9.791067   , -7.58529641E-05, 8.952789E-06, -0.000216179033, 0.0096132895, -0.009541169, 7.35632857E-05, 919.8088    , 31.5950127  , 808.7165    , 3.68        , 3           , 255         , 0           , 0
-0.08358426 , -0.09583129 , -9.783628   , 1.96353067E-05, 0.0003276029, 0.000463838544, 0.009613441 , -0.009537937, 7.82330462E-05, 919.8088    , 31.5950127  , 808.716858  , 3.69        , 3           , 255         , 0           , 0
-0.09449135 , -0.09733377 , -9.789811   , 0.000439719239, 0.0003204667, 9.03484543E-05, 0.009617829 , -0.009534743, 7.916732E-05, 919.8088    , 31.5950127  , 808.7172    , 3.7         , 3           , 255         , 0           , 0
-0.103236355, -0.09107268 , -9.792247   , -0.000187992526, -0.000261783833, -3.18075327E-05, 0.009615367 , -0.009538613, 7.882967E-05, 919.8088    , 31.5950127  , 808.72345   , 3.71        , 3           , 255         , 0           , 0
-0.09682156 , -0.08679753 , -9.798237   , -0.000124841987, -2.21863447E-05, 0.00061480474, 0.009614061 , -0.009538894, 8.497544E-05, 919.8088    , 31.5950127  , 808.7239    , 3.72        , 3           , 255         , 0           , 0
-0.09185622 , -0.08545722 , -9.797039   , -0.000454667723, 0.000161057251, 0.0004894103, 0.00960946549, -0.00953733 , 8.98848957E-05, 919.7951    , 31.595623   , 808.7243    , 3.73        , 3           , 255         , 0           , 0
-0.100340322, -0.082854256, -9.792311   , -0.0004633027, -0.0001744841, 0.0002537476, 0.00960481  , -0.009539099, 9.240555E-05, 919.7951    , 31.595623   , 808.724731  , 3.74        , 3           , 255         , 0           , 0
-0.09825245 , -0.0899924561, -9.791105   , -7.5691205E-05, -0.000189877552, 0.0007446197, 0.009603982 , -0.009541069, 9.983333E-05, 919.7951    , 31.595623   , 808.725159  , 3.75        , 3           , 255         , 0           , 0
-0.103566393, -0.08689885 , -9.797216   , 0.000237921282, -0.00012085386, 7.73399952E-05, 0.009606354 , -0.009542285, 0.000100595091, 919.7951    , 31.595623   , 808.7256    , 3.76        , 3           , 255         , 0           , 0
-0.08899941 , -0.08914461 , -9.792464   , 3.342511E-05, -8.098723E-05, 0.000727017468, 0.009606619 , -0.0095431665, 0.000107857304, 919.7951    , 31.595623   , 808.726     , 3.77        , 3           , 255         , 0           , 0
-0.08175613 , -0.100615583, -9.796873   , -0.0003930556, -0.000376734126, -0.000108970286, 0.009602699 , -0.00954692252, 0.000106731422, 919.7951    , 31.595623   , 808.72644   , 3.78        , 3           , 255         , 0           , 0
-0.0881563  , -0.09262671 , -9.7979     , -0.0001947683, 2.68816948E-05, 0.0006049653, 0.009600694 , -0.009546712, 0.000112783513, 919.7951    , 31.595623   , 808.726868  , 3.79        , 3           , 255         , 0           , 0
-0.0973412544, -0.09501127 , -9.79935    , 0.000297129242, -3.42438E-05, 5.6261717E-05, 0.00960366  , -0.00954706 , 0.000113342816, 919.7951    , 31.595623   , 808.7273    , 3.8         , 3           , 255         , 0           , 0
-0.08499679 , -0.0989754051, -9.791639   , 0.0003417146, -0.0002943543, -0.000233274055, 0.009600825 , -0.0095524285, 0.000111041794, 919.7951    , 31.595623   , 808.7512    , 3.81        , 3           , 255         , 0           , 0
-0.08653231 , -0.09309562 , -9.79521    , 0.000270089164, -0.000152123423, 0.00120630045, 0.00960341  , -0.009554066, 0.000123089863, 919.7951    , 31.595623   , 808.7518    , 3.82        , 3           , 255         , 0           , 0
-0.08672852 , -0.0939601958, -9.79954052 , 9.47499357E-05, -3.63467261E-05, 0.0003861715, 0.009604321 , -0.009554465, 0.000126947984, 919.8008    , 31.5964375  , 808.7523    , 3.83        , 3           , 255         , 0           , 0
-0.08781694 , -0.0953458548, -9.803963   , -0.0003896383, -0.000107312488, -0.0003131326, 0.009600453 , -0.009555508, 0.000123806429, 919.8008    , 31.5964375  , 808.752869  , 3.84        , 3           , 255         , 0           , 0
-0.101314165, -0.09252934 , -9.796937   , -0.000385737, -0.00014342193, -0.000638168538, 0.009596657 , -0.00955688 , 0.00011741116, 919.8008    , 31.5964375  , 808.7534    , 3.85        , 3           , 255         , 0           , 0
-0.101674221, -0.08631526 , -9.791126   , 0.000110777764, -0.000295205362, 0.000166938567, 0.00959774852, -0.009559847, 0.000119052165, 919.8008    , 31.5964375  , 808.753967  , 3.86        , 3           , 255         , 0           , 0
-0.09938755 , -0.08308304 , -9.797945   , -2.15323525E-05, -0.000534211635, -0.000428064959, 0.009597574 , -0.009565149, 0.000114720366, 919.8008    , 31.5964375  , 808.7545    , 3.87        , 3           , 255         , 0           , 0
-0.09809309 , -0.0831318349, -9.800661   , -6.479403E-05, -5.69090771E-05, -1.77270413E-05, 0.009596928 , -0.009565717, 0.000114537637, 919.8008    , 31.5964375  , 808.755066  , 3.88        , 3           , 255         , 0           , 0
-0.09631898 , -0.08867431 , -9.798279   , 0.00010687756, 7.739279E-05, 0.0005630964, 0.009597942 , -0.009564997, 0.000120175879, 919.8008    , 31.5964375  , 808.7557    , 3.89        , 3           , 255         , 0           , 0
-0.0947908  , -0.08967968 , -9.796837   , -2.94517376E-05, 0.00020476272, 8.140524E-05, 0.00959764048, -0.009562957, 0.000121009565, 919.8008    , 31.5964375  , 808.7563    , 3.9         , 3           , 255         , 0           , 0
-0.0812602863, -0.0835344344, -9.796356   , 0.00042520737, -1.32838613E-05, 0.000351275929, 0.009596927 , -0.009563308, 0.0001245681, 919.8008    , 31.5964375  , 808.7681    , 3.91        , 3           , 255         , 0           , 0
-0.0981937051, -0.08626286 , -9.796783   , 0.0004372642, -0.000308968767, -0.0002884362, 0.009601327 , -0.009566371, 0.000121654157, 919.8008    , 31.5964375  , 808.7688    , 3.92        , 3           , 255         , 0           , 0
-0.0930068344, -0.09131272 , -9.797308   , 0.000182768679, 5.49777324E-05, -7.412804E-05, 0.009603161 , -0.009565814, 0.000120918179, 919.7889    , 31.5953522  , 808.7695    , 3.93        , 3           , 255         , 0           , 0
-0.09118177 , -0.09419401 , -9.796409   , -8.9946785E-05, 0.000274940743, 0.000103194376, 0.009602251 , -0.009563075, 0.000121976489, 919.7889    , 31.5953522  , 808.770142  , 3.94        , 3           , 255         , 0           , 0
-0.08632509 , -0.0920041353, -9.801434   , -0.000230442558, -0.000119381381, 0.0001920482, 0.009599929 , -0.009564287, 0.000123885446, 919.7889    , 31.5953522  , 808.7708    , 3.95        , 3           , 255         , 0           , 0
-0.09076466 , -0.0945536941, -9.793159   , 1.76146277E-05, -0.000346386747, 1.47473766E-05, 0.009600104 , -0.00956775248, 0.000123999678, 919.7889    , 31.5953522  , 808.7715    , 3.96        , 3           , 255         , 0           , 0
-0.09815498 , -0.0939725  , -9.789961   , 0.00016645444, 0.00025547354, 0.000252807949, 0.009601744 , -0.009565222, 0.00012655223, 919.7889    , 31.5953522  , 808.772156  , 3.97        , 3           , 255         , 0           , 0
-0.09690985 , -0.08620447 , -9.788722   , 4.463177E-05, 0.000168027822, 0.000125214283, 0.009602178 , -0.009563554, 0.000127820487, 919.7889    , 31.5953522  , 808.7728    , 3.98        , 3           , 255         , 0           , 0
-0.09901497 , -0.09112878 , -9.799003   , 0.0009953147, -1.51471468E-05, 0.000328394031, 0.0096121   , -0.009563737, 0.000131102861, 919.7889    , 31.5953522  , 808.7735    , 3.99        , 3           , 255         , 0           , 0
-0.1076267  , -0.09373321 , -9.801699   , 0.0006281453, -8.98844737E-05, 0.000243243237, 0.009618358 , -0.009564659, 0.000133526584, 919.7889    , 31.5953522  , 808.7742    , 4           , 3           , 0           , 9.937237    , 400
-0.110940143, -0.100548588, -9.797301   , 0.000112139678, -0.000285158749, -0.0001984634, 0.009614585 , -0.009568293, 0.0001315616, 919.7889    , 31.5953522  , 808.8001    , 4.01        , 3           , 1           , 0           , 0
-0.0947751254, -0.09116103 , -9.790745   , -6.826414E-05, -5.63001959E-05, -0.000438762363, 0.009613944 , -0.009568813, 0.000127168663, 919.7889    , 31.5953522  , 808.800964  , 4.02        , 3           , 2           , 0           , 0
-0.08704242 , -0.09306526 , -9.78348351 , 0.000207770121, 9.578909E-05, -0.00108778186, 0.009616126 , -0.009567751, 0.000116300325, 919.816833  , 31.5962334  , 808.8018    , 4.03        , 3           , 3           , 0           , 0
-0.0939024538, -0.08835632 , -9.798174   , -2.05272227E-05, -0.000175824971, -0.000160167663, 0.009615936 , -0.009569493, 0.000114681774, 919.816833  , 31.5962334  , 808.8027    , 4.04        , 3           , 4           , 0           , 0
-0.08743257 , -0.08068031 , -9.803842   , 0.000200373819, -8.249283E-05, 0.000374307536, 0.009617903 , -0.009570354, 0.000118416814, 919.816833  , 31.5962334  , 808.8035    , 4.05        , 3           , 5           , 0           , 0
-0.07985513 , -0.0869083  , -9.79999    , 0.0003616023, 6.702337E-05, 7.208261E-05, 0.009621511 , -0.009569691, 0.000119144082, 919.816833  , 31.5962334  , 808.8044    , 4.06        , 3           , 6           , 0           , 0
-0.09024755 , -0.100514673, -9.795552   , 0.000393152819, 0.000652414863, -0.00057047006, 0.009625496 , -0.009563113, 0.000113502305, 919.816833  , 31.5962334  , 808.805237  , 4.07        , 3           , 7           , 0           , 0
-0.1022408  , -0.09602313 , -9.788897   , 0.0004297   , 0.000279473141, -0.000358234625, 0.009629827 , -0.009560283, 0.000109946945, 919.816833  , 31.5962334  , 808.8061    , 4.08        , 3           , 8           , 5           , 5
-0.0981367454, -0.100624   , -9.791258   , 0.0003562919, -8.603762E-05, -0.00020443133, 0.009633409 , -0.009561124, 0.000107894411, 919.816833  , 31.5962334  , 808.806946  , 4.09        , 3           , 9           , 5           , 0.1
-0.09169112 , -0.09180714 , -9.791497   , 0.000278772757, 0.000244245573, 9.515161E-05, 0.009636187 , -0.009558691, 0.000108869433, 919.816833  , 31.5962334  , 808.8078    , 4.1         , 3           , 10          , 0.1         , 0.1
-0.0984927  , -0.08663337 , -9.797489   , 0.00030734326, 0.0004984274, -0.0001605828, 0.009637273 , -0.009553513, 0.00010733083, 919.816833  , 31.5962334  , 808.789246  , 4.11        , 3           , 11          , 0.0069755814, 0.00697558
-0.09925814 , -0.100083493, -9.801176   , 0.0007417371, 0.00011368774, -0.000292537123, 0.009644718 , -0.009552347, 0.000104416489, 919.816833  , 31.5962334  , 808.79      , 4.12        , 3           , 12          , 0.174648076 , 0
-0.09610139 , -0.09892329 , -9.794733   , 0.000229309429, -8.209492E-05, 0.000210896062, 0.009646989 , -0.009553186, 0.000106517473, 919.7792    , 31.59888    , 808.7907    , 4.13        , 3           , 13          , 0           , 0
-0.08559324 , -0.09516811 , -9.799174   , 0.000440192031, -0.000439448428, -0.000300253625, 0.009651419 , -0.009557552, 0.000103472608, 919.7792    , 31.59888    , 808.791443  , 4.14        , 3           , 14          , -0.0005482668, -0.000244435767
-0.0978726149, -0.0953899845, -9.796301   , 0.000160773023, 5.07412624E-05, -0.000163702221, 0.009653042 , -0.009557029, 0.000101840509, 919.7792    , 31.59888    , 808.7922    , 4.15        , 3           , 15          , 0           , 1.65958172E-05
-0.0949072838, -0.101304367, -9.793329   , 2.49595614E-05, 3.26965237E-05, -1.94359018E-06, 0.009653292 , -0.009556702, 0.00010182424, 919.7792    , 31.59888    , 808.7929    , 4.16        , 3           , 16          , 0           , 1.401298E-45
-0.10181693 , -0.09745288 , -9.798154   , 0.000251173449, -0.000171231426, 0.000481344934, 0.009655758 , -0.009558461, 0.000106621046, 919.7792    , 31.59888    , 808.79364   , 4.17        , 3           , 20          , 0           , 0
-0.0926340446, -0.0966484547, -9.80534649 , 0.00023062565, 0.000265865063, 0.000106348045, 0.009658054 , -0.009555813, 0.000107710177, 919.7792    , 31.59888    , 808.7944    , 4.18        , 3           , 21          , 0           , 0
-0.0981082  , -0.08833481 , -9.792626   , 0.000270192744, 0.000123786973, -0.000301964756, 0.009660783 , -0.009554545, 0.000104702565, 919.7792    , 31.59888    , 808.7951    , 4.19        , 3           , 22          , 0           , 0
-0.0914446563, -0.0897672  , -9.789189   , 9.010313E-05, -0.000127885869, 0.000184661738, 0.009661668 , -0.009555843, 0.000106536776, 919.7792    , 31.59888    , 808.795837  , 4.2         , 3           , 40          , 0           , 0
-0.09432651 , -0.09536197 , -9.790457   , 9.452517E-05, -0.000354853662, -0.0006769268, 0.009663229 , -0.009562031, 9.972811E-05, 919.7792    , 31.59888    , 808.832642  , 4.21        , 3           , 41          , 0           , 0
-0.09274051 , -0.0886792839, -9.794386   , 9.127558E-05, 0.000238396824, -0.000209153688, 0.009664162 , -0.009559628, 9.765966E-05, 919.7792    , 31.59888    , 808.8336    , 4.22        , 3           , 42          , 0           , 0
-0.0917947739, -0.08947545 , -9.795431   , -5.269918E-05, -0.0002685697, -0.000360477279, 0.009663668 , -0.009562279, 9.40290338E-05, 919.8195    , 31.5971832  , 808.8346    , 4.23        , 3           , 255         , 0           , 0
-0.095611766, -0.0956606939, -9.799132   , 0.00091387413, -0.000506106531, 0.00031404302, 0.009672777 , -0.009567369, 9.71204645E-05, 919.8195    , 31.5971832  , 808.8356    , 4.24        , 3           , 255         , 0           , 0
-0.0929157138, -0.0825596452, -9.796529   , 0.0001739848, -0.0006551399, 3.775597E-05, 0.009674514 , -0.009573923, 9.743462E-05, 919.8195    , 31.5971832  , 808.836548  , 4.25        , 3           , 255         , 0           , 0
-0.100026764, -0.0886887461, -9.801837   , 0.00026030888, -0.0001433483, -0.000554554164, 0.009677171 , -0.009575303, 9.187535E-05, 919.8195    , 31.5971832  , 808.8375    , 4.26        , 3           , 255         , 0           , 0
-0.104092523, -0.08583535 , -9.799332   , -6.31649164E-05, 0.000113914779, -4.710265E-06, 0.009676539 , -0.009574164, 9.183926E-05, 919.8195    , 31.5971832  , 808.8385    , 4.27        , 3           , 255         , 0           , 0
-0.0957271  , -0.09351818 , -9.792772   , 0.0003899758, 7.240086E-05, 0.000152281864, 0.009680423 , -0.009573455, 9.336904E-05, 919.8195    , 31.5971832  , 808.8395    , 4.28        , 3           , 255         , 0           , 0
-0.09003867 , -0.104491964, -9.78692    , 0.000396657735, -7.61452247E-05, -0.000258342159, 0.009684415 , -0.009574192, 9.077833E-05, 919.8195    , 31.5971832  , 808.840454  , 4.29        , 3           , 255         , 0           , 0
-0.08723451 , -0.0961470455, -9.794064   , 0.0006336207, 7.819857E-05, 0.000840087945, 0.009690669 , -0.009573489, 9.918655E-05, 919.8195    , 31.5971832  , 808.841431  , 4.3         , 3           , 255         , 0           , 0
-0.09473336 , -0.0902942345, -9.796262   , 0.000151753746, 7.435253E-05, 0.0004699367, 0.009688089 , -0.009573823, 0.000103931823, 919.8195    , 31.5971832  , 808.8142    , 4.31        , 3           , 255         , 0           , 0
-0.0889713541, -0.0871114656, -9.795805   , -3.57931131E-05, -0.000279700616, 6.873415E-05, 0.009687725 , -0.009576626, 0.000104592058, 919.8195    , 31.5971832  , 808.815     , 4.32        , 3           , 255         , 0           , 0
-0.09085492 , -0.09238473 , -9.799231   , 3.32946074E-05, -0.0006896885, -0.0003316241, 0.00968809  , -0.009583492, 0.000101209087, 919.7696    , 31.59732    , 808.8158    , 4.33        , 3           , 255         , 0           , 0
-0.09775425 , -0.09019321 , -9.792631   , 0.000386129628, -0.0006133346, -0.0003424932, 0.009691984 , -0.009589592, 9.772483E-05, 919.7696    , 31.59732    , 808.8166    , 4.34        , 3           , 255         , 0           , 0
-0.10167022 , -0.08258402 , -9.788851   , -2.42659E-05, -0.000334227, -2.91152974E-05, 0.009691743 , -0.009592932, 9.740128E-05, 919.7696    , 31.59732    , 808.8174    , 4.35        , 3           , 255         , 0           , 0
-0.0987859  , -0.09484728 , -9.789683   , 8.396251E-05, -0.000276099483, 5.689322E-05, 0.009692577 , -0.009595698, 9.794343E-05, 919.7696    , 31.59732    , 808.8182    , 4.36        , 3           , 255         , 0           , 0
-0.08874903 , -0.0888571963, -9.796404   , 0.000623900152, -0.000211087347, 0.000193378 , 0.009698797 , -0.009597826, 9.98567048E-05, 919.7696    , 31.59732    , 808.819031  , 4.37        , 3           , 255         , 0           , 0
-0.07970878 , -0.0977386  , -9.802818   , 0.000195861008, -2.15448672E-05, 0.0004768396, 0.009700708 , -0.009598087, 0.000104622894, 919.7696    , 31.59732    , 808.8199    , 4.38        , 3           , 255         , 0           , 0
-0.0991972461, -0.09191501 , -9.805209   , 0.000143231417, -4.04540624E-05, 0.00126216072, 0.009702019 , -0.009598614, 0.000117240226, 919.7696    , 31.59732    , 808.82074   , 4.39        , 3           , 255         , 0           , 0
-0.101448953, -0.0911479145, -9.791062   , 0.000171273365, -0.00035422598, 0.000202547686, 0.009703713 , -0.009602175, 0.000119231292, 919.7696    , 31.59732    , 808.8216    , 4.4         , 3           , 255         , 0           , 0
-0.0917992741, -0.100243136, -9.784063   , -0.000488065241, 0.000181846481, -0.000103738414, 0.009692868 , -0.009600661, 0.000118268923, 919.7696    , 31.59732    , 808.867859  , 4.41        , 3           , 255         , 0           , 0
-0.0894582644, -0.0919928849, -9.790592   , -0.000600443047, 0.000179624025, 0.0005089122, 0.00968681648, -0.009598914, 0.000123375314, 919.7696    , 31.59732    , 808.868958  , 4.42        , 3           , 255         , 0           , 0
-0.100054204, -0.09501194 , -9.791464   , 0.0003872129, 0.000228430421, -0.000417957315, 0.009690727 , -0.00959659 , 0.000119217977, 919.79895   , 31.6006432  , 808.870056  , 4.43        , 3           , 255         , 0           , 0
-0.104301974, -0.0954534  , -9.7954855  , 0.000294455123, 0.00013503326, -0.000195989647, 0.009693691 , -0.009595221, 0.000117271222, 919.79895   , 31.6006432  , 808.871155  , 4.44        , 3           , 255         , 0           , 0
-0.09295064 , -0.0929853  , -9.797423   , -0.000184762932, -0.0001863947, -5.69299336E-05, 0.009691848 , -0.009597079, 0.000116683863, 919.79895   , 31.6006432  , 808.872253  , 4.45        , 3           , 255         , 0           , 0
-0.101562716, -0.09486477 , -9.80013752 , -0.000447086, -0.000212018815, -0.000235852116, 0.009687401 , -0.009599175, 0.000114304858, 919.79895   , 31.6006432  , 808.873352  , 4.46        , 3           , 255         , 0           , 0
-0.104187369, -0.09586729 , -9.801842   , -0.000131130277, -0.000105179293, 0.000273348531, 0.009686064 , -0.009600254, 0.000117028081, 919.79895   , 31.6006432  , 808.874451  , 4.47        , 3           , 255         , 0           , 0
-0.0874654651, -0.104167238, -9.798651   , 0.000361120678, 0.000141750323, 0.000866790535, 0.009689592 , -0.009598921, 0.0001257095, 919.79895   , 31.6006432  , 808.875549  , 4.48        , 3           , 255         , 0           , 0
-0.08965077 , -0.0919502  , -9.793268   , 1.55066373E-05, 0.000179578783, 0.0005029633, 0.009689698 , -0.009597174, 0.0001307564, 919.79895   , 31.6006432  , 808.8767    , 4.49        , 3           , 255         , 0           , 0
-0.100527026, -0.09314732 , -9.794432   , -5.9814658E-05, -0.000107318076, 0.0003786747, 0.009689063 , -0.009598284, 0.000134532645, 919.79895   , 31.6006432  , 808.877869  , 4.5         , 3           , 255         , 0           , 0
-0.09264688 , -0.08879128 , -9.79412651 , 0.000132796471, -3.081665E-05, 0.000162439814, 0.009691307 , -0.009601861, 0.000136145056, 919.79895   , 31.6006432  , 808.8744    , 4.51        , 3           , 255         , 0           , 0
-0.09358502 , -0.0871681  , -9.797392   , 0.000674077 , -0.000349325041, 5.15012944E-05, 0.009698044 , -0.00960536 , 0.0001366262, 919.79895   , 31.6006432  , 808.8755    , 4.52        , 3           , 255         , 0           , 0
-0.09692897 , -0.09635158 , -9.79822    , 0.000151501648, 6.103127E-05, 0.000147851868, 0.009699544 , -0.009604764, 0.0001381106, 919.791931  , 31.599966   , 808.8766    , 4.53        , 3           , 255         , 0           , 0
-0.09174116 , -0.0899380744, -9.79638    , -0.000463389268, -3.99146229E-05, 0.00032061353, 0.009694879 , -0.00960519351, 0.00014131279, 919.791931  , 31.599966   , 808.8777    , 4.54        , 3           , 255         , 0           , 0
-0.0902775154, -0.09238263 , -9.791223   , -0.000268452684, -0.00017113809, 5.44368522E-05, 0.009692189 , -0.009606909, 0.000141840545, 919.791931  , 31.599966   , 808.8788    , 4.55        , 3           , 255         , 0           , 0
-0.09038967 , -0.0834263861, -9.789922   , 0.000558081432, -4.88038932E-05, -1.25490551E-05, 0.009697773 , -0.009607395, 0.000141710319, 919.791931  , 31.599966   , 808.8799    , 4.56        , 3           , 255         , 0           , 0
-0.0939198  , -0.0910861641, -9.790617   , 0.000744184945, 0.00017433062, 0.000488102436, 0.009705166 , -0.0096057  , 0.000146608145, 919.791931  , 31.599966   , 808.881     , 4.57        , 3           , 255         , 0           , 0
-0.0924037844, -0.09354893 , -9.79436    , 0.0001573248, -0.000166380283, -0.000621800835, 0.0097068   , -0.009607304, 0.000140374148, 919.791931  , 31.599966   , 808.8821    , 4.58        , 3           , 255         , 0           , 0
-0.08289562 , -0.0869365  , -9.796786   , 3.992516E-05, -2.89146556E-05, -0.000109170767, 0.00970721  , -0.009607582, 0.000139279655, 919.791931  , 31.599966   , 808.8832    , 4.59        , 3           , 255         , 0           , 0
-0.0886706337, -0.09528948 , -9.795877   , 0.0007116252, -0.0001790163, 7.443224E-05, 0.00971431751, -0.009609378, 0.000140006552, 919.791931  , 31.599966   , 808.8843    , 4.6         , 3           , 255         , 0           , 0
-0.08623799 , -0.0891882  , -9.788254   , -2.85106944E-06, 0.000286911934, 0.000716809358, 0.009707559 , -0.009602462, 0.000147266328, 919.791931  , 31.599966   , 808.8898    , 4.61        , 3           , 255         , 0           , 0
-0.090488866, -0.08358832 , -9.792486   , 8.001231E-05, 0.000156494571, 0.00024872768, 0.009708333 , -0.009600922, 0.000149768734, 919.791931  , 31.599966   , 808.8909    , 4.62        , 3           , 255         , 0           , 0
-0.08913763 , -0.09363426 , -9.796524   , -0.000274489867, -0.000239606627, 0.000464303565, 0.009705545 , -0.00960336253, 0.000154388385, 919.828735  , 31.5964375  , 808.8921    , 4.63        , 3           , 255         , 0           , 0
-0.0976683944, -0.0884987861, -9.802735   , -0.0006528538, -0.000174819, 0.000159092888, 0.009699002 , -0.009605129, 0.00015596232, 919.828735  , 31.5964375  , 808.89325   , 4.64        , 3           , 255         , 0           , 0
-0.100877583, -0.08324647 , -9.791661   , 0.000311521959, 0.000296308426, -0.000362188963, 0.009702152 , -0.009602129, 0.000152369263, 919.828735  , 31.5964375  , 808.8944    , 4.65        , 3           , 255         , 0           , 0
-0.09712994 , -0.0938649848, -9.796373   , -0.0009060158, 0.000203813208, -2.83046647E-05, 0.009693093 , -0.009600089, 0.000152106 , 919.828735  , 31.5964375  , 808.895569  , 4.66        , 3           , 255         , 0           , 0
-0.101994216, -0.08980526 , -9.7933445  , -0.00108634681, 0.00011910194, 0.000631203235, 0.009682168 , -0.009598958, 0.000158429422, 919.828735  , 31.5964375  , 808.8967    , 4.67        , 3           , 255         , 0           , 0
-0.0927667245, -0.0925374851, -9.798148   , 0.000157920382, 8.975336E-05, 0.000159579344, 0.009683733 , -0.009598077, 0.000160033858, 919.828735  , 31.5964375  , 808.8979    , 4.68        , 3           , 255         , 0           , 0
-0.10564588 , -0.09102766 , -9.79698    , -0.000283806876, 0.000148075109, -0.000125656617, 0.009680907 , -0.009596584, 0.000158791663, 919.828735  , 31.5964375  , 808.899048  , 4.69        , 3           , 255         , 0           , 0
-0.0998113751, -0.08336532 , -9.796494   , -0.00053184136, 0.000381808059, -0.00017204645, 0.009675606 , -0.009592751, 0.0001571082, 919.828735  , 31.5964375  , 808.9002    , 4.7         , 3           , 255         , 0           , 0
-0.09218033 , -0.09908349 , -9.787628   , 0.0002498943, 0.000229818848, -0.00103853073, 0.009669591 , -0.009593296, 0.000146828024, 919.828735  , 31.5964375  , 808.8514    , 4.71        , 3           , 255         , 0           , 0
-0.09049145 , -0.09421158 , -9.787844   , 0.000401204685, -9.30861861E-05, 0.000224754316, 0.009673581 , -0.009594249, 0.000149066516, 919.828735  , 31.5964375  , 808.852234  , 4.72        , 3           , 255         , 0           , 0
-0.09987705 , -0.0948742  , -9.794975   , 0.0005517793, -0.000111824629, 0.0005560184, 0.009679044 , -0.00959542 , 0.000154615758, 919.8252    , 31.5975914  , 808.8531    , 4.73        , 3           , 255         , 0           , 0
-0.0923208147, -0.09808991 , -9.791657   , -0.000139052281, 0.000430106 , -0.0006180753, 0.009677715 , -0.00959106 , 0.0001484768, 919.8252    , 31.5975914  , 808.853943  , 4.74        , 3           , 255         , 0           , 0
-0.08780058 , -0.09663941 , -9.79003    , -0.000147349027, 3.7085556E-05, -0.000965046056, 0.009676333 , -0.009590595, 0.000138830161, 919.8252    , 31.5975914  , 808.8548    , 4.75        , 3           , 255         , 0           , 0
-0.0861999542, -0.0838403  , -9.794504   , -0.000400754856, 0.000384046347, -0.000319757266, 0.009672355 , -0.00958672352, 0.000135669849, 919.8252    , 31.5975914  , 808.855652  , 4.76        , 3           , 255         , 0           , 0
-0.09097426 , -0.0860024244, -9.793754   , 0.000246506475, 2.42612878E-05, 0.000143034515, 0.009674807 , -0.009586495, 0.000137102485, 919.8252    , 31.5975914  , 808.8565    , 4.77        , 3           , 255         , 0           , 0
-0.09139834 , -0.08736214 , -9.792604   , 0.000209031219, 1.37210154E-05, -0.000285585469, 0.009676925 , -0.0095863305, 0.000134248025, 919.8252    , 31.5975914  , 808.857361  , 4.78        , 3           , 255         , 0           , 0
-0.099390775, -0.09675296 , -9.79409    , -0.00018137577, 0.000181642943, -0.00045425893, 0.009675155 , -0.009584471, 0.000129723121, 919.8252    , 31.5975914  , 808.8582    , 4.79        , 3           , 255         , 0           , 0
-0.09491064 , -0.08913122 , -9.79258    , -0.000127848936, -0.000253896782, 0.000193588436, 0.009673857 , -0.009587028, 0.000131634384, 919.8252    , 31.5975914  , 808.8591    , 4.8         , 3           , 255         , 0           , 0
-0.09452546 , -0.0976709  , -9.788623   , 6.781309E-06, 6.728346E-05, -0.000363204046, 0.009670187 , -0.009583935, 0.0001280451, 919.8252    , 31.5975914  , 808.8209    , 4.81        , 3           , 255         , 0           , 0
-0.09952219 , -0.08870401 , -9.785692   , 5.1465875E-05, 0.000167757389, 0.000383454957, 0.009670665 , -0.009582294, 0.00013189578, 919.8252    , 31.5975914  , 808.821533  , 4.82        , 3           , 255         , 0           , 0
-0.09587298 , -0.09355791 , -9.791639   , -0.000180286646, -9.51032E-05, 0.0004034132, 0.009668822 , -0.009583285, 0.000135920622, 919.8243    , 31.5975227  , 808.822144  , 4.83        , 3           , 255         , 0           , 0
-0.10034658 , -0.0919161662, -9.796418   , 0.0006377185, 0.000164890065, 0.000476501533, 0.009675155 , -0.009581681, 0.000140701464, 919.8243    , 31.5975227  , 808.822754  , 4.84        , 3           , 255         , 0           , 0
-0.0932806656, -0.08499731 , -9.786667   , -5.36502921E-05, 0.000400567136, 0.000428844884, 0.009674577 , -0.009577718, 0.000145028549, 919.8243    , 31.5975227  , 808.823364  , 4.85        , 3           , 255         , 0           , 0
-0.08497803 , -0.09446046 , -9.790795   , 0.0003530441, 0.000320608553, -0.00014788816, 0.009678123 , -0.009574498, 0.000143580735, 919.8243    , 31.5975227  , 808.824     , 4.86        , 3           , 255         , 0           , 0
-0.0926486254, -0.09783592 , -9.788869   , 0.0001014811, -0.000350349117, 8.199753E-05, 0.009679129 , -0.009578009, 0.000144366757, 919.8243    , 31.5975227  , 808.8246    , 4.87        , 3           , 255         , 0           , 0
-0.104433551, -0.103739187, -9.79751    , 0.000435761933, -0.0002818026, -7.057052E-05, 0.009683494 , -0.00958082 , 0.000143633792, 919.8243    , 31.5975227  , 808.8252    , 4.88        , 3           , 255         , 0           , 0
-0.09965665 , -0.101746514, -9.797239   , 0.00034996157, 0.000465350866, -0.000410115637, 0.00968703348, -0.009576128, 0.000139577838, 919.8243    , 31.5975227  , 808.825867  , 4.89        , 3           , 255         , 0           , 0
-0.0984862447, -0.0978961438, -9.789301   , -0.000214493251, 0.000266967574, -0.0005168134, 0.009684938 , -0.009573408, 0.000134435686, 919.8243    , 31.5975227  , 808.826538  , 4.9         , 3           , 255         , 0           , 0
-0.09537822 , -0.09826821 , -9.787804   , 9.550646E-05, -6.546409E-05, 9.745438E-05, 0.009686826 , -0.009578732, 0.000135394817, 919.8243    , 31.5975227  , 808.7942    , 4.91        , 3           , 255         , 0           , 0
-0.08903734 , -0.09291327 , -9.785894   , -9.421288E-05, -0.000205188553, 0.000748145336, 0.00968581252, -0.009580855, 0.00014285621, 919.8243    , 31.5975227  , 808.7946    , 4.92        , 3           , 255         , 0           , 0
-0.09859976 , -0.09165406 , -9.796552   , 0.0002778297, -0.00035128076, 0.0006228893, 0.009688529 , -0.009584429, 0.000149050917, 919.8018    , 31.5986767  , 808.795044  , 4.93        , 3           , 255         , 0           , 0
-0.100380182, -0.0935172  , -9.795251   , -4.84189368E-05, 0.000170180254, -0.000346665183, 0.009688079 , -0.009582693, 0.000145600847, 919.8018    , 31.5986767  , 808.7955    , 4.94        , 3           , 255         , 0           , 0
-0.0877460539, -0.09162153 , -9.789667   , -0.000662825361, 0.000255830179, -0.0006439868, 0.009681512 , -0.009580074, 0.000139185911, 919.8018    , 31.5986767  , 808.7959    , 4.95        , 3           , 255         , 0           , 0
-0.0901658  , -0.0897071138, -9.79068    , -0.000282953377, 0.0002596573, -0.0006596276, 0.009678746 , -0.009577413, 0.00013261495, 919.8018    , 31.5986767  , 808.7963    , 4.96        , 3           , 255         , 0           , 0
-0.09504139 , -0.08403973 , -9.791956   , 5.47060044E-05, -0.0002502354, 0.0006478096, 0.00967923  , -0.009579978, 0.000139068681, 919.8018    , 31.5986767  , 808.796753  , 4.97        , 3           , 255         , 0           , 0
-0.0954761356, -0.08886485 , -9.795718   , -0.000105865474, 7.133972E-05, 0.0006084198, 0.009678114 , -0.009579323, 0.000145159633, 919.8018    , 31.5986767  , 808.7972    , 4.98        , 3           , 255         , 0           , 0
-0.0926630348, -0.09161763 , -9.793631   , -0.0003845584, 0.00086643314, -7.22748955E-05, 0.009674275 , -0.009570652, 0.0001445207, 919.8018    , 31.5986767  , 808.7976    , 4.99        , 3           , 255         , 0           , 0
-0.0934681743, -0.09554981 , -9.78916    , 0.000151214044, 0.000299401436, -9.02942047E-05, 0.009675796 , -0.00956765 , 0.000143646757, 919.8018    , 31.5986767  , 808.798035  , 5           , 3           , 0           , -1          , 500
-0.09099349 , -0.09823045 , -9.803663   , -0.000110329827, 0.000449741463, -0.000370385445, 0.009669422 , -0.009563074, 0.000140037257, 919.8018    , 31.5986767  , 808.8013    , 5.01        , 3           , 1           , 0           , 0
-0.08790863 , -0.0928732157, -9.795504   , -8.85519E-05, 0.000589678064, 0.000147949235, 0.009668522 , -0.00955719 , 0.000141573735, 919.8018    , 31.5986767  , 808.801758  , 5.02        , 3           , 2           , 0           , 0
-0.08956154 , -0.09707516 , -9.795656   , 0.000183449592, 0.000799795846, 0.000478674338, 0.009670309 , -0.00954924 , 0.0001464377, 919.7895    , 31.596981   , 808.802246  , 5.03        , 3           , 3           , 0           , 0
-0.09886172 , -0.0862804651, -9.788793   , -0.0003382378, -1.33346184E-05, 0.000438202347, 0.009666885 , -0.009549415, 0.00015081832, 919.7895    , 31.596981   , 808.802734  , 5.04        , 3           , 4           , 0           , 0
-0.087919   , -0.08344396 , -9.798067   , 6.03089575E-06, -0.000236539374, -0.000475875539, 0.00966699049, -0.009551735, 0.000146036837, 919.7895    , 31.596981   , 808.8032    , 5.05        , 3           , 5           , 0           , 0
-0.100929774, -0.09635146 , -9.800013   , 0.000114285096, -0.000349218724, 0.000521178532, 0.009668084 , -0.009555277, 0.0001512147, 919.7895    , 31.596981   , 808.8037    , 5.06        , 3           , 6           , 0           , 0
-0.09350601 , -0.09452994 , -9.796775   , -0.000188892125, -5.84932859E-05, -0.000194436521, 0.009666214 , -0.009555843, 0.000149264728, 919.7895    , 31.596981   , 808.8042    , 5.07        , 3           , 7           , 0           , 0
-0.0969271958, -0.09039132 , -9.804004   , -0.0005965687, -0.000194707391, -0.0002889606, 0.009660275 , -0.009557763, 0.000146356382, 919.7895    , 31.596981   , 808.8047    , 5.08        , 3           , 8           , 5           , 5
-0.100459233, -0.0956499949, -9.797522   , -0.000210862665, 1.86055258E-05, -0.000275748724, 0.009658193 , -0.00955755 , 0.000143600759, 919.7895    , 31.596981   , 808.8052    , 5.09        , 3           , 9           , 5           , 0.1
-0.0955392  , -0.0882083  , -9.798559   , -0.0001525089, -0.0002860857, 0.000217014778, 0.009656648 , -0.009560431, 0.000145743208, 919.7895    , 31.596981   , 808.805664  , 5.1         , 3           , 10          , 0.1         , 0.1
-0.0935329348, -0.0863076  , -9.791202   , 0.000134955335, -9.078212E-05, 0.000398971257, 0.009655209 , -0.009562147, 0.000149750384, 919.7895    , 31.596981   , 808.825256  , 5.11        , 3           , 11          , 0.00651325751, 0.00651325472
