Acc X       , Acc Y       , Acc Z       , Gyro X      , Gyro Y      , Gyro Z      , Euler X     , Euler Y     , Euler Z     , Pres X      , Pres Y      , Pres Z      , Time        , Status      , LowRate X   , LowRate Y   , LowRate Z    
-0.133974791, -0.0445116051, -9.788011   , 0           , 0           , 0           , 0.00454753265, -0.0136866467, 0           , 921.0715    , 31.5026131  , 797.386     , 0           , 2           , 0           , 5.466232    , 0
-0.13629517 , -0.041673176, -9.79511    , 0.000850972836, -0.000213101186, -0.000313470373, 0.00455602724, -0.0136888707, -3.14458134E-06, 921.0715    , 31.5026131  , 797.386     , 0.01        , 3           , 1           , 0           , 0
-0.1403768  , -0.03930267 , -9.784057   , 0.000365711225, 8.392791E-05, -0.000113014976, 0.00455969945, -0.0136880241, -4.270971E-06, 921.0715    , 31.5026131  , 797.386     , 0.02        , 3           , 2           , 0           , 0
-0.136723891, -0.04835894 , -9.789232   , -8.00493144E-05, -7.52318E-06, -0.0003989502, 0.00455895346, -0.0136880809, -8.261048E-06, 921.0694    , 31.0561447  , 797.386     , 0.03        , 3           , 3           , 0           , 0
-0.1353236  , -0.0380931273, -9.799991   , 0.0002589537, -0.000388054963, 6.650711E-05, 0.004561534 , -0.0136919646, -7.61363026E-06, 921.0694    , 31.0561447  , 797.386     , 0.04        , 3           , 4           , 0           , 0
-0.135601133, -0.0407860763, -9.792415   , 0.0001973407, 1.9515428E-05, 0.000403025653, 0.004563452 , -0.0136917876, -3.58224975E-06, 921.0694    , 31.0561447  , 797.386     , 0.05        , 3           , 5           , 0           , 0
-0.131406873, -0.0538360849, -9.789814   , -4.09002678E-05, 0.000181151 , -0.000202085881, 0.0045630713, -0.0136899669, -5.59496129E-06, 921.0694    , 31.0561447  , 797.386     , 0.06        , 3           , 6           , 0           , 0
-0.133436084, -0.0449537523, -9.789549   , 0.000304204063, -0.000109499248, -0.000797070446, 0.00456622243, -0.0136910249, -1.3571128E-05, 921.0694    , 31.0561447  , 797.386     , 0.07        , 3           , 7           , 0           , 0
-0.143836647, -0.0452680439, -9.786104   , 0.000185625162, -0.0003512159, 0.000102337988, 0.004568065 , -0.0136945425, -1.256373E-05, 921.0694    , 31.0561447  , 797.386     , 0.08        , 3           , 8           , 5           , 5
-0.136885077, -0.0489031821, -9.786854   , -0.000166416241, -0.000435682276, -0.000274461578, 0.004566438 , -0.0136988861, -1.53284036E-05, 921.0694    , 31.0561447  , 797.386     , 0.09        , 3           , 9           , 5           , 0.1
-0.121144392, -0.055742152, -9.789342   , -0.000359806232, -0.000342914776, -0.000336248078, 0.004562886 , -0.0137023  , -1.87067362E-05, 921.0694    , 31.0561447  , 797.386     , 0.1         , 3           , 10          , 0.1         , 0.1
-0.1365646  , -0.04800146 , -9.799934   , 0.000137999741, 5.422096E-05, -0.0003060327, 0.0045696157, -0.01370718 , -2.183752E-05, 921.0694    , 31.0561447  , 797.4046    , 0.11        , 3           , 11          , 0.0109544508, 0.0109544508
-0.137963265, -0.0390987322, -9.800246   , -0.000272933248, 0.000302923727, 2.07904668E-05, 0.00456688367, -0.0137041518, -2.16157623E-05, 921.0694    , 31.0561447  , 797.4046    , 0.12        , 3           , 12          , 0.174642488 , 0
-0.129628032, -0.0387633964, -9.796997   , -0.000315325538, -9.714111E-05, 0.0001253427, 0.00456371345, -0.0137051288, -2.03666987E-05, 921.096436  , 31.0937958  , 797.4046    , 0.13        , 3           , 13          , 0           , 0
-0.13265112 , -0.0351833329, -9.78613    , -0.0005551793, -0.0006045583, 0.000141603421, 0.004558142 , -0.0137111805, -1.89781622E-05, 921.096436  , 31.0937958  , 797.4046    , 0.14        , 3           , 14          , -0.000165169215, 0.000235081185
-0.135136813, -0.04256908 , -9.792865   , -0.0004257439, 8.998142E-05, -0.0003141673, 0.004553928 , -0.013710266, -2.21159171E-05, 921.096436  , 31.0937958  , 797.4046    , 0.15        , 3           , 15          , 0           , 0.000175892244
-0.129402027, -0.0533328652, -9.798327   , 5.98844781E-05, -0.000165028236, -0.000593644858, 0.004554608 , -0.0137118893, -2.80602289E-05, 921.096436  , 31.0937958  , 797.4046    , 0.16        , 3           , 16          , 0           , 1.401298E-45
-0.133902639, -0.04279981 , -9.797459   , -0.0001454619, -0.000166848826, -5.76039529E-05, 0.004553161 , -0.0137135554, -2.8643899E-05, 921.096436  , 31.0937958  , 797.4046    , 0.17        , 3           , 20          , 0           , 0
-0.147128612, -0.04170456 , -9.793781   , 0.0004477207, 0.0004797685, -0.0003429307, 0.00455768453, -0.0137087414, -3.205154E-05, 921.096436  , 31.0937958  , 797.4046    , 0.18        , 3           , 21          , 0           , 0
-0.135450244, -0.04184433 , -9.784185   , 0.000187124038, 0.0004386623, 0.000163274948, 0.004559533 , -0.0137043623, -3.03987017E-05, 921.096436  , 31.0937958  , 797.4046    , 0.19        , 3           , 22          , 0           , 0
-0.125398129, -0.04067973 , -9.785565   , 0.000613729469, 0.000595419551, -0.000150948428, 0.00456569064, -0.0136984009, -3.18811E-05, 921.096436  , 31.0937958  , 797.4046    , 0.2         , 3           , 40          , 0           , 0
-0.135128722, -0.0412408  , -9.796895   , 6.291756E-05, 0.000280973472, 7.52018241E-06, 0.00455778558, -0.0136957373, -3.16761943E-05, 921.096436  , 31.0937958  , 797.282959  , 0.21        , 3           , 41          , 0           , 0
-0.133170381, -0.045648288, -9.794976   , -3.87954351E-05, 8.215578E-05, 0.000148603 , 0.00455737673, -0.0136949206, -3.01863329E-05, 921.096436  , 31.0937958  , 797.283     , 0.22        , 3           , 42          , 0           , 0
-0.136646181, -0.0408949666, -9.794104   , 0.000705205661, -0.000271239638, -0.0003824554, 0.004564481 , -0.0136976158, -3.40234728E-05, 921.0768    , 31.1165237  , 797.2831    , 0.23        , 3           , 255         , 0           , 0
-0.141931146, -0.0430871546, -9.796919   , 0.000640693936, 0.0003935554, 0.000257019885, 0.004570852 , -0.0136936931, -3.143514E-05, 921.0768    , 31.1165237  , 797.283142  , 0.24        , 3           , 255         , 0           , 0
-0.130002677, -0.04634211 , -9.799481   , 0.000116111507, 0.0006194451, 0.000216784509, 0.004571983 , -0.0136875072, -2.923885E-05, 921.0768    , 31.1165237  , 797.2832    , 0.25        , 3           , 255         , 0           , 0
-0.12729457 , -0.04436258 , -9.793929   , 0.000186432851, 8.68483039E-05, -0.0008881382, 0.00457396824, -0.0136865983, -3.811678E-05, 921.0768    , 31.1165237  , 797.283264  , 0.26        , 3           , 255         , 0           , 0
-0.138667747, -0.0370731167, -9.791619   , 8.577609E-05, 6.325042E-05, -0.0005232224, 0.004574898 , -0.0136859417, -4.33464156E-05, 921.0768    , 31.1165237  , 797.2833    , 0.27        , 3           , 255         , 0           , 0
-0.12966004 , -0.0466806144, -9.788744   , 0.000583105953, 6.92544854E-05, -0.000296556158, 0.00458076969, -0.0136852358, -4.630898E-05, 921.0768    , 31.1165237  , 797.2834    , 0.28        , 3           , 255         , 0           , 0
-0.130908564, -0.0493174866, -9.790474   , 0.000147483413, -0.000251781079, -0.0003343927, 0.00458229  , -0.0136877382, -4.966463E-05, 921.0768    , 31.1165237  , 797.283447  , 0.29        , 3           , 255         , 0           , 0
-0.1387692  , -0.051688768, -9.797595   , -0.000315819052, -3.70951166E-05, 0.000409987959, 0.004579076 , -0.0136881275, -4.55662157E-05, 921.0768    , 31.1165237  , 797.2835    , 0.3         , 3           , 255         , 0           , 0
-0.125632986, -0.04345427 , -9.783303   , -0.000268353557, -1.02130289E-05, -9.130937E-05, 0.00457590772, -0.0136886528, -4.64730219E-05, 921.0768    , 31.1165237  , 797.3022    , 0.31        , 3           , 255         , 0           , 0
-0.128757089, -0.04043253 , -9.798376   , -0.000364037347, 0.000120800687, -5.245165E-05, 0.004572275 , -0.0136874421, -4.69920451E-05, 921.0768    , 31.1165237  , 797.302246  , 0.32        , 3           , 255         , 0           , 0
-0.135309756, -0.0432838351, -9.780232   , 0.000574411 , -4.154595E-05, 0.0004277427, 0.00457796  , -0.0136878779, -4.271627E-05, 921.0755    , 31.1334152  , 797.3023    , 0.33        , 3           , 255         , 0           , 0
-0.131266683, -0.0485171638, -9.799874   , 0.000494407665, 0.0002713582, -3.278299E-05, 0.004582909 , -0.0136851631, -4.303169E-05, 921.0755    , 31.1334152  , 797.302368  , 0.34        , 3           , 255         , 0           , 0
-0.135190219, -0.05126942 , -9.800947   , 0.0003526979, 0.00011580289, 0.000558697851, 0.004586359 , -0.0136840306, -3.74390838E-05, 921.0755    , 31.1334152  , 797.3024    , 0.35        , 3           , 255         , 0           , 0
-0.13786903 , -0.0417542048, -9.792652   , 0.000656940159, -0.000122981568, -0.000163274119, 0.004592951 , -0.0136852525, -3.90775567E-05, 921.0755    , 31.1334152  , 797.3025    , 0.36        , 3           , 255         , 0           , 0
-0.133733764, -0.0461455248, -9.797392   , 0.000128669257, 0.000107499684, -0.000268502568, 0.00459427433, -0.0136841657, -4.17577976E-05, 921.0755    , 31.1334152  , 797.302551  , 0.37        , 3           , 255         , 0           , 0
-0.129657179, -0.041183237, -9.78663349 , 0.0005385007, -0.0004141458, -0.000389411522, 0.004599713 , -0.0136882886, -4.56711859E-05, 921.0755    , 31.1334152  , 797.3026    , 0.38        , 3           , 255         , 0           , 0
-0.133393154, -0.0399816558, -9.793887   , 0.000258778484, -0.0006091005, -0.0007517381, 0.004602403 , -0.0136943432, -5.321702E-05, 921.0755    , 31.1334152  , 797.3027    , 0.39        , 3           , 255         , 0           , 0
-0.127393633, -0.03636776 , -9.795027   , 0.0005160395, -8.095971E-05, -0.000144346865, 0.004607583 , -0.0136951469, -5.46643023E-05, 921.0755    , 31.1334152  , 797.302734  , 0.4         , 3           , 255         , 0           , 0
-0.128732562, -0.0393971056, -9.795793   , 0.000208350742, -0.000331942574, 0.0005063863, 0.00460332166, -0.0136901829, -4.95295244E-05, 921.0755    , 31.1334152  , 797.3147    , 0.41        , 3           , 255         , 0           , 0
-0.145516917, -0.0400049761, -9.788171   , 7.02162652E-05, 0.000161736258, 8.41306E-05 , 0.00460401224, -0.0136885708, -4.868073E-05, 921.0755    , 31.1334152  , 797.314758  , 0.42        , 3           , 255         , 0           , 0
-0.138661   , -0.0453658476, -9.790317   , -0.000183953263, 0.0003528566, -0.000778600341, 0.00460227951, -0.0136850057, -5.64509428E-05, 921.0707    , 31.1458988  , 797.3148    , 0.43        , 3           , 255         , 0           , 0
-0.139245182, -0.0467133261, -9.786249   , 0.000444627076, -2.20655056E-06, -0.000271279423, 0.004606763 , -0.013685016, -5.91639946E-05, 921.0707    , 31.1458988  , 797.3149    , 0.44        , 3           , 255         , 0           , 0
-0.145947412, -0.0465617441, -9.790506   , 0.000198579277, 6.110394E-05, 0.0004387783, 0.004608688 , -0.0136844255, -5.47731433E-05, 921.0707    , 31.1458988  , 797.314941  , 0.45        , 3           , 255         , 0           , 0
-0.140431851, -0.0505099669, -9.79324    , 0.0006483698, 0.00034119928, 2.97607767E-05, 0.00461516762, -0.0136810131, -5.44597824E-05, 921.0707    , 31.1458988  , 797.315     , 0.46        , 3           , 255         , 0           , 0
-0.138691217, -0.0515989251, -9.796108   , -0.000385483756, -0.000394625473, -4.814964E-05, 0.0046113194, -0.0136849582, -5.495951E-05, 921.0707    , 31.1458988  , 797.315063  , 0.47        , 3           , 255         , 0           , 0
-0.133237511, -0.03740738 , -9.798155   , 0.000189924962, -0.000342972751, -0.000755551562, 0.004613322 , -0.0136883529, -6.253128E-05, 921.0707    , 31.1458988  , 797.3151    , 0.48        , 3           , 255         , 0           , 0
-0.138546661, -0.0413759351, -9.796014   , 2.2411361E-05, 0.00011678545, -0.000256080733, 0.00461358158, -0.0136871738, -6.508685E-05, 921.0707    , 31.1458988  , 797.3152    , 0.49        , 3           , 255         , 0           , 0
-0.129508257, -0.0268814228, -9.799128   , 0.0005048566, 2.176575E-05, 0.0005701679, 0.004618551 , -0.013686982, -5.93838267E-05, 921.0707    , 31.1458988  , 797.315247  , 0.5         , 3           , 255         , 0           , 0
-0.128757164, -0.04184715 , -9.806183   , 0.0007433375, 0.0002806723, 0.0006585336, 0.00461701024, -0.0136975478, -5.2663454E-05, 921.0707    , 31.1458988  , 797.331665  , 0.51        , 3           , 255         , 0           , 0
-0.134303778, -0.04689719 , -9.802538   , 0.000395291485, -8.268247E-05, 0.00041151105, 0.004620907 , -0.0136983935, -4.85519158E-05, 921.0707    , 31.1458988  , 797.3317    , 0.52        , 3           , 255         , 0           , 0
-0.13031666 , -0.0395065024, -9.79748    , -6.397441E-05, -0.000259834051, 0.0008100796, 0.00462015625, -0.0137010291, -4.04626553E-05, 921.0923    , 31.154583   , 797.331848  , 0.53        , 3           , 255         , 0           , 0
-0.130663618, -0.03941926 , -9.794951   , 0.0003661848, 6.720543E-05, 7.553185E-05, 0.0046238075, -0.01370036 , -3.9704184E-05, 921.0923    , 31.154583   , 797.332     , 0.54        , 3           , 255         , 0           , 0
-0.132087141, -0.0458772629, -9.800461   , 7.37903756E-05, -0.000162437034, 3.81950376E-05, 0.00462453952, -0.0137019847, -3.93297232E-05, 921.0923    , 31.154583   , 797.3321    , 0.55        , 3           , 255         , 0           , 0
-0.124553561, -0.04780744 , -9.798571   , -0.000375808566, 0.0003060048, 0.0002123947, 0.00462075276, -0.0136989346, -3.71915048E-05, 921.0923    , 31.154583   , 797.3322    , 0.56        , 3           , 255         , 0           , 0
-0.125278682, -0.0374559946, -9.789331   , 0.000263041 , 4.60365845E-06, 0.000142939141, 0.00462336326, -0.0136988955, -3.57618155E-05, 921.0923    , 31.154583   , 797.332336  , 0.57        , 3           , 255         , 0           , 0
-0.136102125, -0.04084305 , -9.79206    , -5.489857E-05, -0.000400803663, -0.0005175773, 0.00462288549, -0.01370288 , -4.09564236E-05, 921.0923    , 31.154583   , 797.332458  , 0.58        , 3           , 255         , 0           , 0
-0.136545226, -0.0512511246, -9.792658   , 9.836115E-05, -3.60605773E-05, 2.83126E-05 , 0.004623865 , -0.0137032419, -4.06749423E-05, 921.0923    , 31.154583   , 797.3326    , 0.59        , 3           , 255         , 0           , 0
-0.12745142 , -0.0431454  , -9.789485   , 0.000385592284, 0.000178147573, 0.0003449699, 0.00462767342, -0.0137014762, -3.72168033E-05, 921.0923    , 31.154583   , 797.3327    , 0.6         , 3           , 255         , 0           , 0
-0.1380727  , -0.04233107 , -9.79243    , -7.572424E-06, -0.000168525672, -9.347814E-05, 0.00462227734, -0.0136929564, -3.80864076E-05, 921.0923    , 31.154583   , 797.3096    , 0.61        , 3           , 255         , 0           , 0
-0.1345238  , -0.04128611 , -9.792809   , 0.000287493225, -0.0004185445, 0.000440059026, 0.00462509226, -0.0136971632, -3.37049132E-05, 921.0923    , 31.154583   , 797.3097    , 0.62        , 3           , 255         , 0           , 0
-0.128600538, -0.0407390073, -9.802782   , -3.398434E-05, 0.000137236057, 0.0002095428, 0.00462472346, -0.0136958007, -3.16030128E-05, 921.0585    , 31.1596718  , 797.3098    , 0.63        , 3           , 255         , 0           , 0
-0.132626578, -0.0348219946, -9.798708   , -0.0001792588, 0.0005191157, 0.000194778462, 0.00462290365, -0.0136906179, -2.96311173E-05, 921.0585    , 31.1596718  , 797.309937  , 0.64        , 3           , 255         , 0           , 0
-0.135887414, -0.0373451039, -9.802366   , 0.0002374666, 6.87621941E-05, -0.000440231146, 0.0046253386, -0.01368991 , -3.40305E-05, 921.0585    , 31.1596718  , 797.310059  , 0.65        , 3           , 255         , 0           , 0
-0.131878331, -0.04333269 , -9.790739   , 6.302878E-05, 0.000441383367, 8.962938E-05, 0.004625956 , -0.0136855  , -3.3113738E-05, 921.0585    , 31.1596718  , 797.3102    , 0.66        , 3           , 255         , 0           , 0
-0.141893417, -0.0478787944, -9.789998   , 0.000135241586, 0.000720858341, -9.0592E-05 , 0.00462732045, -0.0136782881, -3.39863545E-05, 921.0585    , 31.1596718  , 797.3103    , 0.67        , 3           , 255         , 0           , 0
-0.135243565, -0.04666099 , -9.791647   , -0.0003676815, 6.370008E-05, 0.000125527265, 0.004623627 , -0.0136776567, -3.2728065E-05, 921.0585    , 31.1596718  , 797.3104    , 0.68        , 3           , 255         , 0           , 0
-0.13512069 , -0.0474350229, -9.794715   , -0.000583593035, 0.0001325958, -0.0007268017, 0.004617891 , -0.0136763  , -3.99903765E-05, 921.0585    , 31.1596718  , 797.310547  , 0.69        , 3           , 255         , 0           , 0
-0.14338243 , -0.04719357 , -9.798205   , 0.000135649709, -0.000173136155, -0.000583779532, 0.004619327 , -0.0136780022, -4.58365066E-05, 921.0585    , 31.1596718  , 797.310669  , 0.7         , 3           , 255         , 0           , 0
-0.13210769 , -0.0442590825, -9.800978   , 0.0006501897, 0.000310776115, -0.000416485651, 0.00461898465, -0.0136795174, -4.989284E-05, 921.0585    , 31.1596718  , 797.340332  , 0.71        , 3           , 255         , 0           , 0
-0.137221   , -0.0470468737, -9.794598   , 0.0005947493, 0.000259408727, -0.000290562981, 0.00462497165, -0.01367691 , -5.27866468E-05, 921.0585    , 31.1596718  , 797.340454  , 0.72        , 3           , 255         , 0           , 0
-0.137075186, -0.04150725 , -9.794809   , 0.00044312462, -1.466526E-05, -0.000399531971, 0.004629458 , -0.0136770392, -5.678288E-05, 921.030151  , 31.1620445  , 797.3406    , 0.73        , 3           , 255         , 0           , 0
-0.132363513, -0.04203088 , -9.791273   , -0.0003751074, -1.87682745E-05, -0.0007435471, 0.004625809 , -0.0136771919, -6.421965E-05, 921.030151  , 31.1620445  , 797.3407    , 0.74        , 3           , 255         , 0           , 0
-0.132084459, -0.0429598279, -9.79135    , 9.51845141E-05, 6.151748E-05, -0.000512107741, 0.00462683057, -0.013676553, -6.933818E-05, 921.030151  , 31.1620445  , 797.3408    , 0.75        , 3           , 255         , 0           , 0
-0.1344609  , -0.0347332619, -9.788782   , -0.000144122911, -0.0003291881, -0.0007217938, 0.004625488 , -0.0136798117, -7.65717559E-05, 921.030151  , 31.1620445  , 797.340942  , 0.76        , 3           , 255         , 0           , 0
-0.140539259, -0.0381203964, -9.789423   , -0.000350049755, 0.000284870563, -0.0007562184, 0.00462209061, -0.0136769293, -8.412121E-05, 921.030151  , 31.1620445  , 797.341064  , 0.77        , 3           , 255         , 0           , 0
-0.138807774, -0.0350022726, -9.795275   , -0.00020731402, 2.10705766E-05, -0.00126077782, 0.00462019  , -0.0136766583, -9.672874E-05, 921.030151  , 31.1620445  , 797.3412    , 0.78        , 3           , 255         , 0           , 0
-0.130693614, -0.0451694131, -9.800575   , 0.000266273855, -0.000261802372, -2.53390754E-05, 0.004622856 , -0.0136792753, -9.699424E-05, 921.030151  , 31.1620445  , 797.3413    , 0.79        , 3           , 255         , 0           , 0
-0.141184956, -0.0584177  , -9.798494   , 0.0005443748, 0.000418937358, 0.0004948964, 0.004628232 , -0.0136751086, -9.202563E-05, 921.030151  , 31.1620445  , 797.341431  , 0.8         , 3           , 255         , 0           , 0
-0.1333473  , -0.0441165455, -9.7986145  , 0.0002609054, 9.982777E-05, 0.000487930083, 0.00462370133, -0.0136791216, -8.704465E-05, 921.030151  , 31.1620445  , 797.3996    , 0.81        , 3           , 255         , 0           , 0
-0.133837312, -0.05362187 , -9.795455   , -0.00025155436, -0.000132645844, -0.0006682316, 0.00462127756, -0.013680418, -9.37334844E-05, 921.030151  , 31.1620445  , 797.3998    , 0.82        , 3           , 255         , 0           , 0
-0.1326163  , -0.0493396744, -9.789522   , -0.000279581116, -0.000330356066, -0.0001782166, 0.00461850548, -0.013683714, -9.55310243E-05, 921.0652    , 31.1648941  , 797.399963  , 0.83        , 3           , 255         , 0           , 0
-0.13313815 , -0.0416517667, -9.803812   , 0.000140571414, 2.216053E-05, -0.000214708227, 0.004619941 , -0.0136834811, -9.767721E-05, 921.0652    , 31.1648941  , 797.4002    , 0.84        , 3           , 255         , 0           , 0
-0.1251603  , -0.0465874039, -9.795668   , 7.762896E-05, 7.17587245E-05, -0.0007176228, 0.00462081563, -0.0136827305, -0.000104850529, 921.0652    , 31.1648941  , 797.400452  , 0.85        , 3           , 255         , 0           , 0
-0.129102215, -0.0459979363, -9.803609   , 2.87972216E-06, 5.139722E-05, -0.00102616311, 0.004620985 , -0.0136821717, -0.000115110393, 921.0652    , 31.1648941  , 797.4007    , 0.86        , 3           , 255         , 0           , 0
-0.138863578, -0.0438280478, -9.796816   , 0.000119493918, -0.00022330154, -7.57914677E-06, 0.00462218048, -0.0136844032, -0.000115196504, 921.0652    , 31.1648941  , 797.40094   , 0.87        , 3           , 255         , 0           , 0
-0.123770081, -0.0465244874, -9.789688   , -0.000212943269, -0.0004348978, -8.643455E-05, 0.00462006265, -0.0136887478, -0.000116081006, 921.0652    , 31.1648941  , 797.4012    , 0.88        , 3           , 255         , 0           , 0
-0.13686128 , -0.0473282933, -9.784472   , -0.000361868151, -0.000269610871, -0.000197402565, 0.004616472 , -0.0136914346, -0.000118067583, 921.0652    , 31.1648941  , 797.4014    , 0.89        , 3           , 255         , 0           , 0
-0.1366049  , -0.04777326 , -9.793634   , 6.592735E-05, -0.000242422859, 0.000169899 , 0.004617108 , -0.0136938673, -0.000116379706, 921.0652    , 31.1648941  , 797.4017    , 0.9         , 3           , 255         , 0           , 0
-0.130912825, -0.04461552 , -9.798919   , 0.000430595828, 0.00010555076, 0.0007184707, 0.00462526036, -0.0136880986, -0.000109243694, 921.0652    , 31.1648941  , 797.407654  , 0.91        , 3           , 255         , 0           , 0
-0.136839777, -0.0538602956, -9.807005   , 0.000722013647, 0.000128107917, 0.000322893262, 0.004632436 , -0.013686833, -0.000106008643, 921.0652    , 31.1648941  , 797.4079    , 0.92        , 3           , 255         , 0           , 0
-0.134549633, -0.0465702  , -9.781596   , -0.000213932391, -0.0005781437, 0.000424089318, 0.004630239 , -0.0136926342, -0.000101794278, 921.062256  , 31.1655045  , 797.408142  , 0.93        , 3           , 255         , 0           , 0
-0.135878623, -0.0410130322, -9.799438   , 0.0003285292, -0.00038669206, -0.000279652741, 0.00463356357, -0.0136964889, -0.000104608887, 921.062256  , 31.1655045  , 797.4084    , 0.94        , 3           , 255         , 0           , 0
-0.132713363, -0.0391009077, -9.796953   , 0.000174558227, -0.000328040245, 0.000384623825, 0.004635256 , -0.0136997849, -0.000100777615, 921.062256  , 31.1655045  , 797.4086    , 0.95        , 3           , 255         , 0           , 0
-0.1446009  , -0.04906249 , -9.802683   , -1.901522E-05, -0.000266690535, 8.935705E-06, 0.00463506533, -0.0137024522, -0.000100700621, 921.062256  , 31.1655045  , 797.4089    , 0.96        , 3           , 255         , 0           , 0
-0.130916446, -0.044092156, -9.800293   , 0.000331983756, 0.000373109477, -0.00085000915, 0.004638501 , -0.0136986841, -0.000109183893, 921.062256  , 31.1655045  , 797.4091    , 0.97        , 3           , 255         , 0           , 0
-0.12890929 , -0.0406500474, -9.792301   , 0.000494285 , 0.00059460965, -0.000240998314, 0.004643475 , -0.0136927264, -0.000111566427, 921.062256  , 31.1655045  , 797.409363  , 0.98        , 3           , 255         , 0           , 0
-0.13027145 , -0.04333839 , -9.78736    , -0.000207221252, 4.86819627E-05, -0.000280476059, 0.004641441 , -0.0136922263, -0.000114369082, 921.062256  , 31.1655045  , 797.4096    , 0.99        , 3           , 255         , 0           , 0
-0.130416989, -0.03789973 , -9.792663   , 0.000237218133, 0.000197654168, -0.00074346544, 0.00464391476, -0.0136902155, -0.00012179499, 921.062256  , 31.1655045  , 797.409851  , 1           , 3           , 0           , 6.46623659  , 100
-0.130546883, -0.0438855328, -9.801148   , 1.17189484E-05, -0.000449136, 5.20918547E-05, 0.004640464 , -0.013693165, -0.000121246121, 921.062256  , 31.1655045  , 797.4177    , 1.01        , 3           , 1           , 0           , 0
-0.1398518  , -0.0395713672, -9.797325   , 0.000100727317, -0.0002715923, -0.000242418726, 0.00464150449, -0.0136958687, -0.000123683072, 921.062256  , 31.1655045  , 797.417969  , 1.02        , 3           , 2           , 0           , 0
-0.137544647, -0.034647353, -9.795556   , -0.000190340623, 1.002886E-05, 0.000122361831, 0.004639585 , -0.0136957737, -0.0001224589, 921.0939    , 31.1669979  , 797.4183    , 1.03        , 3           , 3           , 0           , 0
-0.141403526, -0.0419222638, -9.793815   , 0.00016466745, -0.00027625 , -0.000268844422, 0.0046412684, -0.0136985229, -0.00012516031, 921.0939    , 31.1669979  , 797.4186    , 1.04        , 3           , 4           , 0           , 0
-0.134978   , -0.0415742621, -9.788609   , 0.0004223353, -0.000793669955, -0.000186967765, 0.00464551756, -0.0137064522, -0.00012706696, 921.0939    , 31.1669979  , 797.4189    , 1.05        , 3           , 5           , 0           , 0
-0.134780765, -0.0472695  , -9.784998   , 0.0004112415, 0.000133581838, -0.000201449977, 0.00464965869, -0.0137051065, -0.000129075357, 921.0939    , 31.1669979  , 797.4192    , 1.06        , 3           , 6           , 0           , 0
-0.135855138, -0.0384691  , -9.789492   , 6.10426141E-05, 1.55247981E-05, -0.000318861159, 0.00465031248, -0.013704936, -0.000132263434, 921.0939    , 31.1669979  , 797.4195    , 1.07        , 3           , 7           , 0           , 0
-0.132311851, -0.052395232, -9.794732   , 1.0407588E-05, -0.000146690945, -0.000407357526, 0.00465047266, -0.0137063842, -0.000136344082, 921.0939    , 31.1669979  , 797.4198    , 1.08        , 3           , 8           , 5           , 5
-0.127971172, -0.0472925231, -9.797445   , 0.000506058044, -1.2208955E-05, -0.000355094322, 0.004655581 , -0.0137064895, -0.0001398958, 921.0939    , 31.1669979  , 797.4201    , 1.09        , 3           , 9           , 5           , 0.1
-0.126672626, -0.0425324626, -9.797682   , 0.0007927158, -0.000133033376, -0.000337352045, 0.004663554 , -0.0137078017, -0.0001432757, 921.0939    , 31.1669979  , 797.4204    , 1.1         , 3           , 10          , 0.1         , 0.1
-0.137139171, -0.0404942855, -9.790441   , 0.000369737449, 0.000187235652, 0.000590357755, 0.00466003828, -0.0137058729, -0.000137265291, 921.0939    , 31.1669979  , 797.3935    , 1.11        , 3           , 11          , 0.009263525 , 0.009263524
-0.1292946  , -0.0358423777, -9.789429   , 0.000306177244, -8.177926E-05, 0.000710847438, 0.00466300175, -0.0137067232, -0.000130160217, 921.0939    , 31.1669979  , 797.393738  , 1.12        , 3           , 12          , 0.174642846 , 0
-0.1338294  , -0.04471258 , -9.79824352 , 0.000298901752, -0.000118494376, 0.000377625 , 0.0046659396, -0.0137079265, -0.000126389263, 921.092041  , 31.1703224  , 797.394     , 1.13        , 3           , 13          , 0           , 0
-0.136141688, -0.03753627 , -9.799988   , 0.00021266783, 0.0001392086, -0.000237533342, 0.00466809841, -0.013706523, -0.000128758256, 921.092041  , 31.1703224  , 797.3942    , 1.14        , 3           , 14          , -0.000165136866, 0.000235079642
-0.140217155, -0.0405248329, -9.794893   , 0.0005617324, -2.65344861E-05, -0.000163678487, 0.0046737385, -0.01370678 , -0.000130396365, 921.092041  , 31.1703224  , 797.3945    , 1.15        , 3           , 15          , 0           , 0.0001758918
-0.135513157, -0.04849265 , -9.795757   , 0.0006802833, -0.000364676147, 0.000208946149, 0.004680512 , -0.0137104364, -0.000128323823, 921.092041  , 31.1703224  , 797.3947    , 1.16        , 3           , 16          , 0           , 1.401298E-45
-0.134831935, -0.0409958735, -9.789575   , 0.000365896733, -0.000461916148, 0.00032750523, 0.00468412647, -0.01371507 , -0.000125070219, 921.092041  , 31.1703224  , 797.394958  , 1.17        , 3           , 20          , 0           , 0
-0.137011364, -0.03500837 , -9.782886   , 0.000410351146, 0.000176760688, 0.000158723822, 0.004688208 , -0.0137133086, -0.000123474616, 921.092041  , 31.1703224  , 797.3952    , 1.18        , 3           , 21          , 0           , 0
-0.133443013, -0.03586192 , -9.790774   , -0.000116229043, 0.000279048545, -1.653083E-06, 0.00468704524, -0.0137105184, -0.00012347805, 921.092041  , 31.1703224  , 797.395447  , 1.19        , 3           , 22          , 0           , 0
-0.131832   , -0.045538187, -9.802466   , 5.94417652E-05, 7.268312E-05, -4.937203E-06, 0.00468764  , -0.013709791, -0.000123524, 921.092041  , 31.1703224  , 797.3957    , 1.2         , 3           , 40          , 0           , 0
-0.130063862, -0.03784619 , -9.800207   , -0.0001892186, -0.000141521159, 0.00055030873, 0.004670615 , -0.013713182, -0.000117820753, 921.092041  , 31.1703224  , 797.37384   , 1.21        , 3           , 41          , 0           , 0
-0.125906974, -0.0391877666, -9.788125   , 0.000460591051, -0.0004614918, -0.000303865934, 0.00467526354, -0.0137177827, -0.000120881145, 921.092041  , 31.1703224  , 797.374     , 1.22        , 3           , 42          , 0           , 0
-0.131289989, -0.053691946, -9.7876215  , 5.780965E-05, -0.00013794101, -0.0004571777, 0.00467590429, -0.0137191415, -0.000125459628, 921.0801    , 31.1696434  , 797.3742    , 1.23        , 3           , 255         , 0           , 0
-0.135486737, -0.03551156 , -9.790341   , 0.0001719969, 5.455334E-05, -7.41750337E-05, 0.004677634 , -0.013718592, -0.000126198865, 921.0801    , 31.1696434  , 797.3744    , 1.24        , 3           , 255         , 0           , 0
-0.135219127, -0.0400539041, -9.795666   , 0.000199058719, 9.085798E-05, -0.000514540938, 0.0046796957, -0.01371766 , -0.000131340319, 921.0801    , 31.1696434  , 797.3746    , 1.25        , 3           , 255         , 0           , 0
-0.137198955, -0.04240469 , -9.792396   , -0.0003034749, -0.000241591, 0.000159180679, 0.00467663957, -0.0137200831, -0.000129759748, 921.0801    , 31.1696434  , 797.374756  , 1.26        , 3           , 255         , 0           , 0
-0.138476714, -0.0452713966, -9.790949   , 6.95776544E-06, 0.000234627354, -5.15987922E-05, 0.00467671547, -0.0137177352, -0.000130264772, 921.0801    , 31.1696434  , 797.374939  , 1.27        , 3           , 255         , 0           , 0
-0.137273282, -0.04870101 , -9.785943   , -3.86316533E-05, -2.446468E-07, 0.0002176384, 0.004676299 , -0.0137177473, -0.000128088272, 921.0801    , 31.1696434  , 797.3751    , 1.28        , 3           , 255         , 0           , 0
-0.142004266, -0.0454826  , -9.789305   , 8.75897E-05 , -0.0002277868, 0.000159931966, 0.00467715366, -0.0137200328, -0.000126499523, 921.0801    , 31.1696434  , 797.3753    , 1.29        , 3           , 255         , 0           , 0
-0.1425836  , -0.045148585, -9.798037   , 0.000337967358, -7.760299E-05, 0.0007529786, 0.00468043  , -0.0137208439, -0.000118972923, 921.0801    , 31.1696434  , 797.3755    , 1.3         , 3           , 255         , 0           , 0
-0.131257564, -0.0431155041, -9.78771    , 2.2016422E-05, 6.01722422E-05, 0.000301944558, 0.004672833 , -0.01372406 , -0.000115843759, 921.0801    , 31.1696434  , 797.368347  , 1.31        , 3           , 255         , 0           , 0
-0.130725116, -0.04634491 , -9.798477   , -0.0001544924, -0.00024419144, -0.000136123315, 0.004671306 , -0.0137264943, -0.000117216492, 921.0801    , 31.1696434  , 797.3685    , 1.32        , 3           , 255         , 0           , 0
-0.131879568, -0.0466338024, -9.776754   , -0.000301089545, -0.0006998061, -0.0003857829, 0.004668349 , -0.0137334745, -0.00012110723, 921.026855  , 31.170187   , 797.3687    , 1.33        , 3           , 255         , 0           , 0
-0.13481766 , -0.04101073 , -9.791321   , 0.000103151353, -0.0008028946, -0.000306669041, 0.00466942228, -0.0137414867, -0.000124211569, 921.026855  , 31.170187   , 797.3689    , 1.34        , 3           , 255         , 0           , 0
-0.127153322, -0.0475864634, -9.789978   , 0.000229707031, -0.0005246237, 0.000343417283, 0.004671673 , -0.01374675 , -0.000120801706, 921.026855  , 31.170187   , 797.3691    , 1.35        , 3           , 255         , 0           , 0
-0.135170743, -0.0447457954, -9.791942   , 0.00027169325, -0.000400398916, 1.90512947E-05, 0.004674387 , -0.0137507543, -0.000120629891, 921.026855  , 31.170187   , 797.369263  , 1.36        , 3           , 255         , 0           , 0
-0.13767156 , -0.0418011472, -9.787971   , 0.0005875611, -0.000482959265, -0.000248976954, 0.00468029734, -0.0137555711, -0.0001231424, 921.026855  , 31.170187   , 797.369446  , 1.37        , 3           , 255         , 0           , 0
-0.132871926, -0.0421371832, -9.793947   , 0.0005181362, 0.000237812274, -0.001088656, 0.004685627 , -0.0137531431, -0.000134018439, 921.026855  , 31.170187   , 797.3696    , 1.38        , 3           , 255         , 0           , 0
-0.1341331  , -0.0366806574, -9.799396   , -0.000255918771, 0.000173880559, -0.000687894644, 0.00468316255, -0.01375137 , -0.00014088965, 921.026855  , 31.170187   , 797.3698    , 1.39        , 3           , 255         , 0           , 0
-0.135820463, -0.0360168666, -9.79760551 , -0.000693344569, -3.56564124E-05, -1.649026E-05, 0.004676231 , -0.0137517257, -0.000141056225, 921.026855  , 31.170187   , 797.37      , 1.4         , 3           , 255         , 0           , 0
-0.141525418, -0.0405942276, -9.797789   , 0.0001880209, 4.38333082E-05, -0.00023113926, 0.00466835639, -0.0137467673, -0.000143231184, 921.026855  , 31.170187   , 797.418335  , 1.41        , 3           , 255         , 0           , 0
-0.1339314  , -0.0452571362, -9.786946   , 0.000204241631, 0.000275220285, 0.0004319148, 0.00467033824, -0.0137440385, -0.000138898919, 921.026855  , 31.170187   , 797.4187    , 1.42        , 3           , 255         , 0           , 0
-0.14568606 , -0.04821354 , -9.782817   , -6.513577E-05, -0.0005000788, -0.0003759302, 0.00466973847, -0.01374902 , -0.0001426818, 921.0912    , 31.1707287  , 797.419067  , 1.43        , 3           , 255         , 0           , 0
-0.142181188, -0.0451586023, -9.79315    , -0.0007109445, -2.36931955E-05, -0.000703359954, 0.00466272561, -0.0137492232, -0.000149716914, 921.0912    , 31.1707287  , 797.419434  , 1.44        , 3           , 255         , 0           , 0
-0.134298027, -0.04381519 , -9.792146   , -0.000187495374, -0.00015618086, 7.53810746E-05, 0.004660841 , -0.0137507888, -0.000148970328, 921.0912    , 31.1707287  , 797.4198    , 1.45        , 3           , 255         , 0           , 0
-0.130997941, -0.0544860251, -9.78992748 , 0.000727809733, -0.000320737367, 0.000224154472, 0.004668088 , -0.0137540065, -0.000146743623, 921.0912    , 31.1707287  , 797.420166  , 1.46        , 3           , 255         , 0           , 0
-0.1317499  , -0.054161   , -9.785764   , 0.000501548755, -7.469981E-05, -0.0002690559, 0.00467314059, -0.01375474 , -0.000149437808, 921.0912    , 31.1707287  , 797.420532  , 1.47        , 3           , 255         , 0           , 0
-0.131306455, -0.05020063 , -9.786165   , -0.0004273519, 0.000236682128, -0.00042296882, 0.004668925 , -0.0137523524, -0.0001536567, 921.0912    , 31.1707287  , 797.4209    , 1.48        , 3           , 255         , 0           , 0
-0.139850453, -0.0520560853, -9.791407   , 0.000377776771, 4.260178E-05, 3.977961E-05, 0.00467269728, -0.0137519287, -0.000153256871, 921.0912    , 31.1707287  , 797.421265  , 1.49        , 3           , 255         , 0           , 0
-0.139445782, -0.0431359559, -9.799118   , 0.0004497533, -0.000422387733, 7.7397126E-05, 0.00467718439, -0.0137561569, -0.000152502616, 921.0912    , 31.1707287  , 797.421631  , 1.5         , 3           , 255         , 0           , 0
-0.135540366, -0.0419288874, -9.805647   , 0.000408442866, -0.0002996638, 1.546662E-05, 0.004688042 , -0.0137672294, -0.000152455235, 921.0912    , 31.1707287  , 797.3976    , 1.51        , 3           , 255         , 0           , 0
-0.129431844, -0.04047892 , -9.785591   , -0.000202227588, -0.0005588867, -0.0005034845, 0.00468608877, -0.013772795, -0.000157516566, 921.0912    , 31.1707287  , 797.3978    , 1.52        , 3           , 255         , 0           , 0
-0.1294559  , -0.0452654436, -9.781104   , 0.0004452946, -4.54798E-05, -0.0006900112, 0.00469063642, -0.0137732169, -0.000164419223, 921.0758    , 31.1708641  , 797.3981    , 1.53        , 3           , 255         , 0           , 0
-0.1388401  , -0.0330369435, -9.792966   , -0.0004849236, -0.000162480646, -5.42975831E-05, 0.0046857954, -0.0137748392, -0.000164969853, 921.0758    , 31.1708641  , 797.3984    , 1.54        , 3           , 255         , 0           , 0
-0.135513008, -0.0373258777, -9.793764   , -4.61814634E-05, -0.000306577, -4.0840343E-05, 0.004685339 , -0.0137779023, -0.000165392645, 921.0758    , 31.1708641  , 797.3987    , 1.55        , 3           , 255         , 0           , 0
-0.135463983, -0.0443409048, -9.790174   , -5.22904156E-06, -0.000631681469, 6.48503337E-05, 0.004685278 , -0.0137842214, -0.0001647737, 921.0758    , 31.1708641  , 797.399     , 1.56        , 3           , 255         , 0           , 0
-0.1363711  , -0.0428213  , -9.788423   , -0.00013041182, -0.000307652255, 8.866734E-05, 0.004683962 , -0.0137873013, -0.000163901379, 921.0758    , 31.1708641  , 797.3993    , 1.57        , 3           , 255         , 0           , 0
-0.135993153, -0.04875346 , -9.786949   , 0.000271462515, -9.154157E-05, -6.470844E-06, 0.00468667736, -0.0137882167, -0.00016397037, 921.0758    , 31.1708641  , 797.3996    , 1.58        , 3           , 255         , 0           , 0
-0.141553625, -0.0449286737, -9.787374   , 0.000379766221, 6.669342E-05, 0.000130562912, 0.004690457 , -0.0137875555, -0.000162661541, 921.0758    , 31.1708641  , 797.3999    , 1.59        , 3           , 255         , 0           , 0
-0.13375631 , -0.0539433844, -9.792818   , 0.000199673115, 0.000177448223, -0.000947225, 0.004692584 , -0.0137857385, -0.000172126034, 921.0758    , 31.1708641  , 797.4002    , 1.6         , 3           , 255         , 0           , 0
-0.1381093  , -0.0411821865, -9.799525   , -0.000130005181, -0.000226425473, -0.000427760475, 0.004683051 , -0.0137889441, -0.0001763002, 921.0758    , 31.1708641  , 797.394348  , 1.61        , 3           , 255         , 0           , 0
-0.144413918, -0.0408109277, -9.793284   , 7.049237E-05, -0.0003015989, -0.000337859557, 0.0046838033, -0.0137919439, -0.000179693088, 921.0758    , 31.1708641  , 797.3946    , 1.62        , 3           , 255         , 0           , 0
-0.13669154 , -0.0456234179, -9.790712   , -0.0002902113, 3.651451E-05, -0.0005679187, 0.00468098  , -0.0137915527, -0.0001853709, 921.0741    , 31.17039    , 797.394836  , 1.63        , 3           , 255         , 0           , 0
-0.1306329  , -0.0420841128, -9.782972   , -0.000122624711, 0.000377706718, 0.0003005977, 0.00467971247, -0.01378779 , -0.000182347037, 921.0741    , 31.17039    , 797.3951    , 1.64        , 3           , 255         , 0           , 0
-0.140892878, -0.03966252 , -9.789873   , 0.000405231025, 3.253075E-05, -0.000954592659, 0.004683895 , -0.0137874223, -0.000191892, 921.0741    , 31.17039    , 797.3953    , 1.65        , 3           , 255         , 0           , 0
-0.133718207, -0.0460314229, -9.798599   , 0.0005886022, -0.000176968941, -0.0002294121, 0.004689812 , -0.01378918 , -0.000194194552, 921.0741    , 31.17039    , 797.395569  , 1.66        , 3           , 255         , 0           , 0
-0.131607443, -0.041260615, -9.786052   , 0.000412010064, 0.0003165524, -0.000299099425, 0.004693974 , -0.013786   , -0.000197170884, 921.0741    , 31.17039    , 797.3958    , 1.67        , 3           , 255         , 0           , 0
-0.137652859, -0.0378275774, -9.794763   , 0.000420426339, -9.297501E-05, -0.000307044247, 0.00469821971, -0.0137869157, -0.00020024585, 921.0741    , 31.17039    , 797.396057  , 1.68        , 3           , 255         , 0           , 0
-0.138633579, -0.0393559225, -9.793222   , 0.000154060675, -0.0005606687, -0.00031766016, 0.00469980435, -0.0137925083, -0.000203448973, 921.0741    , 31.17039    , 797.3963    , 1.69        , 3           , 255         , 0           , 0
-0.137309745, -0.0422753543, -9.792079   , 0.000385882449, -3.825166E-05, -0.0004896676, 0.004703731 , -0.0137928668, -0.000208347745, 921.0741    , 31.17039    , 797.396545  , 1.7         , 3           , 255         , 0           , 0
-0.145737961, -0.04157024 , -9.79516    , 0.000556314539, -0.0002717935, -0.000235892367, 0.004697814 , -0.0138008613, -0.000210560727, 921.0741    , 31.17039    , 797.392944  , 1.71        , 3           , 255         , 0           , 0
-0.136368662, -0.0395743847, -9.794397   , 0.000313807628, -3.94063827E-05, -0.0004199033, 0.00470101  , -0.0138012357, -0.000214761865, 921.0741    , 31.17039    , 797.3932    , 1.72        , 3           , 255         , 0           , 0
-0.129442036, -0.0404541567, -9.797242   , 0.000204679236, -3.79791E-05, -0.000149824322, 0.00470307749, -0.0138016082, -0.000216261978, 921.050537  , 31.1743927  , 797.393433  , 1.73        , 3           , 255         , 0           , 0
-0.135739   , -0.04919394 , -9.789476   , 0.0007235771, 0.000151713262, 5.23681956E-05, 0.004710305 , -0.0138000939, -0.00021573111, 921.050537  , 31.1743927  , 797.3937    , 1.74        , 3           , 255         , 0           , 0
-0.132338971, -0.0456751771, -9.781973   , 0.000365401327, -0.000693593756, 0.00034782  , 0.004713911 , -0.0138070462, -0.0002122854, 921.050537  , 31.1743927  , 797.3939    , 1.75        , 3           , 255         , 0           , 0
-0.132971972, -0.04040317 , -9.796526   , 0.0005466751, -0.0005747259, 0.000305551453, 0.00471933559, -0.0138128074, -0.000209256788, 921.050537  , 31.1743927  , 797.394165  , 1.76        , 3           , 255         , 0           , 0
-0.138132125, -0.0533436537, -9.78829    , 8.47514457E-05, -8.090708E-05, -0.000683199847, 0.004720278 , -0.0138135832, -0.000216093016, 921.050537  , 31.1743927  , 797.3944    , 1.77        , 3           , 255         , 0           , 0
-0.133980542, -0.0428365655, -9.806433   , 0.000253203558, 0.0002583689, 6.17542537E-05, 0.0047228015, -0.0138110016, -0.000215463224, 921.050537  , 31.1743927  , 797.394653  , 1.78        , 3           , 255         , 0           , 0
-0.128590137, -0.04308909 , -9.798977   , 0.0005614915, 9.654966E-05, 3.25931469E-05, 0.00472841132, -0.0138100376, -0.0002151327, 921.050537  , 31.1743927  , 797.3949    , 1.79        , 3           , 255         , 0           , 0
-0.137567684, -0.0459750965, -9.791788   , -0.00011803188, 0.000363027444, 0.000266031537, 0.004727194 , -0.01380642 , -0.000212455067, 921.050537  , 31.1743927  , 797.395142  , 1.8         , 3           , 255         , 0           , 0
-0.137770787, -0.0442113057, -9.79093    , 0.000123753911, 0.000110986119, 0.0006309757, 0.004723853 , -0.0138050551, -0.000206077675, 921.050537  , 31.1743927  , 797.4182    , 1.81        , 3           , 255         , 0           , 0
-0.137348652, -0.04210668 , -9.7927475  , 0.00029876933, 0.000311267038, 0.00021751321, 0.00472681038, -0.0138019528, -0.0002038877, 921.050537  , 31.1743927  , 797.41864   , 1.82        , 3           , 255         , 0           , 0
-0.146316439, -0.04004523 , -9.795805   , 0.000423393853, -0.000187692727, 0.000636851648, 0.00473095663, -0.0138038583, -0.000197527683, 921.096863  , 31.1724243  , 797.419067  , 1.83        , 3           , 255         , 0           , 0
-0.1442154  , -0.04268225 , -9.79602    , 0.000402499747, 0.000129785709, -0.000837979838, 0.004735097 , -0.0138025209, -0.000205901844, 921.096863  , 31.1724243  , 797.4195    , 1.84        , 3           , 255         , 0           , 0
-0.1314337  , -0.0361589231, -9.790092   , 2.84464477E-05, 0.0002872001, -0.000107211119, 0.00473539624, -0.0137996431, -0.000206960409, 921.096863  , 31.1724243  , 797.4199    , 1.85        , 3           , 255         , 0           , 0
-0.136254758, -0.0435499661, -9.786603   , 0.000236767286, -0.000200430368, -2.818463E-05, 0.00473776832, -0.0138016455, -0.000207251767, 921.096863  , 31.1724243  , 797.420349  , 1.86        , 3           , 255         , 0           , 0
-0.142653182, -0.04594656 , -9.781186   , 0.000564890739, -0.0006060192, 7.419824E-05, 0.00474340748, -0.0138077112, -0.000206538491, 921.096863  , 31.1724243  , 797.4208    , 1.87        , 3           , 255         , 0           , 0
-0.13548252 , -0.0418511741, -9.789722   , 0.0004665826, -0.0008309224, 0.0003967902, 0.004748017 , -0.0138160372, -0.00020260975, 921.096863  , 31.1724243  , 797.4212    , 1.88        , 3           , 255         , 0           , 0
-0.132375881, -0.04570175 , -9.804454   , 0.0006771169, -0.000247184827, -0.00028988038, 0.00475482875, -0.0138184959, -0.000205520468, 921.096863  , 31.1724243  , 797.421631  , 1.89        , 3           , 255         , 0           , 0
-0.138887674, -0.0385836065, -9.798143   , 0.000395649869, 0.000215656066, -3.91579379E-05, 0.0047587906, -0.013816338, -0.000205901815, 921.096863  , 31.1724243  , 797.422058  , 1.9         , 3           , 255         , 0           , 0
-0.142103553, -0.0520707369, -9.785491   , -1.30948174E-05, -9.751672E-05, 0.0001168133, 0.00474793231, -0.01382511 , -0.000204590164, 921.096863  , 31.1724243  , 797.388733  , 1.91        , 3           , 255         , 0           , 0
-0.151185229, -0.0461586043, -9.781313   , 9.566138E-05, -0.000117279371, -0.000305533467, 0.004748931 , -0.0138262678, -0.000207651217, 921.096863  , 31.1724243  , 797.3889    , 1.92        , 3           , 255         , 0           , 0
-0.130357891, -0.0325141847, -9.790384   , 4.038449E-05, -0.00013810255, 0.000360328355, 0.00474928552, -0.0138276666, -0.000204054289, 921.074036  , 31.172493   , 797.3891    , 1.93        , 3           , 255         , 0           , 0
-0.1265322  , -0.0391621478, -9.800443   , 0.000117739532, 1.22526544E-05, -0.000137976574, 0.00475048134, -0.0138275372, -0.000205433535, 921.074036  , 31.172493   , 797.389343  , 1.94        , 3           , 255         , 0           , 0
-0.132306248, -0.0408641063, -9.797997   , -0.000287725939, 0.000390662433, 5.484243E-05, 0.004747596 , -0.013823634, -0.000204866548, 921.074036  , 31.172493   , 797.3896    , 1.95        , 3           , 255         , 0           , 0
-0.136304542, -0.04346484 , -9.791694   , 0.0004134357, -8.004712E-05, 0.000211808467, 0.0047517023, -0.0138244443, -0.000202752126, 921.074036  , 31.172493   , 797.389832  , 1.96        , 3           , 255         , 0           , 0
-0.141848087, -0.0487219021, -9.786841   , 0.00022536816, -1.27534877E-05, -0.00054275844, 0.00475403061, -0.0138245458, -0.000208180645, 921.074036  , 31.172493   , 797.3901    , 1.97        , 3           , 255         , 0           , 0
-0.137738168, -0.0417893045, -9.78483    , 0.0005914368, 0.000339432649, 9.833842E-05, 0.004759931 , -0.0138211558, -0.000207181045, 921.074036  , 31.172493   , 797.3903    , 1.98        , 3           , 255         , 0           , 0
-0.139040589, -0.0412877426, -9.785254   , 0.000147586354, -1.29366817E-05, -0.000183119831, 0.0047614323, -0.0138212759, -0.000209012971, 921.074036  , 31.172493   , 797.390564  , 1.99        , 3           , 255         , 0           , 0
-0.1334492  , -0.0445362851, -9.802313   , -0.000351028983, -0.000171151143, -0.000486031582, 0.00475798873, -0.0138229653, -0.000213881736, 921.074036  , 31.172493   , 797.3908    , 2           , 3           , 0           , 7.46623659  , 200
-0.132068247, -0.05128445 , -9.801271   , -9.687879E-05, 5.08390367E-05, -1.85210956E-06, 0.00474725151, -0.01382734 , -0.00021376276, 921.074036  , 31.172493   , 797.387451  , 2.01        , 3           , 1           , 0           , 0
-0.12688303 , -0.03381328 , -9.798573   , -3.75045056E-05, -0.000410235458, -0.0005398539, 0.00474695163, -0.0138314171, -0.0002191811, 921.074036  , 31.172493   , 797.387634  , 2.02        , 3           , 2           , 0           , 0
-0.125852734, -0.0411930867, -9.789095   , -0.000178333925, -0.000441882527, -3.96286341E-05, 0.00474517467, -0.0138358325, -0.000219598369, 921.0875    , 31.1731033  , 797.3878    , 2.03        , 3           , 3           , 0           , 0
-0.130905747, -0.04191143 , -9.803114   , 3.93272931E-05, -0.00017752804, 0.0006437252, 0.00474547874, -0.0138376383, -0.000213169158, 921.0875    , 31.1731033  , 797.388     , 2.04        , 3           , 4           , 0           , 0
-0.1417872  , -0.0484873  , -9.792249   , -0.000377969671, -4.147386E-05, 0.000282396562, 0.004741661 , -0.0138380658, -0.000210346989, 921.0875    , 31.1731033  , 797.3882    , 2.05        , 3           , 5           , 0           , 0
-0.139298275, -0.04138822 , -9.7993     , -0.0005166838, -0.000105483836, -0.000253902748, 0.004736529 , -0.0138391089, -0.000212891173, 921.0875    , 31.1731033  , 797.3884    , 2.06        , 3           , 6           , 0           , 0
-0.123468183, -0.03648116 , -9.80118752 , 0.000235664353, -0.0003751229, -0.0007169757, 0.004738986 , -0.0138428267, -0.00022007915, 921.0875    , 31.1731033  , 797.3887    , 2.07        , 3           , 7           , 0           , 0
-0.12439394 , -0.0460329466, -9.793847   , 0.0004942984, -0.000697502051, -0.000911345531, 0.00474405475, -0.0138497557, -0.0002292262, 921.0875    , 31.1731033  , 797.3889    , 2.08        , 3           , 8           , 5           , 5
-0.129093289, -0.0410606  , -9.791614   , 0.00013506347, -0.000155863789, -0.0007471428, 0.00474550948, -0.0138512794, -0.000236705455, 921.0875    , 31.1731033  , 797.38916   , 2.09        , 3           , 9           , 5           , 0.1
-0.129669145, -0.0527088754, -9.785952   , 0.0006300482, 0.000156476279, -0.0006888828, 0.00475190347, -0.0138496812, -0.000243587245, 921.0875    , 31.1731033  , 797.3894    , 2.1         , 3           , 10          , 0.1         , 0.1
-0.135894746, -0.0474017076, -9.784493   , 0.0001305186, -0.000332199561, -0.00095047697, 0.00474743126, -0.0138427718, -0.000253026577, 921.0875    , 31.1731033  , 797.3695    , 2.11        , 3           , 11          , 0.00804691  , 0.008046911
-0.136462539, -0.04100435 , -9.7950325  , 0.000187434431, -2.430065E-05, 3.40822444E-05, 0.00474930136, -0.0138430167, -0.000252686878, 921.0875    , 31.1731033  , 797.3696    , 2.12        , 3           , 12          , 0.174643889 , 0
-0.1345224  , -0.0470101275, -9.79323    , 6.5199376E-05, -0.000391657231, 0.00015163119, 0.00474993233, -0.01384694 , -0.000251189078, 921.091858  , 31.1706619  , 797.369751  , 2.13        , 3           , 13          , 0           , 0
-0.14372237 , -0.0288848672, -9.789676   , 0.000221014343, -0.000433878857, -0.000476327725, 0.00475220848, -0.0138512561, -0.000255973253, 921.091858  , 31.1706619  , 797.3699    , 2.14        , 3           , 14          , -0.00016497272, 0.0002351127
-0.141061515, -0.0487448163, -9.784465   , 0.0003272873, -6.39169E-05, 6.61043741E-05, 0.0047554723, -0.0138518978, -0.0002553152, 921.091858  , 31.1706619  , 797.37      , 2.15        , 3           , 15          , 0           , 0.0001758894
-0.135461375, -0.0386203229, -9.788137   , -0.000187753074, -0.000345920445, -0.000490447856, 0.00475366227, -0.0138553344, -0.000260236382, 921.091858  , 31.1706619  , 797.3701    , 2.16        , 3           , 16          , 0           , 1.401298E-45
-0.1382362  , -0.0437094457, -9.791132   , 0.000467585924, -0.000112941038, 0.000508032739, 0.00475826766, -0.0138564892, -0.00025516114, 921.091858  , 31.1706619  , 797.370239  , 2.17        , 3           , 20          , 0           , 0
-0.133175224, -0.0551361926, -9.791057   , 7.74313739E-05, -0.000158818686, -0.000307302456, 0.00475908536, -0.0138580622, -0.000258241926, 921.091858  , 31.1706619  , 797.370361  , 2.18        , 3           , 21          , 0           , 0
-0.14437294 , -0.04174576 , -9.799437   , 8.13702354E-06, -0.0008438126, 0.00024913135, 0.004759132 , -0.01386651 , -0.0002557906, 921.091858  , 31.1706619  , 797.3705    , 2.19        , 3           , 22          , 0           , 0
-0.141576275, -0.0367734879, -9.802667   , 0.0004281223, -0.000422358629, -0.000307896524, 0.00476345653, -0.0138707208, -0.000258889835, 921.091858  , 31.1706619  , 797.3706    , 2.2         , 3           , 40          , 0           , 0
-0.1441786  , -0.0369751081, -9.787647   , 0.000405947329, -0.000104273189, -0.0004089282, 0.004758645 , -0.0138785988, -0.0002628604, 921.091858  , 31.1706619  , 797.347351  , 2.21        , 3           , 41          , 0           , 0
-0.13769117 , -0.03224732 , -9.7792     , 5.33057173E-05, 8.33975355E-05, -0.000265507464, 0.004759215 , -0.0138777522, -0.0002655117, 921.091858  , 31.1706619  , 797.3473    , 2.22        , 3           , 42          , 0           , 0
-0.131568819, -0.0319183767, -9.791385   , 0.0004948578, 0.000123574908, -0.000263619877, 0.004764199 , -0.0138765043, -0.000268142176, 921.0823    , 31.1707973  , 797.3472    , 2.23        , 3           , 255         , 0           , 0
-0.1362551  , -0.04457677 , -9.801971   , 0.0005768401, 0.000193168686, -0.000338611, 0.0047700135, -0.0138745569, -0.000271519268, 921.0823    , 31.1707973  , 797.347168  , 2.24        , 3           , 255         , 0           , 0
-0.133675322, -0.04213696 , -9.803143   , 0.0005179131, 0.000180718649, -0.000424052239, 0.00477525173, -0.01387273 , -0.00027575143, 921.0823    , 31.1707973  , 797.347168  , 2.25        , 3           , 255         , 0           , 0
-0.131175429, -0.0428114049, -9.799565   , -6.681918E-05, -2.45334086E-05, 4.548882E-05, 0.004774577 , -0.0138729773, -0.000275297672, 921.0823    , 31.1707973  , 797.347168  , 2.26        , 3           , 255         , 0           , 0
-0.134880915, -0.04046293 , -9.78673    , 0.0002585941, -0.00038344058, 0.0009501716, 0.00477703055, -0.0138768582, -0.0002658137, 921.0823    , 31.1707973  , 797.347168  , 2.27        , 3           , 255         , 0           , 0
-0.13018094 , -0.0423514433, -9.788176   , -0.000113643924, -0.000288391224, 0.0005184902, 0.004775822 , -0.0138797658, -0.000260642264, 921.0823    , 31.1707973  , 797.347168  , 2.28        , 3           , 255         , 0           , 0
-0.134258628, -0.0384287126, -9.790314   , -0.000235696687, -0.000265076669, 8.823341E-05, 0.004773453 , -0.01388242 , -0.000259772554, 921.0823    , 31.1707973  , 797.347168  , 2.29        , 3           , 255         , 0           , 0
-0.131900638, -0.03890735 , -9.79147148 , -3.648724E-05, 0.000352254137, 4.399568E-05, 0.00477308175, -0.0138789  , -0.000259315741, 921.0823    , 31.1707973  , 797.347168  , 2.3         , 3           , 255         , 0           , 0
-0.127562538, -0.03789272 , -9.803466   , 0.000328472117, 0.000271413766, -0.000292013283, 0.00475804228, -0.0138730984, -0.000261968322, 921.0823    , 31.1707973  , 797.3386    , 2.31        , 3           , 255         , 0           , 0
-0.125149116, -0.03476123 , -9.78908348 , 0.000295394741, -0.000397539261, 0.000426602026, 0.004760937 , -0.0138770938, -0.000257720938, 921.0823    , 31.1707973  , 797.338562  , 2.32        , 3           , 255         , 0           , 0
-0.132955343, -0.04383629 , -9.790383   , -0.0005304924, -0.000398398726, 0.000777109235, 0.004755524 , -0.0138811152, -0.000249968347, 921.0541    , 31.17195    , 797.3385    , 2.33        , 3           , 255         , 0           , 0
-0.135111481, -0.0463069454, -9.783267   , 4.21073055E-05, -0.0002867142, -0.000101234953, 0.00475595845, -0.0138839763, -0.000250994373, 921.0541    , 31.17195    , 797.33844   , 2.34        , 3           , 255         , 0           , 0
-0.122659728, -0.0391850732, -9.805469   , 0.000692105445, -0.000683246762, -0.0008963256, 0.004763004 , -0.0138907647, -0.0002599907, 921.0541    , 31.17195    , 797.3384    , 2.35        , 3           , 255         , 0           , 0
-0.137882829, -0.0397010557, -9.805413   , 0.000390549481, -0.00016751443, -0.000449951738, 0.004766972 , -0.0138924178, -0.000264498463, 921.0541    , 31.17195    , 797.3383    , 2.36        , 3           , 255         , 0           , 0
-0.141021386, -0.0387587324, -9.804121   , 0.000150913271, -0.0002689697, -2.75563216E-05, 0.00476848474, -0.0138951056, -0.000264786853, 921.0541    , 31.17195    , 797.338257  , 2.37        , 3           , 255         , 0           , 0
-0.135823756, -0.0397461429, -9.792059   , 8.882562E-05, -0.000229207755, -0.0008941319, 0.004769497 , -0.0138973547, -0.000273739657, 921.0541    , 31.17195    , 797.3382    , 2.38        , 3           , 255         , 0           , 0
-0.135710672, -0.0377169475, -9.776018   , -0.000184707751, 9.51058E-05 , -0.00055276067, 0.00476772664, -0.0138963778, -0.000279263069, 921.0541    , 31.17195    , 797.338135  , 2.39        , 3           , 255         , 0           , 0
-0.135389045, -0.0346768834, -9.780733   , 0.000577337341, 7.685565E-06, 7.935522E-05, 0.00477348873, -0.013896306, -0.0002784691, 921.0541    , 31.17195    , 797.3381    , 2.4         , 3           , 255         , 0           , 0
-0.136038139, -0.0449403524, -9.796974   , 8.679913E-05, 0.000130657761, 3.49026232E-05, 0.00475835847, -0.0138882864, -0.0002778917, 921.0541    , 31.17195    , 797.3678    , 2.41        , 3           , 255         , 0           , 0
-0.138412088, -0.037647523, -9.801097   , 0.0004381656, -4.095958E-05, 8.884023E-05, 0.00476272823, -0.0138887009, -0.0002770052, 921.0541    , 31.17195    , 797.3679    , 2.42        , 3           , 255         , 0           , 0
-0.139250383, -0.04080283 , -9.794858   , 0.0007419819, 2.46112177E-06, 0.000427011546, 0.004770088 , -0.0138886962, -0.000272734731, 921.0223    , 31.1737823  , 797.368042  , 2.43        , 3           , 255         , 0           , 0
-0.1421117  , -0.0436467454, -9.787333   , 1.05290237E-05, -0.000342799554, -3.85855674E-05, 0.004770199 , -0.0138921235, -0.000273136975, 921.0223    , 31.1737823  , 797.368164  , 2.44        , 3           , 255         , 0           , 0
-0.139929414, -0.0432398543, -9.77669    , 3.06774746E-06, 1.45314407E-05, -0.000129062319, 0.00477024727, -0.0138919717, -0.000274426973, 921.0223    , 31.1737823  , 797.3683    , 2.45        , 3           , 255         , 0           , 0
-0.142576531, -0.04282695 , -9.779711   , -0.000133409223, 0.0001348878, 0.0007337589, 0.00476881163, -0.0138906585, -0.000267082534, 921.0223    , 31.1737823  , 797.3684    , 2.46        , 3           , 255         , 0           , 0
-0.135507673, -0.0388938151, -9.799397   , 0.000142127814, 0.000361928716, 0.000136331248, 0.00477021374, -0.0138870459, -0.000265701878, 921.0223    , 31.1737823  , 797.3685    , 2.47        , 3           , 255         , 0           , 0
-0.137175009, -0.03665963 , -9.81934452 , 0.000226088858, 0.0003104736, -0.000345743552, 0.004772522 , -0.013883925, -0.0002691447, 921.0223    , 31.1737823  , 797.368652  , 2.48        , 3           , 255         , 0           , 0
-0.138222739, -0.0383589752, -9.807341   , -0.000362260471, -0.000192723644, -0.000444457, 0.00476896251, -0.0138858315, -0.000273598736, 921.0223    , 31.1737823  , 797.3688    , 2.49        , 3           , 255         , 0           , 0
-0.1365301  , -0.05373794 , -9.794484   , 5.789358E-05, 6.19412458E-06, -0.0002784551, 0.00476958  , -0.0138857551, -0.000276383158, 921.0223    , 31.1737823  , 797.3689    , 2.5         , 3           , 255         , 0           , 0
-0.127146035, -0.0540696159, -9.765558   , -0.000819764449, 0.000147439467, 7.51496E-05 , 0.00475312769, -0.0138886822, -0.000275510072, 921.0223    , 31.1737823  , 797.4376    , 2.51        , 3           , 255         , 0           , 0
-0.12928912 , -0.0466397963, -9.781553   , -0.000173923356, 0.000158231982, 0.000283502741, 0.004751349 , -0.0138871176, -0.000272667356, 921.0223    , 31.1737823  , 797.438232  , 2.52        , 3           , 255         , 0           , 0
-0.136469454, -0.0447676852, -9.790952   , -1.78530754E-05, 1.11439876E-05, 0.000437810959, 0.00475111  , -0.0138870254, -0.000268288451, 921.0518    , 31.1716118  , 797.438843  , 2.53        , 3           , 255         , 0           , 0
-0.124059439, -0.0391231962, -9.800207   , 0.0002506543, -0.000167603372, 0.0004643115, 0.004753552 , -0.0138887232, -0.000263653055, 921.0518    , 31.1716118  , 797.439453  , 2.54        , 3           , 255         , 0           , 0
-0.1331129  , -0.0519350842, -9.810431   , -0.000313664932, -0.000306561, -0.000278291816, 0.0047504534, -0.0138917761, -0.0002664507, 921.0518    , 31.1716118  , 797.440063  , 2.55        , 3           , 255         , 0           , 0
-0.1292288  , -0.0411118232, -9.793806   , 0.0002768617, 2.21601367E-05, -0.000284539157, 0.00475326134, -0.0138915405, -0.0002692952, 921.0518    , 31.1716118  , 797.4407    , 2.56        , 3           , 255         , 0           , 0
-0.134734675, -0.04352387 , -9.780735   , 0.000702954945, -0.000315477722, 0.000264010043, 0.004760254 , -0.013894706, -0.000266669929, 921.0518    , 31.1716118  , 797.4413    , 2.57        , 3           , 255         , 0           , 0
-0.138665974, -0.0393574759, -9.783763   , 0.000152834677, -0.0005947858, 2.636516E-06, 0.004761783 , -0.0139006544, -0.0002666719, 921.0518    , 31.1716118  , 797.4419    , 2.58        , 3           , 255         , 0           , 0
-0.1338983  , -0.04209748 , -9.79558    , -0.0002612576, -8.378495E-05, -0.00040700403, 0.00475922739, -0.013901473, -0.000270746154, 921.0518    , 31.1716118  , 797.4425    , 2.59        , 3           , 255         , 0           , 0
-0.137204781, -0.04757022 , -9.810708   , 2.63358816E-05, 2.49989534E-05, 0.000266194984, 0.0047594537, -0.0139012355, -0.0002680829, 921.0518    , 31.1716118  , 797.4431    , 2.6         , 3           , 255         , 0           , 0
-0.135855779, -0.0414997563, -9.797804   , -0.00010180875, 0.000159172152, 0.0004795972, 0.00475478871, -0.0138910208, -0.0002632293, 921.0518    , 31.1716118  , 797.4627    , 2.61        , 3           , 255         , 0           , 0
-0.14154169 , -0.037825156, -9.788844   , 0.000163011544, 0.000181364987, 0.000717073 , 0.00475631841, -0.01388924 , -0.0002560495, 921.0518    , 31.1716118  , 797.46344   , 2.62        , 3           , 255         , 0           , 0
-0.141684309, -0.03478333 , -9.785847   , -0.00019024362, 8.082653E-05, 0.00102364738, 0.004754273 , -0.013888482, -0.000245808566, 921.058     , 31.1714077  , 797.4642    , 2.63        , 3           , 255         , 0           , 0
-0.1460254  , -0.04221081 , -9.791239   , -0.000456941256, -8.5415E-05 , 0.000241459915, 0.00474967062, -0.0138893481, -0.000243397866, 921.058     , 31.1714077  , 797.4649    , 2.64        , 3           , 255         , 0           , 0
-0.1433883  , -0.04635241 , -9.800433   , -0.0003084386, 7.561625E-05, 0.000252549478, 0.00474655069, -0.0138886031, -0.000240868656, 921.058     , 31.1714077  , 797.465637  , 2.65        , 3           , 255         , 0           , 0
-0.134116277, -0.0440184362, -9.801381   , 0.000471262669, 0.0005210394, 0.000778488349, 0.00475115562, -0.0138834333, -0.00023305857, 921.058     , 31.1714077  , 797.4664    , 2.66        , 3           , 255         , 0           , 0
-0.134030849, -0.048166208, -9.782549   , 0.000825541851, -0.000140367789, 0.0011886619, 0.00475924555, -0.0138848908, -0.0002211779, 921.058     , 31.1714077  , 797.4671    , 2.67        , 3           , 255         , 0           , 0
-0.136812136, -0.0436436161, -9.786509   , 0.000208567886, -0.000382544415, 0.000735317357, 0.00476122927, -0.0138887512, -0.0002138425, 921.058     , 31.1714077  , 797.467834  , 2.68        , 3           , 255         , 0           , 0
-0.135350436, -0.04556628 , -9.782039   , -5.732299E-05, 0.000133082751, 0.000183803946, 0.00476063043, -0.01388743 , -0.00021199802, 921.058     , 31.1714077  , 797.468567  , 2.69        , 3           , 255         , 0           , 0
-0.143341526, -0.0463766269, -9.789026   , -0.000184507342, -0.000255783933, -3.77160468E-05, 0.004758791 , -0.0138899861, -0.000212387386, 921.058     , 31.1714077  , 797.4693    , 2.7         , 3           , 255         , 0           , 0
-0.133003592, -0.0445008539, -9.810043   , -0.000479098235, 4.189815E-05, 0.000110412846, 0.004745517 , -0.0138975056, -0.000211163511, 921.058     , 31.1714077  , 797.477     , 2.71        , 3           , 255         , 0           , 0
-0.1370111  , -0.04350505 , -9.799311   , -0.000383163569, 4.499733E-05, -0.000268568052, 0.004741723 , -0.0138970437, -0.000213847219, 921.058     , 31.1714077  , 797.4778    , 2.72        , 3           , 255         , 0           , 0
-0.136012048, -0.0361953564, -9.792422   , 0.0005337443, 0.000262213638, 0.0001311376, 0.004747042 , -0.0138944285, -0.00021252333, 921.07135   , 31.1702538  , 797.4786    , 2.73        , 3           , 255         , 0           , 0
-0.134518772, -0.04212656 , -9.790915   , 0.0004232765, 0.000485927681, 0.000382068742, 0.004751221 , -0.01388959 , -0.0002086793, 921.07135   , 31.1702538  , 797.4794    , 2.74        , 3           , 255         , 0           , 0
-0.128448769, -0.0393428057, -9.78624249 , 0.000125964711, 0.000331377552, 0.000507005432, 0.00475241  , -0.0138862981, -0.000203593212, 921.07135   , 31.1702538  , 797.480164  , 2.75        , 3           , 255         , 0           , 0
-0.126896262, -0.04520778 , -9.798373   , 0.000185526776, 0.000232359613, 0.000354022428, 0.00475421548, -0.0138839912, -0.000200041744, 921.07135   , 31.1702538  , 797.480957  , 2.76        , 3           , 255         , 0           , 0
-0.131968349, -0.04530997 , -9.804957   , 0.0002861622, 8.855142E-05, -0.000522832153, 0.00475714961, -0.01388308 , -0.000205266144, 921.07135   , 31.1702538  , 797.48175   , 2.77        , 3           , 255         , 0           , 0
-0.13756308 , -0.0420637168, -9.804304   , -8.682323E-05, -0.000285782036, -0.0006486185, 0.004756372 , -0.0138859078, -0.00021176631, 921.07135   , 31.1702538  , 797.482544  , 2.78        , 3           , 255         , 0           , 0
-0.130488545, -0.051781863, -9.793936   , 0.000625235843, -0.000433003821, -0.0005271304, 0.0047626975, -0.0138902143, -0.000217058536, 921.07135   , 31.1702538  , 797.483337  , 2.79        , 3           , 255         , 0           , 0
-0.13817212 , -0.047860004, -9.788485   , 0.00131283526, -0.000178975752, -6.51128357E-06, 0.004775826 , -0.0138920015, -0.0002171322, 921.07135   , 31.1702538  , 797.484131  , 2.8         , 3           , 255         , 0           , 0
-0.139410943, -0.0369280055, -9.798993   , 0.0006996797, -3.70781636E-05, -0.000254014536, 0.00477854  , -0.0138882119, -0.000219614274, 921.07135   , 31.1702538  , 797.471436  , 2.81        , 3           , 255         , 0           , 0
-0.130499631, -0.0309967138, -9.787298   , -3.15995276E-05, 0.000234605643, 0.000415750663, 0.0047781663, -0.0138858864, -0.00021544531, 921.07135   , 31.1702538  , 797.472168  , 2.82        , 3           , 255         , 0           , 0
-0.138001963, -0.0408574566, -9.78611    , 0.000229107391, 0.0007123255, 4.51606757E-05, 0.00478045  , -0.0138787683, -0.000214959626, 921.068665  , 31.1710014  , 797.4729    , 2.83        , 3           , 255         , 0           , 0
-0.131391019, -0.0517738461, -9.798097   , 0.00029919995, 0.000421044882, -0.0003978533, 0.00478349626, -0.0138745373, -0.000218918271, 921.068665  , 31.1710014  , 797.473633  , 2.84        , 3           , 255         , 0           , 0
-0.129515171, -0.04647537 , -9.797793   , 0.000355142285, 9.583715E-05, 6.561709E-05, 0.004787038 , -0.0138735827, -0.000218257454, 921.068665  , 31.1710014  , 797.474365  , 2.85        , 3           , 255         , 0           , 0
-0.131310031, -0.04371554 , -9.794011   , 0.0007250309, -2.967313E-05, 2.23624811E-05, 0.00479428563, -0.0138738807, -0.00021803526, 921.068665  , 31.1710014  , 797.4751    , 2.86        , 3           , 255         , 0           , 0
-0.144577652, -0.0460724272, -9.792756   , 0.000489651866, 9.681405E-05, -0.000619672239, 0.00479926774, -0.0138728824, -0.000224227682, 921.068665  , 31.1710014  , 797.4758    , 2.87        , 3           , 255         , 0           , 0
-0.139630139, -0.0504715964, -9.784714   , 0.000238923152, 3.31415358E-05, 7.038044E-05, 0.00480164727, -0.0138725545, -0.000223522264, 921.068665  , 31.1710014  , 797.476563  , 2.88        , 3           , 255         , 0           , 0
-0.14045088 , -0.04417106 , -9.784791   , 0.0005587597, -0.000227695738, -0.000525723968, 0.00480730832, -0.0138748065, -0.000228790756, 921.068665  , 31.1710014  , 797.4773    , 2.89        , 3           , 255         , 0           , 0
-0.137807548, -0.0434498973, -9.790631   , 3.53735231E-06, -0.000362062419, -0.00044967694, 0.004807406 , -0.0138784051, -0.000233305182, 921.068665  , 31.1710014  , 797.478     , 2.9         , 3           , 255         , 0           , 0
-0.133349061, -0.044651296, -9.79189    , 0.0003358916, -0.000127088118, -0.000385442341, 0.004803415 , -0.0138805415, -0.00023706317, 921.068665  , 31.1710014  , 797.469666  , 2.91        , 3           , 255         , 0           , 0
-0.131887972, -0.0517811254, -9.803633   , 8.675444E-05, -0.000226909091, -0.0009415584, 0.004804413 , -0.0138827655, -0.000246490235, 921.068665  , 31.1710014  , 797.470337  , 2.92        , 3           , 255         , 0           , 0
-0.136435375, -0.0453409776, -9.792311   , 0.0004341673, 3.52390343E-05, 0.000202511117, 0.004808726 , -0.0138824219, -0.00024446327, 921.078369  , 31.1700516  , 797.471     , 2.93        , 3           , 255         , 0           , 0
-0.137099281, -0.03934461 , -9.789137   , 0.000501199742, 0.000270010729, 0.000288704265, 0.004813698 , -0.013879736, -0.000241563073, 921.078369  , 31.1700516  , 797.4717    , 2.94        , 3           , 255         , 0           , 0
-0.138701722, -0.0365159027, -9.782698   , 5.51171252E-06, 0.000201943039, 0.0004695588, 0.004813688 , -0.0138777383, -0.0002368575, 921.078369  , 31.1700516  , 797.472351  , 2.95        , 3           , 255         , 0           , 0
-0.133464456, -0.03937119 , -9.792547   , 9.922036E-05, 0.000259527355, 0.000150939246, 0.004814659 , -0.01387515 , -0.000235335523, 921.078369  , 31.1700516  , 797.473     , 2.96        , 3           , 255         , 0           , 0
-0.135114267, -0.0410116725, -9.791005   , -0.000196890935, -0.000225978874, -0.0004856551, 0.00481275842, -0.0138773872, -0.000240203241, 921.078369  , 31.1700516  , 797.4737    , 2.97        , 3           , 255         , 0           , 0
-0.126691848, -0.03615882 , -9.796831   , -0.000259986642, 0.000142528064, -4.610156E-05, 0.00481016375, -0.01387596 , -0.00024065742, 921.078369  , 31.1700516  , 797.474365  , 2.98        , 3           , 255         , 0           , 0
-0.135579258, -0.04398732 , -9.799166   , 0.000328909373, 0.000205665827, 0.000412403082, 0.004813396 , -0.0138739226, -0.000236523265, 921.078369  , 31.1700516  , 797.475037  , 2.99        , 3           , 255         , 0           , 0
-0.13000226 , -0.0378806069, -9.775255   , 0.0003630136, -0.000133999813, 0.0001257436, 0.00481700851, -0.0138752684, -0.0002352722, 921.078369  , 31.1700516  , 797.4757    , 3           , 3           , 0           , 8.466237    , 300
-0.1314685  , -0.0374564752, -9.774302   , -0.0003629767, -0.000132646237, 0.000295195321, 0.004801318 , -0.0138721168, -0.000232159713, 921.078369  , 31.1700516  , 797.4539    , 3.01        , 3           , 1           , 0           , 0
-0.138912112, -0.0434972942, -9.786299   , -5.25245268E-05, -0.0004078092, -6.550222E-05, 0.004800802 , -0.0138761913, -0.000232834354, 921.078369  , 31.1700516  , 797.454468  , 3.02        , 3           , 2           , 0           , 0
-0.139332891, -0.032601878, -9.796736   , 0.000179889714, 0.000104969571, -3.28138412E-06, 0.004802601 , -0.0138751417, -0.000232862134, 921.0483    , 31.1727638  , 797.455     , 3.03        , 3           , 3           , 0           , 0
-0.133510351, -0.0312094484, -9.802192   , 0.000216055254, 0.000113903807, -0.0007997185, 0.004804872 , -0.0138739636, -0.000240854322, 921.0483    , 31.1727638  , 797.455566  , 3.04        , 3           , 4           , 0           , 0
-0.12731187 , -0.0444245934, -9.808478   , 0.000249870965, -0.000426856335, -7.287745E-05, 0.004807381 , -0.0138782281, -0.00024160363, 921.0483    , 31.1727638  , 797.4561    , 3.05        , 3           , 5           , 0           , 0
-0.12602064 , -0.04581926 , -9.790144   , 0.0008968017, -5.12801926E-05, -0.0005241995, 0.004816422 , -0.0138787134, -0.000246848416, 921.0483    , 31.1727638  , 797.456665  , 3.06        , 3           , 6           , 0           , 0
-0.124589488, -0.048079513, -9.775531   , 0.0005104774, 0.000544102746, -0.00084830774, 0.00482164323, -0.0138732344, -0.000255305757, 921.0483    , 31.1727638  , 797.4572    , 3.07        , 3           , 7           , 0           , 0
-0.137821436, -0.0499705747, -9.774796   , -0.00013357462, 0.0005775511, -0.000334008248, 0.00482035335, -0.0138674416, -0.0002586182, 921.0483    , 31.1727638  , 797.457764  , 3.08        , 3           , 8           , 5           , 5
-0.129679143, -0.041610267, -9.79560852 , 3.10612086E-06, 0.0001326031, 0.000221216716, 0.004820354 , -0.0138661265, -0.000256399537, 921.0483    , 31.1727638  , 797.4583    , 3.09        , 3           , 9           , 5           , 0.1
-0.13241455 , -0.05042254 , -9.813402   , -0.000140816061, 0.000104325794, -0.000276985316, 0.004818984 , -0.01386507 , -0.000259164517, 921.0483    , 31.1727638  , 797.458862  , 3.1         , 3           , 10          , 0.1         , 0.1
-0.135933667, -0.0440820642, -9.807211   , -0.000177210532, 0.000303359178, 0.000256685831, 0.004807688 , -0.0138541749, -0.000256451458, 921.0483    , 31.1727638  , 797.4816    , 3.11        , 3           , 11          , 0.00726349652, 0.007263496
-0.13511996 , -0.04981396 , -9.79483    , -0.000279373548, 0.000131838853, 0.000692343048, 0.004804798 , -0.0138528934, -0.000249521254, 921.0483    , 31.1727638  , 797.482361  , 3.12        , 3           , 12          , 0.174645633 , 0
-0.1268837  , -0.0360000655, -9.784159   , -0.000275091385, 0.000197110421, -0.000396224554, 0.004802102 , -0.0138509013, -0.000253474282, 921.0898    , 31.1682873  , 797.4831    , 3.13        , 3           , 13          , 0           , 0
-0.126589134, -0.047926046, -9.787379   , -0.000255965919, -0.000167245744, 0.000129328284, 0.004799525 , -0.01385258 , -0.000252188969, 921.0898    , 31.1682873  , 797.4838    , 3.14        , 3           , 14          , -0.000164588317, 0.00023504025
-0.142345577, -0.0491349176, -9.785131   , 0.000293846184, 3.58271063E-06, -0.0006915563, 0.004802559 , -0.0138525115, -0.000259104738, 921.0898    , 31.1682873  , 797.484558  , 3.15        , 3           , 15          , 0           , 0.000175884459
-0.142830342, -0.0483774319, -9.800662   , 4.820487E-05, 0.000275963626, -0.0007121523, 0.00480313925, -0.0138497176, -0.000266213436, 921.0898    , 31.1682873  , 797.4853    , 3.16        , 3           , 16          , 0           , 1.401298E-45
-0.140285388, -0.0432217754, -9.785348   , -8.552855E-05, -3.214169E-05, -1.59796618E-05, 0.004802286 , -0.0138500379, -0.0002663748, 921.0898    , 31.1682873  , 797.486     , 3.17        , 3           , 20          , 0           , 0
-0.1471895  , -0.0419577472, -9.788374   , 5.06448851E-06, 0.0006444548, -0.0007446074, 0.00480244  , -0.01384356 , -0.000273790356, 921.0898    , 31.1682873  , 797.486755  , 3.18        , 3           , 21          , 0           , 0
-0.1356649  , -0.03998028 , -9.795516   , -0.000216491651, 0.000572182355, -0.0008334302, 0.00480038952, -0.0138377966, -0.0002820977, 921.0898    , 31.1682873  , 797.4875    , 3.19        , 3           , 22          , 0           , 0
-0.133373484, -0.0372140668, -9.792971   , -0.000136719915, -0.0001872621, 0.000845945 , 0.004798905 , -0.01383971 , -0.000273646758, 921.0898    , 31.1682873  , 797.4882    , 3.2         , 3           , 40          , 0           , 0
-0.137095392, -0.0359502956, -9.7945     , -0.000209159218, -0.000400192366, 2.66150018E-05, 0.004790419 , -0.0138456142, -0.0002733113, 921.0898    , 31.1682873  , 797.4482    , 3.21        , 3           , 41          , 0           , 0
-0.143476829, -0.0359300151, -9.789319   , 0.000576765044, -0.0006402085, -0.000622104038, 0.004796272 , -0.0138519891, -0.0002795634, 921.0898    , 31.1682873  , 797.448669  , 3.22        , 3           , 42          , 0           , 0
-0.1339671  , -0.0466122441, -9.779053   , 0.000144151491, -0.000316317775, -0.00049547 , 0.004797782 , -0.0138551267, -0.000284533569, 921.0384    , 31.170187   , 797.449158  , 3.23        , 3           , 255         , 0           , 0
-0.1321052  , -0.0488480255, -9.793239   , 0.000521467766, -0.000124446189, -0.000320057035, 0.00480304146, -0.013856356, -0.000287740258, 921.0384    , 31.170187   , 797.449646  , 3.24        , 3           , 255         , 0           , 0
-0.135800049, -0.0424844362, -9.797992   , 0.000477208436, -0.0002905175, -0.0006767643, 0.00480790669, -0.0138592292, -0.0002945223, 921.0384    , 31.170187   , 797.450134  , 3.25        , 3           , 255         , 0           , 0
-0.128434271, -0.0468323976, -9.804244   , -0.000139142328, 0.000379980978, -0.0002217234, 0.00480654649, -0.0138554191, -0.00029672138, 921.0384    , 31.170187   , 797.4506    , 3.26        , 3           , 255         , 0           , 0
-0.131725311, -0.04453058 , -9.80425    , 0.0003671121, -0.000269615062, 0.000616359233, 0.004810131 , -0.0138581451, -0.000290570373, 921.0384    , 31.170187   , 797.4511    , 3.27        , 3           , 255         , 0           , 0
-0.135269642, -0.040093042, -9.786023   , 0.000308573362, -0.0005534499, -0.000307863229, 0.00481325947, -0.0138636632, -0.000293675781, 921.0384    , 31.170187   , 797.4516    , 3.28        , 3           , 255         , 0           , 0
-0.1366209  , -0.04361089 , -9.784335   , 0.0006955722, -0.0002461359, 6.41522638E-06, 0.004820214 , -0.0138661247, -0.0002936235, 921.0384    , 31.170187   , 797.4521    , 3.29        , 3           , 255         , 0           , 0
-0.143667117, -0.0390665  , -9.791647   , 0.0005937073, -0.0003057281, 0.0005844592, 0.00482607028, -0.01386921 , -0.000287793315, 921.0384    , 31.170187   , 797.4526    , 3.3         , 3           , 255         , 0           , 0
-0.1321935  , -0.04820178 , -9.791249   , 0.0005134704, 0.00011681694, 0.000307311 , 0.00482232776, -0.0138682481, -0.0002845919, 921.0384    , 31.170187   , 797.490356  , 3.31        , 3           , 255         , 0           , 0
-0.139533371, -0.0488820449, -9.79794    , 0.000605517 , 0.000182923322, -0.000203959571, 0.00482841069, -0.01386641 , -0.000286622759, 921.0384    , 31.170187   , 797.4911    , 3.32        , 3           , 255         , 0           , 0
-0.1428242  , -0.04583975 , -9.805265   , 0.000551198958, 8.268001E-05, 0.000125123624, 0.004833905 , -0.01386559 , -0.000285367452, 921.050232  , 31.1678123  , 797.4918    , 3.33        , 3           , 255         , 0           , 0
-0.141954988, -0.0438207239, -9.784119   , 0.000940226542, 8.866002E-06, 0.0002318001, 0.004843274 , -0.0138655109, -0.000283048867, 921.050232  , 31.1678123  , 797.492554  , 3.34        , 3           , 255         , 0           , 0
-0.121248946, -0.04151297 , -9.776527   , 0.00028076506, -0.000201215124, 0.0006381759, 0.004845993 , -0.0138675533, -0.000276676466, 921.050232  , 31.1678123  , 797.4933    , 3.35        , 3           , 255         , 0           , 0
-0.124205135, -0.0518298559, -9.78613    , -0.0006246483, 0.0001678716, 0.00119870389, 0.00483958  , -0.0138659347, -0.0002646806, 921.050232  , 31.1678123  , 797.494     , 3.36        , 3           , 255         , 0           , 0
-0.130274653, -0.0440019481, -9.781249   , -4.91335231E-05, -5.14230924E-05, -0.000459912117, 0.00483915256, -0.0138664264, -0.0002692825, 921.050232  , 31.1678123  , 797.494751  , 3.37        , 3           , 255         , 0           , 0
-0.12888436 , -0.04173573 , -9.79745    , 0.000162018667, -3.67006E-05, -8.301226E-05, 0.004840784 , -0.0138667878, -0.0002701144, 921.050232  , 31.1678123  , 797.4955    , 3.38        , 3           , 255         , 0           , 0
-0.136402443, -0.0353832841, -9.807359   , -6.578036E-05, 0.0005368838, -0.0001842021, 0.00484015048, -0.01386141 , -0.000271930563, 921.050232  , 31.1678123  , 797.4962    , 3.39        , 3           , 255         , 0           , 0
-0.134867087, -0.0317657  , -9.794683   , 3.95304232E-05, 0.000112844762, 0.0002762081, 0.00484050764, -0.0138602946, -0.000269162847, 921.050232  , 31.1678123  , 797.496948  , 3.4         , 3           , 255         , 0           , 0
-0.131095365, -0.04339224 , -9.797354   , 0.0007156972, -4.66562342E-05, 0.000852145546, 0.00483965874, -0.0138559407, -0.000260533881, 921.050232  , 31.1678123  , 797.5113    , 3.41        , 3           , 255         , 0           , 0
-0.126343191, -0.0521287136, -9.786366   , 0.00119864044, -0.000233961575, 0.000452678 , 0.00485158153, -0.0138583006, -0.00025601816, 921.050232  , 31.1678123  , 797.5121    , 3.42        , 3           , 255         , 0           , 0
-0.137682468, -0.0575109236, -9.795101   , 0.0006175097, -0.000329795032, 3.98150441E-05, 0.004857751 , -0.0138615994, -0.000255635969, 921.0626    , 31.17039    , 797.5129    , 3.43        , 3           , 255         , 0           , 0
-0.140149459, -0.0536688976, -9.784811   , 0.00044725294, 0.0002891496, -0.0007553281, 0.004862328 , -0.0138586713, -0.000263175665, 921.0626    , 31.17039    , 797.5137    , 3.44        , 3           , 255         , 0           , 0
-0.139799044, -0.05171783 , -9.793115   , 0.000306883536, -9.69137764E-05, -0.0006143503, 0.004865482 , -0.013859611, -0.000269324257, 921.0626    , 31.17039    , 797.514465  , 3.45        , 3           , 255         , 0           , 0
-0.131400913, -0.0525643043, -9.802241   , 7.304672E-05, -8.749319E-05, 3.65067535E-05, 0.004866208 , -0.0138604883, -0.000268963428, 921.0626    , 31.17039    , 797.515259  , 3.46        , 3           , 255         , 0           , 0
-0.125975639, -0.0462956354, -9.802113   , -0.000909980969, 0.000236937718, -0.000390807429, 0.00485716155, -0.0138581013, -0.0002728602, 921.0626    , 31.17039    , 797.5161    , 3.47        , 3           , 255         , 0           , 0
-0.126330465, -0.0453629121, -9.795103   , -0.00014958423, 0.000101282523, 4.21711738E-05, 0.00485566026, -0.0138570908, -0.000272433565, 921.0626    , 31.17039    , 797.516968  , 3.48        , 3           , 255         , 0           , 0
-0.128704309, -0.0319571868, -9.798118   , 0.000231237558, -0.000166230835, 0.000114154027, 0.004857957 , -0.0138587579, -0.0002713  , 921.0626    , 31.17039    , 797.5178    , 3.49        , 3           , 255         , 0           , 0
-0.133383065, -0.0503794327, -9.79912949 , 0.0007735037, -0.000117276919, 0.000941621547, 0.004865562 , -0.0138599752, -0.000261888956, 921.0626    , 31.17039    , 797.5187    , 3.5         , 3           , 255         , 0           , 0
-0.1342508  , -0.0467063524, -9.79611    , 0.0007109809, -0.0002889692, -0.000145888436, 0.00487397332, -0.0138573144, -0.00026337977, 921.0626    , 31.17039    , 797.5123    , 3.51        , 3           , 255         , 0           , 0
-0.139499888, -0.0532772467, -9.785147   , 4.499057E-05, 0.000243185554, -0.00031397125, 0.00487446645, -0.0138548678, -0.000266507763, 921.0626    , 31.17039    , 797.5131    , 3.52        , 3           , 255         , 0           , 0
-0.144660786, -0.0503173247, -9.789513   , 6.631566E-05, -5.099675E-06, -5.77013925E-05, 0.004875138 , -0.0138549162, -0.000267085066, 921.0416    , 31.1693039  , 797.5139    , 3.53        , 3           , 255         , 0           , 0
-0.132568449, -0.0425483361, -9.784028   , -0.000414184935, 1.36920135E-05, -0.00012450022, 0.004871014 , -0.0138547728, -0.000268329517, 921.0416    , 31.1693039  , 797.5147    , 3.54        , 3           , 255         , 0           , 0
-0.126578167, -0.04766192 , -9.797952   , -0.0002124113, 0.00026338498, 0.0005424629, 0.00486881472, -0.0138521651, -0.000262891728, 921.0416    , 31.1693039  , 797.5155    , 3.55        , 3           , 255         , 0           , 0
-0.124548458, -0.0409927666, -9.795323   , -0.000179741808, 0.000374739728, -0.000221682087, 0.004867047 , -0.0138484109, -0.000265090464, 921.0416    , 31.1693039  , 797.5163    , 3.56        , 3           , 255         , 0           , 0
-0.13423273 , -0.0482295081, -9.796576   , 0.00036931166, 0.000297718652, 7.789829E-06, 0.004870739 , -0.0138454316, -0.000264998031, 921.0416    , 31.1693039  , 797.5171    , 3.57        , 3           , 255         , 0           , 0
-0.129467055, -0.04607596 , -9.793297   , 5.65512164E-05, -0.000388854416, 0.0004169215, 0.0048712464, -0.01384934 , -0.000260847533, 921.0416    , 31.1693039  , 797.5179    , 3.58        , 3           , 255         , 0           , 0
-0.137256533, -0.03649716 , -9.79963    , 0.000230983511, -0.000216383341, -0.0002348979, 0.004873589 , -0.0138514936, -0.000263207156, 921.0416    , 31.1693039  , 797.5187    , 3.59        , 3           , 255         , 0           , 0
-0.136167869, -0.04594415 , -9.796995   , 0.000194896667, -5.18085144E-05, -7.31051841E-05, 0.004875548 , -0.0138520077, -0.000263940776, 921.0416    , 31.1693039  , 797.5195    , 3.6         , 3           , 255         , 0           , 0
-0.1389834  , -0.03683217 , -9.791431   , 3.871518E-05, -0.0003679183, -0.000127056643, 0.00487281568, -0.0138527267, -0.000265185925, 921.0416    , 31.1693039  , 797.543     , 3.61        , 3           , 255         , 0           , 0
-0.143566683, -0.04789862 , -9.790142   , -5.873473E-06, -0.000264080125, -0.000324269931, 0.00487280171, -0.0138553511, -0.000268441683, 921.0416    , 31.1693039  , 797.544     , 3.62        , 3           , 255         , 0           , 0
-0.136656642, -0.04037914 , -9.783195   , 5.0941373E-05, -2.49315053E-06, 0.0001420044, 0.004873292 , -0.0138553809, -0.000267021649, 921.0651    , 31.1686935  , 797.545     , 3.63        , 3           , 255         , 0           , 0
-0.133772537, -0.0342314839, -9.788447   , -7.208144E-05, -4.40296135E-05, -0.00022037387, 0.004872602 , -0.01385581 , -0.0002692277, 921.0651    , 31.1686935  , 797.545959  , 3.64        , 3           , 255         , 0           , 0
-0.146070316, -0.04196266 , -9.794322   , 0.0004676405, 0.000281589048, 0.000118931261, 0.00487726135, -0.0138530014, -0.000268024567, 921.0651    , 31.1686935  , 797.546936  , 3.65        , 3           , 255         , 0           , 0
-0.1428666  , -0.0395550765, -9.806292   , 0.000176805028, -9.387173E-05, -2.978454E-05, 0.00487903366, -0.0138539383, -0.000268327, 921.0651    , 31.1686935  , 797.5479    , 3.66        , 3           , 255         , 0           , 0
-0.134377226, -0.05111324 , -9.795375   , 0.000156195791, -0.000207726422, 0.000157537666, 0.0048805736, -0.0138560226, -0.0002667617, 921.0651    , 31.1686935  , 797.5489    , 3.67        , 3           , 255         , 0           , 0
-0.12675041 , -0.0446611866, -9.78438    , 5.295906E-05, 0.000153611545, 0.0005110478, 0.004881032 , -0.0138545111, -0.000261643378, 921.0651    , 31.1686935  , 797.549866  , 3.68        , 3           , 255         , 0           , 0
-0.12430916 , -0.0426230356, -9.789028   , 3.20597028E-05, 0.000327435846, -0.00076186785, 0.00488145836, -0.0138511993, -0.00026924652, 921.0651    , 31.1686935  , 797.550842  , 3.69        , 3           , 255         , 0           , 0
-0.124406114, -0.0359332636, -9.797022   , -0.000102121354, 0.000541340734, -0.000837092753, 0.00488055171, -0.0138457464, -0.000277591549, 921.0651    , 31.1686935  , 797.5518    , 3.7         , 3           , 255         , 0           , 0
-0.14036046 , -0.0443783626, -9.800901   , 7.94081E-05 , 6.061836E-05, 6.29688147E-05, 0.00486983825, -0.013844233, -0.000276799663, 921.0651    , 31.1686935  , 797.537231  , 3.71        , 3           , 255         , 0           , 0
-0.13379699 , -0.05076314 , -9.793684   , 0.000726774 , -0.000124473576, -9.834221E-05, 0.00487712072, -0.0138454726, -0.000277789222, 921.0651    , 31.1686935  , 797.5381    , 3.72        , 3           , 255         , 0           , 0
-0.1300898  , -0.04534126 , -9.789427   , 0.00103318971, -0.000233127517, -0.0006287256, 0.004887538 , -0.013847773, -0.000284088223, 921.125366  , 31.1684227  , 797.53894   , 3.73        , 3           , 255         , 0           , 0
-0.1372253  , -0.056737043, -9.782968   , 0.0006878822, -3.802785E-05, -0.00107148418, 0.004894565 , -0.0138481017, -0.0002948055, 921.125366  , 31.1684227  , 797.5398    , 3.74        , 3           , 255         , 0           , 0
-0.139846   , -0.048213724, -9.788945   , -9.07786E-05, 0.000187142519, -0.00104175485, 0.004893801 , -0.0138461776, -0.0003052145, 921.125366  , 31.1684227  , 797.540649  , 3.75        , 3           , 255         , 0           , 0
-0.135903746, -0.0423612222, -9.794795   , 0.0008728034, -0.000259369146, -0.000901455234, 0.0049026534, -0.0138487285, -0.000314242265, 921.125366  , 31.1684227  , 797.5415    , 3.76        , 3           , 255         , 0           , 0
-0.135636538, -0.04941158 , -9.800719   , 0.0005519653, 0.0003719868, -0.000158659779, 0.004908195 , -0.013845   , -0.0003158107, 921.125366  , 31.1684227  , 797.542358  , 3.77        , 3           , 255         , 0           , 0
-0.130773216, -0.04397325 , -9.79496    , 0.0003067903, -0.000387673965, -0.00020993498, 0.00491129141, -0.0138488654, -0.0003179292, 921.125366  , 31.1684227  , 797.5432    , 3.78        , 3           , 255         , 0           , 0
-0.1348131  , -0.0491714925, -9.790892   , -6.02644723E-05, -0.0006677834, -0.000760792929, 0.004910795 , -0.0138555048, -0.00032557032, 921.125366  , 31.1684227  , 797.544067  , 3.79        , 3           , 255         , 0           , 0
-0.136240527, -0.03206344 , -9.786375   , 1.94119639E-06, -0.000323959044, -0.000937439, 0.00491094356, -0.0138587  , -0.000334961136, 921.125366  , 31.1684227  , 797.5449    , 3.8         , 3           , 255         , 0           , 0
-0.138782784, -0.05278934 , -9.795757   , -0.0005011294, -0.0002578518, -0.000152139983, 0.0049029924, -0.0138610313, -0.000336454221, 921.125366  , 31.1684227  , 797.4456    , 3.81        , 3           , 255         , 0           , 0
-0.131315559, -0.0470552929, -9.7968235  , -0.0003102293, -0.000379705161, -0.000855156, 0.00490000844, -0.0138647873, -0.000345024862, 921.125366  , 31.1684227  , 797.445862  , 3.82        , 3           , 255         , 0           , 0
-0.131854013, -0.0397355556, -9.79532051 , 7.481849E-05, -0.000248329423, -0.00041921105, 0.0049008145, -0.0138672478, -0.000349229376, 921.0629    , 31.1684227  , 797.4461    , 3.83        , 3           , 255         , 0           , 0
-0.142370671, -0.03790926 , -9.793358   , 9.261699E-05, -0.000212799423, -0.000104740036, 0.004901755 , -0.01386937 , -0.000350287271, 921.0629    , 31.1684227  , 797.44635   , 3.84        , 3           , 255         , 0           , 0
-0.1343999  , -0.0437492765, -9.788225   , -0.0001223491, -0.0004032071, -0.000166140439, 0.00490055559, -0.0138733955, -0.0003519685, 921.0629    , 31.1684227  , 797.4466    , 3.85        , 3           , 255         , 0           , 0
-0.127687424, -0.04528723 , -9.787576   , -6.395372E-05, 3.96404357E-05, -0.0006706355, 0.00490000937, -0.0138729662, -0.0003586733, 921.0629    , 31.1684227  , 797.446838  , 3.86        , 3           , 255         , 0           , 0
-0.135166466, -0.0374101773, -9.788935   , 4.02302248E-05, -0.000475079956, -0.000210295562, 0.00490044057, -0.0138777066, -0.000360799662, 921.0629    , 31.1684227  , 797.4471    , 3.87        , 3           , 255         , 0           , 0
-0.14120914 , -0.0414437428, -9.782759   , 0.0005399677, -0.0008450454, -0.000273210433, 0.00490587763, -0.0138861425, -0.000363573345, 921.0629    , 31.1684227  , 797.4473    , 3.88        , 3           , 255         , 0           , 0
-0.139039546, -0.04580629 , -9.793141   , -2.42366368E-05, -0.0004993721, -0.000399975339, 0.004905692 , -0.0138911158, -0.000367597851, 921.0629    , 31.1684227  , 797.4476    , 3.89        , 3           , 255         , 0           , 0
-0.144653887, -0.0479289368, -9.793838   , 0.0007016874, -0.0004228772, -0.000556482, 0.00491278572, -0.0138953151, -0.000373183721, 921.0629    , 31.1684227  , 797.4478    , 3.9         , 3           , 255         , 0           , 0
-0.142690852, -0.04903568 , -9.796985   , 0.000334170822, -0.00010801031, -0.000209158141, 0.00490864972, -0.0138978781, -0.000375176372, 921.0629    , 31.1684227  , 797.450867  , 3.91        , 3           , 255         , 0           , 0
-0.1316305  , -0.0410203822, -9.802885   , 0.000546312542, -0.000106814812, 0.00055949064, 0.004914035 , -0.0138989743, -0.000369586429, 921.0629    , 31.1684227  , 797.4512    , 3.92        , 3           , 255         , 0           , 0
-0.132095009, -0.0383427963, -9.794816   , 0.000221864873, -0.00016436867, -0.0002816922, 0.00491629262, -0.0139006041, -0.000372411538, 921.1041    , 31.1659126  , 797.4515    , 3.93        , 3           , 255         , 0           , 0
-0.1310502  , -0.0428416543, -9.794028   , 0.000490357867, 7.322902E-05, -0.0004077028, 0.004921253 , -0.0138998516, -0.0003764852, 921.1041    , 31.1659126  , 797.4518    , 3.94        , 3           , 255         , 0           , 0
-0.122221805, -0.0487574451, -9.787857   , 0.0002968676, -0.000180491683, -0.000582195935, 0.004924303 , -0.0139016286, -0.000382316357, 921.1041    , 31.1659126  , 797.4521    , 3.95        , 3           , 255         , 0           , 0
-0.135398418, -0.0451642349, -9.778824   , -9.533664E-05, 0.0001495665, 0.000205531192, 0.004923321 , -0.013900144, -0.000380253565, 921.1041    , 31.1659126  , 797.4524    , 3.96        , 3           , 255         , 0           , 0
-0.134991974, -0.03573054 , -9.800785   , 0.0001983518, 0.000321923377, 0.000278542371, 0.004925265 , -0.0138969375, -0.000377452146, 921.1041    , 31.1659126  , 797.4527    , 3.97        , 3           , 255         , 0           , 0
-0.1291779  , -0.04802212 , -9.804504   , 0.0008461861, -3.20735271E-05, -0.000199707269, 0.00493375445, -0.0138972485, -0.000379450939, 921.1041    , 31.1659126  , 797.453     , 3.98        , 3           , 255         , 0           , 0
-0.134651616, -0.04224925 , -9.776979   , -5.480343E-05, 0.000340663624, 1.82479271E-05, 0.004933203 , -0.0138938436, -0.000379251636, 921.1041    , 31.1659126  , 797.4533    , 3.99        , 3           , 255         , 0           , 0
-0.13827379 , -0.046610266, -9.799332   , -0.0007824787, -7.434892E-05, 0.000341968873, 0.004925331 , -0.0138946036, -0.0003758354, 921.1041    , 31.1659126  , 797.4536    , 4           , 3           , 0           , 9.466237    , 400
-0.126540288, -0.03654047 , -9.81833    , 3.183409E-05, -0.000443167344, 0.000469611725, 0.004918692 , -0.0138945039, -0.000371065078, 921.1041    , 31.1659126  , 797.3974    , 4.01        , 3           , 1           , 0           , 0
-0.131635055, -0.0435062647, -9.805159   , 0.0006564382, -0.00083834934, -0.000617074431, 0.00492534228, -0.0139028551, -0.0003772774, 921.1041    , 31.1659126  , 797.397339  , 4.02        , 3           , 2           , 0           , 0
-0.133087233, -0.0441904962, -9.798689   , -5.816399E-05, -0.0003087914, -0.000501679431, 0.004924831 , -0.0139059182, -0.000382309721, 921.088257  , 31.168354   , 797.3973    , 4.03        , 3           , 3           , 0           , 0
-0.130523831, -0.03520711 , -9.782773   , -0.000588255352, -4.378718E-05, -0.000154802037, 0.00491897  , -0.0139063485, -0.00038386 , 921.088257  , 31.168354   , 797.3972    , 4.04        , 3           , 4           , 0           , 0
-0.136757687, -0.03449566 , -9.770399   , 6.737666E-05, 0.00013483681, -0.0004557919, 0.004919708 , -0.0139049776, -0.000388411572, 921.088257  , 31.168354   , 797.397156  , 4.05        , 3           , 5           , 0           , 0
-0.138526872, -0.0426832736, -9.758112   , -0.00039910074, -8.92516255E-05, -0.00060126686, 0.004915801 , -0.01390584 , -0.000394429, 921.088257  , 31.168354   , 797.3971    , 4.06        , 3           , 6           , 0           , 0
-0.137189671, -0.0416028537, -9.811087   , 8.420558E-05, 0.000245906122, -0.0009804128, 0.004916778 , -0.0139033347, -0.0004042216, 921.088257  , 31.168354   , 797.397034  , 4.07        , 3           , 7           , 0           , 0
-0.141990185, -0.0393971838, -9.827718   , 0.0003638201, 0.000170751082, -0.000483612937, 0.00492048357, -0.0139016034, -0.000409049622, 921.088257  , 31.168354   , 797.397     , 4.08        , 3           , 8           , 5           , 5
-0.142455772, -0.0409313031, -9.80575752 , 0.0003125851, -7.601851E-05, -0.000360776845, 0.00492366031, -0.0139023466, -0.00041266132, 921.088257  , 31.168354   , 797.3969    , 4.09        , 3           , 9           , 5           , 0.1
-0.134508759, -0.0407230444, -9.78662    , 0.000252479425, -0.000373433577, -3.94553936E-05, 0.00492619025, -0.0139060775, -0.0004130743, 921.088257  , 31.168354   , 797.3969    , 4.1         , 3           , 10          , 0.1         , 0.1
-0.123833179, -0.0402726  , -9.784045   , 0.000308432733, -3.17685044E-05, 0.000365982531, 0.00491859  , -0.0139052393, -0.000409268, 921.088257  , 31.168354   , 797.371338  , 4.11        , 3           , 11          , 0.00668624137, 0.006686239
-0.129520088, -0.0436974876, -9.784243   , 0.000345216366, -0.0002120858, 0.000244582363, 0.00492200768, -0.013907373, -0.000406832434, 921.088257  , 31.168354   , 797.371155  , 4.12        , 3           , 12          , 0.174648076 , 0
-0.131878048, -0.0398212261, -9.790007   , 0.000399466138, -1.239503E-05, -9.08637739E-05, 0.004926015 , -0.0139074931, -0.0004077417, 921.0857    , 31.1695766  , 797.371     , 4.13        , 3           , 13          , 0           , 0
-0.137268543, -0.0371505544, -9.78956    , 0.000257724518, 0.0004285689, -0.000557662, 0.00492867  , -0.0139031811, -0.000413297559, 921.0857    , 31.1695766  , 797.3708    , 4.14        , 3           , 14          , -0.000164173209, 0.000234933075
-0.1410661  , -0.0373086967, -9.76927948 , -0.000128874162, 0.000289166026, 2.531748E-05, 0.00492737768, -0.0139002912, -0.000413030124, 921.0857    , 31.1695766  , 797.3706    , 4.15        , 3           , 15          , 0           , 0.0001758792
-0.137245208, -0.03973733 , -9.788079   , -0.000100103163, 0.0005505233, 0.0007820758, 0.004926267 , -0.0138948262, -0.000405181781, 921.0857    , 31.1695766  , 797.3704    , 4.16        , 3           , 16          , 0           , 1.401298E-45
-0.131391957, -0.0386949256, -9.803737   , -0.0006844213, 0.0003331709, 0.0009459283, 0.004919291 , -0.0138915433, -0.000395705574, 921.0857    , 31.1695766  , 797.370239  , 4.17        , 3           , 20          , 0           , 0
-0.1333441  , -0.0475644171, -9.820509   , -0.000581324333, -8.706673E-05, 0.000290206634, 0.00491343765, -0.0138924262, -0.0003928076, 921.0857    , 31.1695766  , 797.370056  , 4.18        , 3           , 21          , 0           , 0
-0.134370267, -0.04797085 , -9.82212448 , -0.0007612265, -0.000429125183, -0.000338204351, 0.004905873 , -0.0138967009, -0.0003962109, 921.0857    , 31.1695766  , 797.3699    , 4.19        , 3           , 22          , 0           , 0
-0.1376562  , -0.0464486666, -9.80513    , -0.0001952816, -0.000365170883, -0.000133820431, 0.004903939 , -0.0139003471, -0.0003975671, 921.0857    , 31.1695766  , 797.3697    , 4.2         , 3           , 40          , 0           , 0
-0.142583027, -0.0443821177, -9.782613   , -4.78536531E-05, 0.000187745551, -0.000208502, 0.00489494065, -0.0138952211, -0.000399524259, 921.0857    , 31.1695766  , 797.3518    , 4.21        , 3           , 41          , 0           , 0
-0.138938054, -0.0366481952, -9.773037   , -0.000360957551, -0.000280729117, 0.000109449757, 0.004891317 , -0.0138980336, -0.000398443459, 921.0857    , 31.1695766  , 797.3515    , 4.22        , 3           , 42          , 0           , 0
-0.1321811  , -0.04195081 , -9.785142   , 0.0005366582, -0.0002721505, -0.000203066942, 0.004896711 , -0.0139007457, -0.000400487566, 921.0681    , 31.1672688  , 797.3512    , 4.23        , 3           , 255         , 0           , 0
-0.134213552, -0.04928908 , -9.796522   , 0.0002671847, 0.000235306739, 0.000156597438, 0.004899361 , -0.0138984006, -0.000398909935, 921.0681    , 31.1672688  , 797.3509    , 4.24        , 3           , 255         , 0           , 0
-0.137996435, -0.0444854051, -9.784501   , 4.46704362E-05, -0.000145837286, 8.919911E-05, 0.004899795 , -0.0138998637, -0.000398025033, 921.0681    , 31.1672688  , 797.3506    , 4.25        , 3           , 255         , 0           , 0
-0.138171911, -0.0392202325, -9.786905   , 0.000456272275, -0.000267816358, -0.0004126167, 0.004904416 , -0.0139025217, -0.000402164558, 921.0681    , 31.1672688  , 797.350342  , 4.26        , 3           , 255         , 0           , 0
-0.134632885, -0.0418989  , -9.784392   , 0.000477349968, -7.08192238E-06, 0.0003201404, 0.00490914425, -0.0139026083, -0.000398963282, 921.0681    , 31.1672688  , 797.3501    , 4.27        , 3           , 255         , 0           , 0
-0.133093551, -0.0465024635, -9.786598   , -0.000341127947, 0.0009550948, -0.000621587154, 0.0049058185, -0.0138930259, -0.000405132625, 921.0681    , 31.1672688  , 797.349854  , 4.28        , 3           , 255         , 0           , 0
-0.138651162, -0.04758798 , -9.794242   , -0.000650885748, 9.651168E-05, -0.000221963754, 0.004899341 , -0.0138920508, -0.000407347659, 921.0681    , 31.1672688  , 797.3496    , 4.29        , 3           , 255         , 0           , 0
-0.1289942  , -0.0447153226, -9.81234    , -0.000142900069, 0.000164908124, 0.0002864095, 0.00489787152, -0.0138904154, -0.000404475373, 921.0681    , 31.1672688  , 797.349365  , 4.3         , 3           , 255         , 0           , 0
-0.131403118, -0.04280763 , -9.801441   , 0.000213011226, -5.882411E-05, 0.000299896172, 0.004890136 , -0.0138907442, -0.000401342666, 921.0681    , 31.1672688  , 797.3591    , 4.31        , 3           , 255         , 0           , 0
-0.1315406  , -0.0389686637, -9.788705   , -1.91938016E-05, -9.074077E-05, 0.000656166463, 0.004889853 , -0.013891683, -0.000394785049, 921.0681    , 31.1672688  , 797.3589    , 4.32        , 3           , 255         , 0           , 0
-0.136912778, -0.04462443 , -9.797325   , 0.000267320778, -0.0005048516, 8.691507E-05, 0.004892514 , -0.0138967363, -0.000393940543, 921.0675    , 31.166523   , 797.3587    , 4.33        , 3           , 255         , 0           , 0
-0.137928873, -0.0441636369, -9.787195   , -0.000416470866, 6.43028761E-06, 7.460284E-05, 0.004888339 , -0.0138966758, -0.000393194117, 921.0675    , 31.166523   , 797.3585    , 4.34        , 3           , 255         , 0           , 0
-0.1311104  , -0.0426071957, -9.773199   , 0.00019542691, 0.00019980481, -0.00010159627, 0.00489030732, -0.0138946725, -0.000394200382, 921.0675    , 31.166523   , 797.358337  , 4.35        , 3           , 255         , 0           , 0
-0.12932618 , -0.0348810442, -9.786993   , 0.0003249512, -0.000131429115, -0.0002688936, 0.004893594 , -0.0138959736, -0.00039689595, 921.0675    , 31.166523   , 797.358154  , 4.36        , 3           , 255         , 0           , 0
-0.132570386, -0.0369725  , -9.783849   , 0.000138424744, 0.000375011237, 0.000151580054, 0.004894957 , -0.0138922315, -0.000395361683, 921.0675    , 31.166523   , 797.358     , 4.37        , 3           , 255         , 0           , 0
-0.135791048, -0.04543049 , -9.802383   , 0.000383693463, -0.000212928542, 0.000893962 , 0.00489866966, -0.0138944034, -0.00038643193, 921.0675    , 31.166523   , 797.3578    , 4.38        , 3           , 255         , 0           , 0
-0.1305314  , -0.0485465825, -9.803202   , 0.000167846723, -0.0005442444, 0.000451816974, 0.00490028551, -0.0138998674, -0.000381940132, 921.0675    , 31.166523   , 797.3576    , 4.39        , 3           , 255         , 0           , 0
-0.134475738, -0.05229512 , -9.790304   , 0.000115441457, -0.000205538163, 0.000465024816, 0.004901376 , -0.0139019452, -0.000377299642, 921.0675    , 31.166523   , 797.3574    , 4.4         , 3           , 255         , 0           , 0
-0.13923578 , -0.04064559 , -9.781386   , -0.000154501744, -0.000232255072, 0.000318318343, 0.00489155436, -0.0138992406, -0.000374013238, 921.0675    , 31.166523   , 797.367249  , 4.41        , 3           , 255         , 0           , 0
-0.125074148, -0.0463347845, -9.783312   , 4.421678E-05, -0.000169697072, -0.0007406005, 0.00489209965, -0.0139009012, -0.000381428021, 921.0675    , 31.166523   , 797.3671    , 4.42        , 3           , 255         , 0           , 0
-0.126141   , -0.03940664 , -9.807672   , 0.000341057952, -2.70689779E-05, -0.0005873902, 0.00489559164, -0.0139011433, -0.00038730356, 921.0853    , 31.1650982  , 797.367     , 4.43        , 3           , 255         , 0           , 0
-0.1380212  , -0.04541687 , -9.809754   , 5.67018942E-05, -2.38916255E-05, -0.0006485615, 0.004896249 , -0.01390135 , -0.000393790746, 921.0853    , 31.1650982  , 797.3669    , 4.44        , 3           , 255         , 0           , 0
-0.1315277  , -0.04554383 , -9.799681   , 0.000300911983, -0.000250120647, 0.000215909589, 0.004899229 , -0.0139038619, -0.000391643756, 921.0853    , 31.1650982  , 797.36676   , 4.45        , 3           , 255         , 0           , 0
-0.131578818, -0.0336909369, -9.78821    , 0.0002048575, -0.0004180578, -0.000189931772, 0.004901304 , -0.0139080333, -0.000393563649, 921.0853    , 31.1650982  , 797.366638  , 4.46        , 3           , 255         , 0           , 0
-0.1347868  , -0.0407931432, -9.771253   , 0.000490829058, -4.62200842E-06, 0.000368733279, 0.00490616029, -0.0139080975, -0.000389876368, 921.0853    , 31.1650982  , 797.3665    , 4.47        , 3           , 255         , 0           , 0
-0.135399848, -0.03840227 , -9.785758   , -0.000385001185, -8.34305247E-05, -0.000246406184, 0.00490234559, -0.01390892 , -0.000392344635, 921.0853    , 31.1650982  , 797.3664    , 4.48        , 3           , 255         , 0           , 0
-0.1387117  , -0.0397243425, -9.794821   , 1.24268408E-05, 0.000184861055, -0.000698709046, 0.00490256725, -0.0139070358, -0.0003993231, 921.0853    , 31.1650982  , 797.3663    , 4.49        , 3           , 255         , 0           , 0
-0.131674662, -0.0396766029, -9.805485   , -2.2056498E-05, 1.44009973E-05, 0.000500485767, 0.00490227668, -0.0139069166, -0.000394317263, 921.0853    , 31.1650982  , 797.36615   , 4.5         , 3           , 255         , 0           , 0
-0.135099813, -0.0404346846, -9.800108   , 0.0003114185, 7.764946E-06, 0.0009843981, 0.00489440467, -0.0139023317, -0.000384321465, 921.0853    , 31.1650982  , 797.3494    , 4.51        , 3           , 255         , 0           , 0
-0.1319536  , -0.0508545041, -9.784883   , 0.0002614662, 0.000335908437, -0.000368004257, 0.00489707058, -0.0138989519, -0.0003879853, 921.0853    , 31.1650982  , 797.349243  , 4.52        , 3           , 255         , 0           , 0
-0.144152626, -0.0431501754, -9.7857275  , 0.000127894949, -0.000206803918, -0.000124678889, 0.004898367 , -0.0139010139, -0.000389242254, 921.0519    , 31.16693    , 797.34906   , 4.53        , 3           , 255         , 0           , 0
-0.139745384, -0.0469779447, -9.793141   , -6.13164739E-05, -3.290431E-05, 0.000560223067, 0.004897675 , -0.0139013706, -0.000383641338, 921.0519    , 31.16693    , 797.3489    , 4.54        , 3           , 255         , 0           , 0
-0.136788845, -0.032321237, -9.805233   , -0.0003616205, 0.000302879373, 0.00029730238, 0.004894018 , -0.0138983559, -0.0003806533, 921.0519    , 31.16693    , 797.3487    , 4.55        , 3           , 255         , 0           , 0
-0.143830031, -0.0282802768, -9.803071   , 0.000260756118, -6.640707E-05, 0.0006693474, 0.00489653228, -0.0138990534, -0.000373962685, 921.0519    , 31.16693    , 797.3485    , 4.56        , 3           , 255         , 0           , 0
-0.140368566, -0.0393149033, -9.795781   , -0.00013319448, -0.000343832973, 0.000399019453, 0.004895145 , -0.0139025114, -0.000369989051, 921.0519    , 31.16693    , 797.3483    , 4.57        , 3           , 255         , 0           , 0
-0.1417638  , -0.0401435979, -9.773798   , 2.16352346E-05, 2.8640221E-05, -0.0003006392, 0.00489540352, -0.0139022106, -0.000372994225, 921.0519    , 31.16693    , 797.348145  , 4.58        , 3           , 255         , 0           , 0
-0.143043667, -0.0526755378, -9.78993    , 0.000229306082, 0.000236132139, -0.00103737845, 0.00489784125, -0.0138997994, -0.000383357081, 921.0519    , 31.16693    , 797.347961  , 4.59        , 3           , 255         , 0           , 0
-0.1326232  , -0.04575284 , -9.806758   , 7.764138E-05, -0.000473626947, -0.00101961743, 0.00489875861, -0.0139044831, -0.000393577036, 921.0519    , 31.16693    , 797.3478    , 4.6         , 3           , 255         , 0           , 0
-0.118766129, -0.0544967875, -9.797056   , 0.00016887192, -0.000107068015, -0.0003588808, 0.00489212945, -0.0139094666, -0.000397054915, 921.0519    , 31.16693    , 797.3811    , 4.61        , 3           , 255         , 0           , 0
-0.125568539, -0.0482446328, -9.803195   , -0.000394037343, 5.204881E-05, 0.000459935865, 0.004888125 , -0.0139089683, -0.0003924527, 921.0519    , 31.16693    , 797.3811    , 4.62        , 3           , 255         , 0           , 0
-0.131232426, -0.0415629372, -9.79231548 , -0.00052850513, -0.000195330475, 0.000173534892, 0.00488281576, -0.01391093 , -0.0003907268, 921.1058    , 31.1646233  , 797.3811    , 4.63        , 3           , 255         , 0           , 0
-0.129035026, -0.0478420071, -9.784251   , 0.000405686034, -0.000503778341, 0.0003303723, 0.004886827 , -0.013915984, -0.0003874475, 921.1058    , 31.1646233  , 797.3811    , 4.64        , 3           , 255         , 0           , 0
-0.121952966, -0.0471109375, -9.784081   , 0.000106780382, -6.635893E-05, -5.602956E-05, 0.004887902 , -0.0139166433, -0.000388011074, 921.1058    , 31.1646233  , 797.3811    , 4.65        , 3           , 255         , 0           , 0
-0.124850415, -0.0484559163, -9.790934   , 0.000206588709, 2.56266358E-05, 0.000425874721, 0.00488990871, -0.0139164068, -0.000383750827, 921.1058    , 31.1646233  , 797.3811    , 4.66        , 3           , 255         , 0           , 0
-0.133365273, -0.0494842865, -9.791769   , -8.878931E-05, 0.00026408484, -5.08065568E-07, 0.0048890207, -0.0139137674, -0.000383743027, 921.1058    , 31.1646233  , 797.3811    , 4.67        , 3           , 255         , 0           , 0
-0.1305286  , -0.04405249 , -9.801297   , -7.615592E-05, 0.000435131427, 0.000155965783, 0.00488823745, -0.0139094237, -0.000382161961, 921.1058    , 31.1646233  , 797.3811    , 4.68        , 3           , 255         , 0           , 0
-0.132586256, -0.0436849967, -9.791443   , -0.000227391851, 0.000142534569, 0.000198064357, 0.00488593662, -0.0139080109, -0.000380174228, 921.1058    , 31.1646233  , 797.3811    , 4.69        , 3           , 255         , 0           , 0
-0.135635734, -0.03660513 , -9.783115   , 0.000376431679, -0.00020588444, 0.000434874615, 0.00488963956, -0.0139100906, -0.000375835254, 921.1058    , 31.1646233  , 797.3811    , 4.7         , 3           , 255         , 0           , 0
-0.136028826, -0.0390769169, -9.792188   , -0.000158797557, -0.000218368717, 0.000557842548, 0.00488523161, -0.013899548, -0.000370229071, 921.1058    , 31.1646233  , 797.3334    , 4.71        , 3           , 255         , 0           , 0
-0.140431732, -0.04395114 , -9.792056   , 0.000386476866, -0.000140142933, 0.0009519922, 0.004888963 , -0.0139009943, -0.000360715436, 921.1058    , 31.1646233  , 797.3331    , 4.72        , 3           , 255         , 0           , 0
-0.131310239, -0.055179555, -9.79608    , 0.000151352389, 8.565394E-05, 0.000198187452, 0.004890449 , -0.0139001478, -0.000358729216, 921.051758  , 31.1651669  , 797.3329    , 4.73        , 3           , 255         , 0           , 0
-0.134462655, -0.03991831 , -9.797915   , 3.962063E-05, 0.000174111483, -8.32891456E-05, 0.004890857 , -0.0138984015, -0.000359553669, 921.051758  , 31.1651669  , 797.332642  , 4.74        , 3           , 255         , 0           , 0
-0.1368793  , -0.028955251, -9.788577   , -0.0008186755, -6.999972E-05, -6.321152E-05, 0.004882679 , -0.0138990991, -0.000360189239, 921.051758  , 31.1651669  , 797.3324    , 4.75        , 3           , 255         , 0           , 0
-0.12582612 , -0.034720514, -9.799785   , -0.000252006, -0.000204075885, -7.975245E-05, 0.00488016941, -0.0139011368, -0.000360996783, 921.051758  , 31.1651669  , 797.332153  , 4.76        , 3           , 255         , 0           , 0
-0.1285822  , -0.0373731256, -9.794765   , -0.00013000927, 3.327115E-05, 0.000148680847, 0.004878849 , -0.0139008118, -0.000359508267, 921.051758  , 31.1651669  , 797.3319    , 4.77        , 3           , 255         , 0           , 0
-0.133383065, -0.0419412963, -9.790137   , 0.000405162835, -0.000604912, -0.0005920137, 0.00488298247, -0.0139068309, -0.000365458254, 921.051758  , 31.1651669  , 797.331665  , 4.78        , 3           , 255         , 0           , 0
-0.1415499  , -0.04690141 , -9.786206   , -0.0005440769, -0.000663809245, 0.000197777263, 0.004877515 , -0.0139134787, -0.000363512721, 921.051758  , 31.1651669  , 797.3314    , 4.79        , 3           , 255         , 0           , 0
-0.146059275, -0.0475463048, -9.790823   , -7.9999154E-07, -0.000104064035, 0.001067223 , 0.004877359 , -0.0139145693, -0.000352844974, 921.051758  , 31.1651669  , 797.3312    , 4.8         , 3           , 255         , 0           , 0
-0.151147231, -0.0379544124, -9.802143   , 0.000243277755, -3.8658618E-05, 0.000804076262, 0.004870408 , -0.0139140133, -0.000344676635, 921.051758  , 31.1651669  , 797.366943  , 4.81        , 3           , 255         , 0           , 0
-0.140220612, -0.03639699 , -9.795572   , 0.00039630424, 3.241512E-05, 2.454166E-05, 0.004874368 , -0.013913691, -0.0003444296, 921.051758  , 31.1651669  , 797.366943  , 4.82        , 3           , 255         , 0           , 0
-0.133716509, -0.0562681779, -9.792154   , 0.0003771698, -6.75716437E-05, -0.000367862318, 0.004878191 , -0.0139143495, -0.00034811176, 921.077759  , 31.1637421  , 797.366943  , 4.83        , 3           , 255         , 0           , 0
-0.140385   , -0.0429559946, -9.788003   , -5.75619342E-05, -0.000100475067, 0.0007124212, 0.00487751653, -0.0139153879, -0.000340992032, 921.077759  , 31.1637421  , 797.366943  , 4.84        , 3           , 255         , 0           , 0
-0.142197222, -0.0411685668, -9.798959   , -0.000437574519, 0.000680929 , 0.0003685425, 0.00487308949, -0.0139085967, -0.000337273173, 921.077759  , 31.1637421  , 797.366943  , 4.85        , 3           , 255         , 0           , 0
-0.130085677, -0.03455209 , -9.793419   , 0.0005266184, -3.76859243E-05, 0.000461194024, 0.004878291 , -0.0139089972, -0.0003326628, 921.077759  , 31.1637421  , 797.366943  , 4.86        , 3           , 255         , 0           , 0
-0.132798344, -0.0490324274, -9.802974   , -0.000147203435, -0.000552528771, 0.0004627016, 0.004876755 , -0.0139145451, -0.000328062481, 921.077759  , 31.1637421  , 797.366943  , 4.87        , 3           , 255         , 0           , 0
-0.1357533  , -0.0499460176, -9.802931   , 6.892184E-05, -0.0001702688, -0.0008466174, 0.0048775617, -0.0139162065, -0.000336537429, 921.077759  , 31.1637421  , 797.366943  , 4.88        , 3           , 255         , 0           , 0
-0.131889224, -0.0372103229, -9.794088   , -0.000125283885, -0.000265440671, -0.000570664939, 0.0048763887, -0.0139188338, -0.000342257379, 921.077759  , 31.1637421  , 797.366943  , 4.89        , 3           , 255         , 0           , 0
-0.128433615, -0.051754225, -9.797305   , 0.000289598654, 4.029175E-05, -0.000142813718, 0.00487930374, -0.013918424, -0.000343683671, 921.077759  , 31.1637421  , 797.366943  , 4.9         , 3           , 255         , 0           , 0
-0.132999927, -0.04931379 , -9.801859   , 0.0003436191, -0.000160392272, -0.0006360988, 0.004878264 , -0.0139204124, -0.000349989336, 921.077759  , 31.1637421  , 797.361145  , 4.91        , 3           , 255         , 0           , 0
-0.131539434, -0.0471476838, -9.797176   , -0.0001870323, 7.5365766E-05, -0.0002845591, 0.004876434 , -0.013919645, -0.000352831354, 921.077759  , 31.1637421  , 797.3611    , 4.92        , 3           , 255         , 0           , 0
-0.130227089, -0.04728619 , -9.79266548 , 0.000489484868, 0.000170221057, -0.000236039923, 0.004881361 , -0.01391793 , -0.0003551836, 921.091064  , 31.1638088  , 797.361     , 4.93        , 3           , 255         , 0           , 0
-0.127400041, -0.045798596, -9.79172    , 0.000362997525, 0.000266846968, -7.77147361E-05, 0.00488500251, -0.0139152585, -0.0003559478, 921.091064  , 31.1638088  , 797.360962  , 4.94        , 3           , 255         , 0           , 0
-0.125493675, -0.04937326 , -9.788129   , 0.000118307536, -0.000114579838, -0.000792752951, 0.004886295 , -0.0139163649, -0.0003638814, 921.091064  , 31.1638088  , 797.3609    , 4.95        , 3           , 255         , 0           , 0
-0.1273604  , -0.0429046862, -9.797754   , -9.40726E-05, 0.000144568825, -0.0006652414, 0.00488544768, -0.0139148869, -0.000370527152, 921.091064  , 31.1638088  , 797.36084   , 4.96        , 3           , 255         , 0           , 0
-0.134636328, -0.04541281 , -9.801457   , -0.000162860815, 0.0006691047, -0.000355559867, 0.004883868 , -0.0139081785, -0.000374050258, 921.091064  , 31.1638088  , 797.3608    , 4.97        , 3           , 255         , 0           , 0
-0.134514287, -0.0430620238, -9.796788   , -0.000172495085, 0.0004875888, -2.07340636E-05, 0.00488214567, -0.0139033021, -0.000374233816, 921.091064  , 31.1638088  , 797.3607    , 4.98        , 3           , 255         , 0           , 0
-0.135075182, -0.0396754853, -9.789999   , 0.0003440943, -4.759888E-06, -0.0001798009, 0.00488561159, -0.01390334 , -0.0003760322, 921.091064  , 31.1638088  , 797.360657  , 4.99        , 3           , 255         , 0           , 0
-0.142465368, -0.0361586846, -9.786238   , -0.000292066456, -0.000556701154, -0.000388005748, 0.004882745 , -0.0139088891, -0.000379939651, 921.091064  , 31.1638088  , 797.3606    , 5           , 3           , 0           , -1          , 500
-0.133497626, -0.03610452 , -9.790349   , 0.0002661506, -1.13892311E-05, 0.0001306434, 0.00488117337, -0.0139036262, -0.00037857506, 921.091064  , 31.1638088  , 797.3367    , 5.01        , 3           , 1           , 0           , 0
-0.134361   , -0.04065035 , -9.794517   , 0.000178204675, -0.000238425448, 0.0006043047, 0.004882872 , -0.01390604 , -0.00037254332, 921.091064  , 31.1638088  , 797.3365    , 5.02        , 3           , 2           , 0           , 0
-0.1355119  , -0.0329815559, -9.800091   , 0.000348932546, -0.0005792406, 0.000240781315, 0.004886328 , -0.0139118461, -0.000370163616, 921.12146   , 31.1634026  , 797.3363    , 5.03        , 3           , 3           , 0           , 0
-0.139105722, -0.0422459245, -9.789213   , 0.0008508406, -0.00026319758, -0.000451691478, 0.00489489874, -0.0139144538, -0.000374693685, 921.12146   , 31.1634026  , 797.3361    , 5.04        , 3           , 4           , 0           , 0
-0.133126065, -0.044186525, -9.791834   , 1.72413129E-05, -0.0004077566, 7.146044E-05, 0.00489506125, -0.0139185358, -0.000373998948, 921.12146   , 31.1634026  , 797.335938  , 5.05        , 3           , 5           , 0           , 0
-0.139412731, -0.03792724 , -9.792361   , -7.89866463E-05, 8.84129258E-05, -0.00026417186, 0.00489430828, -0.013917638, -0.0003766365, 921.12146   , 31.1634026  , 797.335754  , 5.06        , 3           , 6           , 0           , 0
