Acc X       , Acc Y       , Acc Z       , Gyro X      , Gyro Y      , Gyro Z      , Euler X     , Euler Y     , Euler Z     , Pres X      , Pres Y      , Pres Z      , Time        , Status      , LowRate X   , LowRate Y   , LowRate Z    
-0.155509   , 9.787662    , 0.09579146  , 0           , 0           , 0           , -1.580583   , -0.0158861689, 0           , 918.058838  , 31.8150921  , 824.519958  , 0           , 2           , 0           , 5.45523167  , 0
-0.153939724, 9.79128     , 0.09798275  , 0.0003680542, -0.000225670345, 0.000200416966, -1.58057916 , -0.0158838555, 2.23545635E-06, 918.058838  , 31.8150921  , 824.519958  , 0.01        , 3           , 1           , 0           , 0
-0.161708742, 9.808367    , 0.101233527 , 0.000584743568, -5.02460171E-05, -0.000459059374, -1.58057332 , -0.0158884414, 2.7822116E-06, 918.058838  , 31.8150921  , 824.519958  , 0.02        , 3           , 2           , 0           , 0
-0.155310541, 9.7842865   , 0.09113397  , 0.000314230565, 0.000113492133, 0.000116418494, -1.5805701  , -0.0158872884, 1.63467746E-06, 918.0603    , 31.3747978  , 824.519958  , 0.03        , 3           , 3           , 0           , 0
-0.151917815, 9.785281    , 0.08772724  , -0.000128678454, -0.000156207127, -0.000474753557, -1.58057141 , -0.01589202 , 3.2432747E-06, 918.0603    , 31.3747978  , 824.519958  , 0.04        , 3           , 4           , 0           , 0
-0.159015536, 9.788358    , 0.0894051045, -0.000651496637, 0.000109785557, -0.0002713533, -1.58057785 , -0.0158947427, 2.17305023E-06, 918.0603    , 31.3747978  , 824.519958  , 0.05        , 3           , 5           , 0           , 0
-0.157951027, 9.799055    , 0.09328941  , -0.0002238208, 0.000110884022, 0.000276875624, -1.58058    , -0.015891986, 1.03576156E-06, 918.0603    , 31.3747978  , 824.519958  , 0.06        , 3           , 6           , 0           , 0
-0.163132057, 9.788491    , 0.0859411   , 6.509363E-07, 0.000285836577, 0.000145008176, -1.58058    , -0.0158905629, -1.83680015E-06, 918.0603    , 31.3747978  , 824.519958  , 0.07        , 3           , 7           , 0           , 0
-0.163141608, 9.783783    , 0.0887928   , 0.00022876577, -0.000385895954, 0.000351526716, -1.58057773 , -0.01588701 , 1.988625E-06, 918.0603    , 31.3747978  , 824.519958  , 0.08        , 3           , 8           , 5           , 5
-0.163728088, 9.790365    , 0.07825403  , -0.0004318194, 3.30489129E-05, -0.000494766049, -1.580582   , -0.01589196 , 1.70639862E-06, 918.0603    , 31.3747978  , 824.519958  , 0.09        , 3           , 9           , 5           , 0.1
-0.154958576, 9.8008      , 0.0784580559, -9.521929E-05, -3.82800354E-05, -0.000688438246, -1.5805831  , -0.0158988424, 2.15628415E-06, 918.0603    , 31.3747978  , 824.519958  , 0.1         , 3           , 10          , 0.1         , 0.1
-0.149521872, 9.795391    , 0.08118316  , 0.00105660944, 0.000155788 , 0.000191760322, -1.58054447 , -0.0159090944, 1.313331E-07, 918.0603    , 31.3747978  , 824.5043    , 0.11        , 3           , 11          , 0.0109544508, 0.0109544508
-0.148661256, 9.787825    , 0.08213152  , 0.0006658588, 1.89502025E-05, 5.622572E-05, -1.58053768 , -0.0159085337, -6.426938E-08, 918.0603    , 31.3747978  , 824.5043    , 0.12        , 3           , 12          , 0.174642488 , 0
-0.154809177, 9.789841    , 0.08436223  , -0.000143682933, 0.000177477865, -0.000300553831, -1.58053911 , -0.0159115549, -1.80885741E-06, 918.109436  , 31.4164524  , 824.5043    , 0.13        , 3           , 13          , 0           , 0
-0.154258534, 9.785143    , 0.07318407  , 0.0008147443, -5.83283836E-05, -0.0005325185, -1.580531   , -0.0159168728, -1.1745467E-06, 918.109436  , 31.4164524  , 824.5043    , 0.14        , 3           , 14          , -0.000624476932, -0.0005187881
-0.1639661  , 9.795621    , 0.08062528  , 0.000353112962, 1.23537029E-05, 0.000145574915, -1.58052742 , -0.0159154218, -1.31333115E-06, 918.109436  , 31.4164524  , 824.5043    , 0.15        , 3           , 15          , 0           , -0.000177694281
-0.1702225  , 9.800903    , 0.08466537  , -0.0005638981, -0.000274776365, 0.000860780361, -1.580533   , -0.0159067847, 1.35152E-06 , 918.109436  , 31.4164524  , 824.5043    , 0.16        , 3           , 16          , 0           , 1.401298E-45
-0.161054447, 9.790373    , 0.08456481  , -0.000103165337, -0.000176472007, 0.000562284258, -1.5805341  , -0.0159011465, 3.062576E-06, 918.109436  , 31.4164524  , 824.5043    , 0.17        , 3           , 20          , 0           , 0
-0.153785571, 9.785937    , 0.08420293  , 0.0001953317, -0.000400815916, 0.0005963284, -1.58053219 , -0.015895145, 7.011882E-06, 918.109436  , 31.4164524  , 824.5043    , 0.18        , 3           , 21          , 0           , 0
-0.1601598  , 9.804008    , 0.08037298  , -0.000235646148, -0.0001940853, -0.000288447976, -1.58053446 , -0.0158980135, 8.980947E-06, 918.109436  , 31.4164524  , 824.504333  , 0.19        , 3           , 22          , 0           , 0
-0.165696353, 9.792149    , 0.08692131  , -0.000356827164, 8.806394E-05, -8.254949E-05, -1.580538   , -0.0158988424, 8.107257E-06, 918.109436  , 31.4164524  , 824.5044    , 0.2         , 3           , 40          , 0           , 0
-0.160690814, 9.800791    , 0.09813087  , 6.873062E-05, 0.000839469256, 0.000243747 , -1.58048582 , -0.015905682, -1.1298373E-06, 918.109436  , 31.4164524  , 824.283447  , 0.21        , 3           , 41          , 0           , 0
-0.159891039, 9.794696    , 0.0972801   , 0.000303172274, 0.0004084679, 0.000213869367, -1.58048272 , -0.0159035847, -5.23562676E-06, 918.109436  , 31.4164524  , 824.2835    , 0.22        , 3           , 42          , 0           , 0
-0.159980625, 9.795137    , 0.09118675  , -0.000147493556, 4.18900163E-05, 0.0002556539, -1.58048427 , -0.015901031, -5.67992356E-06, 918.0455    , 31.4367371  , 824.283569  , 0.23        , 3           , 255         , 0           , 0
-0.158550173, 9.78580952  , 0.08170621  , 0.000298911473, 1.92871084E-05, 0.00100880035, -1.58048117 , -0.0158909485, -5.97053076E-06, 918.0455    , 31.4367371  , 824.2836    , 0.24        , 3           , 255         , 0           , 0
-0.161323518, 9.7917      , 0.0812051147, 0.000230852864, -0.000193477492, 0.00075221865, -1.58047879 , -0.01588341 , -4.10951361E-06, 918.0455    , 31.4367371  , 824.2837    , 0.25        , 3           , 255         , 0           , 0
-0.171934962, 9.794624    , 0.08261277  , -0.000297365477, -0.000464509474, 9.438219E-05, -1.580482   , -0.0158824138, 5.271951E-07, 918.0455    , 31.4367371  , 824.283752  , 0.26        , 3           , 255         , 0           , 0
-0.1605325  , 9.801539    , 0.0870950446, -5.56562445E-05, -7.174013E-05, 9.149758E-05, -1.58048248 , -0.0158814937, 1.2350896E-06, 918.0455    , 31.4367371  , 824.2838    , 0.27        , 3           , 255         , 0           , 0
-0.156101987, 9.794089    , 0.09600584  , 7.383467E-06, -0.000269399025, -0.000334452721, -1.58048248 , -0.0158848148, 3.96234645E-06, 918.0455    , 31.4367371  , 824.2839    , 0.28        , 3           , 255         , 0           , 0
-0.1502536  , 9.775759    , 0.08255646  , -0.000551642443, 8.093327E-05, -3.43234133E-05, -1.58048809 , -0.015885165, 3.15665056E-06, 918.0455    , 31.4367371  , 824.283936  , 0.29        , 3           , 255         , 0           , 0
-0.151070744, 9.77968     , 0.0910580456, -0.000323074637, 0.000214361324, 0.000287605159, -1.58049119 , -0.0158823077, 9.845321E-07, 918.0455    , 31.4367371  , 824.284     , 0.3         , 3           , 255         , 0           , 0
-0.159282833, 9.800493    , 0.08112532  , 1.96067849E-05, -0.000238710723, -0.000139443771, -1.58046627 , -0.015898075, 2.99364933E-06, 918.0455    , 31.4367371  , 824.4033    , 0.31        , 3           , 255         , 0           , 0
-0.1663602  , 9.809418    , 0.07699946  , 0.0004733476, 5.919623E-05, 9.39421661E-05, -1.58046162 , -0.0158971418, 2.39287E-06 , 918.0455    , 31.4367371  , 824.4034    , 0.32        , 3           , 255         , 0           , 0
-0.158147171, 9.796665    , 0.08118886  , 0.00032170827, -5.83597575E-05, -0.000222202812, -1.5804584  , -0.01589936 , 2.99830617E-06, 918.0746    , 31.45458    , 824.403442  , 0.33        , 3           , 255         , 0           , 0
-0.145661309, 9.790903    , 0.07809835  , 2.77825166E-06, -0.000360063626, -0.000319297425, -1.5804584  , -0.0159025155, 6.629992E-06, 918.0746    , 31.45458    , 824.4035    , 0.34        , 3           , 255         , 0           , 0
-0.147308   , 9.789988    , 0.08854298  , -0.0002865981, -0.000572383, -8.608065E-05, -1.58046138 , -0.015903322, 1.23620757E-05, 918.0746    , 31.45458    , 824.403564  , 0.35        , 3           , 255         , 0           , 0
-0.149026   , 9.7856245   , 0.0845805556, -0.0005910742, -0.0006585328, 6.124712E-06, -1.58046734 , -0.0159031935, 1.894643E-05, 918.0746    , 31.45458    , 824.4036    , 0.36        , 3           , 255         , 0           , 0
-0.163613483, 9.799172    , 0.08854717  , -0.0003793651, -0.000558693951, 0.0001547104, -1.58047116 , -0.0159015954, 2.45183037E-05, 918.0746    , 31.45458    , 824.4037    , 0.37        , 3           , 255         , 0           , 0
-0.163231537, 9.791915    , 0.0838859752, -0.000304992718, -5.42653725E-05, 0.0006486797, -1.58047426 , -0.015895104, 2.49989262E-05, 918.0746    , 31.45458    , 824.403748  , 0.38        , 3           , 255         , 0           , 0
-0.150354177, 9.794309    , 0.0826694742, -0.0001259683, 0.0004174968, 0.000251823338, -1.58047545 , -0.0158926249, 2.07990615E-05, 918.0746    , 31.45458    , 824.4038    , 0.39        , 3           , 255         , 0           , 0
-0.148617283, 9.790401    , 0.0853326544, 0.000112584734, -0.000202797237, 0.000416793919, -1.58047426 , -0.01588844 , 2.27867513E-05, 918.0746    , 31.45458    , 824.4039    , 0.4         , 3           , 255         , 0           , 0
-0.14665404 , 9.79355049  , 0.08301165  , -0.000140861783, -5.020661E-05, 6.29114E-05 , -1.58043885 , -0.0158858169, 2.26982647E-05, 918.0746    , 31.45458    , 824.397339  , 0.41        , 3           , 255         , 0           , 0
-0.154589862, 9.797926    , 0.08424838  , -0.000191037892, 4.64747427E-05, 0.000211783132, -1.58044076 , -0.0158837  , 2.2212982E-05, 918.0746    , 31.45458    , 824.3974    , 0.42        , 3           , 255         , 0           , 0
-0.153689429, 9.804758    , 0.08875682  , 0.0002781232, -0.0001415441, 0.0001701267, -1.5804379  , -0.0158819854, 2.3612005E-05, 918.0657    , 31.4645519  , 824.397461  , 0.43        , 3           , 255         , 0           , 0
-0.166115329, 9.790784    , 0.09013401  , 0.000947084161, -0.000393398223, -5.743267E-05, -1.5804286  , -0.0158825219, 2.75510647E-05, 918.0657    , 31.4645519  , 824.3975    , 0.44        , 3           , 255         , 0           , 0
-0.168015674, 9.773453    , 0.09288998  , 0.000233894563, -5.21476031E-05, 0.000113443464, -1.58042622 , -0.0158813819, 2.8061495E-05, 918.0657    , 31.4645519  , 824.3976    , 0.45        , 3           , 255         , 0           , 0
-0.162035346, 9.772085    , 0.08311723  , 0.0002015575, 0.000168363709, -0.00079342816, -1.58042419 , -0.0158893336, 2.645383E-05, 918.0657    , 31.4645519  , 824.397644  , 0.46        , 3           , 255         , 0           , 0
-0.151052192, 9.792387    , 0.08571448  , 0.000349074835, -0.000201558054, -0.000584240537, -1.58042061 , -0.0158951525, 2.852536E-05, 918.0657    , 31.4645519  , 824.3977    , 0.47        , 3           , 255         , 0           , 0
-0.158889711, 9.800439    , 0.0897642747, 0.0005816127, -5.975744E-05, -0.00101889367, -1.58041477 , -0.0159053355, 2.92211516E-05, 918.0657    , 31.4645519  , 824.397766  , 0.48        , 3           , 255         , 0           , 0
-0.1683509  , 9.796156    , 0.0890359059, -0.000341360748, -0.000647730834, -0.000402883859, -1.58041823 , -0.0159093  , 3.57365825E-05, 918.0657    , 31.4645519  , 824.3978    , 0.49        , 3           , 255         , 0           , 0
-0.1646972  , 9.799083    , 0.08626427  , 0.000182841643, 0.000168443017, 0.000172818327, -1.58041632 , -0.01590759 , 3.40357619E-05, 918.0657    , 31.4645519  , 824.3979    , 0.5         , 3           , 255         , 0           , 0
-0.162054047, 9.784869    , 0.08528056  , -0.00017038238, -0.000185782032, 0.000199272778, -1.58039212 , -0.0159198623, 3.54636722E-05, 918.0657    , 31.4645519  , 824.410156  , 0.51        , 3           , 255         , 0           , 0
-0.159395   , 9.783963    , 0.09305736  , 0.000348752772, -2.61171954E-05, 0.0002556291, -1.58038867 , -0.015917303, 3.5699326E-05, 918.0657    , 31.4645519  , 824.4102    , 0.52        , 3           , 255         , 0           , 0
-0.153100222, 9.799189    , 0.0855293348, 0.0005393108, 0.000356902456, -9.551819E-06, -1.58038318 , -0.0159174334, 3.213191E-05, 918.0695    , 31.47215    , 824.4103    , 0.53        , 3           , 255         , 0           , 0
-0.159042493, 9.79487     , 0.09467703  , 0.0004097281, 0.00048359402, 0.0003256491, -1.58037913 , -0.015914226, 2.72651268E-05, 918.0695    , 31.47215    , 824.4104    , 0.54        , 3           , 255         , 0           , 0
-0.164721385, 9.796486    , 0.0835461542, 0.0006178463, -0.000239391287, 0.000274489052, -1.580373   , -0.0159114562, 2.96328471E-05, 918.0695    , 31.47215    , 824.4105    , 0.55        , 3           , 255         , 0           , 0
-0.156357139, 9.789339    , 0.07464733  , -0.0004410731, -0.000260618341, 0.0004196944, -1.58037746 , -0.0159072354, 3.219896E-05, 918.0695    , 31.47215    , 824.410645  , 0.56        , 3           , 255         , 0           , 0
-0.151201427, 9.79538     , 0.0860183463, -1.668447E-05, 0.0001826733, 0.000452369422, -1.58037758 , -0.0159027316, 3.03286324E-05, 918.0695    , 31.47215    , 824.410767  , 0.57        , 3           , 255         , 0           , 0
-0.154082522, 9.809256    , 0.08843268  , 0.000153608038, -0.000352040865, 0.000342840242, -1.580376   , -0.015899267, 3.381594E-05, 918.0695    , 31.47215    , 824.4109    , 0.58        , 3           , 255         , 0           , 0
-0.158308655, 9.807458    , 0.0929361   , 0.000356771838, -2.50077574E-06, 0.00041433415, -1.58037257 , -0.0158951227, 3.380197E-05, 918.0695    , 31.47215    , 824.411     , 0.59        , 3           , 255         , 0           , 0
-0.157693535, 9.795117    , 0.0839716345, 0.0003726529, -0.000168668339, 0.0003901765, -1.58036888 , -0.0158912074, 3.54515469E-05, 918.0695    , 31.47215    , 824.411133  , 0.6         , 3           , 255         , 0           , 0
-0.16249609 , 9.797086    , 0.07399129  , -4.211598E-05, -0.0005398326, 0.0009255683, -1.58034933 , -0.0158867445, 4.04431339E-05, 918.0695    , 31.47215    , 824.4134    , 0.61        , 3           , 255         , 0           , 0
-0.164477378, 9.796668    , 0.07700548  , -5.46667725E-05, 3.14140925E-05, -0.000212942774, -1.5803498  , -0.0158888754, 4.014973E-05, 918.0695    , 31.47215    , 824.4135    , 0.62        , 3           , 255         , 0           , 0
-0.1458257  , 9.79274     , 0.07958903  , 0.000228067627, -0.00018174859, 0.0003282497, -1.58034754 , -0.0158855785, 4.19353E-05 , 918.082458  , 31.4802246  , 824.413635  , 0.63        , 3           , 255         , 0           , 0
-0.144456223, 9.804027    , 0.08663253  , -0.0002827971, -0.000114630733, 0.000105169529, -1.5803504  , -0.0158845168, 4.30716536E-05, 918.082458  , 31.4802246  , 824.413757  , 0.64        , 3           , 255         , 0           , 0
-0.150726125, 9.804698    , 0.0919265747, -0.000157608069, -0.0002666377, -0.000348336, -1.580352   , -0.0158879738, 4.577097E-05, 918.082458  , 31.4802246  , 824.4139    , 0.65        , 3           , 255         , 0           , 0
-0.154927686, 9.805661    , 0.09180905  , 0.000241532922, -0.000132072717, -0.000613942451, -1.58034968 , -0.0158940982, 4.71513667E-05, 918.082458  , 31.4802246  , 824.414     , 0.66        , 3           , 255         , 0           , 0
-0.16325137 , 9.790039    , 0.08306459  , 0.000406728737, -0.000366152672, 0.000117094656, -1.58034563 , -0.0158928949, 5.080168E-05, 918.082458  , 31.4802246  , 824.4141    , 0.67        , 3           , 255         , 0           , 0
-0.159295589, 9.785922    , 0.08096509  , -0.000128149462, 5.76674065E-05, 0.000227523575, -1.580347   , -0.0158906244, 5.02027651E-05, 918.082458  , 31.4802246  , 824.414246  , 0.68        , 3           , 255         , 0           , 0
-0.159589261, 9.797514    , 0.09200825  , 4.868774E-05, 6.224742E-05, 3.11592448E-05, -1.58034647 , -0.0158903189, 4.9577764E-05, 918.082458  , 31.4802246  , 824.414368  , 0.69        , 3           , 255         , 0           , 0
-0.160887435, 9.807543    , 0.08742425  , 0.000470501138, -6.807374E-05, -0.000146842329, -1.5803417  , -0.01589178 , 5.027169E-05, 918.082458  , 31.4802246  , 824.4145    , 0.7         , 3           , 255         , 0           , 0
-0.164537892, 9.79511452  , 0.0823351   , 0.0005917339, -4.67370264E-05, 0.0004275044, -1.58031356 , -0.0158897042, 5.034714E-05, 918.082458  , 31.4802246  , 824.398132  , 0.71        , 3           , 255         , 0           , 0
-0.161284462, 9.791776    , 0.0895107761, -2.73405458E-05, -0.000183172117, -0.000138773583, -1.580314   , -0.0158910733, 5.219232E-05, 918.082458  , 31.4802246  , 824.398254  , 0.72        , 3           , 255         , 0           , 0
-0.159044057, 9.79280949  , 0.0936879739, -0.000253692328, -0.000206372351, -0.0007247195, -1.58031654 , -0.0158983022, 5.4326254E-05, 918.1168    , 31.484024   , 824.3984    , 0.73        , 3           , 255         , 0           , 0
-0.166773438, 9.80508     , 0.0970959142, 0.000297698338, 0.0001563917, -0.000173413922, -1.58031356 , -0.0159000512, 5.27782E-05 , 918.1168    , 31.484024   , 824.3985    , 0.74        , 3           , 255         , 0           , 0
-0.156718731, 9.804828    , 0.0889875442, 0.0004092163, -9.806646E-05, 0.000222122384, -1.58030951 , -0.0158978216, 5.37385167E-05, 918.1168    , 31.484024   , 824.3986    , 0.75        , 3           , 255         , 0           , 0
-0.153975159, 9.796625    , 0.08456001  , -0.000174426648, -0.0004095607, 0.000869598356, -1.58031118 , -0.0158890858, 5.77502251E-05, 918.1168    , 31.484024   , 824.398743  , 0.76        , 3           , 255         , 0           , 0
-0.1490591  , 9.800948    , 0.08136075  , 4.169729E-05, -0.000205143937, 0.0004590218, -1.580311   , -0.01588448 , 5.975933E-05, 918.1168    , 31.484024   , 824.398865  , 0.77        , 3           , 255         , 0           , 0
-0.154944912, 9.78717     , 0.08162566  , 0.000532230537, 0.000183981145, 0.0006315376, -1.58030558 , -0.0158781819, 5.785825E-05, 918.1168    , 31.484024   , 824.399     , 0.78        , 3           , 255         , 0           , 0
-0.151283741, 9.785482    , 0.08107415  , 0.000205945631, 0.0003891676, 0.000283631962, -1.58030355 , -0.01587538 , 5.39396824E-05, 918.1168    , 31.484024   , 824.3991    , 0.79        , 3           , 255         , 0           , 0
-0.15360111 , 9.794818    , 0.07764328  , -0.00029943703, 7.395379E-05, -0.000175163383, -1.58030653 , -0.0158771388, 5.321689E-05, 918.1168    , 31.484024   , 824.399231  , 0.8         , 3           , 255         , 0           , 0
-0.158149227, 9.80098152  , 0.08863012  , 0.00016477739, 7.185541E-05, -0.0007524873, -1.58028448 , -0.0158883985, 5.22472765E-05, 918.1168    , 31.484024   , 824.34375   , 0.81        , 3           , 255         , 0           , 0
-0.157725736, 9.795633    , 0.0860724   , 0.000219766807, -8.297403E-05, -0.0006332092, -1.58028233 , -0.0158947241, 5.31377373E-05, 918.1168    , 31.484024   , 824.3438    , 0.82        , 3           , 255         , 0           , 0
-0.147677779, 9.798845    , 0.08335965  , 0.000117017422, -3.56598757E-05, -0.00061959005, -1.58028114 , -0.0159009174, 5.35522267E-05, 918.0666    , 31.48355    , 824.3439    , 0.83        , 3           , 255         , 0           , 0
-0.157538071, 9.797267    , 0.08707868  , -3.5636127E-05, 0.000165492354, -0.00103913248, -1.5802815  , -0.0159113184, 5.19967361E-05, 918.0666    , 31.48355    , 824.343933  , 0.84        , 3           , 255         , 0           , 0
-0.166967854, 9.811455    , 0.0796808451, 0.0006359852, -0.000906305853, -0.0006120643, -1.58027518 , -0.0159173552, 6.111648E-05, 918.0666    , 31.48355    , 824.344055  , 0.85        , 3           , 255         , 0           , 0
-0.159757286, 9.806766    , 0.085784696 , 0.000699827156, 7.414803E-05, -0.0007050563, -1.58026814 , -0.015924409, 6.04421257E-05, 918.0666    , 31.48355    , 824.3442    , 0.86        , 3           , 255         , 0           , 0
-0.157110065, 9.791525    , 0.0862853155, 0.0002480453, -0.000167418271, 8.872725E-05, -1.58026552 , -0.01592351 , 6.21066E-05 , 918.0666    , 31.48355    , 824.3443    , 0.87        , 3           , 255         , 0           , 0
-0.149370939, 9.792661    , 0.08914828  , -5.750882E-05, 0.000226341945, 0.000320097315, -1.58026612 , -0.015920328, 5.98133847E-05, 918.0666    , 31.48355    , 824.3444    , 0.88        , 3           , 255         , 0           , 0
-0.157862991, 9.791964    , 0.09007859  , -0.000282116118, 0.00025702946, 0.00067523733, -1.580269   , -0.0159136038, 5.717927E-05, 918.0666    , 31.48355    , 824.344543  , 0.89        , 3           , 255         , 0           , 0
-0.163332671, 9.790138    , 0.0802593   , -0.000138624746, -6.985443E-05, 0.000692974834, -1.58027029 , -0.0159066655, 5.78126455E-05, 918.0666    , 31.48355    , 824.344666  , 0.9         , 3           , 255         , 0           , 0
-0.155802369, 9.8004      , 0.08293731  , 0.000224676449, -0.000182322168, -0.00010802121, -1.580251   , -0.0159114823, 5.93756049E-05, 918.0666    , 31.48355    , 824.3582    , 0.91        , 3           , 255         , 0           , 0
-0.15853703 , 9.795085    , 0.08111223  , 0.00046703135, -9.526615E-06, 0.00033455505, -1.58024633 , -0.015908137, 5.9438E-05  , 918.0666    , 31.48355    , 824.358337  , 0.92        , 3           , 255         , 0           , 0
-0.15855813 , 9.792117    , 0.08710773  , 0.000366696739, 0.00030843445, -0.0002711708, -1.58024251 , -0.0159108751, 5.637917E-05, 918.066162  , 31.48633    , 824.358459  , 0.93        , 3           , 255         , 0           , 0
-0.155511841, 9.793274    , 0.0864521638, 0.000347289024, 3.75127129E-05, 0.0005964834, -1.580239   , -0.0159049183, 5.59469627E-05, 918.066162  , 31.48633    , 824.3586    , 0.94        , 3           , 255         , 0           , 0
-0.154574782, 9.799864    , 0.09069989  , 0.000197050744, 0.000235497107, 0.0004369386, -1.580237   , -0.01590057 , 5.35503641E-05, 918.066162  , 31.48633    , 824.3587    , 0.95        , 3           , 255         , 0           , 0
-0.15263322 , 9.801921    , 0.09447117  , 0.000199802278, 0.00013115289, -0.00106343185, -1.58023489 , -0.0159112141, 5.233951E-05, 918.066162  , 31.48633    , 824.3588    , 0.96        , 3           , 255         , 0           , 0
-0.163242817, 9.807684    , 0.08958581  , 0.0002926651, -0.00032798422, 0.000747923739, -1.580232   , -0.0159037076, 5.55492443E-05, 918.066162  , 31.48633    , 824.358948  , 0.97        , 3           , 255         , 0           , 0
-0.161499724, 9.804624    , 0.087364    , -0.000181357143, -4.70374362E-05, 0.000275509519, -1.58023393 , -0.015900949, 5.59944674E-05, 918.066162  , 31.48633    , 824.3591    , 0.98        , 3           , 255         , 0           , 0
-0.15807344 , 9.792785    , 0.0877953842, 3.5513367E-05, -0.0003791619, -0.000184094868, -1.58023369 , -0.0159027539, 5.98031329E-05, 918.066162  , 31.48633    , 824.3592    , 0.99        , 3           , 255         , 0           , 0
-0.160426185, 9.785084    , 0.08966199  , -2.47638091E-05, -0.000168160128, -0.000292782148, -1.58023381 , -0.0159056671, 6.151232E-05, 918.066162  , 31.48633    , 824.3593    , 1           , 3           , 0           , 6.45523643  , 100
-0.1566118  , 9.790491    , 0.09217203  , 9.6025E-05  , 0.000111045811, 0.0006284346, -1.58022153 , -0.01590424 , 6.01636E-05 , 918.066162  , 31.48633    , 824.3708    , 1.01        , 3           , 1           , 0           , 0
-0.16361551 , 9.804823    , 0.08870753  , -0.000158811337, -8.755963E-05, 0.0005887386, -1.58022308 , -0.015898345, 6.09823255E-05, 918.066162  , 31.48633    , 824.371     , 1.02        , 3           , 2           , 0           , 0
-0.151806086, 9.787771    , 0.0882338062, -0.00028882554, 0.000236674037, 0.0003250357, -1.580226   , -0.0158951152, 5.85848E-05 , 918.0641    , 31.49257    , 824.371155  , 1.03        , 3           , 3           , 0           , 0
-0.152244672, 9.790416    , 0.07668314  , -0.000224175921, 1.51357381E-06, 0.0002990131, -1.58022821 , -0.0158921275, 5.85400849E-05, 918.0641    , 31.49257    , 824.371338  , 1.04        , 3           , 4           , 0           , 0
-0.156336889, 9.790266    , 0.0754853338, 7.573108E-05, -0.000162737444, 0.000205444157, -1.58022738 , -0.01589006 , 6.014868E-05, 918.0641    , 31.49257    , 824.3715    , 1.05        , 3           , 5           , 0           , 0
-0.155402869, 9.795336    , 0.07824346  , -0.000239188375, -0.0003673758, -0.000379376026, -1.58022988 , -0.0158938151, 6.385862E-05, 918.0641    , 31.49257    , 824.3717    , 1.06        , 3           , 6           , 0           , 0
-0.151977584, 9.789352    , 0.07928157  , 4.531449E-05, 1.04861683E-05, -0.000179704919, -1.58022928 , -0.0158956144, 6.377107E-05, 918.0641    , 31.49257    , 824.3719    , 1.07        , 3           , 7           , 0           , 0
-0.172727779, 9.788542    , 0.0841815248, 0.000338820129, 0.000314166944, 0.000550443656, -1.58022583 , -0.0158901419, 6.0577142E-05, 918.0641    , 31.49257    , 824.3721    , 1.08        , 3           , 8           , 5           , 5
-0.173005342, 9.795155    , 0.0858310238, 0.000130772765, 0.0008027755, -0.000121786521, -1.58022451 , -0.0158914346, 5.25593059E-05, 918.0641    , 31.49257    , 824.372253  , 1.09        , 3           , 9           , 5           , 0.1
-0.153342575, 9.797275    , 0.08491281  , 0.0001529066, 0.0002622588, -0.000540934852, -1.580223   , -0.015896868, 4.99876041E-05, 918.0641    , 31.49257    , 824.372437  , 1.1         , 3           , 10          , 0.1         , 0.1
-0.1481818  , 9.788626    , 0.08071985  , -0.000166382932, 0.000101995567, -0.000297115068, -1.58019793 , -0.0159089826, 4.85699675E-05, 918.0641    , 31.49257    , 824.3846    , 1.11        , 3           , 11          , 0.009352015 , 0.009352015
-0.155650288, 9.804445    , 0.0774825662, -0.000107212458, 3.150353E-05, 0.000336374069, -1.58019888 , -0.0159056224, 4.82234645E-05, 918.0641    , 31.49257    , 824.3848    , 1.12        , 3           , 12          , 0.174642846 , 0
-0.157820717, 9.78116     , 0.08273528  , 0.000407520274, -0.000404382183, 0.000853711739, -1.580195   , -0.0158970524, 5.21876573E-05, 918.0555    , 31.4889088  , 824.3851    , 1.13        , 3           , 13          , 0           , 0
-0.157634348, 9.794185    , 0.0851958841, 0.000154318084, -0.000424874772, 0.000566449133, -1.5801934  , -0.0158913452, 5.63838039E-05, 918.0555    , 31.4889088  , 824.3853    , 1.14        , 3           , 14          , -0.0006246289, -0.00051879097
-0.15832074 , 9.801727    , 0.0870527253, 0.000192495878, 0.000357821438, 3.23791755E-05, -1.58019149 , -0.0158910546, 5.28024138E-05, 918.0555    , 31.4889088  , 824.385559  , 1.15        , 3           , 15          , 0           , -0.000177653812
-0.1559456  , 9.793282    , 0.09145149  , 0.000241511763, -6.12397E-05, 0.0007581282, -1.58018911 , -0.0158834718, 5.334357E-05, 918.0555    , 31.4889088  , 824.3858    , 1.16        , 3           , 16          , 0           , 1.401298E-45
-0.158265308, 9.798832    , 0.09394006  , -8.289231E-05, 0.000115029572, 0.000217538036, -1.58019006 , -0.0158813056, 5.217275E-05, 918.0555    , 31.4889088  , 824.386047  , 1.17        , 3           , 20          , 0           , 0
-0.156015843, 9.798018    , 0.101457939 , 0.000389275228, -0.0002827284, 0.0003941385, -1.58018613 , -0.01587734 , 5.49633442E-05, 918.0555    , 31.4889088  , 824.3863    , 1.18        , 3           , 21          , 0           , 0
-0.156186029, 9.795306    , 0.09229243  , 3.316987E-05, -1.636328E-05, -0.000124678758, -1.58018577 , -0.0158785842, 5.51393859E-05, 918.0555    , 31.4889088  , 824.386536  , 1.19        , 3           , 22          , 0           , 0
-0.159005046, 9.790541    , 0.09403621  , 0.000401749625, 4.50391381E-05, 5.18121669E-05, -1.58018172 , -0.01587807 , 5.468298E-05, 918.0555    , 31.4889088  , 824.3868    , 1.2         , 3           , 40          , 0           , 0
-0.162962034, 9.794599    , 0.08058349  , 0.000193970831, -1.74155E-05, 0.000302622619, -1.580171   , -0.0158766918, 5.46895E-05 , 918.0555    , 31.4889088  , 824.4059    , 1.21        , 3           , 41          , 0           , 0
-0.16540201 , 9.792262    , 0.08569448  , -5.02310577E-05, -7.528049E-05, -0.000384052633, -1.58017159 , -0.0158805251, 5.54784274E-05, 918.0555    , 31.4889088  , 824.4062    , 1.22        , 3           , 42          , 0           , 0
-0.161278173, 9.791529    , 0.09201865  , -8.70332E-05, -0.0002823728, -0.000351382245, -1.58017242 , -0.01588401 , 5.83342335E-05, 918.048645  , 31.49352    , 824.4065    , 1.23        , 3           , 255         , 0           , 0
-0.154719561, 9.802683    , 0.08524333  , -2.07953271E-05, 0.000147495186, 0.000395512674, -1.58017254 , -0.01588007 , 5.68225E-05 , 918.048645  , 31.49352    , 824.4068    , 1.24        , 3           , 255         , 0           , 0
-0.163317233, 9.800528    , 0.08078247  , 0.000217322056, 0.000187380938, 0.0007595196, -1.58017039 , -0.0158724952, 5.487765E-05, 918.048645  , 31.49352    , 824.4071    , 1.25        , 3           , 255         , 0           , 0
-0.159131244, 9.791278    , 0.08822228  , -0.000581367, 0.00045488443, 7.01981044E-05, -1.58017612 , -0.015871834, 5.03219781E-05, 918.048645  , 31.49352    , 824.4074    , 1.26        , 3           , 255         , 0           , 0
-0.163191885, 9.792397    , 0.08498314  , -0.000348742527, 9.379719E-05, 0.000267001538, -1.58017969 , -0.0158691742, 4.93588668E-05, 918.048645  , 31.49352    , 824.4077    , 1.27        , 3           , 255         , 0           , 0
-0.151782334, 9.787263    , 0.0827142   , -0.000153865491, 0.000105580315, -0.000695330556, -1.58018124 , -0.0158761367, 4.83687472E-05, 918.048645  , 31.49352    , 824.408     , 1.28        , 3           , 255         , 0           , 0
-0.150926664, 9.792169    , 0.08381848  , -0.00020944298, 2.28757854E-05, 7.179022E-05, -1.58018327 , -0.0158754215, 4.81321622E-05, 918.048645  , 31.49352    , 824.4083    , 1.29        , 3           , 255         , 0           , 0
-0.151016474, 9.796683    , 0.09339716  , -0.000379378267, -7.8916084E-05, 0.00019018662, -1.580187   , -0.0158735141, 4.890339E-05, 918.048645  , 31.49352    , 824.4086    , 1.3         , 3           , 255         , 0           , 0
-0.152091891, 9.793442    , 0.07886298  , -2.34498875E-05, 0.00011162358, 0.000256104831, -1.58017135 , -0.0158784352, 4.75127563E-05, 918.048645  , 31.49352    , 824.432251  , 1.31        , 3           , 255         , 0           , 0
-0.1557242  , 9.800731    , 0.08453574  , -0.00063842407, 0.000336559257, -4.21411823E-06, -1.58017778 , -0.0158785079, 4.414653E-05, 918.048645  , 31.49352    , 824.4326    , 1.32        , 3           , 255         , 0           , 0
-0.153546944, 9.790326    , 0.08374691  , -5.794817E-05, -0.000331909279, 0.000221243332, -1.58017838 , -0.0158762634, 4.744476E-05, 918.049133  , 31.4903336  , 824.433044  , 1.33        , 3           , 255         , 0           , 0
-0.153249979, 9.788004    , 0.08316535  , -0.000503466465, 0.000318794657, 0.0001876972, -1.58018339 , -0.0158744175, 4.42387427E-05, 918.049133  , 31.4903336  , 824.4335    , 1.34        , 3           , 255         , 0           , 0
-0.153840631, 9.796323    , 0.08628707  , -0.000252496742, 0.000181314332, 1.98331836E-05, -1.58018589 , -0.0158742368, 4.24242971E-05, 918.049133  , 31.4903336  , 824.4339    , 1.35        , 3           , 255         , 0           , 0
-0.159329891, 9.792497    , 0.08326423  , 0.0001151982, -0.000191933243, 0.00022057732, -1.5801847  , -0.0158720128, 4.4323504E-05, 918.049133  , 31.4903336  , 824.4343    , 1.36        , 3           , 255         , 0           , 0
-0.1585554  , 9.788268    , 0.08754569  , 0.000186593825, -0.0004097175, -0.000389859255, -1.58018291 , -0.0158758741, 4.84572338E-05, 918.049133  , 31.4903336  , 824.434753  , 1.37        , 3           , 255         , 0           , 0
-0.1642054  , 9.790605    , 0.088233605 , 0.000191074971, 0.000269000884, -0.000333697943, -1.580181   , -0.0158792362, 4.57989081E-05, 918.049133  , 31.4903336  , 824.4352    , 1.38        , 3           , 255         , 0           , 0
-0.164093018, 9.807993    , 0.0840701   , -0.00027443748, 0.000214203668, -0.0007612956, -1.58018374 , -0.01588687 , 4.372832E-05, 918.049133  , 31.4903336  , 824.4356    , 1.39        , 3           , 255         , 0           , 0
-0.160323411, 9.802687    , 0.08915936  , -9.78234457E-05, 9.02309548E-05, -0.0008394715, -1.5801847  , -0.0158952679, 4.2904936E-05, 918.049133  , 31.4903336  , 824.436035  , 1.4         , 3           , 255         , 0           , 0
-0.168399617, 9.798953    , 0.0848425552, -0.000106566236, 0.0005447184, 0.000440990872, -1.58016872 , -0.0158956815, 3.714677E-05, 918.049133  , 31.4903336  , 824.456543  , 1.41        , 3           , 255         , 0           , 0
-0.153342038, 9.792762    , 0.09187125  , -0.000249914, -0.00019686186, 0.0007245762, -1.58017123 , -0.0158884171, 3.90478381E-05, 918.049133  , 31.4903336  , 824.457031  , 1.42        , 3           , 255         , 0           , 0
-0.155640051, 9.787493    , 0.08621754  , -0.0003459708, 0.000143428158, 0.000190305233, -1.5801748  , -0.0158865321, 3.7595717E-05, 918.0542    , 31.4942684  , 824.4575    , 1.43        , 3           , 255         , 0           , 0
-0.16151908 , 9.79275     , 0.0849982649, 0.000235580665, 0.00013818554, -0.000186874851, -1.5801723  , -0.0158884134, 3.623116E-05, 918.0542    , 31.4942684  , 824.458     , 1.44        , 3           , 255         , 0           , 0
-0.165352136, 9.781289    , 0.08894183  , -0.000536426553, -0.000404285151, 0.000227561148, -1.58017778 , -0.0158861  , 4.0253115E-05, 918.0542    , 31.4942684  , 824.4585    , 1.45        , 3           , 255         , 0           , 0
-0.167772144, 9.788794    , 0.0812524259, -0.000759864459, -0.000328260823, 0.0003561117, -1.58018541 , -0.015882507, 4.35019756E-05, 918.0542    , 31.4942684  , 824.459     , 1.46        , 3           , 255         , 0           , 0
-0.154022187, 9.792049    , 0.09482582  , -0.00021747686, 0.000173641252, 0.000390459725, -1.58018756 , -0.0158786178, 4.17294432E-05, 918.0542    , 31.4942684  , 824.4595    , 1.47        , 3           , 255         , 0           , 0
-0.154084817, 9.783858    , 0.08310311  , -0.0004251887, 0.000271514873, -0.000229961181, -1.58019173 , -0.0158809423, 3.903479E-05, 918.0542    , 31.4942684  , 824.459961  , 1.48        , 3           , 255         , 0           , 0
-0.162540779, 9.786249    , 0.09165785  , -0.0007150726, -0.0001578998, -0.000478856731, -1.58019888 , -0.0158857182, 4.06601539E-05, 918.0542    , 31.4942684  , 824.460449  , 1.49        , 3           , 255         , 0           , 0
-0.158583924, 9.805169    , 0.0939725637, 0.000172950531, -0.000219013775, 5.18338347E-05, -1.58019733 , -0.01588518 , 4.284624E-05, 918.0542    , 31.4942684  , 824.460938  , 1.5         , 3           , 255         , 0           , 0
-0.155386284, 9.794077    , 0.08474408  , 0.000328457478, 0.000309494179, 0.000114710943, -1.58018255 , -0.0158982016, 3.955827E-05, 918.0542    , 31.4942684  , 824.4735    , 1.51        , 3           , 255         , 0           , 0
-0.155530766, 9.790916    , 0.0934337   , -2.201309E-05, -0.0002489942, 0.000967277854, -1.58018279 , -0.0158885065, 4.19576572E-05, 918.0542    , 31.4942684  , 824.47406   , 1.52        , 3           , 255         , 0           , 0
-0.154913545, 9.792972    , 0.08028121  , -0.000145439815, -0.000245988718, 0.000219030364, -1.58018422 , -0.0158862937, 4.4398028E-05, 918.0775    , 31.4974556  , 824.4746    , 1.53        , 3           , 255         , 0           , 0
-0.157247543, 9.788449    , 0.09029274  , -3.52607458E-05, -0.00031157257, -0.0003479952, -1.5801847  , -0.0158897433, 4.75453671E-05, 918.0775    , 31.4974556  , 824.475159  , 1.54        , 3           , 255         , 0           , 0
-0.1621962  , 9.80292     , 0.083534576 , -0.000241498463, -5.1441777E-05, -0.000814864761, -1.58018708 , -0.015897885, 4.813591E-05, 918.0775    , 31.4974556  , 824.4757    , 1.55        , 3           , 255         , 0           , 0
-0.16382356 , 9.816011    , 0.08919576  , -0.000219044217, 0.0002600044, -0.000224953532, -1.58018923 , -0.0159001574, 4.555768E-05, 918.0775    , 31.4974556  , 824.476257  , 1.56        , 3           , 255         , 0           , 0
-0.1607514  , 9.804209    , 0.0817127   , 0.000116076495, 0.000465619552, -0.0002479987, -1.580188   , -0.0159026831, 4.09237655E-05, 918.0775    , 31.4974556  , 824.476868  , 1.57        , 3           , 255         , 0           , 0
-0.158694535, 9.791825    , 0.0845061541, 0.000106144231, 0.000258784246, -3.73379E-05, -1.580187   , -0.015903078, 3.833902E-05, 918.0775    , 31.4974556  , 824.4775    , 1.58        , 3           , 255         , 0           , 0
-0.159970641, 9.788063    , 0.0789459   , -4.48569772E-05, -0.000195481873, 0.000298599829, -1.58018744 , -0.0159000754, 4.02671E-05 , 918.0775    , 31.4974556  , 824.4781    , 1.59        , 3           , 255         , 0           , 0
-0.162110955, 9.793451    , 0.0787766352, -0.000184254837, 0.000182587013, 5.07606746E-05, -1.58018923 , -0.0158995837, 3.84368177E-05, 918.0775    , 31.4974556  , 824.4787    , 1.6         , 3           , 255         , 0           , 0
-0.1580159  , 9.799917    , 0.0822172   , -0.000259472, 0.00034167635, 0.0005170853, -1.58017612 , -0.0159015246, 3.472037E-05, 918.0775    , 31.4974556  , 824.464661  , 1.61        , 3           , 255         , 0           , 0
-0.155940533, 9.80498     , 0.08800112  , -0.000217383727, 0.00028340175, 0.0006633909, -1.58017826 , -0.0158949159, 3.1824522E-05, 918.0775    , 31.4974556  , 824.465149  , 1.62        , 3           , 255         , 0           , 0
-0.153190181, 9.800394    , 0.0869442   , 0.000384463521, 0.000173628534, 0.0008646704, -1.58017433 , -0.0158862863, 3.00072825E-05, 918.0663    , 31.4950142  , 824.4657    , 1.63        , 3           , 255         , 0           , 0
-0.150543377, 9.790319    , 0.0881615952, 0.000260473666, -4.572823E-05, 7.935597E-05, -1.5801717  , -0.0158854928, 3.04571568E-05, 918.0663    , 31.4950142  , 824.466248  , 1.64        , 3           , 255         , 0           , 0
-0.15244329 , 9.790842    , 0.0866624   , -0.000688586966, -5.30916732E-05, 1.48094405E-05, -1.58017862 , -0.0158853363, 3.098622E-05, 918.0663    , 31.4950142  , 824.4668    , 1.65        , 3           , 255         , 0           , 0
-0.14978011 , 9.791877    , 0.08138092  , -0.000180492178, -4.2015803E-05, 8.628621E-05, -1.58018053 , -0.0158844683, 3.13979181E-05, 918.0663    , 31.4950142  , 824.467346  , 1.66        , 3           , 255         , 0           , 0
-0.150909036, 9.791391    , 0.09082178  , 0.0004982675, -3.00049433E-05, 0.0003092438, -1.58017552 , -0.0158813726, 3.1668962E-05, 918.0663    , 31.4950142  , 824.4679    , 1.67        , 3           , 255         , 0           , 0
-0.1541799  , 9.800976    , 0.0927265   , 0.0001668352, -4.94376873E-05, 0.0004372525, -1.58017385 , -0.0158769935, 3.212164E-05, 918.0663    , 31.4950142  , 824.468445  , 1.68        , 3           , 255         , 0           , 0
-0.154979378, 9.787876    , 0.09037876  , 8.21026042E-05, -0.0005330059, -0.000203086718, -1.580173   , -0.0158789754, 3.74718365E-05, 918.0663    , 31.4950142  , 824.469     , 1.69        , 3           , 255         , 0           , 0
-0.149433732, 9.819536    , 0.09847595  , 0.000685489038, -0.000190537656, 4.403497E-06, -1.58016622 , -0.0158789139, 3.93756964E-05, 918.0663    , 31.4950142  , 824.469543  , 1.7         , 3           , 255         , 0           , 0
-0.161479443, 9.783496    , 0.0843844041, 0.000251261052, -0.000585505855, -0.000200960538, -1.58015728 , -0.0158756375, 4.514783E-05, 918.0663    , 31.4950142  , 824.4685    , 1.71        , 3           , 255         , 0           , 0
-0.167465046, 9.813257    , 0.08942215  , 0.000102359336, 0.000118480471, 4.45355981E-05, -1.58015633 , -0.0158752017, 4.395931E-05, 918.0663    , 31.4950142  , 824.469055  , 1.72        , 3           , 255         , 0           , 0
-0.162138864, 9.805393    , 0.09212387  , 0.0013669238, 0.000147286424, 0.0001860495, -1.58014262 , -0.0158733614, 4.2468997E-05, 918.0603    , 31.4948788  , 824.4696    , 1.73        , 3           , 255         , 0           , 0
-0.163753778, 9.77566051  , 0.08788563  , 0.0008912935, -0.000205426943, 0.00011016857, -1.58013368 , -0.0158722363, 4.45135156E-05, 918.0603    , 31.4948788  , 824.470154  , 1.74        , 3           , 255         , 0           , 0
-0.162267536, 9.76623249  , 0.05581053  , -0.0004544992, -0.000181711279, 0.00036991568, -1.58013833 , -0.0158685222, 4.62962926E-05, 918.0603    , 31.4948788  , 824.4707    , 1.75        , 3           , 255         , 0           , 0
-0.144231677, 9.820854    , 0.0750910044, -0.000591505144, -0.000481831026, 0.000465281424, -1.58014417 , -0.0158638228, 5.10708451E-05, 918.0603    , 31.4948788  , 824.471252  , 1.76        , 3           , 255         , 0           , 0
-0.143151611, 9.824466    , 0.0991021544, 0.0006157417, -0.000629129936, 0.0001921209, -1.58013809 , -0.0158618446, 5.734409E-05, 918.0603    , 31.4948788  , 824.4718    , 1.77        , 3           , 255         , 0           , 0
-0.1490638  , 9.805088    , 0.1102996   , 0.000169417966, 0.000250578247, 0.0003537581, -1.58013642 , -0.01585833 , 5.48049866E-05, 918.0603    , 31.4948788  , 824.472351  , 1.78        , 3           , 255         , 0           , 0
-0.1761232  , 9.802549    , 0.111681439 , 0.0006241272, 9.512965E-05, 0.00017570045, -1.58013022 , -0.01585658 , 5.383815E-05, 918.0603    , 31.4948788  , 824.4729    , 1.79        , 3           , 255         , 0           , 0
-0.170057982, 9.7777      , 0.08705096  , 0.00107020349, 0.00027881487, -0.00103213557, -1.58011949 , -0.01586693 , 5.11462931E-05, 918.0603    , 31.4948788  , 824.47345   , 1.8         , 3           , 255         , 0           , 0
-0.152686253, 9.746023    , 0.07083221  , -0.000251409423, 0.000354406249, -0.0004895537, -1.5801177  , -0.0158803947, 4.75798224E-05, 918.0603    , 31.4948788  , 824.4785    , 1.81        , 3           , 255         , 0           , 0
-0.149302214, 9.806388    , 0.06665666  , -0.00111554028, -0.000107326952, 0.00043626863, -1.58012891 , -0.0158760231, 4.86127865E-05, 918.0603    , 31.4948788  , 824.479065  , 1.82        , 3           , 255         , 0           , 0
-0.1574972  , 9.836461    , 0.0727782845, 0.000539550558, -0.000348204572, 0.0007727273, -1.58012342 , -0.0158682652, 5.20218528E-05, 918.055     , 31.4933853  , 824.4796    , 1.83        , 3           , 255         , 0           , 0
-0.166405737, 9.806046    , 0.0805601   , 0.00118079083, -3.89728229E-05, 0.00014568177, -1.58011174 , -0.0158668067, 5.239814E-05, 918.055     , 31.4933853  , 824.4802    , 1.84        , 3           , 255         , 0           , 0
-0.1656747  , 9.766485    , 0.0837093443, 0.00104960543, 2.92242039E-05, -0.00040457584, -1.58010113 , -0.0158708543, 5.2142932E-05, 918.055     , 31.4933853  , 824.480835  , 1.85        , 3           , 255         , 0           , 0
-0.155757487, 9.772955    , 0.09636997  , -0.0002700879, -0.0003196695, -0.000118214011, -1.58010387 , -0.0158720035, 5.53508253E-05, 918.055     , 31.4933853  , 824.481445  , 1.86        , 3           , 255         , 0           , 0
-0.147834569, 9.809929    , 0.0895332545, 0.000347068359, -0.000312424847, -0.0008122284, -1.58010042 , -0.0158800967, 5.85512535E-05, 918.055     , 31.4933853  , 824.482056  , 1.87        , 3           , 255         , 0           , 0
-0.153345779, 9.814741    , 0.07911464  , -0.0005933658, 0.00035519115, -0.000105028521, -1.58010626 , -0.015881177, 5.50080622E-05, 918.055     , 31.4933853  , 824.482666  , 1.88        , 3           , 255         , 0           , 0
-0.158636421, 9.80776     , 0.0731676   , -4.28181374E-06, 4.5964E-05  , 0.000584491 , -1.58010638 , -0.01587534 , 5.44938921E-05, 918.055     , 31.4933853  , 824.4833    , 1.89        , 3           , 255         , 0           , 0
-0.1556733  , 9.800377    , 0.06745915  , 0.000392488029, 0.000161788688, 0.00030598935, -1.58010244 , -0.0158722959, 5.284897E-05, 918.055     , 31.4933853  , 824.4839    , 1.9         , 3           , 255         , 0           , 0
-0.157353178, 9.766851    , 0.08140379  , -4.101079E-06, -3.15962825E-06, 0.000151696149, -1.58007646 , -0.01587235 , 5.2453106E-05, 918.055     , 31.4933853  , 824.4944    , 1.91        , 3           , 255         , 0           , 0
-0.159757808, 9.781034    , 0.08864856  , -0.0005559592, -0.000161877892, 0.000393442664, -1.580082   , -0.0158684  , 5.403469E-05, 918.055     , 31.4933853  , 824.495056  , 1.92        , 3           , 255         , 0           , 0
-0.151404738, 9.824552    , 0.09906728  , -0.000476851477, -0.0005747914, -0.000460762269, -1.58008683 , -0.0158729553, 5.98254519E-05, 918.1125    , 31.49508    , 824.4957    , 1.93        , 3           , 255         , 0           , 0
-0.159617066, 9.812798    , 0.09845035  , 0.000291799952, -0.000105606974, 0.000346877 , -1.580084   , -0.0158694759, 6.08491027E-05, 918.1125    , 31.49508    , 824.4964    , 1.94        , 3           , 255         , 0           , 0
-0.16382724 , 9.78270149  , 0.08946119  , 0.00106506457, 9.025048E-05, 0.00106352894, -1.58007336 , -0.0158588458, 5.984873E-05, 918.1125    , 31.49508    , 824.4971    , 1.95        , 3           , 255         , 0           , 0
-0.156906247, 9.777665    , 0.08361761  , -0.000128535437, 0.000103875529, 0.000662553357, -1.58007467 , -0.0158522315, 5.874869E-05, 918.1125    , 31.49508    , 824.497742  , 1.96        , 3           , 255         , 0           , 0
-0.158987015, 9.787191    , 0.0781612545, 0.00019049499, 5.300739E-06, -0.000220947666, -1.58007276 , -0.0158544425, 5.871609E-05, 918.1125    , 31.49508    , 824.4984    , 1.97        , 3           , 255         , 0           , 0
-0.156848162, 9.793569    , 0.0873108357, 0.000244067342, -0.000246799085, -0.000218863046, -1.58007038 , -0.0158566069, 6.120397E-05, 918.1125    , 31.49508    , 824.4991    , 1.98        , 3           , 255         , 0           , 0
-0.156249613, 9.813946    , 0.08482458  , 0.0004538962, -0.000253222941, 9.419214E-05, -1.58006585 , -0.015855642, 6.3727246E-05, 918.1125    , 31.49508    , 824.499756  , 1.99        , 3           , 255         , 0           , 0
-0.156682447, 9.812262    , 0.0899133161, 0.0005009603, -0.000178508111, 0.000379382225, -1.58006084 , -0.0158518311, 6.547648E-05, 918.1125    , 31.49508    , 824.5004    , 2           , 3           , 0           , 7.45523643  , 200
-0.155540735, 9.779854    , 0.0950087458, -0.000180114934, 7.017891E-05, -1.61301577E-05, -1.58005679 , -0.0158569347, 6.468383E-05, 918.1125    , 31.49508    , 824.4396    , 2.01        , 3           , 1           , 0           , 0
-0.168048814, 9.772404    , 0.0792867541, -0.000252145168, 0.000131076842, 7.417828E-05, -1.58005929 , -0.0158562027, 6.336678E-05, 918.1125    , 31.49508    , 824.4399    , 2.02        , 3           , 2           , 0           , 0
-0.162270457, 9.798145    , 0.0827444643, 4.74227127E-05, 0.000138139381, 0.0003496674, -1.58005869 , -0.01585272 , 6.1953775E-05, 918.077148  , 31.4959641  , 824.4402    , 2.03        , 3           , 3           , 0           , 0
-0.152250916, 9.810992    , 0.08525437  , -3.07427836E-05, -0.000316106656, -0.000241466289, -1.58005917 , -0.0158551056, 6.513557E-05, 918.077148  , 31.4959641  , 824.4405    , 2.04        , 3           , 4           , 0           , 0
-0.145380139, 9.798092    , 0.0802864954, -4.9516093E-06, 8.296783E-05, -0.000644066953, -1.580059   , -0.01586155 , 6.436621E-05, 918.077148  , 31.4959641  , 824.4408    , 2.05        , 3           , 5           , 0           , 0
-0.146326274, 9.782521    , 0.08586799  , 0.0006625711, 0.000165178586, 2.98636878E-05, -1.5800525  , -0.0158612672, 6.271198E-05, 918.077148  , 31.4959641  , 824.4411    , 2.06        , 3           , 6           , 0           , 0
-0.1484     , 9.779536    , 0.08111034  , -8.938444E-05, -0.000110407826, 6.678156E-05, -1.58005333 , -0.01586059 , 6.380922E-05, 918.077148  , 31.4959641  , 824.4414    , 2.07        , 3           , 7           , 0           , 0
-0.1570912  , 9.782774    , 0.08487357  , 0.000207875361, -1.585338E-05, 0.00014265551, -1.5800513  , -0.0158591662, 6.395544E-05, 918.077148  , 31.4959641  , 824.4417    , 2.08        , 3           , 8           , 5           , 5
-0.1629806  , 9.809444    , 0.0831598639, -0.0006620597, -0.000286254042, 0.000199031856, -1.580058   , -0.0158571452, 6.679821E-05, 918.077148  , 31.4959641  , 824.442     , 2.09        , 3           , 9           , 5           , 0.1
-0.159481257, 9.810466    , 0.08528999  , 0.000446078135, 0.0004574004, 0.00039749837, -1.58005345 , -0.0158532131, 6.21885047E-05, 918.077148  , 31.4959641  , 824.4423    , 2.1         , 3           , 10          , 0.1         , 0.1
-0.157469347, 9.802733    , 0.0857520252, 0.0003673893, 0.000308386516, 0.000580168853, -1.58003378 , -0.015848577, 5.879806E-05, 918.077148  , 31.4959641  , 824.430847  , 2.11        , 3           , 11          , 0.008333618 , 0.008333616
-0.150952846, 9.77577     , 0.08541968  , 0.0004714281, -0.0001651675, 0.0007571152, -1.580029   , -0.0158409942, 6.03805638E-05, 918.077148  , 31.4959641  , 824.4311    , 2.12        , 3           , 12          , 0.174643889 , 0
-0.144116521, 9.776749    , 0.0914990455, -0.0002215266, 3.336888E-05, -0.0003990935, -1.58003128 , -0.01584499 , 6.00843632E-05, 918.096863  , 31.49854    , 824.431335  , 2.13        , 3           , 13          , 0           , 0
-0.145492524, 9.790108    , 0.09361124  , 5.067617E-05, -1.04837818E-06, -0.000507754856, -1.58003068 , -0.0158500671, 6.01421234E-05, 918.096863  , 31.49854    , 824.4316    , 2.14        , 3           , 14          , -0.0006249007, -0.000518796267
-0.168566138, 9.815196    , 0.103030048 , 0.000249302771, 6.271736E-05, -0.00019814563, -1.58002818 , -0.0158520527, 5.953203E-05, 918.096863  , 31.49854    , 824.4318    , 2.15        , 3           , 15          , 0           , -0.000177561364
-0.174580276, 9.803346    , 0.09681461  , 0.000907124137, -0.0002877002, 0.000262885122, -1.58001912 , -0.0158493966, 6.238503E-05, 918.096863  , 31.49854    , 824.432068  , 2.16        , 3           , 16          , 0           , 1.401298E-45
-0.158108145, 9.788584    , 0.08806549  , 0.0005888257, -0.000276300183, 0.0002491905, -1.58001328 , -0.01584688 , 6.512346E-05, 918.096863  , 31.49854    , 824.4323    , 2.17        , 3           , 20          , 0           , 0
-0.149309635, 9.78565     , 0.09017412  , 0.000343064836, 0.0004428294, 0.0005088595, -1.58000982 , -0.0158418342, 6.06488175E-05, 918.096863  , 31.49854    , 824.432556  , 2.18        , 3           , 21          , 0           , 0
-0.151374817, 9.799323    , 0.08422463  , 0.00012424757, 0.00027069464, 0.000554641 , -1.58000863 , -0.0158363115, 5.78908221E-05, 918.096863  , 31.49854    , 824.4328    , 2.19        , 3           , 22          , 0           , 0
-0.153776363, 9.800571    , 0.09047638  , -0.0002538885, -1.2896664E-05, 3.307211E-05, -1.58001113 , -0.01583598 , 5.80165652E-05, 918.096863  , 31.49854    , 824.433044  , 2.2         , 3           , 40          , 0           , 0
-0.149163559, 9.81133     , 0.08602772  , -0.0006283449, 0.000435093854, -0.000271256082, -1.5800184  , -0.0158389732, 5.37068E-05 , 918.096863  , 31.49854    , 824.3976    , 2.21        , 3           , 41          , 0           , 0
-0.159109578, 9.799002    , 0.08327716  , 0.0004204887, 0.000384864019, -0.0004727234, -1.58001411 , -0.0158437341, 4.99009438E-05, 918.096863  , 31.49854    , 824.397644  , 2.22        , 3           , 42          , 0           , 0
-0.153776765, 9.788513    , 0.08822171  , 0.000130400469, -0.000258810469, -0.0003798022, -1.5800128  , -0.0158475079, 5.2524807E-05, 918.0924    , 31.49576    , 824.3977    , 2.23        , 3           , 255         , 0           , 0
-0.164210677, 9.792223    , 0.0788536742, -0.000294193218, 0.000171516527, 0.000157406525, -1.58001566 , -0.0158459526, 5.07951227E-05, 918.0924    , 31.49576    , 824.397766  , 2.24        , 3           , 255         , 0           , 0
-0.156781167, 9.793463    , 0.08431895  , -0.0001667483, 4.64103068E-05, 0.000140770979, -1.58001745 , -0.01584455 , 5.031822E-05, 918.0924    , 31.49576    , 824.3978    , 2.25        , 3           , 255         , 0           , 0
-0.15058279 , 9.803864    , 0.08207668  , 0.000138983974, -9.590032E-05, 0.0002673953, -1.580016   , -0.0158418678, 5.12524566E-05, 918.0924    , 31.49576    , 824.3979    , 2.26        , 3           , 255         , 0           , 0
-0.158835351, 9.810932    , 0.07596178  , -0.000254936749, 1.29470718E-05, 0.000558368338, -1.58001864 , -0.0158362817, 5.10708232E-05, 918.0924    , 31.49576    , 824.397949  , 2.27        , 3           , 255         , 0           , 0
-0.161630571, 9.793343    , 0.07758604  , 0.000143668585, 0.0004096779, -9.996274E-05, -1.58001709 , -0.0158373211, 4.69836668E-05, 918.0924    , 31.49576    , 824.398     , 2.28        , 3           , 255         , 0           , 0
-0.147111863, 9.79017448  , 0.07014792  , -0.000116485462, 0.000489910366, 0.000139894022, -1.58001828 , -0.0158359669, 4.20731158E-05, 918.0924    , 31.49576    , 824.3981    , 2.29        , 3           , 255         , 0           , 0
-0.156029969, 9.798972    , 0.08085388  , 6.721972E-05, 0.000370370661, 0.000314689241, -1.58001757 , -0.0158328544, 3.833897E-05, 918.0924    , 31.49576    , 824.398132  , 2.3         , 3           , 255         , 0           , 0
-0.164927274, 9.807934    , 0.08494537  , -0.000129048771, -3.812363E-05, -0.0005526798, -1.58000267 , -0.0158391371, 3.85168823E-05, 918.0924    , 31.49576    , 824.3721    , 2.31        , 3           , 255         , 0           , 0
-0.153047547, 9.805735    , 0.09293791  , -3.50466E-05, 0.000390071917, -0.000208118043, -1.580003   , -0.0158412531, 3.46355773E-05, 918.0924    , 31.49576    , 824.371948  , 2.32        , 3           , 255         , 0           , 0
-0.157158986, 9.794935    , 0.0821118355, 0.0002746903, -0.00012416864, 3.239895E-05, -1.5800004  , -0.0158409178, 3.587439E-05, 918.136841  , 31.500103   , 824.3718    , 2.33        , 3           , 255         , 0           , 0
-0.151954323, 9.779853    , 0.07952196  , -0.00016714551, 0.000105894607, 0.0004423955, -1.58000207 , -0.0158365034, 3.477529E-05, 918.136841  , 31.500103   , 824.3717    , 2.34        , 3           , 255         , 0           , 0
-0.140998513, 9.7716465   , 0.08869354  , -0.0002234744, -0.0003719891, -0.0003437829, -1.58000422 , -0.0158399083, 3.85261956E-05, 918.136841  , 31.500103   , 824.3716    , 2.35        , 3           , 255         , 0           , 0
-0.143282562, 9.793547    , 0.0858832151, -7.34232E-05, -0.00035588938, -0.000213934152, -1.58000493 , -0.0158420168, 4.2104788E-05, 918.136841  , 31.500103   , 824.37146   , 2.36        , 3           , 255         , 0           , 0
-0.150512666, 9.805359    , 0.09568073  , 0.000108610606, 1.26411906E-05, -0.000369025918, -1.580004   , -0.0158457067, 4.20135075E-05, 918.136841  , 31.500103   , 824.371338  , 2.37        , 3           , 255         , 0           , 0
-0.161123335, 9.810919    , 0.09033044  , 0.000455405 , -9.975309E-05, 0.0006839824, -1.57999945 , -0.0158388577, 4.29477368E-05, 918.136841  , 31.500103   , 824.3712    , 2.38        , 3           , 255         , 0           , 0
-0.166887566, 9.789566    , 0.08582268  , 0.0003679566, 2.51167221E-05, 0.000493274361, -1.57999575 , -0.0158339273, 4.26496772E-05, 918.136841  , 31.500103   , 824.3711    , 2.39        , 3           , 255         , 0           , 0
-0.14981626 , 9.78549     , 0.0957492962, -0.0001251208, 6.948912E-05, -0.00013448704, -1.579997   , -0.0158352777, 4.19669341E-05, 918.136841  , 31.500103   , 824.371     , 2.4         , 3           , 255         , 0           , 0
-0.1430955  , 9.778273    , 0.0837143   , -0.00080175366, 0.000201093615, 0.0007494421, -1.58000076 , -0.0158254113, 3.98218253E-05, 918.136841  , 31.500103   , 824.2891    , 2.41        , 3           , 255         , 0           , 0
-0.156839162, 9.819608    , 0.0879407749, -0.000482219679, 0.0006118747, -0.0002946955, -1.58000553 , -0.0158284158, 3.37302081E-05, 918.136841  , 31.500103   , 824.2885    , 2.42        , 3           , 255         , 0           , 0
-0.160837889, 9.793407    , 0.08245234  , 0.000171966443, 4.95542772E-05, 7.71622144E-05, -1.58000374 , -0.01582765 , 3.32272321E-05, 918.0795    , 31.4993553  , 824.2879    , 2.43        , 3           , 255         , 0           , 0
-0.160740048, 9.802467    , 0.07847601  , 0.0002587912, -0.000147871266, 0.000706421735, -1.58000124 , -0.01582057 , 3.46411543E-05, 918.0795    , 31.4993553  , 824.2873    , 2.44        , 3           , 255         , 0           , 0
-0.167618036, 9.804449    , 0.07862743  , 0.000445813581, -0.000193474232, 0.00104875059, -1.57999682 , -0.0158100668, 3.647981E-05, 918.0795    , 31.4993553  , 824.2867    , 2.45        , 3           , 255         , 0           , 0
-0.159664422, 9.789058    , 0.08268194  , 0.0009499405, -0.000225660333, 0.000699743046, -1.57998741 , -0.0158030484, 3.86714819E-05, 918.0795    , 31.4993553  , 824.2861    , 2.46        , 3           , 255         , 0           , 0
-0.149178   , 9.783472    , 0.0828856155, 0.000159023912, -2.68237782E-05, 0.0002855868, -1.57998586 , -0.0158001911, 3.89145862E-05, 918.0795    , 31.4993553  , 824.285461  , 2.47        , 3           , 255         , 0           , 0
-0.1498232  , 9.7955265   , 0.08714863  , -0.00034742814, 0.00022476411, -0.000246545067, -1.57998931 , -0.0158026759, 3.66903078E-05, 918.0795    , 31.4993553  , 824.284851  , 2.48        , 3           , 255         , 0           , 0
-0.162322253, 9.789282    , 0.0903443545, 0.0005717147, -0.0001444146, 0.0004531042, -1.57998359 , -0.0157981347, 3.809212E-05, 918.0795    , 31.4993553  , 824.284241  , 2.49        , 3           , 255         , 0           , 0
-0.166650459, 9.784868    , 0.08317388  , 0.000155979913, -0.0002316733, 0.00066781987, -1.57998216 , -0.0157914348, 4.03480662E-05, 918.0795    , 31.4993553  , 824.2836    , 2.5         , 3           , 255         , 0           , 0
-0.171032012, 9.787254    , 0.07815442  , -0.000244090275, -0.000302989967, 8.903405E-05, -1.57997155 , -0.015796192, 4.3162876E-05, 918.0795    , 31.4993553  , 824.2894    , 2.51        , 3           , 255         , 0           , 0
-0.165550783, 9.789512    , 0.08518747  , -0.000168535509, 8.46827461E-05, 0.000327592163, -1.57997322 , -0.015792923, 4.228639E-05, 918.0795    , 31.4993553  , 824.2889    , 2.52        , 3           , 255         , 0           , 0
-0.157944009, 9.798137    , 0.0884379   , -0.0006906372, 0.000193911081, 0.000549607 , -1.57998013 , -0.0157874469, 4.02977639E-05, 918.1266    , 31.49861    , 824.2883    , 2.53        , 3           , 255         , 0           , 0
-0.144317731, 9.79516     , 0.09601568  , -0.000470883737, 1.656072E-05, 0.000335484219, -1.57998478 , -0.0157840941, 4.010123E-05, 918.1266    , 31.49861    , 824.2878    , 2.54        , 3           , 255         , 0           , 0
-0.160540253, 9.798462    , 0.08342828  , -2.43414543E-05, 0.0003053252, 0.0007404492, -1.579985   , -0.015776718, 3.697997E-05, 918.1266    , 31.49861    , 824.287231  , 2.55        , 3           , 255         , 0           , 0
-0.166321844, 9.786509    , 0.08103967  , -0.0003548655, 0.000268141 , -0.000178008937, -1.57998848 , -0.0157785248, 3.43141946E-05, 918.1266    , 31.49861    , 824.2867    , 2.56        , 3           , 255         , 0           , 0
-0.160195559, 9.785561    , 0.0928211361, -0.000238449022, -5.14996937E-05, -0.00041848165, -1.57999086 , -0.0157827027, 3.48674766E-05, 918.1266    , 31.49861    , 824.286133  , 2.57        , 3           , 255         , 0           , 0
-0.1548714  , 9.792486    , 0.08973773  , -0.0004368644, -0.000105763378, -0.0001735286, -1.57999527 , -0.0157844275, 3.59414225E-05, 918.1266    , 31.49861    , 824.2856    , 2.58        , 3           , 255         , 0           , 0
-0.153871492, 9.803586    , 0.09763646  , -0.0003445468, -0.000295524544, -0.0003963047, -1.57999873 , -0.0157883633, 3.893321E-05, 918.1266    , 31.49861    , 824.285034  , 2.59        , 3           , 255         , 0           , 0
-0.1597625  , 9.79306     , 0.08882214  , -0.000433238165, -3.32557829E-06, -0.0005792667, -1.580003   , -0.015794158, 3.901983E-05, 918.1266    , 31.49861    , 824.2845    , 2.6         , 3           , 255         , 0           , 0
-0.162405714, 9.813982    , 0.09093459  , -0.000113101618, -5.9132E-06 , -0.000539255445, -1.58000028 , -0.0158100389, 3.906455E-05, 918.1266    , 31.49861    , 824.2261    , 2.61        , 3           , 255         , 0           , 0
-0.166696846, 9.802231    , 0.08244817  , 0.000310615229, 2.92307232E-05, 0.000544820738, -1.57999706 , -0.0158045944, 3.87236432E-05, 918.1266    , 31.49861    , 824.225159  , 2.62        , 3           , 255         , 0           , 0
-0.152184129, 9.788108    , 0.07822041  , 0.0004234809, 0.000207573932, 0.000397853553, -1.57999289 , -0.0158006344, 3.66111381E-05, 918.0821    , 31.4972534  , 824.224243  , 2.63        , 3           , 255         , 0           , 0
-0.1494877  , 9.798499    , 0.0880272537, 0.000253598846, -0.0002976684, 0.0006869245, -1.57999039 , -0.01579374 , 3.952374E-05, 918.0821    , 31.4972534  , 824.2233    , 2.64        , 3           , 255         , 0           , 0
-0.165240675, 9.802168    , 0.07746473  , 0.000180329691, -0.000156968716, 6.58038E-05 , -1.57998848 , -0.0157930665, 4.10866924E-05, 918.0821    , 31.4972534  , 824.2224    , 2.65        , 3           , 255         , 0           , 0
-0.1623972  , 9.79342     , 0.0757672   , -0.000344112341, -0.000329495757, 0.000466204423, -1.579992   , -0.0157883763, 4.433927E-05, 918.0821    , 31.4972534  , 824.2215    , 2.66        , 3           , 255         , 0           , 0
-0.152455047, 9.804712    , 0.0842942446, -0.0005097132, -0.0001541191, 2.96739454E-05, -1.57999706 , -0.0157880653, 4.58761424E-05, 918.0821    , 31.4972534  , 824.2206    , 2.67        , 3           , 255         , 0           , 0
-0.159011915, 9.796175    , 0.08470177  , -1.99389178E-05, -0.000185255252, 4.55063855E-05, -1.57999718 , -0.01578759 , 4.772506E-05, 918.0821    , 31.4972534  , 824.219666  , 2.68        , 3           , 255         , 0           , 0
-0.148667291, 9.784952    , 0.08671504  , -0.000104071805, -3.75526724E-06, -0.000684490369, -1.57999825 , -0.0157944355, 4.78265865E-05, 918.0821    , 31.4972534  , 824.21875   , 2.69        , 3           , 255         , 0           , 0
-0.145068616, 9.781336    , 0.07558722  , 0.000149198371, -4.61498275E-05, -0.0006174597, -1.57999671 , -0.0158006046, 4.834354E-05, 918.0821    , 31.4972534  , 824.217834  , 2.7         , 3           , 255         , 0           , 0
-0.159664422, 9.801416    , 0.0923509747, 0.000172931468, 1.01521728E-05, -0.000528442557, -1.579982   , -0.0158086438, 4.808461E-05, 918.0821    , 31.4972534  , 824.2295    , 2.71        , 3           , 255         , 0           , 0
-0.156287149, 9.806054    , 0.09837229  , 0.00014263246, -0.000285526039, 0.000205689372, -1.57998073 , -0.01580656 , 5.09227029E-05, 918.0821    , 31.4972534  , 824.2287    , 2.72        , 3           , 255         , 0           , 0
-0.162475049, 9.800247    , 0.09059043  , -0.000337299076, -1.566566E-05, 0.0006526514, -1.57998407 , -0.0158000346, 5.101956E-05, 918.0874    , 31.4948788  , 824.2279    , 2.73        , 3           , 255         , 0           , 0
-0.166913837, 9.802098    , 0.0924077258, -0.000154750422, 0.000258610933, 0.000448880746, -1.5799855  , -0.0157955717, 4.839197E-05, 918.0874    , 31.4948788  , 824.2271    , 2.74        , 3           , 255         , 0           , 0
-0.157222927, 9.800575    , 0.0873077139, 0.000310504664, 0.000288081181, 0.0003002368, -1.5799824  , -0.0157925915, 4.548402E-05, 918.0874    , 31.4948788  , 824.2263    , 2.75        , 3           , 255         , 0           , 0
-0.164073661, 9.787721    , 0.08086931  , 0.0004891234, 0.00024382415, 0.0003357262, -1.57997751 , -0.01578926 , 4.301477E-05, 918.0874    , 31.4948788  , 824.2255    , 2.76        , 3           , 255         , 0           , 0
-0.163104862, 9.795655    , 0.09067539  , 0.0001152358, 0.000310562667, 0.000176909874, -1.57997632 , -0.01578752 , 3.98925877E-05, 918.0874    , 31.4948788  , 824.224731  , 2.77        , 3           , 255         , 0           , 0
-0.16130653 , 9.798896    , 0.09686499  , 0.000261799054, -0.000100265665, -0.000471239473, -1.5799737  , -0.01579222 , 4.09395325E-05, 918.0874    , 31.4948788  , 824.223938  , 2.78        , 3           , 255         , 0           , 0
-0.160819858, 9.800972    , 0.0910708755, 0.000280301727, 9.101647E-05, 0.000390881381, -1.57997084 , -0.01578832 , 3.99922574E-05, 918.0874    , 31.4948788  , 824.223145  , 2.79        , 3           , 255         , 0           , 0
-0.1658961  , 9.784861    , 0.08755703  , 3.798568E-05, -1.50176347E-05, 0.000446110382, -1.57997048 , -0.0157838613, 4.01012257E-05, 918.0874    , 31.4948788  , 824.222351  , 2.8         , 3           , 255         , 0           , 0
-0.168784171, 9.784658    , 0.084721    , -0.0004645635, -0.000285833143, -0.000510451267, -1.57997632 , -0.0157997813, 4.302596E-05, 918.0874    , 31.4948788  , 824.2263    , 2.81        , 3           , 255         , 0           , 0
-0.158404782, 9.795123    , 0.0895105   , 0.0002676074, 5.59565669E-05, -0.000461798772, -1.5799737  , -0.0158044044, 4.250901E-05, 918.0874    , 31.4948788  , 824.2255    , 2.82        , 3           , 255         , 0           , 0
-0.163180053, 9.795488    , 0.0903036147, 0.000121025718, -0.00039989996, -2.892979E-06, -1.57997251 , -0.0158043969, 4.65076773E-05, 918.1124    , 31.49895    , 824.2248    , 2.83        , 3           , 255         , 0           , 0
-0.159026489, 9.791897    , 0.08558483  , 3.54766962E-05, 2.58631189E-05, 0.000392811082, -1.57997215 , -0.01580047 , 4.62124081E-05, 918.1124    , 31.49895    , 824.22406   , 2.84        , 3           , 255         , 0           , 0
-0.165460616, 9.7952      , 0.08505038  , -6.478152E-05, -0.0001795793, -5.814577E-05, -1.57997286 , -0.01580104 , 4.80138042E-05, 918.1124    , 31.49895    , 824.2233    , 2.85        , 3           , 255         , 0           , 0
-0.156674176, 9.796195    , 0.07542415  , -0.000480246032, 3.52650532E-05, 0.000327800517, -1.57997763 , -0.0157977641, 4.7630987E-05, 918.1124    , 31.49895    , 824.2226    , 2.86        , 3           , 255         , 0           , 0
-0.143511564, 9.788347    , 0.0750404149, 0.000325586821, 0.000222181116, 0.00044886308, -1.57997441 , -0.0157932937, 4.5369452E-05, 918.1124    , 31.49895    , 824.221863  , 2.87        , 3           , 255         , 0           , 0
-0.150350362, 9.798709    , 0.08498259  , 0.00059575506, -7.167971E-05, -0.0007597413, -1.57996845 , -0.0158008877, 4.615652E-05, 918.1124    , 31.49895    , 824.2211    , 2.88        , 3           , 255         , 0           , 0
-0.154454082, 9.796881    , 0.0863640755, 0.000584221154, -0.000139991287, 0.000246263633, -1.57996273 , -0.01579841 , 4.75341149E-05, 918.1124    , 31.49895    , 824.2204    , 2.89        , 3           , 255         , 0           , 0
-0.15173541 , 9.792308    , 0.08753695  , 0.000246044743, 0.0005549452, 0.000410563953, -1.57996011 , -0.0157943573, 4.19473472E-05, 918.1124    , 31.49895    , 824.219666  , 2.9         , 3           , 255         , 0           , 0
-0.159257889, 9.78752     , 0.08897662  , 7.051072E-05, -9.626028E-05, 3.54447548E-05, -1.57994866 , -0.0157987382, 4.2735348E-05, 918.1124    , 31.49895    , 824.189331  , 2.91        , 3           , 255         , 0           , 0
-0.157105163, 9.793209    , 0.08103044  , -1.75077E-06, -0.000157510978, -0.000226283242, -1.57994866 , -0.0158009846, 4.43309036E-05, 918.1124    , 31.49895    , 824.1884    , 2.92        , 3           , 255         , 0           , 0
-0.158842534, 9.791787    , 0.08478516  , -0.000269173877, 4.317786E-05, 0.000418320036, -1.57995129 , -0.0157968067, 4.386146E-05, 918.1719    , 31.4977951  , 824.1875    , 2.93        , 3           , 255         , 0           , 0
-0.162683338, 9.794211    , 0.08799572  , -0.0003175669, 5.09222155E-05, 0.000557164662, -1.57995462 , -0.0157912411, 4.330165E-05, 918.1719    , 31.4977951  , 824.1866    , 2.94        , 3           , 255         , 0           , 0
-0.158042133, 9.796453    , 0.09358153  , 0.000157309289, -0.0003341064, 0.00017746033, -1.57995307 , -0.0157894362, 4.66259553E-05, 918.1719    , 31.4977951  , 824.185669  , 2.95        , 3           , 255         , 0           , 0
-0.156791   , 9.797098    , 0.08848859  , 0.000155326852, -0.0003265876, 0.000559274049, -1.57995152 , -0.0157838129, 4.984128E-05, 918.1719    , 31.4977951  , 824.184753  , 2.96        , 3           , 255         , 0           , 0
-0.159101844, 9.792307    , 0.0852514058, 0.0002493737, -0.000174302724, 0.0006295615, -1.579949   , -0.0157775  , 5.152625E-05, 918.1719    , 31.4977951  , 824.183838  , 2.97        , 3           , 255         , 0           , 0
-0.157203108, 9.794629    , 0.08677509  , -0.000577044, 1.56119931E-05, 0.000574404839, -1.57995474 , -0.01577176 , 5.13166742E-05, 918.1719    , 31.4977951  , 824.1829    , 2.98        , 3           , 255         , 0           , 0
-0.153914243, 9.798254    , 0.0793977752, 0.000110617839, -0.000140049844, -0.000371034315, -1.57995355 , -0.015775457, 5.275109E-05, 918.1719    , 31.4977951  , 824.182     , 2.99        , 3           , 255         , 0           , 0
-0.152551115, 9.796262    , 0.08156417  , -0.0003074194, -3.00750835E-05, -9.643036E-05, -1.57995665 , -0.0157764181, 5.30603247E-05, 918.1719    , 31.4977951  , 824.1811    , 3           , 3           , 0           , 8.455236    , 300
-0.143409178, 9.79096     , 0.08684437  , -0.000300562417, 0.000284622423, -0.000587525545, -1.57995236 , -0.0157876667, 5.01533141E-05, 918.1719    , 31.4977951  , 824.0724    , 3.01        , 3           , 1           , 0           , 0
-0.150631353, 9.785091    , 0.0817406   , -0.000162198616, -0.000242571055, 0.00015326521, -1.579954   , -0.0157861114, 5.256481E-05, 918.1719    , 31.4977951  , 824.0708    , 3.02        , 3           , 2           , 0           , 0
-0.154004663, 9.781772    , 0.08508673  , 6.479502E-05, -0.00027499214, -0.000187239028, -1.57995331 , -0.01578796 , 5.53321152E-05, 918.1154    , 31.50051    , 824.0692    , 3.03        , 3           , 3           , 0           , 0
-0.159336925, 9.793208    , 0.08053435  , -0.000151414541, -0.0003560055, -0.000253236562, -1.579955   , -0.0157904588, 5.891536E-05, 918.1154    , 31.50051    , 824.0676    , 3.04        , 3           , 4           , 0           , 0
-0.162199169, 9.802125    , 0.08219511  , 0.000371207367, -0.00025808072, 9.78098251E-06, -1.57995129 , -0.0157903377, 6.149452E-05, 918.1154    , 31.50051    , 824.06604   , 3.05        , 3           , 5           , 0           , 0
-0.161359578, 9.794767    , 0.08972156  , -1.49038387E-05, -0.0002591795, -0.000120381388, -1.57995141 , -0.0157915168, 6.409788E-05, 918.1154    , 31.50051    , 824.064453  , 3.06        , 3           , 6           , 0           , 0
-0.157272816, 9.790274    , 0.08037444  , 7.58824171E-06, -0.00035559485, 0.000398937438, -1.57995141 , -0.0157874953, 6.761779E-05, 918.1154    , 31.50051    , 824.062866  , 3.07        , 3           , 7           , 0           , 0
-0.158025265, 9.791326    , 0.0919915   , 0.0002239412, -0.000179148046, 7.383492E-05, -1.57994926 , -0.01578674 , 6.940336E-05, 918.1154    , 31.50051    , 824.0613    , 3.08        , 3           , 8           , 5           , 5
-0.15838626 , 9.789215    , 0.08845769  , -0.000204530486, 6.336367E-05, -0.0007406451, -1.57995129 , -0.0157941543, 6.883705E-05, 918.1154    , 31.50051    , 824.0597    , 3.09        , 3           , 9           , 5           , 0.1
-0.156574458, 9.80487251  , 0.09472872  , 0.000143121928, 0.000107580621, -0.0007175695, -1.57994986 , -0.0158013385, 6.782645E-05, 918.1154    , 31.50051    , 824.0581    , 3.1         , 3           , 10          , 0.1         , 0.1
-0.15992111 , 9.793444    , 0.09240942  , 9.706686E-05, 0.0004017714, -0.000302702771, -1.57994151 , -0.015807448, 6.372254E-05, 918.1154    , 31.50051    , 824.046143  , 3.11        , 3           , 11          , 0.00759161124, 0.007591607
-0.161381692, 9.785853    , 0.0942740142, 0.0004039209, -0.000116261712, -0.000275926432, -1.57993746 , -0.0158102009, 6.491011E-05, 918.1154    , 31.50051    , 824.0445    , 3.12        , 3           , 12          , 0.174645633 , 0
-0.1596749  , 9.794146    , 0.09437982  , 0.0001955143, -0.000294043974, -0.0005288125, -1.57993543 , -0.01581546 , 6.789819E-05, 918.1021    , 31.49827    , 824.042847  , 3.13        , 3           , 13          , 0           , 0
-0.159044772, 9.799403    , 0.08701257  , -0.000247630116, 5.18168672E-05, -0.000148002859, -1.57993793 , -0.0158169437, 6.739335E-05, 918.1021    , 31.49827    , 824.0412    , 3.14        , 3           , 14          , -0.0006251877, -0.000518802437
-0.158828929, 9.79202     , 0.0978664756, -0.000108464272, 0.000118653581, -0.0001334636, -1.579939   , -0.0158182867, 6.621787E-05, 918.1021    , 31.49827    , 824.039551  , 3.15        , 3           , 15          , 0           , -0.000177389724
-0.157084078, 9.794773    , 0.0973661244, 0.000583695946, -0.000193298329, -0.000254518352, -1.57993317 , -0.0158208124, 6.81748352E-05, 918.1021    , 31.49827    , 824.0379    , 3.16        , 3           , 16          , 0           , 1.401298E-45
-0.157186091, 9.791804    , 0.08565435  , 0.000247930671, -8.669938E-05, 0.000513645937, -1.57993066 , -0.0158156715, 6.89944864E-05, 918.1021    , 31.49827    , 824.036255  , 3.17        , 3           , 20          , 0           , 0
-0.159303755, 9.802614    , 0.08053518  , 8.16365937E-05, -4.38831048E-05, 0.0007094504, -1.57992983 , -0.0158085749, 6.936799E-05, 918.1021    , 31.49827    , 824.0346    , 3.18        , 3           , 21          , 0           , 0
-0.152137637, 9.802107    , 0.0768929   , 0.0003446818, 0.000513448555, 0.0008196911, -1.57992637 , -0.0158004258, 6.415844E-05, 918.1021    , 31.49827    , 824.032959  , 3.19        , 3           , 22          , 0           , 0
-0.161563277, 9.793261    , 0.08977469  , -2.89647141E-05, 2.434908E-05, 0.000172053129, -1.57992673 , -0.0157987066, 6.39004356E-05, 918.1021    , 31.49827    , 824.0313    , 3.2         , 3           , 40          , 0           , 0
-0.164253443, 9.80152     , 0.08572937  , 0.0002230462, -0.000121113961, -0.0002845461, -1.57992458 , -0.0158077683, 6.513926E-05, 918.1021    , 31.49827    , 824.042542  , 3.21        , 3           , 41          , 0           , 0
-0.157924056, 9.794885    , 0.088431105 , 0.000253771548, 0.00023040938, -0.000368627952, -1.57992208 , -0.0158114769, 6.28684138E-05, 918.1021    , 31.49827    , 824.041     , 3.22        , 3           , 42          , 0           , 0
-0.151816815, 9.798853    , 0.0782789141, 0.000284647715, 0.000133723079, -0.0009549152, -1.57991922 , -0.015821036, 6.16184261E-05, 918.087158  , 31.49861    , 824.0395    , 3.23        , 3           , 255         , 0           , 0
-0.147394836, 9.805029    , 0.08610313  , 0.0006543461, 0.000265934534, -0.0003175093, -1.57991254 , -0.0158242378, 5.89871161E-05, 918.087158  , 31.49861    , 824.037964  , 3.24        , 3           , 255         , 0           , 0
-0.162153453, 9.799054    , 0.09264962  , 0.000299982785, -1.808512E-07, -1.92626176E-05, -1.57990956 , -0.0158244278, 5.89908377E-05, 918.087158  , 31.49861    , 824.036438  , 3.25        , 3           , 255         , 0           , 0
-0.1628397  , 9.800532    , 0.07845868  , -0.000159151619, 0.000184358971, 3.936226E-05, -1.579911   , -0.0158240516, 5.71428682E-05, 918.087158  , 31.49861    , 824.0349    , 3.26        , 3           , 255         , 0           , 0
-0.160140365, 9.798025    , 0.08721685  , 0.0003218847, 0.000142190256, 0.00101732218, -1.57990777 , -0.01581389 , 5.56283376E-05, 918.087158  , 31.49861    , 824.0334    , 3.27        , 3           , 255         , 0           , 0
-0.157574445, 9.795466    , 0.09461884  , 0.000415214745, -3.687112E-05, 2.97712249E-05, -1.5799036  , -0.0158135928, 5.599439E-05, 918.087158  , 31.49861    , 824.03186   , 3.28        , 3           , 255         , 0           , 0
-0.154753789, 9.796569    , 0.09290462  , -8.118362E-05, 0.000149556436, 0.000214926316, -1.57990444 , -0.0158114582, 5.44798677E-05, 918.087158  , 31.49861    , 824.030334  , 3.29        , 3           , 255         , 0           , 0
-0.160427436, 9.796048    , 0.09105969  , -0.000279200147, 4.4532324E-05, -0.000328367169, -1.57990718 , -0.0158147439, 5.406352E-05, 918.087158  , 31.49861    , 824.0288    , 3.3         , 3           , 255         , 0           , 0
-0.1589071  , 9.794904    , 0.0968135446, -0.000261428882, 1.30228582E-05, -0.000278071151, -1.57990742 , -0.0158214457, 5.39210123E-05, 918.087158  , 31.49861    , 824.061951  , 3.31        , 3           , 255         , 0           , 0
-0.150494412, 9.79247952  , 0.08578761  , -0.000297404767, 2.84592388E-05, 0.000364960055, -1.5799104  , -0.0158178024, 5.36033876E-05, 918.087158  , 31.49861    , 824.0606    , 3.32        , 3           , 255         , 0           , 0
-0.153743848, 9.78233     , 0.08542169  , -0.000336932135, -0.000334187935, 0.000449042855, -1.57991385 , -0.0158132818, 5.69044059E-05, 918.0425    , 31.4971848  , 824.059265  , 3.33        , 3           , 255         , 0           , 0
-0.162951261, 9.80078     , 0.09354707  , 9.85089E-05 , -5.68581745E-05, 0.000171211432, -1.57991278 , -0.0158115625, 5.74576843E-05, 918.0425    , 31.4971848  , 824.058     , 3.34        , 3           , 255         , 0           , 0
-0.150984287, 9.793588    , 0.09837031  , -0.000545527553, 0.000264151022, -0.000418687734, -1.57991827 , -0.015815774, 5.485431E-05, 918.0425    , 31.4971848  , 824.0567    , 3.35        , 3           , 255         , 0           , 0
-0.152575359, 9.79638     , 0.086822845 , -4.30435757E-05, 6.06199028E-05, 0.0001802438, -1.57991874 , -0.0158139765, 5.423118E-05, 918.0425    , 31.4971848  , 824.0554    , 3.36        , 3           , 255         , 0           , 0
-0.153341889, 9.796553    , 0.09258517  , -6.84887636E-05, 0.000159977935, 0.000122962243, -1.57991946 , -0.0158127621, 5.261979E-05, 918.0425    , 31.4971848  , 824.054138  , 3.37        , 3           , 255         , 0           , 0
-0.156760231, 9.796936    , 0.0858683   , 4.32657544E-06, 0.000325626665, -0.000309153838, -1.57991946 , -0.0158158839, 4.93923544E-05, 918.0425    , 31.4971848  , 824.052856  , 3.38        , 3           , 255         , 0           , 0
-0.156699076, 9.797063    , 0.09560473  , 0.0002102064, 0.000266923 , 0.000291389821, -1.57991719 , -0.015812993, 4.669677E-05, 918.0425    , 31.4971848  , 824.0516    , 3.39        , 3           , 255         , 0           , 0
-0.1572924  , 9.797168    , 0.08116917  , 0.00017140861, -0.0004945024, -0.000353903772, -1.57991564 , -0.0158164874, 5.167438E-05, 918.0425    , 31.4971848  , 824.0503    , 3.4         , 3           , 255         , 0           , 0
-0.15754652 , 9.790976    , 0.0825691149, 0.000340470433, 0.00028251615, 0.0004950402, -1.57991362 , -0.01581233 , 4.88260339E-05, 918.0425    , 31.4971848  , 824.144165  , 3.41        , 3           , 255         , 0           , 0
-0.158342585, 9.810518    , 0.0872568041, 0.000243482442, 0.000304586079, -9.029696E-06, -1.57991111 , -0.01581245 , 4.578023E-05, 918.0425    , 31.4971848  , 824.1435    , 3.42        , 3           , 255         , 0           , 0
-0.160787255, 9.783843    , 0.07871624  , 0.0008402681, 3.74792144E-05, -0.000220124944, -1.57990277 , -0.0158146527, 4.54262845E-05, 918.06665   , 31.5003738  , 824.1428    , 3.43        , 3           , 255         , 0           , 0
-0.160189033, 9.784717    , 0.08778398  , 0.000398001081, 0.000128903368, -0.000245331728, -1.57989883 , -0.0158171169, 4.41604534E-05, 918.06665   , 31.5003738  , 824.142151  , 3.44        , 3           , 255         , 0           , 0
-0.153321072, 9.790417    , 0.08489855  , 6.816321E-05, 0.0002548199, 8.071972E-05, -1.57989812 , -0.0158163346, 4.160552E-05, 918.06665   , 31.5003738  , 824.1415    , 3.45        , 3           , 255         , 0           , 0
-0.1554474  , 9.801179    , 0.08381133  , -0.0003555538, -0.000163820048, 0.0005551855, -1.5799017  , -0.0158107691, 4.31926856E-05, 918.06665   , 31.5003738  , 824.1408    , 3.46        , 3           , 255         , 0           , 0
-0.147052839, 9.797831    , 0.08032731  , -0.0001461755, -9.095011E-05, -0.000231436934, -1.57990313 , -0.0158130731, 4.41231969E-05, 918.06665   , 31.5003738  , 824.140137  , 3.47        , 3           , 255         , 0           , 0
-0.1513728  , 9.802682    , 0.07809993  , -0.0003112029, 0.0001139862, -0.000433122623, -1.57990623 , -0.015817415, 4.30231739E-05, 918.06665   , 31.5003738  , 824.139465  , 3.48        , 3           , 255         , 0           , 0
-0.158303186, 9.793218    , 0.08515839  , -0.000291380333, -0.000234261912, -0.0005628346, -1.57990909 , -0.0158230178, 4.54169749E-05, 918.06665   , 31.5003738  , 824.1388    , 3.49        , 3           , 255         , 0           , 0
-0.156771   , 9.792839    , 0.08078728  , -0.0008646569, 0.000167750753, -0.0005490032, -1.57991779 , -0.0158285256, 4.378975E-05, 918.06665   , 31.5003738  , 824.1381    , 3.5         , 3           , 255         , 0           , 0
-0.162580639, 9.797064    , 0.09244217  , -0.0008205715, 0.000295999373, 0.0004096534, -1.57991576 , -0.0158260632, 4.063032E-05, 918.06665   , 31.5003738  , 824.1855    , 3.51        , 3           , 255         , 0           , 0
-0.161800176, 9.79365     , 0.09928944  , -0.00062567956, 0.000258997839, 0.0006137809, -1.579922   , -0.0158199519, 3.798409E-05, 918.06665   , 31.5003738  , 824.1851    , 3.52        , 3           , 255         , 0           , 0
-0.158198267, 9.797314    , 0.09072227  , -0.000472672225, -0.000173178152, 0.000189303522, -1.57992673 , -0.0158180445, 3.96988653E-05, 918.035     , 31.4971161  , 824.184753  , 3.53        , 3           , 255         , 0           , 0
-0.150457829, 9.803982    , 0.08753936  , 0.000125312479, 5.243509E-05, -0.000376858719, -1.57992554 , -0.0158218183, 3.92107941E-05, 918.035     , 31.4971161  , 824.1844    , 3.54        , 3           , 255         , 0           , 0
-0.157560915, 9.79519     , 0.0849933848, 6.05960377E-05, -9.719154E-05, -0.000224066, -1.57992482 , -0.0158240516, 4.0201845E-05, 918.035     , 31.4971161  , 824.184     , 3.55        , 3           , 255         , 0           , 0
-0.15972963 , 9.795498    , 0.0875078738, 0.0005459635, 1.430203E-05, -0.0002965406, -1.57991946 , -0.0158270132, 4.00863537E-05, 918.035     , 31.4971161  , 824.183655  , 3.56        , 3           , 255         , 0           , 0
-0.163106158, 9.792107    , 0.0895346254, 4.06556064E-05, -0.000377476972, 0.000195018438, -1.5799191  , -0.01582503 , 4.384378E-05, 918.035     , 31.4971161  , 824.1833    , 3.57        , 3           , 255         , 0           , 0
-0.150956124, 9.790229    , 0.08660165  , 0.000154145091, -3.379595E-06, -0.0001304005, -1.57991755 , -0.0158263333, 4.388942E-05, 918.035     , 31.4971161  , 824.1829    , 3.58        , 3           , 255         , 0           , 0
-0.1504393  , 9.794489    , 0.08586595  , 0.000567370967, -0.000142984849, -0.0006907912, -1.579912   , -0.015833227, 4.5382516E-05, 918.035     , 31.4971161  , 824.182556  , 3.59        , 3           , 255         , 0           , 0
-0.151360065, 9.802076    , 0.08315261  , 0.000802893541, -9.854848E-05, -0.000423985854, -1.579904   , -0.0158374552, 4.64071054E-05, 918.035     , 31.4971161  , 824.1822    , 3.6         , 3           , 255         , 0           , 0
-0.150274873, 9.795682    , 0.0924456045, 0.000149666041, 9.796643E-05, -2.43376562E-05, -1.57990158 , -0.0158400945, 4.54132642E-05, 918.035     , 31.4971161  , 824.2685    , 3.61        , 3           , 255         , 0           , 0
-0.167509526, 9.801148    , 0.08436178  , 0.000282760942, 0.000227588083, -0.000310150674, -1.5798986  , -0.01584322 , 4.31657E-05 , 918.035     , 31.4971161  , 824.2687    , 3.62        , 3           , 255         , 0           , 0
-0.160089687, 9.784578    , 0.082822375 , -0.0007025272, 0.0002726751, -5.83966321E-05, -1.57990551 , -0.0158438273, 4.04440325E-05, 918.0882    , 31.498745   , 824.26886   , 3.63        , 3           , 255         , 0           , 0
-0.149646074, 9.796986    , 0.09138763  , 4.09177155E-05, 1.94492168E-05, 0.000848837 , -1.57990527 , -0.0158353411, 4.017205E-05, 918.0882    , 31.498745   , 824.269043  , 3.64        , 3           , 255         , 0           , 0
-0.154689744, 9.792859    , 0.0805591345, -5.68456E-07, 0.000250336016, 0.000276356353, -1.57990515 , -0.0158326011, 3.76431926E-05, 918.0882    , 31.498745   , 824.2692    , 3.65        , 3           , 255         , 0           , 0
-0.156782538, 9.797998    , 0.08455132  , -3.36057856E-05, -3.24521679E-05, -0.000312935153, -1.57990551 , -0.0158357266, 3.79962075E-05, 918.0882    , 31.498745   , 824.2694    , 3.66        , 3           , 255         , 0           , 0
-0.160825849, 9.798449    , 0.0806790143, -0.000146195118, -0.000242865237, -0.000530816964, -1.57990706 , -0.0158410147, 4.04738348E-05, 918.0882    , 31.498745   , 824.2696    , 3.67        , 3           , 255         , 0           , 0
-0.157025963, 9.796627    , 0.0911081   , -0.000576617371, 7.364451E-05, -0.000234369625, -1.57991278 , -0.0158433635, 3.975849E-05, 918.0882    , 31.498745   , 824.2698    , 3.68        , 3           , 255         , 0           , 0
-0.154246122, 9.797953    , 0.08043851  , -0.0004803099, 0.000128463929, 1.44437945E-05, -1.57991767 , -0.0158432312, 3.84721752E-05, 918.0882    , 31.498745   , 824.269958  , 3.69        , 3           , 255         , 0           , 0
-0.158718944, 9.796029    , 0.08287983  , -0.000396205753, -9.111699E-05, 0.0002566129, -1.5799216  , -0.0158406571, 3.935984E-05, 918.0882    , 31.498745   , 824.270142  , 3.7         , 3           , 255         , 0           , 0
-0.1565924  , 9.794985    , 0.0857523456, -0.0004925739, -0.0001641005, 0.0004329075, -1.57992029 , -0.01583912 , 4.086411E-05, 918.0882    , 31.498745   , 824.267944  , 3.71        , 3           , 255         , 0           , 0
-0.148985878, 9.804126    , 0.08146005  , -0.000317305734, -0.000288442068, 0.000520455 , -1.57992363 , -0.0158338882, 4.37022027E-05, 918.0882    , 31.498745   , 824.2681    , 3.72        , 3           , 255         , 0           , 0
-0.1518914  , 9.790663    , 0.0918260962, 0.000206762954, 0.000210150232, 0.0002737368, -1.57992148 , -0.01583117 , 4.157386E-05, 918.1038    , 31.50044    , 824.2683    , 3.73        , 3           , 255         , 0           , 0
-0.15696454 , 9.791697    , 0.08502181  , 0.000479921233, -7.894111E-05, 2.43316754E-05, -1.57991672 , -0.015830921, 4.23618621E-05, 918.1038    , 31.50044    , 824.2685    , 3.74        , 3           , 255         , 0           , 0
-0.160389811, 9.79313     , 0.09073768  , 0.000244650379, -0.000106025371, -0.000840934634, -1.57991421 , -0.01583932 , 4.34991562E-05, 918.1038    , 31.50044    , 824.2687    , 3.75        , 3           , 255         , 0           , 0
-0.156929538, 9.788355    , 0.0910907239, -2.150127E-05, -0.000269861659, -0.000234097824, -1.57991445 , -0.0158416368, 4.6219895E-05, 918.1038    , 31.50044    , 824.26886   , 3.76        , 3           , 255         , 0           , 0
-0.154748246, 9.794629    , 0.08728919  , 0.000291101285, -0.0004511599, 4.825549E-05, -1.57991171 , -0.0158411134, 5.072713E-05, 918.1038    , 31.50044    , 824.269043  , 3.77        , 3           , 255         , 0           , 0
-0.1500293  , 9.80517     , 0.08815391  , 0.000248596625, -0.000192074513, 1.21998892E-05, -1.57990909 , -0.0158409737, 5.26468248E-05, 918.1038    , 31.50044    , 824.2692    , 3.78        , 3           , 255         , 0           , 0
-0.166288048, 9.802993    , 0.08252304  , 2.255122E-05, -0.000113289978, -0.000430196058, -1.579909   , -0.0158452652, 5.381951E-05, 918.1038    , 31.50044    , 824.2694    , 3.79        , 3           , 255         , 0           , 0
-0.1663023  , 9.793032    , 0.08255818  , 3.23354034E-05, 0.000315898942, 0.0002833818, -1.57990861 , -0.01584246 , 5.06339857E-05, 918.1038    , 31.50044    , 824.2696    , 3.8         , 3           , 255         , 0           , 0
-0.152949959, 9.796921    , 0.0857658   , -0.000397036376, 0.000469062448, 0.000485988043, -1.57990873 , -0.0158402678, 4.58379945E-05, 918.1038    , 31.50044    , 824.245361  , 3.81        , 3           , 255         , 0           , 0
-0.155700952, 9.787048    , 0.07653618  , -0.000485552766, 0.000449137 , 7.322789E-05, -1.5799135  , -0.0158395767, 4.13400739E-05, 918.1038    , 31.50044    , 824.2454    , 3.82        , 3           , 255         , 0           , 0
-0.1512046  , 9.786516    , 0.07566909  , -0.00013699173, 0.000485636818, 0.000457020651, -1.57991481 , -0.0158350486, 3.64416337E-05, 918.081665  , 31.5000343  , 824.2455    , 3.83        , 3           , 255         , 0           , 0
-0.162145868, 9.793043    , 0.087155804 , 5.26399235E-05, -8.070917E-05, -0.000142694727, -1.57991433 , -0.015836468, 3.72613E-05 , 918.081665  , 31.5000343  , 824.245544  , 3.84        , 3           , 255         , 0           , 0
-0.160685822, 9.801822    , 0.0852751   , 0.0005819275, -0.0003215272, -0.000336712867, -1.57990849 , -0.0158398058, 4.0506442E-05, 918.081665  , 31.5000343  , 824.2456    , 3.85        , 3           , 255         , 0           , 0
-0.162494346, 9.803051    , 0.08325688  , 2.22411472E-06, 6.59958459E-07, 0.000375673379, -1.57990849 , -0.01583605 , 4.046545E-05, 918.081665  , 31.5000343  , 824.245667  , 3.86        , 3           , 255         , 0           , 0
-0.156758338, 9.790521    , 0.07799533  , 0.000170594984, -0.000248870929, 2.80354725E-05, -1.57990682 , -0.0158357471, 4.29514657E-05, 918.081665  , 31.5000343  , 824.2457    , 3.87        , 3           , 255         , 0           , 0
-0.160995826, 9.792096    , 0.07849232  , -0.000168959145, 0.0001393155, 4.68688522E-05, -1.57990849 , -0.0158352889, 4.15552422E-05, 918.081665  , 31.5000343  , 824.2458    , 3.88        , 3           , 255         , 0           , 0
-0.161791608, 9.797651    , 0.0883908048, -0.0002159875, 0.000154182781, 0.0002630156, -1.57991076 , -0.0158326756, 3.998948E-05, 918.081665  , 31.5000343  , 824.24585   , 3.89        , 3           , 255         , 0           , 0
-0.153036028, 9.79567     , 0.08832757  , -8.017017E-05, -3.9304432E-05, 0.000292578654, -1.57991159 , -0.0158297475, 4.035647E-05, 918.081665  , 31.5000343  , 824.2459    , 3.9         , 3           , 255         , 0           , 0
-0.156997412, 9.789205    , 0.09386118  , -0.0002189391, 3.269475E-05, -3.0485724E-05, -1.57990336 , -0.0158342626, 3.98665361E-05, 918.081665  , 31.5000343  , 824.256836  , 3.91        , 3           , 255         , 0           , 0
-0.160266578, 9.790239    , 0.09496779  , 0.000158153882, -0.00011579931, 0.000686917 , -1.57990181 , -0.0158273838, 4.09619061E-05, 918.081665  , 31.5000343  , 824.256958  , 3.92        , 3           , 255         , 0           , 0
-0.161980778, 9.782272    , 0.09945212  , -0.000251198246, -0.000381048536, -0.000102804013, -1.57990432 , -0.0158283766, 4.478174E-05, 918.0847    , 31.4956245  , 824.2571    , 3.93        , 3           , 255         , 0           , 0
-0.156586617, 9.783037    , 0.101075307 , -0.0002117423, -0.000337620964, 0.000420119846, -1.57990658 , -0.0158241447, 4.812001E-05, 918.0847    , 31.4956245  , 824.2572    , 3.94        , 3           , 255         , 0           , 0
-0.157657236, 9.792745    , 0.09825524  , -0.000218212488, -0.000317178841, -4.83300537E-05, -1.57990873 , -0.0158246  , 5.129622E-05, 918.0847    , 31.4956245  , 824.2573    , 3.95        , 3           , 255         , 0           , 0
-0.157363147, 9.796498    , 0.090031    , 0.000231422135, 3.24187567E-06, -4.27168561E-05, -1.57990646 , -0.0158250276, 5.126735E-05, 918.0847    , 31.4956245  , 824.257446  , 3.96        , 3           , 255         , 0           , 0
-0.152690247, 9.796478    , 0.09301074  , -2.98304949E-05, -0.00034922472, 0.000370720634, -1.57990682 , -0.0158212874, 5.47267118E-05, 918.0847    , 31.4956245  , 824.257568  , 3.97        , 3           , 255         , 0           , 0
-0.169261783, 9.792868    , 0.0884367749, 0.000212734914, -0.000181029085, 0.000427973922, -1.57990468 , -0.0158169921, 5.64973743E-05, 918.0847    , 31.4956245  , 824.2577    , 3.98        , 3           , 255         , 0           , 0
-0.1581901  , 9.80234     , 0.08736955  , -0.0003233077, 0.000342806481, -0.0003732828, -1.57990777 , -0.0158207566, 5.310321E-05, 918.0847    , 31.4956245  , 824.2579    , 3.99        , 3           , 255         , 0           , 0
-0.152952343, 9.799474    , 0.100301266 , 0.000443490426, 0.000496213557, 9.739446E-05, -1.57990336 , -0.0158198271, 4.81321222E-05, 918.0847    , 31.4956245  , 824.258057  , 4           , 3           , 0           , 9.455236    , 400
-0.1485683  , 9.794959    , 0.0833724141, 9.95677E-05 , -0.000196869078, -0.0004216483, -1.57991207 , -0.0158301014, 5.02930634E-05, 918.0847    , 31.4956245  , 824.2627    , 4.01        , 3           , 1           , 0           , 0
-0.149983168, 9.796148    , 0.08269093  , 0.0002863152, 0.000353363226, -0.000766333542, -1.57990921 , -0.0158377923, 4.68290527E-05, 918.0847    , 31.4956245  , 824.2629    , 4.02        , 3           , 2           , 0           , 0
-0.149603844, 9.79711     , 0.08592503  , 0.000350856251, 0.000217686087, 0.000121830511, -1.57990563 , -0.0158365965, 4.46410959E-05, 918.0646    , 31.4992886  , 824.263062  , 4.03        , 3           , 3           , 0           , 0
-0.15448606 , 9.800665    , 0.08159674  , 0.000143998448, -0.000461412, -8.694749E-05, -1.5799042  , -0.0158374216, 4.92629042E-05, 918.0646    , 31.4992886  , 824.263245  , 4.04        , 3           , 4           , 0           , 0
-0.155048013, 9.802302    , 0.08013366  , 0.000605228357, -0.00041816273, -0.000432920438, -1.57989812 , -0.0158417113, 5.348419E-05, 918.0646    , 31.4992886  , 824.2634    , 4.05        , 3           , 5           , 0           , 0
-0.162842   , 9.789446    , 0.0831366554, 0.000724175363, 4.44225734E-05, -0.000202549418, -1.57989085 , -0.0158437453, 5.305852E-05, 918.0646    , 31.4992886  , 824.2636    , 4.06        , 3           , 6           , 0           , 0
-0.15812555 , 9.787001    , 0.08074142  , -0.000120369426, -1.730211E-05, -0.00074861 , -1.57989216 , -0.0158512257, 5.329884E-05, 918.0646    , 31.4992886  , 824.2638    , 4.07        , 3           , 7           , 0           , 0
-0.148146585, 9.799743    , 0.08938285  , 5.23233321E-05, -0.000201426388, -0.000295697653, -1.57989168 , -0.015854165, 5.53405553E-05, 918.0646    , 31.4992886  , 824.264     , 4.08        , 3           , 8           , 5           , 5
-0.152540892, 9.79484     , 0.08546317  , 0.00034668282, -0.0001492686, 1.9652929E-05, -1.57988811 , -0.0158539545, 5.68308569E-05, 918.0646    , 31.4992886  , 824.26416   , 4.09        , 3           , 9           , 5           , 0.1
-0.158364564, 9.787723    , 0.08193268  , 0.000130569912, -0.000570787, 0.000389066932, -1.57988691 , -0.0158500113, 6.250239E-05, 918.0646    , 31.4992886  , 824.264343  , 4.1         , 3           , 10          , 0.1         , 0.1
-0.149744913, 9.789723    , 0.08020578  , -0.000146035978, -0.000337869045, 0.0006325905, -1.57987988 , -0.01584155 , 6.568884E-05, 918.0646    , 31.4992886  , 824.2969    , 4.11        , 3           , 11          , 0.007044689 , 0.007044683
-0.1570193  , 9.80330849  , 0.0874429345, 0.000160538679, 1.55865564E-05, 0.0004966743, -1.57987821 , -0.01583658 , 6.548765E-05, 918.0646    , 31.4992886  , 824.2973    , 4.12        , 3           , 12          , 0.174648076 , 0
-0.157990813, 9.798092    , 0.09206118  , 1.24736689E-05, -0.000275157625, 0.000164577825, -1.57987809 , -0.01583491 , 6.82232858E-05, 918.080566  , 31.49603    , 824.2977    , 4.13        , 3           , 13          , 0           , 0
-0.151174039, 9.799089    , 0.09775044  , 0.000324192224, -0.000216124521, -8.928012E-05, -1.57987487 , -0.0158357825, 7.03926053E-05, 918.080566  , 31.49603    , 824.298157  , 4.14        , 3           , 14          , -0.0006253833, -0.000518807
-0.1591858  , 9.788458    , 0.103285573 , 0.000193158747, -0.00016710296, 0.000353609968, -1.579873   , -0.0158322323, 7.203194E-05, 918.080566  , 31.49603    , 824.2986    , 4.15        , 3           , 15          , 0           , -0.000177223075
-0.163980559, 9.79003     , 0.09638881  , -7.380912E-05, 3.95909E-05 , -0.0002239117, -1.57987356 , -0.0158344749, 7.16547E-05 , 918.080566  , 31.49603    , 824.299     , 4.16        , 3           , 16          , 0           , 1.401298E-45
-0.166418761, 9.792167    , 0.09547032  , -0.00051616953, -7.413066E-05, -9.526951E-05, -1.57987881 , -0.0158354212, 7.240545E-05, 918.080566  , 31.49603    , 824.299438  , 4.17        , 3           , 20          , 0           , 0
-0.1599489  , 9.793078    , 0.0886182562, -0.000354970864, -0.000336551, 0.000440747768, -1.57988238 , -0.0158309843, 7.573068E-05, 918.080566  , 31.49603    , 824.299866  , 4.18        , 3           , 21          , 0           , 0
-0.160591051, 9.797682    , 0.100353874 , 1.40139018E-05, -0.000264124421, 0.000546976 , -1.57988226 , -0.0158254933, 7.832192E-05, 918.080566  , 31.49603    , 824.3003    , 4.19        , 3           , 22          , 0           , 0
-0.1518644  , 9.798831    , 0.0966553763, -1.17971795E-05, -0.0003650664, 0.0007700352, -1.57988238 , -0.01581776 , 8.190237E-05, 918.080566  , 31.49603    , 824.3007    , 4.2         , 3           , 40          , 0           , 0
-0.1621225  , 9.790161    , 0.09612429  , 0.000418910116, -6.025727E-05, 3.602635E-05, -1.57988548 , -0.0158213265, 8.261586E-05, 918.080566  , 31.49603    , 824.3051    , 4.21        , 3           , 41          , 0           , 0
-0.164027452, 9.788795    , 0.0997680649, -0.000200004433, -2.29524449E-06, 4.26098122E-05, -1.57988751 , -0.0158209018, 8.263542E-05, 918.080566  , 31.49603    , 824.305542  , 4.22        , 3           , 42          , 0           , 0
-0.169605792, 9.790405    , 0.09172134  , -0.00014912826, 0.0002486897, 1.17152667E-05, -1.57988894 , -0.0158208068, 8.01466158E-05, 918.067444  , 31.50078    , 824.305969  , 4.23        , 3           , 255         , 0           , 0
-0.157353416, 9.791994    , 0.09319894  , 7.96048553E-05, -0.000202713592, 4.27293853E-05, -1.57988811 , -0.0158203617, 8.21706344E-05, 918.067444  , 31.50078    , 824.3064    , 4.24        , 3           , 255         , 0           , 0
-0.14976798 , 9.794876    , 0.08681269  , -0.000191275729, -0.0005190001, 0.000839182758, -1.57989    , -0.0158119239, 8.728423E-05, 918.067444  , 31.50078    , 824.3068    , 4.25        , 3           , 255         , 0           , 0
-0.159461334, 9.801323    , 0.08424906  , -0.000164094323, -0.000714092166, 0.0001638121, -1.57989168 , -0.0158102214, 9.44088E-05 , 918.067444  , 31.50078    , 824.3073    , 4.26        , 3           , 255         , 0           , 0
-0.154248744, 9.788315    , 0.08523097  , 0.000523373543, -5.28648961E-05, 0.0002490724, -1.57988656 , -0.0158077236, 9.49155E-05 , 918.067444  , 31.50078    , 824.3078    , 4.27        , 3           , 255         , 0           , 0
-0.158996284, 9.782888    , 0.07367439  , -0.000295531237, -0.0003812118, -0.000197090558, -1.57988954 , -0.0158096626, 9.874557E-05, 918.067444  , 31.50078    , 824.3083    , 4.28        , 3           , 255         , 0           , 0
-0.150955051, 9.791212    , 0.0872168541, -0.000234005915, 0.000123799109, -0.000142885779, -1.5798918  , -0.0158111  , 9.752075E-05, 918.067444  , 31.50078    , 824.3088    , 4.29        , 3           , 255         , 0           , 0
-0.1521023  , 9.802015    , 0.07613082  , -0.000531868, -0.000125812076, 0.000210942759, -1.57989717 , -0.01580898 , 9.875954E-05, 918.067444  , 31.50078    , 824.309265  , 4.3         , 3           , 255         , 0           , 0
-0.142730385, 9.79297352  , 0.07603283  , -0.0003686343, 0.000210193626, -0.000197754125, -1.579898   , -0.0158162061, 9.66302759E-05, 918.067444  , 31.50078    , 824.3312    , 4.31        , 3           , 255         , 0           , 0
-0.155083686, 9.785095    , 0.07775692  , -5.75504964E-06, -0.000180647417, 0.000420508033, -1.579898   , -0.0158119854, 9.839721E-05, 918.067444  , 31.50078    , 824.3318    , 4.32        , 3           , 255         , 0           , 0
-0.153878659, 9.792829    , 0.0778070837, 4.828052E-05, -0.000272189674, 0.000172671222, -1.57989752 , -0.0158102326, 0.000101103986, 918.060547  , 31.49888    , 824.3324    , 4.33        , 3           , 255         , 0           , 0
-0.157424062, 9.78987     , 0.0868029445, 0.000668091641, -0.0002407895, -0.0003942537, -1.57989085 , -0.0158141553, 0.000103548075, 918.060547  , 31.49888    , 824.333     , 4.34        , 3           , 255         , 0           , 0
-0.165886715, 9.794917    , 0.07804592  , 0.0002636855, -0.00045554922, -0.0006059616, -1.57988822 , -0.015820168, 0.000108157794, 918.060547  , 31.49888    , 824.3336    , 4.35        , 3           , 255         , 0           , 0
-0.1579846  , 9.805239    , 0.08828549  , 0.0006363608, 0.0003239129, 0.000183619515, -1.57988179 , -0.0158183612, 0.000104902414, 918.060547  , 31.49888    , 824.3342    , 4.36        , 3           , 255         , 0           , 0
-0.1520309  , 9.800596    , 0.09727262  , 0.0008976945, -0.000147533778, -0.0003704239, -1.579873   , -0.015822053, 0.000106412277, 918.060547  , 31.49888    , 824.334839  , 4.37        , 3           , 255         , 0           , 0
-0.154190749, 9.801083    , 0.1034107   , 0.0003749738, -0.000392365968, -0.000235355023, -1.57986927 , -0.0158243738, 0.000110356908, 918.060547  , 31.49888    , 824.335449  , 4.38        , 3           , 255         , 0           , 0
-0.163031623, 9.787462    , 0.08880015  , -5.975453E-05, 0.000400358578, -0.000385333784, -1.57986987 , -0.0158282612, 0.000106388987, 918.060547  , 31.49888    , 824.33606   , 4.39        , 3           , 255         , 0           , 0
-0.163877562, 9.786672    , 0.08482436  , -0.00023998227, 0.000201252755, -0.000411058252, -1.57987225 , -0.0158323888, 0.000104413419, 918.060547  , 31.49888    , 824.3367    , 4.4         , 3           , 255         , 0           , 0
-0.164187938, 9.78889751  , 0.09501201  , 1.15672592E-05, -0.000107626722, 0.0007718811, -1.57986712 , -0.0158272889, 0.000105341118, 918.060547  , 31.49888    , 824.3646    , 4.41        , 3           , 255         , 0           , 0
-0.1564571  , 9.796262    , 0.08807725  , 0.000325996254, 0.000466291734, 0.00100446679, -1.57986391 , -0.0158172846, 0.000100587975, 918.060547  , 31.49888    , 824.3654    , 4.42        , 3           , 255         , 0           , 0
-0.147701114, 9.79521     , 0.08833182  , -0.0001584934, 0.000415476417, 0.0005031087, -1.57986546 , -0.0158122946, 9.638718E-05, 918.0485    , 31.49603    , 824.3662    , 4.43        , 3           , 255         , 0           , 0
-0.158690691, 9.79682     , 0.086932    , 0.000323902234, 0.000264166738, -0.00010714255, -1.57986224 , -0.0158133879, 9.37549339E-05, 918.0485    , 31.49603    , 824.367     , 4.44        , 3           , 255         , 0           , 0
-0.165370062, 9.785283    , 0.08989777  , 0.000311269658, 9.752382E-05, -2.820525E-05, -1.579859   , -0.01581368 , 9.278344E-05, 918.0485    , 31.49603    , 824.3678    , 4.45        , 3           , 255         , 0           , 0
-0.159888357, 9.79406     , 0.09071977  , 0.000468831451, 9.419734E-05, -0.0008880296, -1.57985437 , -0.015822567, 9.192095E-05, 918.0485    , 31.49603    , 824.3686    , 4.46        , 3           , 255         , 0           , 0
-0.157938525, 9.796234    , 0.0828039646, 8.023239E-05, -0.000122299942, -0.0006506076, -1.57985353 , -0.0158290621, 9.3202616E-05, 918.0485    , 31.49603    , 824.3694    , 4.47        , 3           , 255         , 0           , 0
-0.155035838, 9.802592    , 0.0926390961, 0.000308364048, -0.000181601266, -7.468375E-05, -1.57985044 , -0.0158297922, 9.502637E-05, 918.0485    , 31.49603    , 824.3702    , 4.48        , 3           , 255         , 0           , 0
-0.151246071, 9.793192    , 0.08261366  , 0.0005113991, 0.000396682939, -6.522925E-06, -1.57984531 , -0.0158298966, 9.106029E-05, 918.0485    , 31.49603    , 824.371     , 4.49        , 3           , 255         , 0           , 0
-0.15428485 , 9.79495     , 0.0943493843, -9.524636E-06, 0.000180880772, 0.0008511866, -1.57984555 , -0.015821401, 8.917505E-05, 918.0485    , 31.49603    , 824.371765  , 4.5         , 3           , 255         , 0           , 0
-0.165704936, 9.794351    , 0.09134812  , 0.00034832512, -0.000214010885, 0.0001670703, -1.57984245 , -0.0158229172, 9.130805E-05, 918.0485    , 31.49603    , 824.4117    , 4.51        , 3           , 255         , 0           , 0
-0.1634888  , 9.79247     , 0.08518843  , 0.000100499776, -0.000223053386, -0.0003151911, -1.57984149 , -0.0158260521, 9.356679E-05, 918.0485    , 31.49603    , 824.4127    , 4.52        , 3           , 255         , 0           , 0
-0.159693554, 9.796261    , 0.08719349  , 0.000132993213, -0.000253351231, -0.000242637427, -1.57984018 , -0.0158284549, 9.612173E-05, 918.0913    , 31.4982033  , 824.413757  , 4.53        , 3           , 255         , 0           , 0
-0.14894937 , 9.794505    , 0.087051414 , 0.000612050644, -0.0005124932, -9.931404E-05, -1.5798341  , -0.0158294011, 0.000101256759, 918.0913    , 31.4982033  , 824.4148    , 4.54        , 3           , 255         , 0           , 0
-0.152920932, 9.7934      , 0.08938169  , 0.000315986923, 3.02715925E-05, 0.000435499358, -1.579831   , -0.01582505 , 0.00010091492, 918.0913    , 31.4982033  , 824.415833  , 4.55        , 3           , 255         , 0           , 0
-0.161086217, 9.795926    , 0.09524177  , 7.797155E-05, -9.792519E-05, 9.36751458E-05, -1.57983017 , -0.0158241056, 0.000101885482, 918.0913    , 31.4982033  , 824.4169    , 4.56        , 3           , 255         , 0           , 0
-0.162981123, 9.796277    , 0.0957303345, 1.27078383E-05, -0.00029732968, -0.0006846611, -1.57982993 , -0.0158309247, 0.000104921055, 918.0913    , 31.4982033  , 824.4179    , 4.57        , 3           , 255         , 0           , 0
-0.1566743  , 9.806646    , 0.09976804  , 6.72321767E-06, -9.87058738E-05, -0.000453774934, -1.57982993 , -0.015835451, 0.000105949366, 918.0913    , 31.4982033  , 824.418945  , 4.58        , 3           , 255         , 0           , 0
-0.153236121, 9.804491    , 0.09163515  , 0.000242445472, -0.000192299311, -0.00060460536, -1.57982767 , -0.01584148 , 0.00010792775, 918.0913    , 31.4982033  , 824.42      , 4.59        , 3           , 255         , 0           , 0
-0.149649218, 9.798199    , 0.09785625  , 0.00035157497, 0.000286748429, -0.000305110763, -1.57982409 , -0.01584456 , 0.000105087791, 918.0913    , 31.4982033  , 824.421     , 4.6         , 3           , 255         , 0           , 0
-0.161814168, 9.791357    , 0.0932274   , -0.0005285685, 0.0004455229, 0.000467769627, -1.57983363 , -0.0158428177, 0.000100658806, 918.0913    , 31.4982033  , 824.3932    , 4.61        , 3           , 255         , 0           , 0
-0.15162836 , 9.791497    , 0.0931092352, 0.000399626937, -0.00038850063, 0.000464918325, -1.57982957 , -0.0158381332, 0.000104501923, 918.0913    , 31.4982033  , 824.3941    , 4.62        , 3           , 255         , 0           , 0
-0.15866749 , 9.79384     , 0.08075695  , 0.0002507504, 9.30959941E-05, 0.000205459422, -1.57982707 , -0.015836088, 0.000103551843, 918.125732  , 31.496439   , 824.395     , 4.63        , 3           , 255         , 0           , 0
-0.163240775, 9.790103    , 0.07983163  , 6.018777E-05, 0.0005354498, -6.04260567E-05, -1.57982635 , -0.0158367418, 9.820259E-05, 918.125732  , 31.496439   , 824.395935  , 4.64        , 3           , 255         , 0           , 0
-0.164173529, 9.794361    , 0.08673627  , -0.000265242823, 0.000576365157, 0.000132038724, -1.579829   , -0.0158354733, 9.242673E-05, 918.125732  , 31.496439   , 824.396851  , 4.65        , 3           , 255         , 0           , 0
-0.155685335, 9.796141    , 0.08443323  , -0.000291120377, 5.08432568E-05, 0.000473638356, -1.57983184 , -0.0158307441, 9.18762453E-05, 918.125732  , 31.496439   , 824.397766  , 4.66        , 3           , 255         , 0           , 0
-0.158102334, 9.790155    , 0.0831633955, 4.2301428E-05, -0.000275175145, 0.000129857421, -1.57983148 , -0.01582942 , 9.46165237E-05, 918.125732  , 31.496439   , 824.3987    , 4.67        , 3           , 255         , 0           , 0
-0.155931741, 9.801405    , 0.09094803  , 0.0006003899, -0.000455371279, 0.00019410126, -1.57982552 , -0.015827436, 9.915265E-05, 918.125732  , 31.496439   , 824.3996    , 4.68        , 3           , 255         , 0           , 0
-0.153065175, 9.799154    , 0.08465587  , 0.000246236275, -0.000199160364, -0.0004851782, -1.579823   , -0.01583227 , 0.000101187841, 918.125732  , 31.496439   , 824.4005    , 4.69        , 3           , 255         , 0           , 0
-0.16736576 , 9.803065    , 0.08269312  , 0.000424490776, -0.000402475125, -0.000394182629, -1.57981884 , -0.0158361737, 0.000105247062, 918.125732  , 31.496439   , 824.4014    , 4.7         , 3           , 255         , 0           , 0
-0.156610385, 9.795076    , 0.08601271  , -1.59564079E-05, -7.227296E-05, -0.000357760728, -1.57981563 , -0.0158450156, 0.000105947518, 918.125732  , 31.496439   , 824.3272    , 4.71        , 3           , 255         , 0           , 0
-0.15598765 , 9.791688    , 0.08920002  , 0.0005119912, 6.67362474E-06, 0.000151770015, -1.5798105  , -0.0158434957, 0.000105867417, 918.125732  , 31.496439   , 824.327637  , 4.72        , 3           , 255         , 0           , 0
-0.157434717, 9.80229     , 0.08463617  , 0.00028989563, -2.58096843E-05, -0.000377971184, -1.57980764 , -0.0158472732, 0.000106159889, 918.0668    , 31.49956    , 824.328064  , 4.73        , 3           , 255         , 0           , 0
-0.1562323  , 9.795664    , 0.0811448246, 0.000164643774, -0.00010501669, -0.000466319878, -1.579806   , -0.0158519261, 0.000107251544, 918.0668    , 31.49956    , 824.3285    , 4.74        , 3           , 255         , 0           , 0
-0.16141884 , 9.801142    , 0.08187525  , -0.000166461046, 9.723278E-05, 7.294835E-05, -1.57980764 , -0.0158512071, 0.000106273532, 918.0668    , 31.49956    , 824.3289    , 4.75        , 3           , 255         , 0           , 0
-0.159349665, 9.800397    , 0.0916791558, 0.000372905226, 0.000120397017, -2.71780737E-05, -1.579804   , -0.0158514883, 0.000105071049, 918.0668    , 31.49956    , 824.329346  , 4.76        , 3           , 255         , 0           , 0
-0.15207012 , 9.79227352  , 0.0950071961, 0.000288154057, -9.596755E-05, 0.000551894656, -1.57980108 , -0.0158459619, 0.00010598106, 918.0668    , 31.49956    , 824.3298    , 4.77        , 3           , 255         , 0           , 0
-0.156070337, 9.799147    , 0.0871160552, 0.000109959277, 0.0003127823, 0.0005278183, -1.57979989 , -0.0158407129, 0.000102805774, 918.0668    , 31.49956    , 824.3302    , 4.78        , 3           , 255         , 0           , 0
-0.154005289, 9.803754    , 0.08864405  , 0.000271938246, 0.000452100649, -0.000413881353, -1.57979727 , -0.01584489 , 9.832183E-05, 918.0668    , 31.49956    , 824.3307    , 4.79        , 3           , 255         , 0           , 0
-0.153474554, 9.790739    , 0.09054815  , 0.000103814993, 0.000116037176, 0.0008462316, -1.5797962  , -0.0158364419, 9.708485E-05, 918.0668    , 31.49956    , 824.3312    , 4.8         , 3           , 255         , 0           , 0
-0.155676454, 9.785263    , 0.08613868  , 0.000153790868, -0.000150459411, 0.000578926934, -1.57979381 , -0.0158317816, 9.85248553E-05, 918.0668    , 31.49956    , 824.350342  , 4.81        , 3           , 255         , 0           , 0
-0.15500994 , 9.793088    , 0.08643194  , 0.000137225608, 2.6161666E-05, 9.831385E-05, -1.5797925  , -0.0158308  , 9.825474E-05, 918.0668    , 31.49956    , 824.3509    , 4.82        , 3           , 255         , 0           , 0
-0.148935035, 9.796219    , 0.08562422  , 0.000242770475, 0.000397162978, -0.0003518297, -1.57979012 , -0.0158343539, 9.431476E-05, 918.054138  , 31.49854    , 824.3515    , 4.83        , 3           , 255         , 0           , 0
-0.160893381, 9.796773    , 0.09067217  , 0.0003275574, 0.000121760473, 0.000150882785, -1.57978678 , -0.0158328563, 9.30843162E-05, 918.054138  , 31.49854    , 824.3521    , 4.84        , 3           , 255         , 0           , 0
-0.163764   , 9.791946    , 0.08656301  , 0.00041187575, 0.000335893215, 0.000101183396, -1.57978261 , -0.0158318728, 8.971717E-05, 918.054138  , 31.49854    , 824.3527    , 4.85        , 3           , 255         , 0           , 0
-0.1596597  , 9.795685    , 0.0782177   , 7.39865936E-06, -1.990737E-05, 0.000299863983, -1.57978261 , -0.0158288721, 8.988949E-05, 918.054138  , 31.49854    , 824.353333  , 4.86        , 3           , 255         , 0           , 0
-0.156682462, 9.793439    , 0.0866412446, 0.000501688 , 0.000257542037, 7.349989E-05, -1.57977748 , -0.01582816 , 8.730753E-05, 918.054138  , 31.49854    , 824.353943  , 4.87        , 3           , 255         , 0           , 0
-0.1635058  , 9.804914    , 0.08045758  , 0.0002668677, 0.000164901634, 7.66135345E-05, -1.57977486 , -0.0158274081, 8.565051E-05, 918.054138  , 31.49854    , 824.354553  , 4.88        , 3           , 255         , 0           , 0
-0.158052713, 9.795047    , 0.0815197155, 0.000132995832, 2.40331865E-05, -0.000183938231, -1.57977355 , -0.0158292521, 8.542788E-05, 918.054138  , 31.49854    , 824.355164  , 4.89        , 3           , 255         , 0           , 0
-0.159634829, 9.796202    , 0.08838239  , -0.000173580134, 1.14391441E-05, -0.0002111332, -1.57977521 , -0.0158313625, 8.533289E-05, 918.054138  , 31.49854    , 824.3558    , 4.9         , 3           , 255         , 0           , 0
-0.163808614, 9.787142    , 0.09025074  , 0.0003203348, -5.71192941E-05, 0.000262559741, -1.579768   , -0.015832955, 8.581536E-05, 918.054138  , 31.49854    , 824.3897    , 4.91        , 3           , 255         , 0           , 0
-0.1624277  , 9.788755    , 0.0927218646, 0.000613244134, -0.0001236233, 0.000208895814, -1.57976174 , -0.015830854, 8.70318254E-05, 918.054138  , 31.49854    , 824.3905    , 4.92        , 3           , 255         , 0           , 0
-0.163882375, 9.784166    , 0.08244083  , 0.000122190046, -0.000338882674, 0.000567648967, -1.57976067 , -0.0158251487, 9.03700857E-05, 918.1131    , 31.49454    , 824.3913    , 4.93        , 3           , 255         , 0           , 0
-0.163076237, 9.794049    , 0.09446248  , 8.22104048E-05, 0.0005159982, 0.000258589134, -1.57975972 , -0.0158226043, 8.518664E-05, 918.1131    , 31.49454    , 824.3921    , 4.94        , 3           , 255         , 0           , 0
-0.155022949, 9.797747    , 0.08948887  , 0.000183249387, -1.78669579E-05, 0.000397427735, -1.57975793 , -0.0158186331, 8.532914E-05, 918.1131    , 31.49454    , 824.3929    , 4.95        , 3           , 255         , 0           , 0
-0.154177189, 9.796436    , 0.08550775  , 0.000353035 , -0.000221932656, -7.90059858E-05, -1.57975435 , -0.0158194024, 8.755528E-05, 918.1131    , 31.49454    , 824.3937    , 4.96        , 3           , 255         , 0           , 0
-0.155619472, 9.793032    , 0.09551935  , 0.00021760189, -0.000410348643, 0.000432801578, -1.57975221 , -0.0158150382, 9.16210047E-05, 918.1131    , 31.49454    , 824.3945    , 4.97        , 3           , 255         , 0           , 0
-0.15831621 , 9.80382252  , 0.089249596 , 0.000284019741, -0.000633829157, -5.64165821E-05, -1.57974935 , -0.0158155449, 9.796411E-05, 918.1131    , 31.49454    , 824.395264  , 4.98        , 3           , 255         , 0           , 0
-0.159974411, 9.797079    , 0.0865084   , -0.000236730266, -0.000242691953, 0.0009979443, -1.57975173 , -0.0158055443, 0.000100302015, 918.1131    , 31.49454    , 824.396057  , 4.99        , 3           , 255         , 0           , 0
-0.148214251, 9.792414    , 0.0832919255, -0.000433096837, 0.000193254731, 0.000757826259, -1.57975614 , -0.0157979857, 9.830125E-05, 918.1131    , 31.49454    , 824.396851  , 5           , 3           , 0           , -1          , 500
-0.1533257  , 9.797964    , 0.08433819  , -0.000316629885, 3.42426356E-05, -0.000124961283, -1.579761   , -0.0158043914, 9.799763E-05, 918.1131    , 31.49454    , 824.341064  , 5.01        , 3           , 1           , 0           , 0
-0.165012553, 9.793824    , 0.08560383  , -0.000194176158, -0.0004965335, 0.000124532933, -1.579763   , -0.0158031043, 0.000102950085, 918.1131    , 31.49454    , 824.341553  , 5.02        , 3           , 2           , 0           , 0
-0.1584567  , 9.788522    , 0.0823990852, -0.000238353736, -0.0004899009, 0.000304948946, -1.57976532 , -0.0158000123, 0.0001078215, 918.0735    , 31.4996281  , 824.342041  , 5.03        , 3           , 3           , 0           , 0
-0.151718631, 9.790619    , 0.08651148  , -0.000454482622, 0.000366583263, -4.02127625E-07, -1.57977    , -0.0158000477, 0.000104156286, 918.0735    , 31.4996281  , 824.3425    , 5.04        , 3           , 4           , 0           , 0
-0.153307274, 9.800733    , 0.08475266  , 9.472261E-05, -3.307959E-05, 0.000456024718, -1.5797689  , -0.0157954842, 0.000104445964, 918.0735    , 31.4996281  , 824.343     , 5.05        , 3           , 5           , 0           , 0
-0.164301   , 9.799786    , 0.08875455  , 0.0003933056, -0.00028167828, 0.000285092683, -1.57976508 , -0.0157926083, 0.000107238418, 918.0735    , 31.4996281  , 824.3435    , 5.06        , 3           , 6           , 0           , 0
-0.162886292, 9.799764    , 0.082043305 , 0.000305009075, -0.000138526084, -0.000239972636, -1.5797621  , -0.0157949962, 0.00010864489, 918.0735    , 31.4996281  , 824.344     , 5.07        , 3           , 7           , 0           , 0
-0.151834324, 9.79127     , 0.07740853  , 5.76332677E-05, -6.272952E-05, 0.0001773007, -1.57976162 , -0.0157932155, 0.000109255911, 918.0735    , 31.4996281  , 824.3445    , 5.08        , 3           , 8           , 5           , 5
-0.14976044 , 9.799162    , 0.09061203  , 0.0006899262, 9.636127E-05, 0.000165603269, -1.57975459 , -0.01579157 , 0.00010827696, 918.0735    , 31.4996281  , 824.345     , 5.09        , 3           , 9           , 5           , 0.1
-0.155109242, 9.798689    , 0.09235247  , 0.0007358654, -6.57705823E-06, -0.000737510331, -1.57974732 , -0.0157989431, 0.000108409244, 918.0735    , 31.4996281  , 824.345459  , 5.1         , 3           , 10          , 0.1         , 0.1
-0.155868962, 9.793205    , 0.09236161  , 0.000624965352, 0.000170416024, 2.22419912E-05, -1.579738   , -0.0158009846, 0.000106654406, 918.0735    , 31.4996281  , 824.353333  , 5.11        , 3           , 11          , 0.0066157626, 0.006615754
