Acc X       , Acc Y       , Acc Z       , Gyro X      , Gyro Y      , Gyro Z      , Euler X     , Euler Y     , Euler Z     , Pres X      , Pres Y      , Pres Z      , Time        , Status      , LowRate X   , LowRate Y   , LowRate Z    
-0.1314316  , 0.160139412 , -9.783496   , 0           , 0           , 0           , -0.01636686 , -0.0134314047, 0           , 921.3156    , 30.6543827  , 795.1902    , 0           , 2           , 0           , 5.03423166  , 0
-0.12989676 , 0.1600265   , -9.796119   , -0.000461782678, 3.23614222E-05, 0.000647111447, -0.0163714588, -0.0134309074, 6.465373E-06, 921.3156    , 30.6543827  , 795.1902    , 0.01        , 3           , 1           , 0           , 0
-0.1409703  , 0.165254444 , -9.785731   , -0.000322708365, -0.000169483479, 0.000100442245, -0.0163746942, -0.0134325847, 7.497467E-06, 921.3156    , 30.6543827  , 795.1902    , 0.02        , 3           , 2           , 0           , 0
-0.131887361, 0.167628139 , -9.787959   , -0.000308074057, -0.00066777406, 0.0002118812, -0.0163778067, -0.0134392269, 9.725494E-06, 921.28125   , 30.235527   , 795.1902    , 0.03        , 3           , 3           , 0           , 0
-0.124054052, 0.15692623  , -9.786646   , -5.25578653E-05, -0.000336030556, -0.000386027532, -0.01637828 , -0.01344265 , 5.920516E-06, 921.28125   , 30.235527   , 795.1902    , 0.04        , 3           , 4           , 0           , 0
-0.122572064, 0.158476681 , -9.780886   , -0.000337584934, 2.58277E-05 , -0.00040533836, -0.0163815971, -0.0134424577, 1.86316288E-06, 921.28125   , 30.235527   , 795.1902    , 0.05        , 3           , 5           , 0           , 0
-0.128927052, 0.1652484   , -9.78641    , -0.0005479348, 2.35077168E-05, -0.000693805, -0.0163869821, -0.0134423375, -5.07826235E-06, 921.28125   , 30.235527   , 795.1902    , 0.06        , 3           , 6           , 0           , 0
-0.130019918, 0.170239687 , -9.791528   , 0.000113985632, 9.328709E-05, 0.000319179439, -0.0163858887, -0.0134413512, -1.90197625E-06, 921.28125   , 30.235527   , 795.1902    , 0.07        , 3           , 7           , 0           , 0
-0.129907042, 0.164627284 , -9.791948   , 0.000306678034, 0.000219017325, 0.000148659252, -0.01638284 , -0.0134391356, -4.51368436E-07, 921.28125   , 30.235527   , 795.1902    , 0.08        , 3           , 8           , 5           , 5
-0.133219391, 0.15354     , -9.780313   , 8.905699E-05, 0.0004901952, 0.000530332734, -0.01638202 , -0.0134341475, 4.77129061E-06, 921.28125   , 30.235527   , 795.1902    , 0.09        , 3           , 9           , 5           , 0.1
-0.130957529, 0.167891353 , -9.780213   , -4.330145E-05, 0.0005449321, -2.227662E-05, -0.0163824484, -0.0134287048, 4.45926844E-06, 921.28125   , 30.235527   , 795.1902    , 0.1         , 3           , 10          , 0.1         , 0.1
-0.1338147  , 0.168568969 , -9.785445   , 0.000134082089, 0.000289358431, -0.0005233541, -0.0163982827, -0.0134171871, -5.899514E-07, 921.28125   , 30.235527   , 795.499451  , 0.11        , 3           , 11          , 0.0109544508, 0.0109544508
-0.134157687, 0.1645625   , -9.789541   , -0.000161835225, 0.000347629131, -0.0005001441, -0.0163998343, -0.0134137934, -5.64804168E-06, 921.28125   , 30.235527   , 795.499451  , 0.12        , 3           , 12          , 0.174642488 , 0
-0.1281273  , 0.165134668 , -9.793772   , -0.000322454143, -0.000226170319, -0.0007463678, -0.0164029561, -0.0134161776, -1.30741091E-05, 921.2723    , 30.27352    , 795.499451  , 0.13        , 3           , 13          , 0           , 0
-0.132339448, 0.156338483 , -9.784805   , -0.00044179376, -0.00054177 , -0.00086828816, -0.0164072569, -0.0134217367, -2.16675071E-05, 921.2723    , 30.27352    , 795.499451  , 0.14        , 3           , 14          , 0.0001274848, -0.000392857677
-0.143840134, 0.157491431 , -9.790031   , 9.59959143E-05, 9.44683E-05 , -0.00100013718, -0.0164061617, -0.0134209581, -3.1683674E-05, 921.2723    , 30.27352    , 795.499451  , 0.15        , 3           , 15          , 0           , 1.19514943E-05
-0.134789392, 0.150013119 , -9.791946   , 0.000547861564, -0.0003871386, -0.000507361, -0.0164006185, -0.0134249106, -3.669343E-05, 921.2723    , 30.27352    , 795.499451  , 0.16        , 3           , 16          , 0           , 1.401298E-45
-0.143963128, 0.151313871 , -9.795749   , 0.00045808783, 0.000125169929, -0.000139106909, -0.01639602 , -0.0134236813, -3.81049176E-05, 921.2723    , 30.27352    , 795.499451  , 0.17        , 3           , 20          , 0           , 0
-0.139228821, 0.15201053  , -9.797895   , 0.0006284262, 0.000378710247, -0.000533197657, -0.0163896624, -0.0134199811, -4.34986141E-05, 921.2723    , 30.27352    , 795.499451  , 0.18        , 3           , 21          , 0           , 0
-0.129234925, 0.155483752 , -9.79234    , 0.000536683132, 7.486643E-05, -0.000184909237, -0.0163842719, -0.0134192649, -4.535985E-05, 921.2723    , 30.27352    , 795.499451  , 0.19        , 3           , 22          , 0           , 0
-0.134187609, 0.161970958 , -9.79458    , 0.000513530045, -3.08995368E-05, -7.37048E-05, -0.0163791254, -0.0134195853, -4.60917945E-05, 921.2723    , 30.27352    , 795.499451  , 0.2         , 3           , 40          , 0           , 0
-0.136174038, 0.164438218 , -9.793159   , 0.000160547788, 2.49205623E-05, -9.435325E-05, -0.0163680222, -0.0134350462, -4.71667481E-05, 921.2723    , 30.27352    , 795.5406    , 0.21        , 3           , 41          , 0           , 0
-0.130518645, 0.16280432  , -9.79154    , 1.30154367E-05, 0.0001595575, -0.000827245, -0.0163677819, -0.0134335859, -5.54647522E-05, 921.2723    , 30.27352    , 795.5406    , 0.22        , 3           , 42          , 0           , 0
-0.131153435, 0.1686404   , -9.791657   , -6.164312E-05, 0.000210665326, -0.0006163096, -0.0163683146, -0.0134315807, -6.16619145E-05, 921.262146  , 30.2959747  , 795.540649  , 0.23        , 3           , 255         , 0           , 0
-0.134974092, 0.1735349   , -9.787401   , 0.000339117367, 9.897194E-06, -7.23093544E-05, -0.0163649153, -0.0134314969, -6.238656E-05, 921.262146  , 30.2959747  , 795.5407    , 0.24        , 3           , 255         , 0           , 0
-0.128464639, 0.175191373 , -9.785612   , 8.46451E-05 , -0.000256122119, -0.000215123029, -0.01636404 , -0.0134340907, -6.449573E-05, 921.262146  , 30.2959747  , 795.5408    , 0.25        , 3           , 255         , 0           , 0
-0.1260196  , 0.166860908 , -9.782997   , 0.0004649671, -0.0006704744, -0.000139156124, -0.0163593721, -0.0134408167, -6.57775E-05, 921.262146  , 30.2959747  , 795.540833  , 0.26        , 3           , 255         , 0           , 0
-0.131295726, 0.168000475 , -9.796712   , 7.045116E-05, -0.0003140934, 0.0002006168, -0.0163586922, -0.0134439245, -6.37200937E-05, 921.262146  , 30.2959747  , 795.5409    , 0.27        , 3           , 255         , 0           , 0
-0.129363   , 0.166980654 , -9.797054   , 0.000221818715, -0.000141421711, -0.000282526744, -0.0163564384, -0.0134453848, -6.652206E-05, 921.262146  , 30.2959747  , 795.540955  , 0.28        , 3           , 255         , 0           , 0
-0.124128938, 0.1565736   , -9.786925   , 0.0002854096, 0.000115377159, 0.0005432895, -0.01635366 , -0.0134441424, -6.110839E-05, 921.262146  , 30.2959747  , 795.541     , 0.29        , 3           , 255         , 0           , 0
-0.130023479, 0.1503084   , -9.788893   , -0.000137533818, -0.000164530269, 0.000184567325, -0.0163550582, -0.0134457573, -5.923594E-05, 921.262146  , 30.2959747  , 795.5411    , 0.3         , 3           , 255         , 0           , 0
-0.136878282, 0.148591727 , -9.779997   , -0.000574628764, -0.000247850956, -0.00015407418, -0.0163825657, -0.0134426  , -6.044326E-05, 921.262146  , 30.2959747  , 795.5849    , 0.31        , 3           , 255         , 0           , 0
-0.12385039 , 0.150572568 , -9.788072   , -5.69632539E-05, -6.52121962E-05, 2.351927E-05, -0.0163831376, -0.0134432483, -6.01974E-05, 921.262146  , 30.2959747  , 795.584961  , 0.32        , 3           , 255         , 0           , 0
-0.125379592, 0.146357685 , -9.790827   , -0.000245776173, 0.000275676575, 0.0009023832, -0.0163857155, -0.0134403454, -5.121934E-05, 921.30365   , 30.3154449  , 795.585     , 0.33        , 3           , 255         , 0           , 0
-0.144810319, 0.142071813 , -9.794168   , -9.182106E-06, 0.000287817558, 0.000184782577, -0.0163858309, -0.013437436, -4.94188025E-05, 921.30365   , 30.3154449  , 795.5851    , 0.34        , 3           , 255         , 0           , 0
-0.133204728, 0.152258784 , -9.78966    , -0.0005103159, -3.60693375E-05, 0.000247737538, -0.0163909681, -0.0134377563, -4.69356746E-05, 921.30365   , 30.3154449  , 795.585144  , 0.35        , 3           , 255         , 0           , 0
-0.131972983, 0.145922273 , -9.781223   , -0.0004873349, -2.75359489E-05, 4.7446767E-05, -0.0163958464, -0.0134380246, -4.64567274E-05, 921.30365   , 30.3154449  , 795.5852    , 0.36        , 3           , 255         , 0           , 0
-0.127819926, 0.146174222 , -9.793013   , 1.74055458E-06, 0.000321924628, -0.0001355211, -0.016395811, -0.0134348283, -4.7864607E-05, 921.30365   , 30.3154449  , 795.585266  , 0.37        , 3           , 255         , 0           , 0
-0.126255631, 0.1622639   , -9.789045   , -0.000710937369, 0.000157833754, 0.000133335547, -0.01640294 , -0.0134332264, -4.655723E-05, 921.30365   , 30.3154449  , 795.5853    , 0.38        , 3           , 255         , 0           , 0
-0.121451616, 0.171867251 , -9.784001   , -0.0008685257, -0.000473569846, -0.000321407482, -0.01641158 , -0.0134380152, -4.969338E-05, 921.30365   , 30.3154449  , 795.5854    , 0.39        , 3           , 255         , 0           , 0
-0.133806527, 0.1657537   , -9.790152   , -0.0006930802, 8.596835E-05, -0.0002538167, -0.0164184757, -0.0134371957, -5.224548E-05, 921.30365   , 30.3154449  , 795.585449  , 0.4         , 3           , 255         , 0           , 0
-0.137822941, 0.162908435 , -9.79122448 , -0.000303408247, 0.0007024037, -0.000219210269, -0.01638495 , -0.0134251257, -5.50431942E-05, 921.30365   , 30.3154449  , 795.5128    , 0.41        , 3           , 255         , 0           , 0
-0.135838434, 0.170476317 , -9.7916975  , -1.54853842E-05, -0.000100096775, 0.000159888776, -0.0163851269, -0.013426099, -5.34280043E-05, 921.30365   , 30.3154449  , 795.5129    , 0.42        , 3           , 255         , 0           , 0
-0.132906914, 0.176689535 , -9.79278851 , 0.000628060254, 0.000273236248, 0.000231501792, -0.0163788758, -0.0134233292, -5.11579055E-05, 921.284     , 30.3252811  , 795.512939  , 0.43        , 3           , 255         , 0           , 0
-0.123022318, 0.177668363 , -9.794298   , -0.0002979659, -2.34302715E-05, -7.456177E-05, -0.0163818449, -0.013423576, -5.189964E-05, 921.284     , 30.3252811  , 795.513     , 0.44        , 3           , 255         , 0           , 0
-0.126297444, 0.17228274  , -9.78919    , -0.000174546833, 0.0004127072, 6.03320841E-05, -0.0163835976, -0.01341944 , -5.136396E-05, 921.284     , 30.3252811  , 795.513062  , 0.45        , 3           , 255         , 0           , 0
-0.133418441, 0.155703947 , -9.792811   , 2.07932317E-05, 4.08725173E-05, -0.0003295945, -0.0163833443, -0.0134190852, -5.46663832E-05, 921.284     , 30.3252811  , 795.5131    , 0.46        , 3           , 255         , 0           , 0
-0.144282609, 0.155818209 , -9.781321   , 3.87986074E-06, -0.000166798214, 0.000141075841, -0.0163833238, -0.01342073 , -5.322839E-05, 921.284     , 30.3252811  , 795.5132    , 0.47        , 3           , 255         , 0           , 0
-0.11814364 , 0.150912032 , -9.787899   , -0.0003634466, 0.000505955541, -8.402735E-05, -0.0163869448, -0.013415684, -5.41515074E-05, 921.284     , 30.3252811  , 795.513245  , 0.48        , 3           , 255         , 0           , 0
-0.126677588, 0.15705356  , -9.795223   , 7.313148E-05, -0.000136047573, -0.000101410958, -0.0163862016, -0.0134170614, -5.5143264E-05, 921.284     , 30.3252811  , 795.5133    , 0.49        , 3           , 255         , 0           , 0
-0.145150036, 0.161383674 , -9.785376   , -0.000278722961, -0.000590231735, -1.29571208E-05, -0.0163889863, -0.013422966, -5.517609E-05, 921.284     , 30.3252811  , 795.513367  , 0.5         , 3           , 255         , 0           , 0
-0.135550469, 0.157183617 , -9.790295   , -4.301017E-05, -0.0003520221, -9.501176E-05, -0.0164037738, -0.0134301474, -5.58755E-05, 921.284     , 30.3252811  , 795.5058    , 0.51        , 3           , 255         , 0           , 0
-0.140725687, 0.152354643 , -9.794287   , 5.69948752E-05, 0.000131840527, 0.000313416764, -0.0164032448, -0.0134287784, -5.276317E-05, 921.284     , 30.3252811  , 795.505859  , 0.52        , 3           , 255         , 0           , 0
-0.132871374, 0.142786652 , -9.784273   , -0.0005624985, 0.0007819398, -0.000957292854, -0.0164087359, -0.0134211192, -6.246372E-05, 921.2719    , 30.33349    , 795.5059    , 0.53        , 3           , 255         , 0           , 0
-0.127361655, 0.1380099   , -9.781976   , 4.012142E-05, 0.000487370737, -0.000252551283, -0.0164083019, -0.0134162875, -6.506902E-05, 921.2719    , 30.33349    , 795.506     , 0.54        , 3           , 255         , 0           , 0
-0.133857012, 0.141814843 , -9.799696   , 9.414207E-05, 1.57502072E-05, -0.000351947529, -0.0164073147, -0.0134161878, -6.859084E-05, 921.2719    , 30.33349    , 795.506042  , 0.55        , 3           , 255         , 0           , 0
-0.142401874, 0.142802939 , -9.8048     , 0.00018379961, -0.000142853853, -0.000458163384, -0.0164054148, -0.013417691, -7.314871E-05, 921.2719    , 30.33349    , 795.5061    , 0.56        , 3           , 255         , 0           , 0
-0.143235609, 0.163689524 , -9.785022   , 0.0002094037, 4.60940355E-05, -4.285834E-05, -0.0164033175, -0.0134172365, -7.358483E-05, 921.2719    , 30.33349    , 795.506165  , 0.57        , 3           , 255         , 0           , 0
-0.131863311, 0.163464    , -9.778939   , 0.000501048344, 0.0002742592, 0.00110007462, -0.01639845 , -0.0134143159, -6.262982E-05, 921.2719    , 30.33349    , 795.5062    , 0.58        , 3           , 255         , 0           , 0
-0.1299074  , 0.16680412  , -9.784195   , -0.00040674943, -0.000222821691, 0.000527974451, -0.01640259 , -0.0134164561, -5.73138859E-05, 921.2719    , 30.33349    , 795.5063    , 0.59        , 3           , 255         , 0           , 0
-0.12986815 , 0.17495665  , -9.789474   , -0.000542367, -0.000170290441, 8.018788E-05, -0.0164080244, -0.0134181455, -5.64841139E-05, 921.2719    , 30.33349    , 795.506348  , 0.6         , 3           , 255         , 0           , 0
-0.120361269, 0.1743795   , -9.793661   , -0.000192689709, 6.01118954E-05, -0.000227451528, -0.01638439 , -0.0134314978, -5.911128E-05, 921.2719    , 30.33349    , 795.5201    , 0.61        , 3           , 255         , 0           , 0
-0.130279168, 0.172821313 , -9.790685   , 0.0007625585, 0.0001715326, 0.000218975736, -0.01637679 , -0.0134297451, -5.69497861E-05, 921.2719    , 30.33349    , 795.520142  , 0.62        , 3           , 255         , 0           , 0
-0.133101672, 0.165179655 , -9.79086    , 0.000209144651, -0.00033649843, -0.000467128062, -0.0163746346, -0.0134331863, -6.156565E-05, 921.272     , 30.3399353  , 795.5202    , 0.63        , 3           , 255         , 0           , 0
-0.127279043, 0.162784129 , -9.789393   , 3.31934571E-05, -0.0005785401, -0.0006697397, -0.0163742136, -0.01343908 , -6.816786E-05, 921.272     , 30.3399353  , 795.520264  , 0.64        , 3           , 255         , 0           , 0
-0.137484968, 0.162589967 , -9.789907   , -0.000506882148, -0.000376440061, -0.000102718586, -0.0163792688, -0.0134428609, -6.913333E-05, 921.272     , 30.3399353  , 795.5203    , 0.65        , 3           , 255         , 0           , 0
-0.134643465, 0.147600189 , -9.793494   , -0.0007385154, 0.000340686966, 0.0004046384, -0.0163867082, -0.0134393908, -6.514304E-05, 921.272     , 30.3399353  , 795.5204    , 0.66        , 3           , 255         , 0           , 0
-0.127673984, 0.1438939   , -9.786998   , -0.000547688745, 0.000171087013, -0.000571886252, -0.0163921081, -0.0134377712, -7.088956E-05, 921.272     , 30.3399353  , 795.5205    , 0.67        , 3           , 255         , 0           , 0
-0.126901537, 0.144403383 , -9.790251   , -0.0005625982, 0.000189401762, -0.000425457576, -0.0163976774, -0.0134359477, -7.517489E-05, 921.272     , 30.3399353  , 795.5206    , 0.68        , 3           , 255         , 0           , 0
-0.137881085, 0.139891729 , -9.788652   , 0.000313578 , -0.000189509767, 0.0004657198, -0.0163946021, -0.0134377657, -7.048694E-05, 921.272     , 30.3399353  , 795.520752  , 0.69        , 3           , 255         , 0           , 0
-0.13155286 , 0.151521772 , -9.783257   , -0.000122425612, -0.0005294999, -0.000196371751, -0.0163958  , -0.013443091, -7.236371E-05, 921.272     , 30.3399353  , 795.5209    , 0.7         , 3           , 255         , 0           , 0
-0.135773078, 0.154284492 , -9.790617   , -8.795725E-05, 4.830194E-05, -0.000383929233, -0.01638205 , -0.0134392651, -7.640656E-05, 921.272     , 30.3399353  , 795.5308    , 0.71        , 3           , 255         , 0           , 0
-0.142235622, 0.159106866 , -9.779814   , 0.000112675771, -4.758936E-05, -0.00047850603, -0.0163808577, -0.0134398192, -8.11835052E-05, 921.272     , 30.3399353  , 795.530945  , 0.72        , 3           , 255         , 0           , 0
-0.1377378  , 0.158572555 , -9.780086   , -0.000271297758, -0.0003993288, -0.000766471261, -0.01638347 , -0.0134439394, -8.878228E-05, 921.294     , 30.3441429  , 795.531067  , 0.73        , 3           , 255         , 0           , 0
-0.138735443, 0.177123144 , -9.789447   , 9.592362E-05, 0.000205901742, -0.0007833808, -0.0163824055, -0.0134420078, -9.664926E-05, 921.294     , 30.3441429  , 795.5312    , 0.74        , 3           , 255         , 0           , 0
-0.130605072, 0.184553862 , -9.792666   , -0.000358647667, 0.000182659249, -0.00035366 , -0.01638594 , -0.0134402392, -0.000100215548, 921.294     , 30.3441429  , 795.5313    , 0.75        , 3           , 255         , 0           , 0
-0.122814879, 0.180211559 , -9.792658   , 0.000207183853, -2.79310625E-05, -0.000720443961, -0.0163837727, -0.0134406369, -0.000107414919, 921.294     , 30.3441429  , 795.531433  , 0.76        , 3           , 255         , 0           , 0
-0.1259744  , 0.17428109  , -9.793516   , 0.000167049729, -0.000178412214, 0.000102823149, -0.0163821168, -0.0134424036, -0.000106357526, 921.294     , 30.3441429  , 795.531555  , 0.77        , 3           , 255         , 0           , 0
-0.143205449, 0.174639508 , -9.785967   , 3.39406834E-05, 0.0002707174, 0.0005044539, -0.0163818449, -0.0134396134, -0.000101357677, 921.294     , 30.3441429  , 795.5317    , 0.78        , 3           , 255         , 0           , 0
-0.142199248, 0.169619024 , -9.793374   , 0.000181538839, 8.74867255E-05, 0.000316757651, -0.01638007 , -0.0134386858, -9.820466E-05, 921.294     , 30.3441429  , 795.5318    , 0.79        , 3           , 255         , 0           , 0
-0.134977058, 0.1497941   , -9.785184   , 8.123515E-05, -3.54542863E-07, -0.000127664956, -0.01637924 , -0.0134387109, -9.948119E-05, 921.294     , 30.3441429  , 795.5319    , 0.8         , 3           , 255         , 0           , 0
-0.123055458, 0.137923688 , -9.792021   , -0.000362998719, -0.000200187613, -0.000518507964, -0.0164144617, -0.0134563064, -0.00010420708, 921.294     , 30.3441429  , 795.511963  , 0.81        , 3           , 255         , 0           , 0
-0.12787734 , 0.146602944 , -9.793607   , 0.000439480878, -0.000134378381, -0.0012917351, -0.01640989 , -0.0134578636, -0.000117101481, 921.294     , 30.3441429  , 795.5121    , 0.82        , 3           , 255         , 0           , 0
-0.130929649, 0.151845783 , -9.78675    , 0.000543453556, -0.000130696921, -0.000338504062, -0.0164044127, -0.0134592261, -0.000120464836, 921.301147  , 30.3465843  , 795.5122    , 0.83        , 3           , 255         , 0           , 0
-0.1250132  , 0.1530702   , -9.791835   , 0.000364100328, 7.17924559E-05, -0.0001653974, -0.0164007489, -0.0134585351, -0.00012213047, 921.301147  , 30.3465843  , 795.5123    , 0.84        , 3           , 255         , 0           , 0
-0.134676173, 0.154232115 , -9.783002   , 0.000414354377, -0.000329706585, 0.000121170524, -0.016396625, -0.0134618124, -0.000120864788, 921.301147  , 30.3465843  , 795.512451  , 0.85        , 3           , 255         , 0           , 0
-0.1266     , 0.146536857 , -9.788203   , 0.000485611265, -0.000121483637, 0.0004813949, -0.0163918324, -0.0134629486, -0.000116031268, 921.301147  , 30.3465843  , 795.5126    , 0.86        , 3           , 255         , 0           , 0
-0.131918937, 0.15274027  , -9.788269   , -0.0007133581, 0.000115051836, 9.348395E-05, -0.01639898 , -0.0134617835, -0.000115115341, 921.301147  , 30.3465843  , 795.5127    , 0.87        , 3           , 255         , 0           , 0
-0.133763239, 0.159800142 , -9.79624    , -0.0003284735, 6.604503E-05, -0.0005101378, -0.0164021943, -0.013461208, -0.0001202272, 921.301147  , 30.3465843  , 795.5128    , 0.88        , 3           , 255         , 0           , 0
-0.132672518, 0.162001342 , -9.790739   , -4.13266462E-05, 7.536204E-06, 0.000184011034, -0.016402632, -0.0134611027, -0.000118388438, 921.301147  , 30.3465843  , 795.512939  , 0.89        , 3           , 255         , 0           , 0
-0.123051025, 0.156330615 , -9.794565   , 0.000168124854, 3.840658E-06, 0.0003471574, -0.0164009985, -0.0134610059, -0.000114917748, 921.301147  , 30.3465843  , 795.513062  , 0.9         , 3           , 255         , 0           , 0
-0.128429025, 0.1610901   , -9.788689   , 0.00026373833, -0.000171690248, 0.000259074732, -0.0163702872, -0.01345319 , -0.000112677182, 921.301147  , 30.3465843  , 795.488464  , 0.91        , 3           , 255         , 0           , 0
-0.1337682  , 0.174780324 , -9.795651   , 0.000197716159, -0.000310824427, 0.00082998944, -0.0163684189, -0.0134561621, -0.000104326988, 921.301147  , 30.3465843  , 795.4885    , 0.92        , 3           , 255         , 0           , 0
-0.13459827 , 0.17683652  , -9.792709   , 0.000116428826, -0.0003072688, 2.66503885E-05, -0.0163672585, -0.01345923 , -0.000104010207, 921.2862    , 30.34862    , 795.4886    , 0.93        , 3           , 255         , 0           , 0
-0.131007835, 0.171931982 , -9.79235649 , 0.000319163955, -0.00013206288, -0.000343528576, -0.016364025, -0.0134606054, -0.000107423642, 921.2862    , 30.34862    , 795.488647  , 0.94        , 3           , 255         , 0           , 0
-0.130056724, 0.1727663   , -9.790945   , -0.000110540692, 1.06836669E-05, -0.000499881164, -0.0163650624, -0.01346058 , -0.000112423855, 921.2862    , 30.34862    , 795.4887    , 0.95        , 3           , 255         , 0           , 0
-0.133890271, 0.164965361 , -9.786567   , -0.000222647141, -0.000222520437, 0.0006407906, -0.016367374, -0.0134627009, -0.000105979969, 921.2862    , 30.34862    , 795.4888    , 0.96        , 3           , 255         , 0           , 0
-0.123406433, 0.152971715 , -9.788531   , -0.000363082974, 4.3846434E-05, 0.0004239008, -0.01637106 , -0.0134621942, -0.000101748425, 921.2862    , 30.34862    , 795.488831  , 0.97        , 3           , 255         , 0           , 0
-0.125915185, 0.16673705  , -9.785895   , -0.00034403993, -0.000108155305, 0.0004928598, -0.0163745657, -0.0134631954, -9.68024542E-05, 921.2862    , 30.34862    , 795.4889    , 0.98        , 3           , 255         , 0           , 0
-0.119530261, 0.158448011 , -9.783569   , 0.000388428045, -0.000365507556, -0.000402348058, -0.016370628, -0.0134669151, -0.000100765836, 921.2862    , 30.34862    , 795.488953  , 0.99        , 3           , 255         , 0           , 0
-0.121739052, 0.146124363 , -9.784426   , -0.0005300144, -0.0003973209, 0.0004981071, -0.0163759943, -0.0134708043, -9.57200537E-05, 921.2862    , 30.34862    , 795.489     , 1           , 3           , 0           , 6.03423643  , 100
-0.134774208, 0.15298894  , -9.792814   , -0.000350890681, -8.111476E-05, 0.0005842414, -0.0163957272, -0.0134586366, -8.964747E-05, 921.2862    , 30.34862    , 795.485     , 1.01        , 3           , 1           , 0           , 0
-0.14431268 , 0.14218998  , -9.788335   , -0.000296363549, -8.84376641E-05, 0.00031597467, -0.0163987335, -0.01345947 , -8.647345E-05, 921.2862    , 30.34862    , 795.485046  , 1.02        , 3           , 2           , 0           , 0
-0.137257308, 0.1477058   , -9.783101   , 0.000129343767, -7.814338E-05, -0.000152959285, -0.0163974185, -0.0134602757, -8.799013E-05, 921.263855  , 30.3506546  , 795.4851    , 1.03        , 3           , 3           , 0           , 0
-0.127418831, 0.146462619 , -9.7886095  , 0.000134438742, -8.877157E-05, -0.000230856938, -0.016396042, -0.0134612015, -9.028398E-05, 921.263855  , 30.3506546  , 795.485168  , 1.04        , 3           , 4           , 0           , 0
-0.123236336, 0.149030373 , -9.788075   , -0.0005812284, -0.000150761916, 0.00027232003, -0.01640189 , -0.0134626646, -8.753626E-05, 921.263855  , 30.3506546  , 795.4852    , 1.05        , 3           , 5           , 0           , 0
-0.123834513, 0.163300008 , -9.794493   , -6.86094063E-05, -0.00031034305, 0.0004730729, -0.0164026376, -0.0134656876, -8.275496E-05, 921.263855  , 30.3506546  , 795.4853    , 1.06        , 3           , 6           , 0           , 0
-0.128045544, 0.163679078 , -9.791025   , 0.00022024932, -2.832088E-05, 0.000750547333, -0.0164005365, -0.0134658478, -7.52453561E-05, 921.263855  , 30.3506546  , 795.485352  , 1.07        , 3           , 7           , 0           , 0
-0.137380525, 0.16363667  , -9.7926     , 8.23050359E-05, 0.000185705125, -0.000122834288, -0.0163997  , -0.0134640113, -7.6504075E-05, 921.263855  , 30.3506546  , 795.4854    , 1.08        , 3           , 8           , 5           , 5
-0.134116814, 0.172787949 , -9.794149   , -0.0005140061, 7.736473E-05, 0.000198641268, -0.0164048653, -0.0134632047, -7.4530486E-05, 921.263855  , 30.3506546  , 795.485535  , 1.09        , 3           , 9           , 5           , 0.1
-0.1333562  , 0.1814113   , -9.793261   , -0.000173396766, 6.804601E-05, 0.0004459639, -0.016406659, -0.0134624513, -7.008231E-05, 921.263855  , 30.3506546  , 795.485657  , 1.1         , 3           , 10          , 0.1         , 0.1
-0.131399989, 0.176058054 , -9.792366   , 0.0001581772, -7.513852E-05, 0.000336565572, -0.0163982455, -0.0134648085, -6.679717E-05, 921.263855  , 30.3506546  , 795.5057    , 1.11        , 3           , 11          , 0.00886039  , 0.00886039
-0.111110047, 0.17145963  , -9.78887749 , 0.000110404071, 0.00042385282, -0.000110965833, -0.0163971242, -0.0134605914, -6.797624E-05, 921.263855  , 30.3506546  , 795.5058    , 1.12        , 3           , 12          , 0.174642846 , 0
-0.134473816, 0.167609528 , -9.789068   , 0.000264024071, -5.01081522E-05, 0.000168404033, -0.0163945071, -0.0134610627, -6.628411E-05, 921.2741    , 30.3538437  , 795.5059    , 1.13        , 3           , 13          , 0           , 0
-0.144057438, 0.166476682 , -9.79367352 , 0.000552605954, 5.64884976E-05, 6.45204054E-05, -0.0163889881, -0.0134604871, -6.56482152E-05, 921.2741    , 30.3538437  , 795.506042  , 1.14        , 3           , 14          , 0.000127464125, -0.000392859831
-0.1425527  , 0.156264693 , -9.780748   , -9.60879E-06, -0.0003602278, -0.000131361841, -0.0163890682, -0.0134641109, -6.6902714E-05, 921.2741    , 30.3538437  , 795.506165  , 1.15        , 3           , 15          , 0           , 1.19517363E-05
-0.125094682, 0.139313251 , -9.782053   , 0.000174540648, 0.000145732425, 0.000117710486, -0.016387336, -0.0134626348, -6.574957E-05, 921.2741    , 30.3538437  , 795.5063    , 1.16        , 3           , 16          , 0           , 1.401298E-45
-0.126134112, 0.135780692 , -9.782057   , 0.000641902734, 5.45568473E-05, 0.000315639161, -0.0163809583, -0.01346204 , -6.260233E-05, 921.2741    , 30.3538437  , 795.5064    , 1.17        , 3           , 20          , 0           , 0
-0.1235676  , 0.14867419  , -9.786795   , -5.49443721E-05, 0.000448380917, -0.0004785158, -0.0163814444, -0.0134576336, -6.74606054E-05, 921.2741    , 30.3538437  , 795.5066    , 1.18        , 3           , 21          , 0           , 0
-0.124990985, 0.143389225 , -9.784515   , -2.45251358E-05, 0.000157812145, -0.0003511194, -0.0163816437, -0.0134561136, -7.099738E-05, 921.2741    , 30.3538437  , 795.5068    , 1.19        , 3           , 22          , 0           , 0
-0.137102157, 0.145452127 , -9.780877   , -0.000242738519, 0.000315152 , -0.00022953756, -0.01638404 , -0.013453   , -7.334423E-05, 921.2741    , 30.3538437  , 795.506958  , 1.2         , 3           , 40          , 0           , 0
-0.131716222, 0.146626428 , -9.797573   , 0.000586600043, -0.000317768659, -0.000288338342, -0.016353393, -0.0134482561, -7.650809E-05, 921.2741    , 30.3538437  , 795.513733  , 1.21        , 3           , 41          , 0           , 0
-0.134700164, 0.154478312 , -9.785156   , 0.000588857045, -0.000442768272, -0.0005853342, -0.0163474269, -0.0134527832, -8.228864E-05, 921.2741    , 30.3538437  , 795.5139    , 1.22        , 3           , 42          , 0           , 0
-0.134070143, 0.15475671  , -9.793425   , -0.0001620414, 0.0001778269, -0.000172932632, -0.0163490232, -0.0134510323, -8.404691E-05, 921.316467  , 30.3537083  , 795.5141    , 1.23        , 3           , 255         , 0           , 0
-0.13075456 , 0.1591574   , -9.789858   , -0.000125348844, 3.23239365E-05, 0.000379124918, -0.0163503271, -0.0134506468, -8.02612E-05, 921.316467  , 30.3537083  , 795.5143    , 1.24        , 3           , 255         , 0           , 0
-0.119747914, 0.168715626 , -9.787134   , 0.000108147869, -9.37478E-06, 0.0009907779, -0.016349379, -0.0134505806, -7.035256E-05, 921.316467  , 30.3537083  , 795.514465  , 1.25        , 3           , 255         , 0           , 0
-0.123538159, 0.163155109 , -9.787414   , -7.048156E-05, -1.871129E-05, 0.000237311149, -0.0163501147, -0.0134507269, -6.797654E-05, 921.316467  , 30.3537083  , 795.514648  , 1.26        , 3           , 255         , 0           , 0
-0.141051143, 0.164869756 , -9.788425   , -0.000224427611, -0.000380830665, 0.000354899152, -0.0163524058, -0.0134544782, -6.436551E-05, 921.316467  , 30.3537083  , 795.514832  , 1.27        , 3           , 255         , 0           , 0
-0.144375771, 0.16826728  , -9.779249   , 0.000142050209, -0.000259361055, -6.00075364E-05, -0.016350979, -0.01345708 , -6.492314E-05, 921.316467  , 30.3537083  , 795.515     , 1.28        , 3           , 255         , 0           , 0
-0.139419466, 0.164688975 , -9.790103   , -0.000454754918, -6.778291E-05, -0.0003408685, -0.016355481, -0.0134578133, -6.832052E-05, 921.316467  , 30.3537083  , 795.5152    , 1.29        , 3           , 255         , 0           , 0
-0.142741412, 0.158812478 , -9.781447   , -0.000746176054, -0.0001860641, -0.0006691574, -0.0163628515, -0.013459783, -7.498121E-05, 921.316467  , 30.3537083  , 795.5154    , 1.3         , 3           , 255         , 0           , 0
-0.121563889, 0.162301391 , -9.778427   , -0.000252951868, -0.000105755549, -0.000424274942, -0.0163664166, -0.0134699028, -7.919164E-05, 921.316467  , 30.3537083  , 795.4777    , 1.31        , 3           , 255         , 0           , 0
-0.117972471, 0.168796748 , -9.798286   , 4.31086228E-05, 0.000121067453, 0.000137745461, -0.0163660049, -0.01346867 , -7.78340836E-05, 921.316467  , 30.3537083  , 795.4778    , 1.32        , 3           , 255         , 0           , 0
-0.128804177, 0.169339865 , -9.796159   , -0.000171262232, -0.000112640293, 7.045436E-05, -0.0163677279, -0.0134697845, -7.711115E-05, 921.2875    , 30.3556747  , 795.477844  , 1.33        , 3           , 255         , 0           , 0
-0.137898251, 0.173348874 , -9.797335   , -0.000352522358, -0.000218933419, -0.000113305425, -0.0163712353, -0.0134719927, -7.82083E-05, 921.2875    , 30.3556747  , 795.4779    , 1.34        , 3           , 255         , 0           , 0
-0.1269679  , 0.164405107 , -9.791082   , -6.75021E-05, -5.913555E-05, -0.0006897154, -0.0163718164, -0.0134726968, -8.50953E-05, 921.2875    , 30.3556747  , 795.477966  , 1.35        , 3           , 255         , 0           , 0
-0.12882264 , 0.161222622 , -9.789988   , 0.0003047667, 7.319386E-05, 3.61121347E-05, -0.0163687728, -0.0134719592, -8.474619E-05, 921.2875    , 30.3556747  , 795.478     , 1.36        , 3           , 255         , 0           , 0
-0.122299694, 0.153593242 , -9.791878   , 3.381906E-05, -4.77575522E-05, -0.000558059954, -0.01636836 , -0.0134725282, -9.03185937E-05, 921.2875    , 30.3556747  , 795.4781    , 1.37        , 3           , 255         , 0           , 0
-0.127756387, 0.148747712 , -9.796947   , -0.000587947259, 0.000325053115, -0.000920147751, -0.016374113, -0.01346943 , -9.957267E-05, 921.2875    , 30.3556747  , 795.478149  , 1.38        , 3           , 255         , 0           , 0
-0.123514012, 0.149806947 , -9.795004   , -0.000349061447, -0.0003246049, -0.000394476374, -0.0163775515, -0.01347274 , -0.000103464, 921.2875    , 30.3556747  , 795.4782    , 1.39        , 3           , 255         , 0           , 0
-0.128804818, 0.157695591 , -9.78338051 , -3.52086281E-05, -0.000392612739, 0.000176075846, -0.0163779259, -0.0134766363, -0.000101639074, 921.2875    , 30.3556747  , 795.4783    , 1.4         , 3           , 255         , 0           , 0
-0.134777024, 0.148441717 , -9.787212   , 0.000237928485, -8.30040663E-05, 0.000513320032, -0.0163771287, -0.013463581, -9.6472264E-05, 921.2875    , 30.3556747  , 795.4745    , 1.41        , 3           , 255         , 0           , 0
-0.1390352  , 0.151669577 , -9.794813   , -0.000135377937, 2.87918956E-05, 0.000361565646, -0.0163785331, -0.0134632336, -9.28615555E-05, 921.2875    , 30.3556747  , 795.474548  , 1.42        , 3           , 255         , 0           , 0
-0.1477125  , 0.153814167 , -9.793133   , 0.000396873278, 0.000143483456, 1.908436E-05, -0.0163745657, -0.0134617956, -9.269422E-05, 921.261353  , 30.3570328  , 795.4746    , 1.43        , 3           , 255         , 0           , 0
-0.125560164, 0.150607869 , -9.787937   , 0.000364476233, 6.23378437E-05, -0.0002725684, -0.0163708832, -0.0134612164, -9.542994E-05, 921.261353  , 30.3570328  , 795.4747    , 1.44        , 3           , 255         , 0           , 0
-0.117369488, 0.150809452 , -9.783033   , 0.000180036077, 1.88367849E-05, -0.0003063638, -0.0163690429, -0.0134610813, -9.849645E-05, 921.261353  , 30.3570328  , 795.474731  , 1.45        , 3           , 255         , 0           , 0
-0.12787962 , 0.159149334 , -9.78483    , 0.0003513632, 0.000119851786, -0.000572331366, -0.0163654536, -0.0134599749, -0.000104238985, 921.261353  , 30.3570328  , 795.4748    , 1.46        , 3           , 255         , 0           , 0
-0.127157614, 0.1562142   , -9.794054   , -0.000331441464, 0.0001468297, -5.8579888E-05, -0.0163687561, -0.0134585164, -0.000104848768, 921.261353  , 30.3570328  , 795.474854  , 1.47        , 3           , 255         , 0           , 0
-0.138601869, 0.171264857 , -9.796595   , -0.0007820359, 0.000338259473, -0.000105365485, -0.0163765624, -0.0134551516, -0.000105957726, 921.261353  , 30.3570328  , 795.4749    , 1.48        , 3           , 255         , 0           , 0
-0.139188543, 0.165720344 , -9.794264   , 2.289287E-05, 0.000224496835, -0.00040792147, -0.01637628 , -0.0134529779, -0.00011007343, 921.261353  , 30.3570328  , 795.475     , 1.49        , 3           , 255         , 0           , 0
-0.129858553, 0.171248272 , -9.793755   , -7.69578546E-05, 0.000294895144, -0.000638479, -0.01637696 , -0.0134501318, -0.0001165061, 921.261353  , 30.3570328  , 795.475037  , 1.5         , 3           , 255         , 0           , 0
-0.136677176, 0.17032887  , -9.792644   , -0.000274706865, 0.000311220647, 0.0003502298, -0.0163735058, -0.0134492861, -0.000113139009, 921.261353  , 30.3570328  , 795.499     , 1.51        , 3           , 255         , 0           , 0
-0.137918621, 0.168840468 , -9.78378    , 3.29550676E-05, -0.00035511484, -0.0007369065, -0.0163730774, -0.0134529583, -0.000120449418, 921.261353  , 30.3570328  , 795.4992    , 1.52        , 3           , 255         , 0           , 0
-0.130062416, 0.163706452 , -9.787286   , 6.863545E-05, -0.000272307632, -7.22342447E-05, -0.0163723845, -0.0134556927, -0.000121127137, 921.2637    , 30.35995    , 795.4994    , 1.53        , 3           , 255         , 0           , 0
-0.124970481, 0.159528926 , -9.796002   , 0.000105151252, 7.923521E-05, 0.000747830549, -0.0163714346, -0.0134547781, -0.0001136623, 921.2637    , 30.35995    , 795.4996    , 1.54        , 3           , 255         , 0           , 0
-0.133963227, 0.157959208 , -9.787213   , 0.000440834061, -0.0001614172, -8.13408042E-05, -0.0163670145, -0.0134564051, -0.000114449249, 921.2637    , 30.35995    , 795.499756  , 1.55        , 3           , 255         , 0           , 0
-0.134201482, 0.1615421   , -9.785216   , 0.000109036147, 0.000546021853, -0.0006490268, -0.0163658373, -0.0134510519, -0.000121028424, 921.2637    , 30.35995    , 795.499939  , 1.56        , 3           , 255         , 0           , 0
-0.135645   , 0.15029411  , -9.784604   , -0.000149281375, -0.000253254053, -0.000563876, -0.0163672548, -0.0134536773, -0.000126625353, 921.2637    , 30.35995    , 795.5001    , 1.57        , 3           , 255         , 0           , 0
-0.142141044, 0.15676181  , -9.787084   , -0.0003167758, -8.491354E-05, -0.000117923679, -0.01637041 , -0.0134545462, -0.0001277906, 921.2637    , 30.35995    , 795.5003    , 1.58        , 3           , 255         , 0           , 0
-0.131979987, 0.1564609   , -9.789766   , 0.000180671137, -2.14703323E-05, 0.00063582  , -0.0163686872, -0.013454657, -0.000121429315, 921.2637    , 30.35995    , 795.5005    , 1.59        , 3           , 255         , 0           , 0
-0.132909015, 0.158394665 , -9.781753   , 0.00021842125, -0.000245813484, -4.60268166E-05, -0.0163664948, -0.0134571213, -0.000121849334, 921.2637    , 30.35995    , 795.5007    , 1.6         , 3           , 255         , 0           , 0
-0.13379626 , 0.155674249 , -9.787739   , 3.66916938E-05, -0.000362067978, -0.0011210643, -0.0163665134, -0.0134688718, -0.000132992718, 921.2637    , 30.35995    , 795.5199    , 1.61        , 3           , 255         , 0           , 0
-0.130556136, 0.1607421   , -9.792028   , 0.00023779  , 0.000218214 , -0.00041987552, -0.016364079, -0.0134667624, -0.000137226889, 921.2637    , 30.35995    , 795.5202    , 1.62        , 3           , 255         , 0           , 0
-0.125733182, 0.164919674 , -9.787777   , 4.97838773E-05, -0.000155055983, -0.000305772322, -0.01636354 , -0.0134683605, -0.000140259013, 921.253     , 30.3620529  , 795.5205    , 1.63        , 3           , 255         , 0           , 0
-0.126977891, 0.165194064 , -9.794983   , -0.000500801834, -0.000100738922, -0.000448592822, -0.016368486, -0.0134694418, -0.000144728154, 921.253     , 30.3620529  , 795.5208    , 1.64        , 3           , 255         , 0           , 0
-0.138316378, 0.1540538   , -9.796873   , 0.0008071107, -3.686562E-05, -0.0008095364, -0.0163603052, -0.013469941, -0.000152816938, 921.253     , 30.3620529  , 795.5211    , 1.65        , 3           , 255         , 0           , 0
-0.136892766, 0.147821233 , -9.793526   , 0.000413510832, -0.000690025161, 0.000151923363, -0.01635619 , -0.013476816, -0.000151184955, 921.253     , 30.3620529  , 795.5214    , 1.66        , 3           , 255         , 0           , 0
-0.129898831, 0.151297987 , -9.790935   , 0.000270480319, 3.2107142E-05, 0.000400940917, -0.0163535383, -0.0134764295, -0.000147181054, 921.253     , 30.3620529  , 795.5217    , 1.67        , 3           , 255         , 0           , 0
-0.138783   , 0.16509445  , -9.788208   , -0.000418022479, 0.000347001536, -0.000360492355, -0.0163576715, -0.0134730181, -0.00015084249, 921.253     , 30.3620529  , 795.522034  , 1.68        , 3           , 255         , 0           , 0
-0.124635145, 0.161519289 , -9.787824   , -0.000250569574, -1.06568623E-05, -0.000628574, -0.016360091, -0.0134732286, -0.000157126051, 921.253     , 30.3620529  , 795.522339  , 1.69        , 3           , 255         , 0           , 0
-0.121820867, 0.153785914 , -9.78611851 , -0.000443504978, -4.02639853E-05, -0.000768926751, -0.0163644217, -0.0134737566, -0.000164808211, 921.253     , 30.3620529  , 795.522644  , 1.7         , 3           , 255         , 0           , 0
-0.125210866, 0.1577093   , -9.788276   , 0.000224662741, 0.000248551863, -3.3932487E-05, -0.0163565557, -0.01346833 , -0.000165263846, 921.253     , 30.3620529  , 795.5515    , 1.71        , 3           , 255         , 0           , 0
-0.129562587, 0.166554064 , -9.780089   , -0.000170976564, -8.061284E-05, -5.19094247E-05, -0.0163582619, -0.0134691447, -0.000165769743, 921.253     , 30.3620529  , 795.551941  , 1.72        , 3           , 255         , 0           , 0
-0.13197419 , 0.1639067   , -9.786128   , 9.044711E-05, 0.00013325183, -0.000426221726, -0.0163572971, -0.0134678828, -0.000170053434, 921.2376    , 30.3600178  , 795.552368  , 1.73        , 3           , 255         , 0           , 0
-0.142371342, 0.167379916 , -9.780651   , 8.198392E-05, 8.398949E-05, -6.494132E-05, -0.01635647 , -0.013467053, -0.000170716536, 921.2376    , 30.3600178  , 795.5528    , 1.74        , 3           , 255         , 0           , 0
-0.1415019  , 0.167827636 , -9.789793   , -0.000186647972, 0.0006643662, -0.0007592849, -0.0163582321, -0.0134605365, -0.000178417555, 921.2376    , 30.3600178  , 795.5533    , 1.75        , 3           , 255         , 0           , 0
-0.1293004  , 0.175428957 , -9.792818   , -9.369383E-05, 0.0004155834, -3.81347854E-05, -0.0163591653, -0.0134563884, -0.00017886686, 921.2376    , 30.3600178  , 795.5538    , 1.76        , 3           , 255         , 0           , 0
-0.11776261 , 0.177397653 , -9.787084   , 0.00025332137, 2.84843263E-05, -0.000125489751, -0.0163566135, -0.0134561229, -0.000180126357, 921.2376    , 30.3600178  , 795.55426   , 1.77        , 3           , 255         , 0           , 0
-0.126656264, 0.160324    , -9.786019   , -0.00107358594, 0.0002962933, 0.000223438838, -0.0163673777, -0.013453125, -0.000177940616, 921.2376    , 30.3600178  , 795.554749  , 1.78        , 3           , 255         , 0           , 0
-0.124615766, 0.155909866 , -9.780942   , 0.000139924639, 0.0004025377, -0.000776833156, -0.0163658727, -0.0134492256, -0.00018577429, 921.2376    , 30.3600178  , 795.555237  , 1.79        , 3           , 255         , 0           , 0
-0.125960991, 0.152198464 , -9.784384   , -0.000117824689, -0.000160885334, -0.0001814469, -0.01636703 , -0.0134508647, -0.000187562269, 921.2376    , 30.3600178  , 795.5557    , 1.8         , 3           , 255         , 0           , 0
-0.140891746, 0.15300633  , -9.786146   , -0.000384536863, -0.0003448355, 0.00068420684, -0.0163885951, -0.0134450281, -0.000180427232, 921.2376    , 30.3600178  , 795.599365  , 1.81        , 3           , 255         , 0           , 0
-0.149870291, 0.139270157 , -9.781247   , -5.710315E-05, -0.000121114193, 0.0006436168, -0.0163892526, -0.0134461317, -0.000173971654, 921.2376    , 30.3600178  , 795.6001    , 1.82        , 3           , 255         , 0           , 0
-0.138666868, 0.14968735  , -9.78902149 , -2.79166925E-05, 0.000137727591, -7.356085E-05, -0.01638952 , -0.0134447673, -0.000174729823, 921.2578    , 30.36117    , 795.6008    , 1.83        , 3           , 255         , 0           , 0
-0.135601491, 0.146368191 , -9.782718   , -0.000166323283, 0.0004905672, 6.85829E-05 , -0.0163911935, -0.0134398509, -0.000174124434, 921.2578    , 30.36117    , 795.601563  , 1.84        , 3           , 255         , 0           , 0
-0.124845758, 0.146272331 , -9.78542    , -0.0008962711, 5.628096E-05, 0.00041864274, -0.01640021 , -0.0134392213, -0.0001699475, 921.2578    , 30.36117    , 795.6023    , 1.85        , 3           , 255         , 0           , 0
-0.131494716, 0.150978357 , -9.789909   , -0.000155272675, -0.0002646597, 0.000101939659, -0.0164017752, -0.0134418523, -0.000168884741, 921.2578    , 30.36117    , 795.603     , 1.86        , 3           , 255         , 0           , 0
-0.1378492  , 0.152212635 , -9.79619    , 1.87962869E-05, -0.000192668289, 0.00045491627, -0.0164016485, -0.0134437047, -0.000164304278, 921.2578    , 30.36117    , 795.60376   , 1.87        , 3           , 255         , 0           , 0
-0.133256719, 0.161580354 , -9.794045   , 7.564062E-05, -2.96857324E-05, 0.0006780925, -0.0164009836, -0.01344389 , -0.000157518953, 921.2578    , 30.36117    , 795.6045    , 1.88        , 3           , 255         , 0           , 0
-0.129713938, 0.171328828 , -9.787865   , -0.000124873011, 0.000139360782, -0.000100975536, -0.0164022148, -0.0134425135, -0.000158551513, 921.2578    , 30.36117    , 795.6052    , 1.89        , 3           , 255         , 0           , 0
-0.139980778, 0.160641044 , -9.792284   , -6.65745538E-05, -0.000178262009, -0.000101290134, -0.0164028686, -0.0134443128, -0.0001595351, 921.2578    , 30.36117    , 795.605957  , 1.9         , 3           , 255         , 0           , 0
-0.148131445, 0.172033876 , -9.786497   , 0.0002892983, -0.000166876911, -0.000108701628, -0.0163788646, -0.013459269, -0.000160878611, 921.2578    , 30.36117    , 795.6212    , 1.91        , 3           , 255         , 0           , 0
-0.133452356, 0.17669709  , -9.787844   , -0.000154361274, -0.0002760115, -0.0004971315, -0.0163803417, -0.0134621114, -0.00016580442, 921.2578    , 30.36117    , 795.622     , 1.92        , 3           , 255         , 0           , 0
-0.124486268, 0.179338    , -9.784665   , -0.000596355938, 0.0002685259, 0.00014969187, -0.0163863245, -0.0134594012, -0.000164351615, 921.2679    , 30.3617134  , 795.6228    , 1.93        , 3           , 255         , 0           , 0
-0.127031043, 0.167163879 , -9.786058   , 0.000651109556, -0.000358139951, 0.000125571183, -0.01637983 , -0.0134629617, -0.000163037286, 921.2679    , 30.3617134  , 795.6236    , 1.94        , 3           , 255         , 0           , 0
-0.1253565  , 0.1586913   , -9.786861   , -9.934759E-05, -0.0002964829, 0.000362439867, -0.01638087 , -0.0134658655, -0.000159364572, 921.2679    , 30.3617134  , 795.6244    , 1.95        , 3           , 255         , 0           , 0
-0.129737422, 0.162937209 , -9.783776   , -0.000265496579, 9.04763E-05 , 0.000220043614, -0.0163835566, -0.0134649258, -0.000157179093, 921.2679    , 30.3617134  , 795.6252    , 1.96        , 3           , 255         , 0           , 0
-0.1344592  , 0.1543279   , -9.792979   , -0.000147565646, 0.000116472918, -0.00145134365, -0.0163848363, -0.0134639982, -0.000171710592, 921.2679    , 30.3617134  , 795.626     , 1.97        , 3           , 255         , 0           , 0
-0.130747363, 0.146460682 , -9.789141   , -0.000348776171, -0.0003177901, -0.0009958743, -0.0163881872, -0.01346734 , -0.000181616575, 921.2679    , 30.3617134  , 795.6268    , 1.98        , 3           , 255         , 0           , 0
-0.136148125, 0.147635132 , -9.7931     , 6.63119863E-05, -8.621291E-05, 0.000435036462, -0.01638758 , -0.0134681277, -0.0001772524, 921.2679    , 30.3617134  , 795.627563  , 1.99        , 3           , 255         , 0           , 0
-0.1417667  , 0.142694458 , -9.78847    , 0.000245854317, -0.00044839058, -0.000164506841, -0.0163851  , -0.013472639, -0.000178823873, 921.2679    , 30.3617134  , 795.628357  , 2           , 3           , 0           , 7.03423643  , 200
-0.130076453, 0.152535647 , -9.787383   , -0.000434537942, -0.000326891546, 0.0001619272, -0.0163907874, -0.013479704, -0.000177133334, 921.2679    , 30.3617134  , 795.6293    , 2.01        , 3           , 1           , 0           , 0
-0.1309484  , 0.15520899  , -9.786242   , -4.750408E-05, -0.000177619222, -0.000479604118, -0.0163911972, -0.0134815583, -0.00018189993, 921.2679    , 30.3617134  , 795.6301    , 2.02        , 3           , 2           , 0           , 0
-0.14329648 , 0.154477909 , -9.788683   , 0.000410806329, -0.000391514564, -0.0001704998, -0.0163870659, -0.0134855025, -0.000183540673, 921.226868  , 30.3638172  , 795.631     , 2.03        , 3           , 3           , 0           , 0
-0.139968827, 0.1421483   , -9.775599   , 4.76000278E-05, 0.000290917815, -0.000155507485, -0.0163865667, -0.0134826191, -0.000185143319, 921.226868  , 30.3638172  , 795.631836  , 2.04        , 3           , 4           , 0           , 0
-0.1275806  , 0.160794154 , -9.806473   , -0.0005421264, -0.000282024674, -0.000349725771, -0.01639194 , -0.0134854959, -0.000188594087, 921.226868  , 30.3638172  , 795.6327    , 2.05        , 3           , 5           , 0           , 0
-0.133708745, 0.169964835 , -9.794992   , 0.0006260144, -0.0006849373, -0.0001141658, -0.0163856689, -0.0134923635, -0.000189623432, 921.226868  , 30.3638172  , 795.633545  , 2.06        , 3           , 6           , 0           , 0
-0.1307235  , 0.1650713   , -9.791312   , 0.0003706317, 0.0002806828, -0.0005956506, -0.0163818821, -0.0134896534, -0.0001956255, 921.226868  , 30.3638172  , 795.6344    , 2.07        , 3           , 7           , 0           , 0
-0.117183045, 0.174587086 , -9.793742   , 0.000289598771, 4.91513638E-05, -0.0008785846, -0.0163788665, -0.013489306, -0.0002044188, 921.226868  , 30.3638172  , 795.635254  , 2.08        , 3           , 8           , 5           , 5
-0.125703514, 0.181200132 , -9.795528   , 0.0009930676, -0.0005508491, 0.000171304157, -0.0163689554, -0.0134947887, -0.000202615644, 921.226868  , 30.3638172  , 795.6361    , 2.09        , 3           , 9           , 5           , 0.1
-0.127162158, 0.17027016  , -9.77839851 , -0.000172993459, -0.000251376652, -0.000427406369, -0.01637063 , -0.01349737 , -0.0002068483, 921.226868  , 30.3638172  , 795.636963  , 2.1         , 3           , 10          , 0.1         , 0.1
-0.13031745 , 0.167935535 , -9.791977   , -0.000149656917, -0.0001179908, -0.000453092624, -0.01637721 , -0.0134952823, -0.0002112901, 921.226868  , 30.3638172  , 795.6872    , 2.11        , 3           , 11          , 0.007570277 , 0.0075702765
-0.139015958, 0.159045532 , -9.793274   , 9.432633E-05, 0.000119136734, 0.0004181855, -0.0163763259, -0.0134940231, -0.000207128047, 921.226868  , 30.3638172  , 795.688354  , 2.12        , 3           , 12          , 0.174643889 , 0
-0.13944599 , 0.148586422 , -9.796101   , -7.658221E-05, 0.0004700552, 9.322087E-06, -0.0163770914, -0.01348932 , -0.000207111792, 921.220154  , 30.3637486  , 795.6895    , 2.13        , 3           , 13          , 0           , 0
-0.1287712  , 0.1500435   , -9.786146   , 0.000128731888, -7.058965E-05, -0.000185161072, -0.01637578 , -0.0134900557, -0.000208951751, 921.220154  , 30.3637486  , 795.6907    , 2.14        , 3           , 14          , 0.000127413427, -0.000392853137
-0.111709848, 0.150262982 , -9.794569   , 7.31652835E-06, -0.000425563339, -0.000440625, -0.016375646, -0.0134943845, -0.000213288, 921.220154  , 30.3637486  , 795.691833  , 2.15        , 3           , 15          , 0           , 1.19525275E-05
-0.1311519  , 0.146398216 , -9.794899   , 0.00059274165, -0.000246532523, 6.306541E-05, -0.0163697284, -0.0134968376, -0.000212617044, 921.220154  , 30.3637486  , 795.693     , 2.16        , 3           , 16          , 0           , 1.401298E-45
-0.129393741, 0.150183439 , -9.782298   , 9.6765E-05  , 0.000108902022, -0.0002505706, -0.0163687281, -0.01349579 , -0.000215140375, 921.220154  , 30.3637486  , 795.694153  , 2.17        , 3           , 20          , 0           , 0
-0.1285496  , 0.15959537  , -9.785087   , -0.000235319167, 0.000142380566, -0.000371395785, -0.01637103 , -0.0134944282, -0.000218877409, 921.220154  , 30.3637486  , 795.6953    , 2.18        , 3           , 21          , 0           , 0
-0.143328831, 0.165266439 , -9.792395   , 0.000113983493, -0.000324556866, 0.0006707897, -0.01636998 , -0.0134975631, -0.000212116822, 921.220154  , 30.3637486  , 795.6965    , 2.19        , 3           , 22          , 0           , 0
-0.134241283, 0.164721608 , -9.78573    , -1.10634137E-05, -0.0003527725, 0.000206531142, -0.0163701177, -0.0135010565, -0.00020999393, 921.220154  , 30.3637486  , 795.697632  , 2.2         , 3           , 40          , 0           , 0
-0.124335267, 0.17028743  , -9.785298   , 0.000353526528, -5.34270075E-05, 0.000702361052, -0.01635729 , -0.0135002742, -0.00020308877, 921.220154  , 30.3637486  , 795.7498    , 2.21        , 3           , 41          , 0           , 0
-0.12758109 , 0.181400388 , -9.803103   , 0.000572222751, -0.00036180162, 0.0005074606, -0.0163516346, -0.0135038085, -0.00019795532, 921.220154  , 30.3637486  , 795.7513    , 2.22        , 3           , 42          , 0           , 0
-0.119992733, 0.168532342 , -9.788452   , 0.0006257399, -0.0004539216, -0.000181326366, -0.0163453519, -0.0135083757, -0.0001996943, 921.246643  , 30.363884   , 795.752747  , 2.23        , 3           , 255         , 0           , 0
-0.117795311, 0.16888389  , -9.786748   , 0.000277644547, -0.000367593573, -0.0005878609, -0.0163424965, -0.0135121467, -0.000205512421, 921.246643  , 30.363884   , 795.7542    , 2.24        , 3           , 255         , 0           , 0
-0.129794   , 0.163789973 , -9.791486   , -0.000256684842, 7.57963862E-05, -0.000722779951, -0.0163449664, -0.0135115078, -0.000212752115, 921.246643  , 30.363884   , 795.7557    , 2.25        , 3           , 255         , 0           , 0
-0.146619976, 0.16427958  , -9.793002   , 2.45330011E-05, 0.0001038615, -3.32408854E-05, -0.0163447186, -0.0135104749, -0.000213101492, 921.246643  , 30.363884   , 795.757141  , 2.26        , 3           , 255         , 0           , 0
-0.1358108  , 0.1592645   , -9.789973   , -0.000231467246, -0.000366855558, -0.000125853388, -0.0163470134, -0.0135141648, -0.000214299944, 921.246643  , 30.363884   , 795.7586    , 2.27        , 3           , 255         , 0           , 0
-0.133728743, 0.143324137 , -9.79265    , -3.10397081E-05, -0.0005866379, -0.000562513, -0.0163472518, -0.0135201216, -0.000219828769, 921.246643  , 30.363884   , 795.760132  , 2.28        , 3           , 255         , 0           , 0
-0.1264483  , 0.142332643 , -9.795255   , 3.68245528E-05, -0.00030812624, -0.000135472146, -0.0163468644, -0.0135232257, -0.000221133043, 921.246643  , 30.363884   , 795.761658  , 2.29        , 3           , 255         , 0           , 0
-0.122693792, 0.1436581   , -9.787587   , -9.258909E-05, 0.000285333226, 0.000130996763, -0.0163478088, -0.0135203507, -0.000219869791, 921.246643  , 30.363884   , 795.7632    , 2.3         , 3           , 255         , 0           , 0
-0.13106437 , 0.1429681   , -9.790151   , 5.96948521E-05, -0.0001345663, 0.000124642611, -0.0163483154, -0.01351385 , -0.000218586836, 921.246643  , 30.363884   , 795.7737    , 2.31        , 3           , 255         , 0           , 0
-0.139675021, 0.145307764 , -9.784029   , 0.0002738511, -5.28720266E-05, -0.000628013862, -0.01634549 , -0.0135144815, -0.000224857911, 921.246643  , 30.363884   , 795.775269  , 2.32        , 3           , 255         , 0           , 0
-0.138171032, 0.145050436 , -9.78473949 , 0.000262064859, -0.000329673727, -0.000234701642, -0.0163428374, -0.0135178138, -0.000227150886, 921.240051  , 30.3642921  , 795.776855  , 2.33        , 3           , 255         , 0           , 0
-0.1329328  , 0.15388146  , -9.792166   , -0.000257707434, 0.000440511067, -0.000115818082, -0.0163453966, -0.01351343 , -0.000228380988, 921.240051  , 30.3642921  , 795.778442  , 2.34        , 3           , 255         , 0           , 0
-0.137016147, 0.154185876 , -9.797228   , 0.0001714849, -1.61688658E-05, -0.000229670011, -0.0163436513, -0.0135136293, -0.000230674908, 921.240051  , 30.3642921  , 795.78      , 2.35        , 3           , 255         , 0           , 0
-0.136882544, 0.164014667 , -9.78658    , -0.000203982258, 0.00011472826, -0.000536588661, -0.0163456183, -0.01351257 , -0.000236059146, 921.240051  , 30.3642921  , 795.7816    , 2.36        , 3           , 255         , 0           , 0
-0.117549971, 0.1648861   , -9.785939   , 5.1238967E-05, 0.000161662378, -0.0006094462, -0.0163450241, -0.0135110524, -0.000242179623, 921.240051  , 30.3642921  , 795.7832    , 2.37        , 3           , 255         , 0           , 0
-0.12069349 , 0.174562976 , -9.792674   , -0.000195732864, -5.20303729E-05, -0.0005601529, -0.0163469072, -0.0135116652, -0.0002477723, 921.240051  , 30.3642921  , 795.7848    , 2.38        , 3           , 255         , 0           , 0
-0.135403663, 0.177308127 , -9.787578   , -0.000240458379, 1.19998585E-05, 0.0001163049, -0.0163493287, -0.0135115264, -0.000246611278, 921.240051  , 30.3642921  , 795.7864    , 2.39        , 3           , 255         , 0           , 0
-0.136128843, 0.173073873 , -9.780878   , -0.0001411713, 0.000206678524, -5.64004877E-05, -0.0163507331, -0.01350947 , -0.000247209042, 921.240051  , 30.3642921  , 795.787964  , 2.4         , 3           , 255         , 0           , 0
-0.130133539, 0.166509271 , -9.785496   , -0.000370584079, 0.0004514535, -0.000169559629, -0.0163531862, -0.0135056423, -0.00024899494, 921.240051  , 30.3642921  , 795.80365   , 2.41        , 3           , 255         , 0           , 0
-0.133344918, 0.165701061 , -9.791416   , 0.000202912866, 0.000444284844, 0.000221563547, -0.0163511913, -0.0135011617, -0.000246852083, 921.240051  , 30.3642921  , 795.8053    , 2.42        , 3           , 255         , 0           , 0
-0.131858483, 0.158716664 , -9.792866   , 0.000315394136, 0.0003359597, -0.000373020972, -0.016347982, -0.0134978676, -0.000250636978, 921.2443    , 30.3656483  , 795.806946  , 2.43        , 3           , 255         , 0           , 0
-0.11930009 , 0.1599817   , -9.787951   , 5.41232876E-05, 0.000152298075, -0.000165578589, -0.01634742 , -0.013496371, -0.00025231755, 921.2443    , 30.3656483  , 795.8086    , 2.44        , 3           , 255         , 0           , 0
-0.132599846, 0.153084233 , -9.792969   , 0.000155344256, 0.000116501324, -0.000317972066, -0.0163458213, -0.0134952571, -0.000255516119, 921.2443    , 30.3656483  , 795.810242  , 2.45        , 3           , 255         , 0           , 0
-0.142756537, 0.1486831   , -9.781803   , 8.05312156E-05, -0.000302383938, -0.0002672734, -0.01634498 , -0.013498324, -0.000258139218, 921.2443    , 30.3656483  , 795.8119    , 2.46        , 3           , 255         , 0           , 0
-0.143752009, 0.1342194   , -9.780958   , -0.000203956355, -5.84242225E-05, 0.000372112525, -0.01634707 , -0.0134988474, -0.000254408835, 921.2443    , 30.3656483  , 795.813538  , 2.47        , 3           , 255         , 0           , 0
-0.135659218, 0.140925735 , -9.784457   , 0.000136111514, 0.00010276516, -0.000965625863, -0.0163455755, -0.0134979794, -0.000264081231, 921.2443    , 30.3656483  , 795.8152    , 2.48        , 3           , 255         , 0           , 0
-0.124695405, 0.14151445  , -9.78558    , 9.76487354E-05, 0.000252108322, -0.0008178967, -0.01634449 , -0.0134955924, -0.00027230088, 921.2443    , 30.3656483  , 795.816833  , 2.49        , 3           , 255         , 0           , 0
-0.124854848, 0.141526118 , -9.782402   , -0.0001978745, 3.49581533E-05, -0.0006953537, -0.0163463727, -0.0134953558, -0.000279259635, 921.2443    , 30.3656483  , 795.8185    , 2.5         , 3           , 255         , 0           , 0
-0.13465175 , 0.152979672 , -9.788393   , -0.000527762, -0.000322215143, 0.0006357761, -0.0163245015, -0.0134978453, -0.000273217185, 921.2443    , 30.3656483  , 795.824646  , 2.51        , 3           , 255         , 0           , 0
-0.140656009, 0.164287433 , -9.794115   , -0.000393349561, 0.000153333589, 0.000479649927, -0.0163285  , -0.0134962341, -0.000268446049, 921.2443    , 30.3656483  , 795.826355  , 2.52        , 3           , 255         , 0           , 0
-0.136614591, 0.164138317 , -9.78342152 , 0.000269638025, 0.000145754719, 0.000497067056, -0.0163258724, -0.0134946965, -0.000263499533, 921.2668    , 30.3666649  , 795.828064  , 2.53        , 3           , 255         , 0           , 0
-0.134748414, 0.171451837 , -9.786699   , -0.000198629132, 0.0003722224, -3.33700445E-05, -0.0163278542, -0.0134909814, -0.000263893948, 921.2668    , 30.3666649  , 795.8298    , 2.54        , 3           , 255         , 0           , 0
-0.139566079, 0.184884042 , -9.785749   , -0.0009268225, -5.24527859E-05, -0.000386599771, -0.01633707 , -0.01349157 , -0.000267751137, 921.2668    , 30.3666649  , 795.8315    , 2.55        , 3           , 255         , 0           , 0
-0.128565833, 0.177037865 , -9.788637   , -0.0005584672, -0.000156778435, -0.000334384647, -0.0163426064, -0.0134931924, -0.000271069119, 921.2668    , 30.3666649  , 795.8332    , 2.56        , 3           , 255         , 0           , 0
-0.122731924, 0.172978967 , -9.7829     , -0.0003670829, 0.000159654941, -0.0005182217, -0.0163462069, -0.013491679, -0.000276277075, 921.2668    , 30.3666649  , 795.8349    , 2.57        , 3           , 255         , 0           , 0
-0.124117836, 0.169530675 , -9.787715   , 0.0002833777, -2.30110018E-05, -0.000615704863, -0.0163432918, -0.0134920115, -0.000282429944, 921.2668    , 30.3666649  , 795.8366    , 2.58        , 3           , 255         , 0           , 0
-0.116197392, 0.156901464 , -9.789081   , -0.000214429427, -0.000391443959, -0.000172154192, -0.0163454134, -0.0134959519, -0.000284087379, 921.2668    , 30.3666649  , 795.8383    , 2.59        , 3           , 255         , 0           , 0
-0.1301308  , 0.152457461 , -9.79435    , 0.00010901432, 0.0002776704, -7.12613546E-05, -0.0163443144, -0.0134931868, -0.000284845359, 921.2668    , 30.3666649  , 795.84      , 2.6         , 3           , 255         , 0           , 0
-0.13434203 , 0.141932517 , -9.785313   , -0.000434442831, 0.000366893277, -0.000379197852, -0.0163653232, -0.0134864142, -0.0002884716, 921.2668    , 30.3666649  , 795.8123    , 2.61        , 3           , 255         , 0           , 0
-0.134674817, 0.125354245 , -9.794991   , 4.280312E-05, 0.000264863 , 1.13709921E-05, -0.0163648929, -0.0134837646, -0.0002884013, 921.2668    , 30.3666649  , 795.813843  , 2.62        , 3           , 255         , 0           , 0
-0.132845968, 0.135587588 , -9.790291   , 0.000346419634, 0.00019317391, 1.15655894E-05, -0.0163614284, -0.0134818349, -0.000288317271, 921.3039    , 30.3684978  , 795.815369  , 2.63        , 3           , 255         , 0           , 0
-0.129857451, 0.14100337  , -9.783487   , 0.000260733534, 0.000253117323, 0.000275808939, -0.0163588561, -0.013479257, -0.000285600778, 921.3039    , 30.3684978  , 795.8169    , 2.64        , 3           , 255         , 0           , 0
-0.129042238, 0.137959212 , -9.785092   , 8.34255043E-05, -0.000314639357, 0.000634524156, -0.01635811 , -0.0134822987, -0.000279204483, 921.3039    , 30.3684978  , 795.8184    , 2.65        , 3           , 255         , 0           , 0
-0.132184416, 0.151629731 , -9.790593   , 0.000156549431, 9.522599E-05, 0.0008449941, -0.0163566563, -0.0134812072, -0.000270770717, 921.3039    , 30.3684978  , 795.819946  , 2.66        , 3           , 255         , 0           , 0
-0.137767524, 0.16796267  , -9.79049    , -0.000201539966, -3.824453E-05, -0.000314773148, -0.0163586326, -0.0134816421, -0.000273911952, 921.3039    , 30.3684978  , 795.8215    , 2.67        , 3           , 255         , 0           , 0
-0.12757656 , 0.175453275 , -9.794774   , -9.68697059E-05, -0.0003669532, -0.000323931483, -0.0163595546, -0.0134853637, -0.000277091021, 921.3039    , 30.3684978  , 795.823     , 2.68        , 3           , 255         , 0           , 0
-0.1285346  , 0.176262632 , -9.791184   , -0.000211256091, -0.000269602, -0.0009596809, -0.0163615383, -0.0134882145, -0.000286643073, 921.3039    , 30.3684978  , 795.8245    , 2.69        , 3           , 255         , 0           , 0
-0.135601714, 0.174032241 , -9.785541   , 0.000383225968, 9.446082E-05, -0.0007861282, -0.0163576026, -0.0134874023, -0.0002945193, 921.3039    , 30.3684978  , 795.82605   , 2.7         , 3           , 255         , 0           , 0
-0.13169536 , 0.164111331 , -9.786091   , 0.000240600464, -3.61745479E-05, -0.0008188683, -0.01633855 , -0.013488451, -0.000302924454, 921.3039    , 30.3684978  , 795.74884   , 2.71        , 3           , 255         , 0           , 0
-0.129012987, 0.157045692 , -9.792523   , -0.0005089737, -2.84785347E-05, -0.000241228845, -0.0163436066, -0.0134887751, -0.000305331952, 921.3039    , 30.3684978  , 795.7499    , 2.72        , 3           , 255         , 0           , 0
-0.132097512, 0.1697536   , -9.782362   , -0.0008029501, -0.000405219529, -0.000471924985, -0.0163515713, -0.0134929065, -0.000309984636, 921.2829    , 30.36653    , 795.7509    , 2.73        , 3           , 255         , 0           , 0
-0.131234244, 0.183863357 , -9.791644   , -0.000235098414, 3.88545741E-05, -0.0008323392, -0.0163538065, -0.0134926522, -0.000318313832, 921.2829    , 30.36653    , 795.751953  , 2.74        , 3           , 255         , 0           , 0
-0.129554883, 0.181704015 , -9.789405   , -0.000461863645, 5.57504245E-06, -0.0001803524, -0.0163584  , -0.0134926261, -0.000320118124, 921.2829    , 30.36653    , 795.753     , 2.75        , 3           , 255         , 0           , 0
-0.12827161 , 0.17011033  , -9.791122   , -0.000328231225, -0.000325099478, -0.000816712563, -0.01636157 , -0.0134960078, -0.000328231516, 921.2829    , 30.36653    , 795.754     , 2.76        , 3           , 255         , 0           , 0
-0.1302698  , 0.162129432 , -9.788737   , -0.000322502863, 0.000184257908, -0.0005328911, -0.0163647253, -0.0134942532, -0.000333590258, 921.2829    , 30.36653    , 795.755066  , 2.77        , 3           , 255         , 0           , 0
-0.126809344, 0.161161169 , -9.79517651 , -0.0003835683, -0.000157492614, 0.0003329965, -0.0163686033, -0.013495774, -0.000330234674, 921.2829    , 30.36653    , 795.7561    , 2.78        , 3           , 255         , 0           , 0
-0.1200856  , 0.151289433 , -9.791405   , -0.00041523602, 0.000232826584, 0.000431132852, -0.0163728129, -0.0134933749, -0.000325961766, 921.2829    , 30.36653    , 795.757141  , 2.79        , 3           , 255         , 0           , 0
-0.134355426, 0.144248024 , -9.790343   , 0.000123846752, 0.000410640874, 0.000484553544, -0.0163716413, -0.01348919 , -0.000321183848, 921.2829    , 30.36653    , 795.7582    , 2.8         , 3           , 255         , 0           , 0
-0.132464528, 0.149884015 , -9.791414   , 0.000759408344, 9.005365E-06, -0.0001975051, -0.0163729209, -0.0134835113, -0.000323040236, 921.2829    , 30.36653    , 795.718445  , 2.81        , 3           , 255         , 0           , 0
-0.130703688, 0.143776938 , -9.794497   , 0.0001552021, -8.74675752E-05, 0.00025633222, -0.0163714029, -0.0134843439, -0.0003204628, 921.2829    , 30.36653    , 795.719238  , 2.82        , 3           , 255         , 0           , 0
-0.131593376, 0.138443917 , -9.78687    , 0.000291320845, -0.000222862931, 0.000418284355, -0.0163685456, -0.0134865027, -0.000316243764, 921.2532    , 30.3672771  , 795.720032  , 2.83        , 3           , 255         , 0           , 0
-0.138472527, 0.136692435 , -9.78784    , -0.000463811622, -0.000230001577, -5.28760938E-05, -0.0163731761, -0.0134888114, -0.000316734833, 921.2532    , 30.3672771  , 795.7208    , 2.84        , 3           , 255         , 0           , 0
-0.121887051, 0.145656541 , -9.791746   , -1.274384E-06, -0.000513220963, -0.000414333161, -0.0163731351, -0.0134940119, -0.0003207938, 921.2532    , 30.3672771  , 795.7216    , 2.85        , 3           , 255         , 0           , 0
-0.121199347, 0.161111042 , -9.804148   , -8.26299147E-05, -0.000230840815, -0.0009521794, -0.0163738355, -0.0134964744, -0.000330277137, 921.2532    , 30.3672771  , 795.7224    , 2.86        , 3           , 255         , 0           , 0
-0.130108029, 0.165032908 , -9.790479   , -6.711346E-05, 4.99187154E-05, -0.000559629, -0.01637443 , -0.0134960664, -0.000335881225, 921.2532    , 30.3672771  , 795.7232    , 2.87        , 3           , 255         , 0           , 0
-0.124272607, 0.165522367 , -9.790863   , 0.000473240449, -0.000169255829, -0.000316791, -0.0163696576, -0.0134978108, -0.000339021237, 921.2532    , 30.3672771  , 795.724     , 2.88        , 3           , 255         , 0           , 0
-0.124599531, 0.17125684  , -9.786763   , -8.525398E-05, 1.3710116E-05, 0.000394290779, -0.0163705628, -0.0134976087, -0.000335080869, 921.2532    , 30.3672771  , 795.7248    , 2.89        , 3           , 255         , 0           , 0
-0.138722748, 0.172873333 , -9.792578   , -0.000233689847, -5.750105E-05, -0.0002737615, -0.0163728632, -0.013498228, -0.000337808859, 921.2532    , 30.3672771  , 795.7256    , 2.9         , 3           , 255         , 0           , 0
-0.13515906 , 0.171506092 , -9.794911   , 2.79558881E-05, 0.000235538115, 0.000375016331, -0.0163633842, -0.0134910513, -0.0003342223, 921.2532    , 30.3672771  , 795.7319    , 2.91        , 3           , 255         , 0           , 0
-0.1289556  , 0.173060745 , -9.789089   , 0.000311276875, -5.144457E-05, -0.000504494761, -0.0163602028, -0.0134916482, -0.000339258462, 921.2532    , 30.3672771  , 795.7327    , 2.92        , 3           , 255         , 0           , 0
-0.133330733, 0.170703024 , -9.79233551 , -7.496412E-06, -0.000198574417, -0.000506602, -0.01636021 , -0.0134937186, -0.00034429162, 921.268738  , 30.3672771  , 795.7336    , 2.93        , 3           , 255         , 0           , 0
-0.12361522 , 0.1676327   , -9.795264   , -0.000424826285, -0.0001005753, -0.0008890417, -0.0163643379, -0.0134948716, -0.000353164942, 921.268738  , 30.3672771  , 795.734436  , 2.94        , 3           , 255         , 0           , 0
-0.128110632, 0.160589248 , -9.780273   , -0.0006982231, -0.0001401823, -0.0005696244, -0.01637124 , -0.0134963645, -0.000358837919, 921.268738  , 30.3672771  , 795.7353    , 2.95        , 3           , 255         , 0           , 0
-0.135876089, 0.146733359 , -9.788477   , -0.00018036172, 0.00044812815, 0.000239556146, -0.0163730737, -0.0134918457, -0.00035651584, 921.268738  , 30.3672771  , 795.736145  , 2.96        , 3           , 255         , 0           , 0
-0.135085613, 0.144626051 , -9.784879   , -0.0002064633, -0.0003207027, -0.00026170176, -0.016375104, -0.0134950923, -0.00035908015, 921.268738  , 30.3672771  , 795.737     , 2.97        , 3           , 255         , 0           , 0
-0.139001265, 0.141100079 , -9.797956   , -0.0001912028, -0.000218868576, -0.000242899478, -0.0163769815, -0.0134973209, -0.0003614732, 921.268738  , 30.3672771  , 795.737854  , 2.98        , 3           , 255         , 0           , 0
-0.130534485, 0.144688487 , -9.786042   , 0.000458782248, 0.000111769332, 0.000280163862, -0.0163724348, -0.0134961568, -0.00035869 , 921.268738  , 30.3672771  , 795.7387    , 2.99        , 3           , 255         , 0           , 0
-0.125861347, 0.136290431 , -9.776892   , 4.63283359E-05, -0.000242183829, 0.000108175314, -0.0163719822, -0.0134985605, -0.0003575687, 921.268738  , 30.3672771  , 795.739563  , 3           , 3           , 0           , 8.034237    , 300
-0.121276721, 0.140199631 , -9.786409   , -0.000477324182, -0.000161849137, 0.000152734327, -0.0163667314, -0.01349888 , -0.000356150558, 921.268738  , 30.3672771  , 795.7219    , 3.01        , 3           , 1           , 0           , 0
-0.124997377, 0.147641942 , -9.808959   , -0.000243874209, -0.000361604034, 0.0002442576, -0.0163692012, -0.0135024544, -0.000353648968, 921.268738  , 30.3672771  , 795.722656  , 3.02        , 3           , 2           , 0           , 0
-0.136205733, 0.1526374   , -9.785453   , 0.000130227272, -0.000400476565, -0.000208261758, -0.01636787 , -0.0135064917, -0.000355665921, 921.2945    , 30.3682938  , 795.7234    , 3.03        , 3           , 3           , 0           , 0
-0.13285771 , 0.154141039 , -9.791832   , 5.13460836E-05, -0.000392428658, 0.0001830065, -0.0163673814, -0.0135103846, -0.000353771728, 921.2945    , 30.3682938  , 795.7241    , 3.04        , 3           , 4           , 0           , 0
-0.138718545, 0.1566143   , -9.786163   , -5.17541121E-05, -0.000220594055, 0.00101948017, -0.0163680352, -0.0135124233, -0.000343541527, 921.2945    , 30.3682938  , 795.724854  , 3.05        , 3           , 5           , 0           , 0
-0.133967414, 0.1626797   , -9.79562    , -0.000226411561, -0.000130487548, 0.0007000105, -0.0163703915, -0.0135136126, -0.000336520578, 921.2945    , 30.3682938  , 795.7256    , 3.06        , 3           , 6           , 0           , 0
-0.125086576, 0.167899162 , -9.781343   , 0.000426396058, -0.000671905465, 5.822766E-05, -0.0163661391, -0.0135203209, -0.000335828343, 921.2945    , 30.3682938  , 795.7263    , 3.07        , 3           , 7           , 0           , 0
-0.129029736, 0.168787    , -9.789748   , 0.000308765826, -0.0005067783, 0.000250561425, -0.0163630862, -0.0135253472, -0.00033324 , 921.2945    , 30.3682938  , 795.727051  , 3.08        , 3           , 8           , 5           , 5
-0.1359287  , 0.1701395   , -9.790677   , -0.000125785125, -3.754566E-05, 0.0005717285, -0.0163644217, -0.0135256294, -0.000327516929, 921.2945    , 30.3682938  , 795.7278    , 3.09        , 3           , 9           , 5           , 0.1
-0.12821    , 0.176255509 , -9.787691   , 0.00020040173, 0.000213890831, -0.000194386143, -0.0163623914, -0.0135235228, -0.00032949567, 921.2945    , 30.3682938  , 795.7285    , 3.1         , 3           , 10          , 0.1         , 0.1
-0.124377847, 0.1693656   , -9.780115   , 0.000265296141, 4.321529E-05, -0.000579911051, -0.0163586233, -0.0135200806, -0.000335315475, 921.2945    , 30.3682938  , 795.6758    , 3.11        , 3           , 11          , 0.006784525 , 0.00678452337
-0.13153486 , 0.168966815 , -9.787994   , 0.00045831  , -0.0001848726, 0.000240109963, -0.016354071, -0.0135218883, -0.0003328843, 921.2945    , 30.3682938  , 795.6762    , 3.12        , 3           , 12          , 0.174645633 , 0
-0.129330873, 0.1603012   , -9.785195   , -0.000177431386, -6.099959E-05, 0.000106807573, -0.0163558628, -0.0135224825, -0.0003318063, 921.321655  , 30.3670731  , 795.676636  , 3.13        , 3           , 13          , 0           , 0
-0.126219973, 0.1551303   , -9.790899   , -0.000394730247, 0.0002925525, 0.000400121353, -0.0163598619, -0.013519492, -0.0003278532, 921.321655  , 30.3670731  , 795.677063  , 3.14        , 3           , 14          , 0.000127202409, -0.000392972375
-0.1303154  , 0.1618022   , -9.79221249 , 0.0001041862, -0.000242282578, -2.48180677E-05, -0.016358817, -0.0135219172, -0.000328061724, 921.321655  , 30.3670731  , 795.6775    , 3.15        , 3           , 15          , 0           , 1.19534179E-05
-0.133814543, 0.153425708 , -9.788004   , -0.00011821802, 0.000117739255, -0.000595240854, -0.0163599215, -0.0135208378, -0.000334033015, 921.321655  , 30.3670731  , 795.6779    , 3.16        , 3           , 16          , 0           , 1.401298E-45
-0.127021968, 0.150136322 , -9.785334   , -0.000120809986, -0.0002454333, 0.000402323465, -0.0163611844, -0.0135232266, -0.0003299699, 921.321655  , 30.3670731  , 795.678345  , 3.17        , 3           , 20          , 0           , 0
-0.140998408, 0.148818851 , -9.792437   , 0.0001408342, -0.000142083329, -0.0003755487, -0.0163597241, -0.0135247083, -0.0003337019, 921.321655  , 30.3670731  , 795.6788    , 3.18        , 3           , 21          , 0           , 0
-0.142602116, 0.156423837 , -9.785671   , -0.000631197356, -0.0002533344, -0.000816907443, -0.016365923, -0.0135273729, -0.000341828971, 921.321655  , 30.3670731  , 795.6792    , 3.19        , 3           , 22          , 0           , 0
-0.125053748, 0.15539822  , -9.785271   , 8.596717E-05, -0.000145193189, -0.000479140377, -0.0163650028, -0.013528903, -0.0003465963, 921.321655  , 30.3670731  , 795.6796    , 3.2         , 3           , 40          , 0           , 0
-0.132615775, 0.152675733 , -9.784441   , -0.000110765541, 0.000353208161, -0.000395962474, -0.0163608585, -0.0135224564, -0.000350683724, 921.321655  , 30.3670731  , 795.595337  , 3.21        , 3           , 41          , 0           , 0
-0.135332182, 0.1575967   , -9.792153   , -0.000771408, 3.717348E-05, -0.000482736941, -0.0163685046, -0.0135221658, -0.000355516881, 921.321655  , 30.3670731  , 795.5952    , 3.22        , 3           , 42          , 0           , 0
-0.1315408  , 0.169733793 , -9.790278   , 0.00022018973, 0.000179890325, -0.000286372553, -0.0163662639, -0.0135204149, -0.0003584098, 921.2737    , 30.369854   , 795.5951    , 3.23        , 3           , 255         , 0           , 0
-0.1302931  , 0.164676428 , -9.797744   , -4.419499E-05, 4.297617E-06, -0.0006164932, -0.0163666215, -0.0135204718, -0.00036457504, 921.2737    , 30.369854   , 795.595     , 3.24        , 3           , 255         , 0           , 0
-0.130765557, 0.17516467  , -9.79153252 , 8.722747E-05, 5.17870358E-05, -0.000181506155, -0.0163657255, -0.0135199837, -0.000366398483, 921.2737    , 30.369854   , 795.594849  , 3.25        , 3           , 255         , 0           , 0
-0.122834265, 0.163956836 , -9.788269   , -0.000436994364, 0.000365031126, -0.000527937431, -0.0163700245, -0.0135164205, -0.000371737231, 921.2737    , 30.369854   , 795.5947    , 3.26        , 3           , 255         , 0           , 0
-0.121988691, 0.161348492 , -9.785025   , 0.000357168959, 0.000203812422, 1.80029529E-05, -0.0163664557, -0.013514379, -0.000371590577, 921.2737    , 30.369854   , 795.5946    , 3.27        , 3           , 255         , 0           , 0
-0.12155427 , 0.161337778 , -9.797289   , -0.000329793722, 0.00032408582, 0.0002981816, -0.0163697936, -0.0135110887, -0.000368662033, 921.2737    , 30.369854   , 795.5945    , 3.28        , 3           , 255         , 0           , 0
-0.131199151, 0.164355636 , -9.795866   , -0.0009921524, 0.00022339735, -0.000193650412, -0.01637969 , -0.013508887, -0.000370634982, 921.2737    , 30.369854   , 795.59436   , 3.29        , 3           , 255         , 0           , 0
-0.128807008, 0.162839144 , -9.798439   , -0.000210300175, -0.000118340424, 0.000556532643, -0.0163818672, -0.0135099795, -0.000365050626, 921.2737    , 30.369854   , 795.594238  , 3.3         , 3           , 255         , 0           , 0
-0.126976624, 0.155050591 , -9.788705   , 0.0001908035, -0.000242610258, -0.0003739254, -0.016384732, -0.0135066677, -0.0003686848, 921.2737    , 30.369854   , 795.589844  , 3.31        , 3           , 255         , 0           , 0
-0.13429065 , 0.16053544  , -9.783862   , 0.0004055233, -0.000223486713, -0.000212523664, -0.0163806472, -0.0135089364, -0.000370773254, 921.2737    , 30.369854   , 795.5897    , 3.32        , 3           , 255         , 0           , 0
-0.135725662, 0.156635433 , -9.786059   , 0.0005442687, -7.697646E-05, -0.000114767245, -0.0163751878, -0.0135097243, -0.000371908274, 921.2756    , 30.3674126  , 795.5896    , 3.33        , 3           , 255         , 0           , 0
-0.138639569, 0.153024346 , -9.784908   , 0.000686740445, 0.00036051363, 0.0005934007, -0.0163684022, -0.0135060241, -0.000366033724, 921.2756    , 30.3674126  , 795.5895    , 3.34        , 3           , 255         , 0           , 0
-0.143548712, 0.148225158 , -9.794065   , 0.0003923318, 0.0003902291, -0.000192700812, -0.0163644534, -0.0135021545, -0.000368024455, 921.2756    , 30.3674126  , 795.589355  , 3.35        , 3           , 255         , 0           , 0
-0.135819346, 0.1515635   , -9.78724    , -0.000312126, 0.0002600582, -0.000385272549, -0.0163675211, -0.0134996166, -0.00037191945, 921.2756    , 30.3674126  , 795.589233  , 3.36        , 3           , 255         , 0           , 0
-0.132974356, 0.147960588 , -9.78744    , -0.0007023725, 0.0004956973, 0.000226700518, -0.016374575, -0.0134946238, -0.000369733752, 921.2756    , 30.3674126  , 795.5891    , 3.37        , 3           , 255         , 0           , 0
-0.13210851 , 0.1476548   , -9.783114   , -0.000168817729, 0.000268395816, -0.000370198453, -0.0163762141, -0.0134920012, -0.000373479415, 921.2756    , 30.3674126  , 795.589     , 3.38        , 3           , 255         , 0           , 0
-0.135703683, 0.157763362 , -9.792021   , 0.000163491364, -0.00043239558, -0.0005339114, -0.01637451 , -0.013496411, -0.0003787474, 921.2756    , 30.3674126  , 795.588867  , 3.39        , 3           , 255         , 0           , 0
-0.139013261, 0.16086407  , -9.791858   , 0.000588161463, 0.0001936245, -0.0003505956, -0.016368581, -0.0134945326, -0.000382284779, 921.2756    , 30.3674126  , 795.588745  , 3.4         , 3           , 255         , 0           , 0
-0.140730977, 0.166517556 , -9.793979   , -0.0001593285, 0.000320750929, -0.000122464262, -0.01635641 , -0.0134985382, -0.0003837474, 921.2756    , 30.3674126  , 795.5822    , 3.41        , 3           , 255         , 0           , 0
-0.140740842, 0.149267316 , -9.793439   , 0.000208571815, -5.44231443E-05, 0.000393911876, -0.0163543765, -0.0134990178, -0.000379799661, 921.2756    , 30.3674126  , 795.582031  , 3.42        , 3           , 255         , 0           , 0
-0.138370082, 0.16091077  , -9.787326   , -0.000195761269, 0.000211329709, 0.000780471542, -0.01635644 , -0.013496777, -0.000372030045, 921.208069  , 30.3689728  , 795.581848  , 3.43        , 3           , 255         , 0           , 0
-0.141538218, 0.153501287 , -9.791923   , -0.000213564665, -0.000153668021, 0.0003948843, -0.0163586289, -0.0134982485, -0.000368056353, 921.208069  , 30.3689728  , 795.581665  , 3.44        , 3           , 255         , 0           , 0
-0.145429164, 0.143939137 , -9.780989   , -0.000107660308, 1.59071351E-05, -0.000188347738, -0.0163596775, -0.0134981209, -0.000369942281, 921.208069  , 30.3689728  , 795.5815    , 3.45        , 3           , 255         , 0           , 0
-0.12620005 , 0.145878643 , -9.784433   , 0.000447231927, -0.000233173516, -8.207649E-06, -0.0163552053, -0.013500453, -0.000369986257, 921.208069  , 30.3689728  , 795.5813    , 3.46        , 3           , 255         , 0           , 0
-0.118876144, 0.1646809   , -9.803644   , 0.000318656152, 0.000245997682, 0.000100060512, -0.0163520314, -0.0134979775, -0.000369025947, 921.208069  , 30.3689728  , 795.5812    , 3.47        , 3           , 255         , 0           , 0
-0.138602808, 0.159339532 , -9.79151    , 0.0003232039, 0.000267547322, -0.000423446181, -0.0163487438, -0.0134953754, -0.000373303861, 921.208069  , 30.3689728  , 795.581055  , 3.48        , 3           , 255         , 0           , 0
-0.144252986, 0.167846367 , -9.782298   , -0.0002301796, 0.0004170424, -0.00025699634, -0.0163510125, -0.013491245, -0.000375941832, 921.208069  , 30.3689728  , 795.580933  , 3.49        , 3           , 255         , 0           , 0
-0.151549071, 0.163513511 , -9.802004   , -0.000205936769, 1.3088109E-05, -4.06726722E-05, -0.0163530633, -0.01349112 , -0.000376350683, 921.208069  , 30.3689728  , 795.5808    , 3.5         , 3           , 255         , 0           , 0
-0.140131459, 0.149589792 , -9.787475   , -0.000381200342, 5.3665688E-05, -0.000155224945, -0.016352592, -0.0135009689, -0.0003779692, 921.208069  , 30.3689728  , 795.6715    , 3.51        , 3           , 255         , 0           , 0
-0.117696188, 0.164711446 , -9.800023   , -0.000403131125, 0.000122007565, -0.000222489936, -0.016356593, -0.0134997861, -0.000380213925, 921.208069  , 30.3689728  , 795.671936  , 3.52        , 3           , 255         , 0           , 0
-0.124869034, 0.1653983   , -9.776481   , -0.000392788032, -0.000448054, 3.58807119E-05, -0.016360525, -0.0135042593, -0.0003797818, 921.302063  , 30.370533   , 795.672363  , 3.53        , 3           , 255         , 0           , 0
-0.133790761, 0.156226918 , -9.785415   , 0.000456058828, 0.0005251175, -0.0007893856, -0.0163558554, -0.01349914 , -0.000387761072, 921.302063  , 30.370533   , 795.6728    , 3.54        , 3           , 255         , 0           , 0
-0.115558326, 0.1568748   , -9.793747   , 2.05778051E-05, -0.0001009815, -0.0001323658, -0.0163556337, -0.0135001689, -0.0003890681, 921.302063  , 30.370533   , 795.6732    , 3.55        , 3           , 255         , 0           , 0
-0.116433285, 0.173470125 , -9.78388    , -1.32250425E-05, -0.0003557171, 0.000149725631, -0.0163557846, -0.0135037014, -0.0003875128, 921.302063  , 30.370533   , 795.673645  , 3.56        , 3           , 255         , 0           , 0
-0.138641447, 0.175842851 , -9.78172    , 1.55653834E-05, 0.000227115961, -0.0006573771, -0.0163555387, -0.013501538, -0.000394123228, 921.302063  , 30.370533   , 795.6741    , 3.57        , 3           , 255         , 0           , 0
-0.159500033, 0.158363134 , -9.778434   , 0.000230029415, 0.000235878833, -0.000365981919, -0.01635319 , -0.0134992395, -0.0003978214, 921.302063  , 30.370533   , 795.6745    , 3.58        , 3           , 255         , 0           , 0
-0.150403231, 0.141860515 , -9.793375   , -2.20119327E-05, 7.64105062E-05, -0.0004536687, -0.01635335 , -0.0134985493, -0.000402370235, 921.302063  , 30.370533   , 795.6749    , 3.59        , 3           , 255         , 0           , 0
-0.132548422, 0.129679114 , -9.791251   , -0.000151260421, -0.0003959922, -0.0005792153, -0.0163547844, -0.0135026034, -0.000408097258, 921.302063  , 30.370533   , 795.675354  , 3.6         , 3           , 255         , 0           , 0
-0.100508168, 0.142719433 , -9.791101   , -0.0006304162, 0.0003017087, 1.44802943E-05, -0.0163544882, -0.0135014281, -0.0004080909, 921.302063  , 30.370533   , 795.618958  , 3.61        , 3           , 255         , 0           , 0
-0.128485322, 0.165749088 , -9.803152   , -0.000482192467, 0.0006305453, -5.04243944E-05, -0.0163593013, -0.0134951323, -0.000408698252, 921.302063  , 30.370533   , 795.619     , 3.62        , 3           , 255         , 0           , 0
-0.135223255, 0.178518146 , -9.797109   , 0.00023204941, 9.115707E-05, -7.740248E-05, -0.016356973, -0.0134942336, -0.000409487169, 921.2691    , 30.3695831  , 795.6191    , 3.63        , 3           , 255         , 0           , 0
-0.106745377, 0.197423637 , -9.785788   , -4.61451564E-05, -0.000575557933, -0.000163703517, -0.0163574144, -0.0135000162, -0.000411029876, 921.2691    , 30.3695831  , 795.619141  , 3.64        , 3           , 255         , 0           , 0
-0.142821148, 0.178493828 , -9.780217   , 0.0001800915, -0.000283563335, -0.000269714626, -0.0163555741, -0.0135028949, -0.000413680449, 921.2691    , 30.3695831  , 795.6192    , 3.65        , 3           , 255         , 0           , 0
-0.186301738, 0.164189652 , -9.776626   , -0.000511751045, -0.000126828672, -0.000288739015, -0.0163606517, -0.0135042109, -0.000416546944, 921.2691    , 30.3695831  , 795.619263  , 3.66        , 3           , 255         , 0           , 0
-0.153557882, 0.175343469 , -9.815557   , -0.0002708537, 0.000176594738, -0.000165790989, -0.0163633376, -0.013502473, -0.000418233627, 921.2691    , 30.3695831  , 795.6194    , 3.67        , 3           , 255         , 0           , 0
-0.104803011, 0.148436636 , -9.798063   , 0.0003221443, -0.0005894623, 0.000583679939, -0.0163601972, -0.0135082714, -0.0004123008, 921.2691    , 30.3695831  , 795.6195    , 3.68        , 3           , 255         , 0           , 0
-0.08648263 , 0.133549839 , -9.773466   , 0.000367356435, 0.000116016075, 0.0004969332, -0.016356593, -0.0135070309, -0.000407350744, 921.2691    , 30.3695831  , 795.6196    , 3.69        , 3           , 255         , 0           , 0
-0.111468777, 0.157886878 , -9.778425   , -0.0002441659, 0.000198073321, -0.000758422, -0.0163589325, -0.0135051738, -0.000414966838, 921.2691    , 30.3695831  , 795.619751  , 3.7         , 3           , 255         , 0           , 0
-0.161374062, 0.149846062 , -9.786083   , -0.0007511129, -0.000115732139, -0.0006497745, -0.0163733754, -0.0134951565, -0.000421350385, 921.2691    , 30.3695831  , 795.618469  , 3.71        , 3           , 255         , 0           , 0
-0.167431563, 0.152132332 , -9.814938   , -0.00056324224, 0.000356978766, -0.000328704773, -0.0163789634, -0.0134916408, -0.000424695667, 921.2691    , 30.3695831  , 795.6185    , 3.72        , 3           , 255         , 0           , 0
-0.147733614, 0.1492801   , -9.802469   , -2.51800666E-05, 0.0006387309, -0.00042628363, -0.0163791589, -0.0134853255, -0.000429062871, 921.3086    , 30.37094    , 795.618652  , 3.73        , 3           , 255         , 0           , 0
-0.126888677, 0.141607791 , -9.777993   , -9.706489E-05, 0.0002622567, -0.0006039354, -0.0163800456, -0.0134828016, -0.000435144728, 921.3086    , 30.37094    , 795.6188    , 3.74        , 3           , 255         , 0           , 0
-0.10775061 , 0.164021358 , -9.777121   , 0.000300630461, -1.00327306E-05, -0.00106310623, -0.0163768958, -0.0134830782, -0.000445773359, 921.3086    , 30.37094    , 795.6189    , 3.75        , 3           , 255         , 0           , 0
-0.115875736, 0.16562973  , -9.785274   , -0.0001411232, -6.2269246E-05, -0.000445447426, -0.0163782462, -0.0134837739, -0.000450217369, 921.3086    , 30.37094    , 795.619     , 3.76        , 3           , 255         , 0           , 0
-0.122721039, 0.148722008 , -9.78269    , -0.000705825048, 0.000141583121, 0.00013624203, -0.0163853224, -0.013482335, -0.000448878243, 921.3086    , 30.37094    , 795.619141  , 3.77        , 3           , 255         , 0           , 0
-0.127825111, 0.170853645 , -9.790844   , 0.000142120989, -0.000357092358, 0.000281898247, -0.0163839385, -0.0134858582, -0.000446000951, 921.3086    , 30.37094    , 795.619263  , 3.78        , 3           , 255         , 0           , 0
-0.142787591, 0.183731526 , -9.795833   , -3.068197E-05, -0.0004902306, -0.000749828352, -0.0163841471, -0.0134908818, -0.000453418354, 921.3086    , 30.37094    , 795.6194    , 3.79        , 3           , 255         , 0           , 0
-0.15108633 , 0.183155268 , -9.799399   , 1.61742646E-05, 0.000275213562, -0.000168369908, -0.0163839627, -0.0134881577, -0.000455147063, 921.3086    , 30.37094    , 795.6195    , 3.8         , 3           , 255         , 0           , 0
-0.138105273, 0.167856187 , -9.78426552 , 0.0003372078, 0.000187580648, -0.000248433935, -0.0163813476, -0.0134940492, -0.000457651273, 921.3086    , 30.37094    , 795.561951  , 3.81        , 3           , 255         , 0           , 0
-0.119709812, 0.1519738   , -9.789658   , -0.0004629551, 0.000159766176, 5.16628243E-05, -0.0163859855, -0.0134924445, -0.0004571608, 921.3086    , 30.37094    , 795.5617    , 3.82        , 3           , 255         , 0           , 0
-0.117145263, 0.161383554 , -9.773201   , -0.000296419079, -7.079981E-05, -0.000555375067, -0.01638887 , -0.0134932436, -0.000462702621, 921.2594    , 30.370533   , 795.561462  , 3.83        , 3           , 255         , 0           , 0
-0.117753647, 0.14507325  , -9.804115   , 0.00013886606, -0.000303478824, 0.000168338491, -0.0163875055, -0.013496249, -0.000460969575, 921.2594    , 30.370533   , 795.5612    , 3.84        , 3           , 255         , 0           , 0
-0.140255317, 0.135760337 , -9.787336   , 0.000217254783, -0.000246856449, -0.000874055957, -0.0163852144, -0.01349886 , -0.000469669118, 921.2594    , 30.370533   , 795.561     , 3.85        , 3           , 255         , 0           , 0
-0.157166868, 0.137265459 , -9.785693   , 0.000300807355, 0.000104453473, -0.000263684778, -0.01638217 , -0.0134978592, -0.000472322863, 921.2594    , 30.370533   , 795.5607    , 3.86        , 3           , 255         , 0           , 0
-0.1577614  , 0.148338675 , -9.783661   , 0.000131665976, 0.000163113975, -2.92156183E-05, -0.01638085 , -0.0134962322, -0.000472641754, 921.2594    , 30.370533   , 795.5605    , 3.87        , 3           , 255         , 0           , 0
-0.147182912, 0.15758121  , -9.781254   , 0.0002602373, 0.000215576511, -0.000261795649, -0.0163782146, -0.01349412 , -0.0004752949, 921.2594    , 30.370533   , 795.560242  , 3.88        , 3           , 255         , 0           , 0
-0.117915012, 0.158897057 , -9.78426    , 0.0004040714, 6.939107E-05, -0.000303646346, -0.0163741317, -0.0134934792, -0.000478342467, 921.2594    , 30.370533   , 795.56      , 3.89        , 3           , 255         , 0           , 0
-0.104725644, 0.1607024   , -9.779661   , 0.000474396918, -0.00012075025, 0.0005382067, -0.01636946 , -0.0134945977, -0.000472941, 921.2594    , 30.370533   , 795.559753  , 3.9         , 3           , 255         , 0           , 0
-0.114672564, 0.163235709 , -9.795259   , 6.850538E-05, -0.000235965243, 0.0003898208, -0.01634707 , -0.0134959724, -0.00046929816, 921.2594    , 30.370533   , 795.580444  , 3.91        , 3           , 255         , 0           , 0
-0.134714335, 0.1792026   , -9.78661    , 0.000208436482, -0.000324725348, -2.55876075E-05, -0.0163449831, -0.0134992246, -0.0004695009, 921.2594    , 30.370533   , 795.5803    , 3.92        , 3           , 255         , 0           , 0
-0.144595027, 0.175934985 , -9.78391552 , 0.000381706748, -6.823006E-05, 4.762264E-05, -0.0163411722, -0.0134998979, -0.0004690136, 921.278259  , 30.3739243  , 795.5802    , 3.93        , 3           , 255         , 0           , 0
-0.144712776, 0.168985978 , -9.802697   , 0.000498828 , -2.239659E-05, -0.0007717126, -0.0163360815, -0.0135002481, -0.000476726535, 921.278259  , 30.3739243  , 795.5801    , 3.94        , 3           , 255         , 0           , 0
-0.146658689, 0.167107671 , -9.785602   , 0.000124430488, 0.000199459013, -0.0008671622, -0.01633472 , -0.0134983948, -0.000485430151, 921.278259  , 30.3739243  , 795.579956  , 3.95        , 3           , 255         , 0           , 0
-0.13009347 , 0.167268634 , -9.784193   , -0.000895730569, 0.000300295826, -0.0004607297, -0.0163436159, -0.0134954695, -0.000490086153, 921.278259  , 30.3739243  , 795.579834  , 3.96        , 3           , 255         , 0           , 0
-0.107532918, 0.166102037 , -9.793988   , -0.000256632047, 5.021575E-07, -0.000196397159, -0.0163461566, -0.0134954965, -0.0004920501, 921.278259  , 30.3739243  , 795.5797    , 3.97        , 3           , 255         , 0           , 0
-0.09237339 , 0.173241943 , -9.788531   , -0.000261982845, 7.099303E-05, 2.61890254E-05, -0.01634878 , -0.0134947812, -0.000491799845, 921.278259  , 30.3739243  , 795.5796    , 3.98        , 3           , 255         , 0           , 0
-0.104741611, 0.194551289 , -9.780261   , -0.00029290063, -0.000567319745, 0.000909963041, -0.0163518284, -0.013500303, -0.00048260804, 921.278259  , 30.3739243  , 795.579468  , 3.99        , 3           , 255         , 0           , 0
-0.143825322, 0.192744538 , -9.777919   , -0.0003192376, -0.00072767 , 0.000442563643, -0.0163550824, -0.0135075068, -0.000478063681, 921.278259  , 30.3739243  , 795.579346  , 4           , 3           , 0           , 9.034237    , 400
-0.173855722, 0.1844369   , -9.791349   , 0.000162391269, -0.0005699076, -0.0005498302, -0.0163821727, -0.0135021834, -0.000483079668, 921.278259  , 30.3739243  , 795.5706    , 4.01        , 3           , 1           , 0           , 0
-0.159483954, 0.1696757   , -9.792551   , -0.00017694023, -0.000308257149, 0.000233685583, -0.0163839739, -0.0135052269, -0.000480692455, 921.278259  , 30.3739243  , 795.570435  , 4.02        , 3           , 2           , 0           , 0
-0.1281041  , 0.14214918  , -9.788357   , -0.000208256854, 0.000141878641, -0.000452238164, -0.0163859967, -0.013503883, -0.000485237775, 921.222351  , 30.3708725  , 795.570251  , 4.03        , 3           , 3           , 0           , 0
-0.102196142, 0.146468133 , -9.789026   , 5.85867529E-05, -0.000316264428, -0.000679517165, -0.0163853187, -0.0135071557, -0.0004919807, 921.222351  , 30.3708725  , 795.570068  , 4.04        , 3           , 4           , 0           , 0
-0.119024716, 0.135867387 , -9.793521   , -0.0007796047, -0.000183111144, -0.0002902417, -0.0163930748, -0.0135090332, -0.000494852837, 921.222351  , 30.3708725  , 795.569946  , 4.05        , 3           , 5           , 0           , 0
-0.147108763, 0.126289263 , -9.794287   , -0.000655916869, -0.000326762354, -0.000169859341, -0.0163996089, -0.0135123273, -0.0004964977, 921.222351  , 30.3708725  , 795.5698    , 4.06        , 3           , 6           , 0           , 0
-0.155039117, 0.15148744  , -9.794756   , 0.000112954251, -0.0004456136, 0.000133707435, -0.0163984988, -0.01351676 , -0.000495087646, 921.222351  , 30.3708725  , 795.5697    , 4.07        , 3           , 7           , 0           , 0
-0.147675157, 0.153646827 , -9.793097   , 0.000468555838, -0.000226807868, 0.000787593832, -0.0163939241, -0.0135189  , -0.00048717513, 921.222351  , 30.3708725  , 795.5696    , 4.08        , 3           , 8           , 5           , 5
-0.142487317, 0.15616098  , -9.7843895  , -0.0003237452, 0.000158566734, -0.000139391967, -0.01639714 , -0.0135173369, -0.0004885949, 921.222351  , 30.3708725  , 795.569458  , 4.09        , 3           , 9           , 5           , 0.1
-0.143333524, 0.145914719 , -9.782588   , 0.000203535645, 0.000491696061, -0.000310702948, -0.0163950641, -0.0135124717, -0.0004917823, 921.222351  , 30.3708725  , 795.569336  , 4.1         , 3           , 10          , 0.1         , 0.1
-0.141388565, 0.121210232 , -9.789612   , 0.0004091902, 0.0004598566, -0.000544609, -0.0163766053, -0.0135226985, -0.0004974967, 921.222351  , 30.3708725  , 795.6417    , 4.11        , 3           , 11          , 0.006194042 , 0.00619403971
-0.13363494 , 0.129056185 , -9.787236   , 3.308321E-05, -9.590227E-05, 0.000622451 , -0.01637636 , -0.0135235535, -0.0004912568, 921.222351  , 30.3708725  , 795.642     , 4.12        , 3           , 12          , 0.174648076 , 0
-0.126887619, 0.145246118 , -9.78447    , -0.0006772621, -0.000246568728, 0.00041932895, -0.016383186, -0.01352595 , -0.000487023441, 921.2536    , 30.3743324  , 795.642334  , 4.13        , 3           , 13          , 0           , 0
-0.140543148, 0.150780916 , -9.788382   , -0.000136788629, -0.000251806021, 0.000520622241, -0.0163846239, -0.0135283824, -0.000481776369, 921.2536    , 30.3743324  , 795.642639  , 4.14        , 3           , 14          , 0.000127039631, -0.000392894464
-0.142794281, 0.161777675 , -9.79482    , 0.0002125271, 0.000200214228, 0.000121806021, -0.0163825136, -0.0135263614, -0.000480591174, 921.2536    , 30.3743324  , 795.642944  , 4.15        , 3           , 15          , 0           , 1.19568876E-05
-0.13673012 , 0.164866284 , -9.78492451 , -0.000178926857, -5.957618E-05, -8.58525E-05, -0.0163842924, -0.0135269705, -0.000481439842, 921.2536    , 30.3743324  , 795.64325   , 4.16        , 3           , 16          , 0           , 1.401298E-45
-0.135736182, 0.170879751 , -9.780325   , -0.000227189361, -0.0003637298, -0.0008970832, -0.0163864456, -0.0135307526, -0.000490350358, 921.2536    , 30.3743324  , 795.643555  , 4.17        , 3           , 20          , 0           , 0
-0.125921682, 0.172335371 , -9.787557   , -0.0007162968, 5.33990678E-05, -0.000565942, -0.01639353 , -0.0135303112, -0.00049601827, 921.2536    , 30.3743324  , 795.64386   , 4.18        , 3           , 21          , 0           , 0
-0.129507244, 0.162278384 , -9.788535   , -0.000206771947, 0.0002811892, 0.0005896337, -0.016395675, -0.0135274036, -0.0004901684, 921.2536    , 30.3743324  , 795.644165  , 4.19        , 3           , 22          , 0           , 0
-0.128756449, 0.164260924 , -9.785243   , -4.09035347E-05, 0.0001960161, 0.000215190914, -0.0163961146, -0.01352541 , -0.000488048769, 921.2536    , 30.3743324  , 795.6445    , 4.2         , 3           , 40          , 0           , 0
-0.132799849, 0.178349718 , -9.786783   , -3.46073648E-07, 0.0004891386, -0.000219133392, -0.01638341 , -0.0135242455, -0.00049049157, 921.2536    , 30.3743324  , 795.66156   , 4.21        , 3           , 41          , 0           , 0
-0.147852451, 0.168949649 , -9.78697    , 0.0003007111, 0.0001358577, -0.000362042221, -0.0163803548, -0.0135229463, -0.000494134, 921.2536    , 30.3743324  , 795.662     , 4.22        , 3           , 42          , 0           , 0
-0.152626783, 0.166362748 , -9.778769   , -0.000298130442, 0.000135681534, -9.025383E-05, -0.0163833238, -0.0135216033, -0.0004950587, 921.261169  , 30.3722973  , 795.6624    , 4.23        , 3           , 255         , 0           , 0
-0.14098087 , 0.161775559 , -9.775557   , 1.25779188E-05, -0.000384851475, -0.0006344352, -0.01638311 , -0.0135255568, -0.000501339557, 921.261169  , 30.3722973  , 795.662842  , 4.24        , 3           , 255         , 0           , 0
-0.131552771, 0.152692273 , -9.783011   , -9.345359E-05, 0.0001646269, -0.00135591952, -0.016383864, -0.0135241309, -0.000514924759, 921.261169  , 30.3722973  , 795.663269  , 4.25        , 3           , 255         , 0           , 0
-0.125333592, 0.147759661 , -9.794539   , -0.000374146126, 0.00034377494, -0.000621723, -0.01638752 , -0.0135207959, -0.0005211979, 921.261169  , 30.3722973  , 795.6637    , 4.26        , 3           , 255         , 0           , 0
-0.127827674, 0.150157109 , -9.795458   , 5.68448741E-05, 0.000365221174, -0.0006204241, -0.0163868647, -0.0135172457, -0.0005274616, 921.261169  , 30.3722973  , 795.6641    , 4.27        , 3           , 255         , 0           , 0
-0.119024992, 0.160874456 , -9.796832   , -0.000114833718, -0.000279874483, 9.36779543E-05, -0.0163880233, -0.0135200294, -0.000526479038, 921.261169  , 30.3722973  , 795.664551  , 4.28        , 3           , 255         , 0           , 0
-0.139450192, 0.164086223 , -9.795121   , -5.619382E-06, -2.43270479E-05, 0.000380113284, -0.0163881313, -0.01352021 , -0.000522674236, 921.261169  , 30.3722973  , 795.665     , 4.29        , 3           , 255         , 0           , 0
-0.149854466, 0.159931526 , -9.786314   , 3.83699662E-05, 0.000360188133, 0.000909157039, -0.0163878668, -0.0135164615, -0.00051364227, 921.261169  , 30.3722973  , 795.6654    , 4.3         , 3           , 255         , 0           , 0
-0.1407957  , 0.157070309 , -9.791713   , 0.000335944962, -0.000169369334, -0.0006545328, -0.0163857471, -0.013526246, -0.0005201414, 921.261169  , 30.3722973  , 795.66864   , 4.31        , 3           , 255         , 0           , 0
-0.131206661, 0.152120084 , -9.793493   , 0.0003367556, 7.653044E-05, -0.000513797859, -0.0163823068, -0.0135255652, -0.000525291543, 921.261169  , 30.3722973  , 795.669067  , 4.32        , 3           , 255         , 0           , 0
-0.127950624, 0.163902983 , -9.782644   , 4.775323E-05, -9.02547E-05, -0.00035608685, -0.0163817815, -0.0135265253, -0.0005288374, 921.28186   , 30.3702621  , 795.6695    , 4.33        , 3           , 255         , 0           , 0
-0.1254566  , 0.159607843 , -9.78961    , 0.000191181549, -4.610038E-05, 0.000651007169, -0.01637996 , -0.01352688 , -0.000522320159, 921.28186   , 30.3702621  , 795.6699    , 4.34        , 3           , 255         , 0           , 0
-0.11980702 , 0.170855209 , -9.788115   , 0.0006923534, -0.000318814942, 0.0002438397, -0.0163730718, -0.0135300308, -0.000519829744, 921.28186   , 30.3702621  , 795.6704    , 4.35        , 3           , 255         , 0           , 0
-0.13260287 , 0.170945272 , -9.783566   , 0.000254942861, -0.000447365164, -0.000232451275, -0.0163704921, -0.0135345412, -0.0005220808, 921.28186   , 30.3702621  , 795.6709    , 4.36        , 3           , 255         , 0           , 0
-0.145993665, 0.17326203  , -9.786222   , 0.000161635835, 0.000102944 , -0.000328537222, -0.01636883 , -0.0135335661, -0.0005253828, 921.28186   , 30.3702621  , 795.6714    , 4.37        , 3           , 255         , 0           , 0
-0.141593069, 0.170647711 , -9.796124   , 0.0001533126, 0.000178987146, 0.000114824543, -0.0163673125, -0.0135317575, -0.0005242639, 921.28186   , 30.3702621  , 795.6719    , 4.38        , 3           , 255         , 0           , 0
-0.135580763, 0.160336375 , -9.78696251 , 2.62203685E-06, -0.000131158507, 0.0006048861, -0.0163673684, -0.01353297 , -0.000518194, 921.28186   , 30.3702621  , 795.672363  , 4.39        , 3           , 255         , 0           , 0
-0.122890905, 0.145599961 , -9.7918     , -0.000307060778, 6.387147E-05, 8.479022E-05, -0.01637045 , -0.0135323172, -0.000517356559, 921.28186   , 30.3702621  , 795.672852  , 4.4         , 3           , 255         , 0           , 0
-0.121489927, 0.146004081 , -9.788942   , -4.40269068E-05, 0.000248474 , 0.000593525358, -0.016374452, -0.0135296173, -0.000511415245, 921.28186   , 30.3702621  , 795.6459    , 4.41        , 3           , 255         , 0           , 0
-0.13327381 , 0.155951709 , -9.786885   , 0.000219694586, 0.000531060563, -2.082785E-05, -0.0163722541, -0.0135243125, -0.0005117104, 921.28186   , 30.3702621  , 795.6462    , 4.42        , 3           , 255         , 0           , 0
-0.13719666 , 0.164124221 , -9.785799   , 8.465296E-05, 6.45172E-05 , -0.0005820433, -0.01637133 , -0.0135237621, -0.000517541135, 921.2846    , 30.3742638  , 795.6465    , 4.43        , 3           , 255         , 0           , 0
-0.130509883, 0.161145657 , -9.780749   , 0.000101797938, 8.362642E-05, -0.000297449762, -0.0163702723, -0.0135229733, -0.000520529167, 921.2846    , 30.3742638  , 795.6468    , 4.44        , 3           , 255         , 0           , 0
-0.142283365, 0.165749162 , -9.78294    , 0.000349614362, -0.0004068429, -0.000626040564, -0.0163666885, -0.0135271428, -0.0005267225, 921.2846    , 30.3742638  , 795.6471    , 4.45        , 3           , 255         , 0           , 0
-0.145866036, 0.157160118 , -9.774958   , -0.000453985471, 0.000171062144, -0.000164424913, -0.016371211, -0.01352546 , -0.000528394652, 921.2846    , 30.3742638  , 795.6474    , 4.46        , 3           , 255         , 0           , 0
-0.1311386  , 0.155921161 , -9.780332   , -0.0005873463, 0.000181441472, -0.000189450249, -0.016377056, -0.0135236774, -0.000530318765, 921.2846    , 30.3742638  , 795.6477    , 4.47        , 3           , 255         , 0           , 0
-0.128666639, 0.145831823 , -9.789704   , -0.000619532948, 0.000241409667, -0.0008358604, -0.01638314 , -0.0135213984, -0.0005387163, 921.2846    , 30.3742638  , 795.648     , 4.48        , 3           , 255         , 0           , 0
-0.123377882, 0.151102513 , -9.792345   , -0.000145241967, 2.82080728E-05, -7.939128E-06, -0.0163845886, -0.0135211181, -0.0005388003, 921.2846    , 30.3742638  , 795.6483    , 4.49        , 3           , 255         , 0           , 0
-0.120358922, 0.154926255 , -9.788554   , 0.000134068265, -0.000239329122, 0.000561322668, -0.0163833238, -0.0135234194, -0.0005331483, 921.2846    , 30.3742638  , 795.6486    , 4.5         , 3           , 255         , 0           , 0
-0.134859949, 0.165840417 , -9.787677   , -2.56648345E-05, -0.000172829, 5.73559264E-05, -0.0163724348, -0.0135227032, -0.000532697246, 921.2846    , 30.3742638  , 795.621338  , 4.51        , 3           , 255         , 0           , 0
-0.139605433, 0.167064592 , -9.797251   , -6.572602E-05, -0.0002850129, -0.0002530518, -0.0163730569, -0.013525594, -0.000535181, 921.2846    , 30.3742638  , 795.62146   , 4.52        , 3           , 255         , 0           , 0
-0.14191702 , 0.158266217 , -9.786431   , -0.000342095329, -0.000154656387, -0.000146652586, -0.0163764562, -0.0135271642, -0.0005366221, 921.249268  , 30.3754845  , 795.6216    , 4.53        , 3           , 255         , 0           , 0
-0.142064974, 0.155404031 , -9.786623   , 0.000199858245, 0.000110599474, -0.000335015357, -0.0163744129, -0.0135261137, -0.0005399901, 921.249268  , 30.3754845  , 795.6217    , 4.54        , 3           , 255         , 0           , 0
-0.133973852, 0.161328852 , -9.798467   , 0.000126810191, 0.0001025252, -0.000196741676, -0.0163731184, -0.0135251209, -0.00054197415, 921.249268  , 30.3754845  , 795.6218    , 4.55        , 3           , 255         , 0           , 0
-0.126206771, 0.164464951 , -9.78393    , 0.000214505737, 0.000174967354, -0.000334395154, -0.01637093 , -0.0135234268, -0.0005453465, 921.249268  , 30.3754845  , 795.621948  , 4.56        , 3           , 255         , 0           , 0
-0.122456767, 0.1598831   , -9.786643   , 0.00031591102, 0.000165600839, -0.0004077132, -0.016367713, -0.0135218361, -0.0005494505, 921.249268  , 30.3754845  , 795.6221    , 4.57        , 3           , 255         , 0           , 0
-0.135275885, 0.15904817  , -9.78416    , 0.00037781932, 0.000105512736, -0.0003194044, -0.0163638946, -0.0135208368, -0.000552661542, 921.249268  , 30.3754845  , 795.6222    , 4.58        , 3           , 255         , 0           , 0
-0.137990355, 0.159173682 , -9.79192    , -6.30118957E-05, 0.000387263659, -0.0002004072, -0.0163644962, -0.0135169961, -0.000554729, 921.249268  , 30.3754845  , 795.6223    , 4.59        , 3           , 255         , 0           , 0
-0.13395156 , 0.150219679 , -9.78383    , -0.000386625616, 0.000847738469, -0.000834468752, -0.0163682457, -0.0135086589, -0.000563211739, 921.249268  , 30.3754845  , 795.622437  , 4.6         , 3           , 255         , 0           , 0
-0.132589787, 0.1459035   , -9.79014    , -0.000621329353, 0.0005436123, -0.000128227432, -0.0163740739, -0.013507179, -0.0005645878, 921.249268  , 30.3754845  , 795.648743  , 4.61        , 3           , 255         , 0           , 0
-0.119491734, 0.150473252 , -9.791929   , 0.000245534582, 0.000320091145, 0.000594432349, -0.0163716991, -0.0135038812, -0.0005586963, 921.249268  , 30.3754845  , 795.649048  , 4.62        , 3           , 255         , 0           , 0
-0.118190132, 0.158519432 , -9.790355   , 0.0004447088, 0.000124844781, 0.000131441819, -0.01636727 , -0.0135026118, -0.0005574024, 921.2825    , 30.3752823  , 795.649353  , 4.63        , 3           , 255         , 0           , 0
-0.1327841  , 0.161664277 , -9.798357   , 0.000298111 , -0.000212896062, -0.0007962397, -0.0163641833, -0.013504873, -0.0005653294, 921.2825    , 30.3752823  , 795.649658  , 4.64        , 3           , 255         , 0           , 0
