Acc X       , Acc Y       , Acc Z       , Gyro X      , Gyro Y      , Gyro Z      , Euler X     , Euler Y     , Euler Z     , Pres X      , Pres Y      , Pres Z      , Time        , Status      , LowRate X   , LowRate Y   , LowRate Z    
-0.188750684, 0.0433063135, 9.78815651  , 0           , 0           , 0           , -3.13716841 , -0.019281   , -1.3820802  , 920.945862  , 29.066473   , 798.5169    , 0           , 2           , 0           , 5.47423172  , 0
-0.187175512, 0.0444015935, 9.800145    , 0.000398631673, 0.000135082286, 0.0004637579, -3.137164   , -0.0192825086, -1.38208449 , 920.945862  , 29.066473   , 798.5169    , 0.01        , 7           , 1           , 0           , 0
-0.180291131, 0.0462786481, 9.803253    , 0.000279680826, 0.0002732135, 0.000592242 , -3.13716125 , -0.0192852188, -1.38209057 , 920.945862  , 29.066473   , 798.5169    , 0.02        , 7           , 2           , 0           , 0
-0.1863012  , 0.0386284254, 9.814475    , 0.000280636363, -9.674393E-05, 0.0004273987, -3.13715839 , -0.01928423 , -1.38209486 , 920.9728    , 28.6502628  , 798.5169    , 0.03        , 7           , 3           , 0           , 0
-0.189699382, 0.03250422  , 9.799737    , 1.14996219E-05, -0.000314474921, 0.0005352718, -3.13715816 , -0.0192810576, -1.38210022 , 920.9728    , 28.6502628  , 798.5169    , 0.04        , 7           , 4           , 0           , 0
-0.18179974 , 0.0422081128, 9.79381     , 7.62986E-07 , -0.00041904347, 0.000212541432, -3.13715816 , -0.01927686 , -1.38210225 , 920.9728    , 28.6502628  , 798.5169    , 0.05        , 7           , 5           , 0           , 0
-0.187239245, 0.0412471332, 9.788841    , 0.000219773035, -0.000380818034, 0.000215258216, -3.137156   , -0.0192730483, -1.38210452 , 920.9728    , 28.6502628  , 798.5169    , 0.06        , 7           , 6           , 0           , 0
-0.195145577, 0.0410436243, 9.793711    , -7.33890338E-05, 0.00026927283, 5.68133546E-05, -3.13715672 , -0.0192757342, -1.38210511 , 920.9728    , 28.6502628  , 798.5169    , 0.07        , 7           , 7           , 0           , 0
-0.183921009, 0.0390519872, 9.799884    , -0.000431891967, 0.000102037564, 0.000364510925, -3.13716078 , -0.0192767382, -1.38210881 , 920.9728    , 28.6502628  , 798.5169    , 0.08        , 7           , 8           , 5           , 5
-0.181630418, 0.0363190845, 9.801137    , -0.0005744708, 0.0005068949, 2.47596181E-05, -3.1371665  , -0.0192818046, -1.38210893 , 920.9728    , 28.6502628  , 798.5169    , 0.09        , 7           , 9           , 5           , 0.1
-0.19580844 , 0.04040587  , 9.79614449  , -0.000373958464, 1.7381506E-05, -0.000434949383, -3.13717055 , -0.0192819983, -1.38210452 , 920.9728    , 28.6502628  , 798.5169    , 0.1         , 7           , 10          , 0.1         , 0.1
-0.194581613, 0.04520075  , 9.796988    , -0.0006444025, 0.0006738631, -0.000196384586, -3.137186   , -0.0192830078, -1.38210225 , 920.9728    , 28.6502628  , 798.274048  , 0.11        , 7           , 11          , 0.0109544508, 0.0109544508
-0.190498039, 0.0324632041, 9.792456    , -0.000131107, 0.000128099 , -4.161347E-05, -3.13718748 , -0.0192842912, -1.38210177 , 920.9728    , 28.6502628  , 798.274048  , 0.12        , 7           , 12          , 0.0346410163, 0
-0.197141647, 0.0394897833, 9.79806     , 0.00014734827, 0.000296056271, -0.000190527586, -3.137186   , -0.0192872584, -1.3821     , 920.907837  , 28.6907654  , 798.274048  , 0.13        , 7           , 13          , 0           , 0
-0.19470118 , 0.041732993 , 9.793135    , 5.979644E-05, -0.000129183754, -6.954931E-05, -3.13718534 , -0.0192859713, -1.38209927 , 920.907837  , 28.6907654  , 798.2741    , 0.14        , 7           , 14          , 0.0008184865, 0.00211781519
-0.182340577, 0.03981485  , 9.800198    , -0.00026001205, -3.27709131E-05, 0.0005035857, -3.137188   , -0.019285623, -1.3821044  , 920.907837  , 28.6907654  , 798.2742    , 0.15        , 7           , 15          , 0           , 0.000530613353
-0.1827173  , 0.0360283442, 9.797534    , 0.000232297054, 0.0003753386, -1.72241125E-05, -3.13718557 , -0.01928937 , -1.38210428 , 920.907837  , 28.6907654  , 798.274231  , 0.16        , 7           , 16          , 0           , 1.401298E-45
-0.189219028, 0.0403110124, 9.799899    , 7.030566E-05, 7.33006746E-05, 0.000417223724, -3.13718486 , -0.0192900859, -1.38210845 , 920.907837  , 28.6907654  , 798.2743    , 0.17        , 7           , 20          , 0           , 0
-0.1919341  , 0.0396778323, 9.799292    , 9.672658E-06, 1.3170531E-05, 0.000109808461, -3.13718462 , -0.0192902125, -1.38210952 , 920.907837  , 28.6907654  , 798.274353  , 0.18        , 7           , 21          , 0           , 0
-0.193845659, 0.0402495041, 9.800598    , 0.000217069 , 0.000165509991, -0.0007481886, -3.13718271 , -0.019291902, -1.382102   , 920.907837  , 28.6907654  , 798.2744    , 0.19        , 7           , 22          , 0           , 0
-0.183048651, 0.0403545275, 9.799588    , 0.0003707045, -0.000114800176, -0.00135876308, -3.13717914 , -0.0192908142, -1.3820883  , 920.907837  , 28.6907654  , 798.2745    , 0.2         , 7           , 40          , 0           , 0
-0.177622944, 0.05357197  , 9.801088    , 0.0005161867, -1.3419427E-05, 1.14361173E-05, -3.13718462 , -0.0192936566, -1.3820883  , 920.907837  , 28.6907654  , 798.566956  , 0.21        , 7           , 41          , 0           , 0
-0.186262012, 0.04423032  , 9.793676    , -0.0005832227, 0.000228978 , 0.000457886548, -3.13719034 , -0.019295929, -1.38209283 , 920.907837  , 28.6907654  , 798.567     , 0.22        , 7           , 42          , 1           , 0
-0.181967258, 0.03936533  , 9.793228    , -0.0008657081, 0.000109630171, 0.0006490057, -3.137199   , -0.01929699 , -1.38209939 , 920.9311    , 28.7130165  , 798.5671    , 0.23        , 7           , 255         , 0           , 0
-0.18213746 , 0.04635396  , 9.793261    , -0.000112871, -0.0006507054, 0.00074537046, -3.13719988 , -0.019290451, -1.38210666 , 920.9311    , 28.7130165  , 798.567139  , 0.24        , 7           , 255         , 0           , 0
-0.190341577, 0.0422300324, 9.797287    , -0.000168602739, -0.000457920018, 0.000572249352, -3.13720155 , -0.019285854, -1.38211238 , 920.9311    , 28.7130165  , 798.5672    , 0.25        , 7           , 255         , 0           , 0
-0.1883764  , 0.041567374 , 9.795088    , -0.000287444156, -0.000422141165, 0.000722905 , -3.13720417 , -0.0192815978, -1.38211966 , 920.9311    , 28.7130165  , 798.567261  , 0.26        , 7           , 255         , 0           , 0
-0.186648309, 0.0438734479, 9.795256    , 0.000367339118, 0.000485806027, 0.0007041605, -3.13720036 , -0.0192864258, -1.38212669 , 920.9311    , 28.7130165  , 798.5673    , 0.27        , 7           , 255         , 0           , 0
-0.188288063, 0.0418898575, 9.800811    , 0.000348406378, 0.000328239519, -0.000322481385, -3.137197   , -0.01928972 , -1.38212359 , 920.9311    , 28.7130165  , 798.5674    , 0.28        , 7           , 255         , 0           , 0
-0.181306362, 0.0390411839, 9.797351    , -7.264153E-05, 0.00019938522, -0.000595589459, -3.13719773 , -0.01929174 , -1.38211751 , 920.9311    , 28.7130165  , 798.567444  , 0.29        , 7           , 255         , 0           , 0
-0.175912172, 0.0352896862, 9.79820251  , -0.000134260161, 0.000229751 , -0.001042888, -3.1371994  , -0.0192940813, -1.382107   , 920.9311    , 28.7130165  , 798.5675    , 0.3         , 7           , 255         , 0           , 0
-0.175530851, 0.0355233364, 9.802122    , -0.000238212349, 0.000216213986, -0.0005848531, -3.13720274 , -0.0192807633, -1.38210118 , 920.9311    , 28.7130165  , 798.5951    , 0.31        , 7           , 255         , 0           , 0
-0.182100922, 0.0399442539, 9.791891    , -0.000321650179, 0.0004148269, 0.000136841787, -3.13720584 , -0.0192849077, -1.38210249 , 920.9311    , 28.7130165  , 798.595154  , 0.32        , 7           , 255         , 0           , 0
-0.189178139, 0.0337091833, 9.792732    , -0.00039465705, -0.000249843928, -0.000314505829, -3.13721    , -0.0192824211, -1.38209939 , 920.9354    , 28.7309265  , 798.5952    , 0.33        , 7           , 255         , 0           , 0
-0.188805014, 0.0456582159, 9.802883    , -0.000485889672, -6.84708357E-06, 0.00035218714, -3.13721466 , -0.01928234 , -1.38210285 , 920.9354    , 28.7309265  , 798.5953    , 0.34        , 7           , 255         , 0           , 0
-0.196374565, 0.0459150672, 9.801193    , -0.000428518542, 0.0001563828, 0.000317117258, -3.137219   , -0.0192838889, -1.382106   , 920.9354    , 28.7309265  , 798.595337  , 0.35        , 7           , 255         , 0           , 0
-0.194128186, 0.042073328 , 9.799415    , 0.00016467442, -0.000801910064, -0.0005357389, -3.13721728 , -0.01927589 , -1.38210046 , 920.9354    , 28.7309265  , 798.5954    , 0.36        , 7           , 255         , 0           , 0
-0.194913551, 0.0385091752, 9.796901    , 9.35535063E-05, -0.0007870734, -0.000326593377, -3.13721657 , -0.0192680378, -1.38209713 , 920.9354    , 28.7309265  , 798.595459  , 0.37        , 7           , 255         , 0           , 0
-0.202204257, 0.03871311  , 9.802735    , -0.0002902049, 0.000112756155, -3.14952922E-05, -3.13721943 , -0.0192691647, -1.38209677 , 920.9354    , 28.7309265  , 798.5955    , 0.38        , 7           , 255         , 0           , 0
-0.19319053 , 0.0378838964, 9.79449749  , -0.00035873655, 0.000631546136, -8.898426E-05, -3.137223   , -0.0192754846, -1.38209581 , 920.9354    , 28.7309265  , 798.5956    , 0.39        , 7           , 255         , 0           , 0
-0.184688568, 0.0417873152, 9.798145    , 0.000236808264, 0.0003187859, 0.000131466019, -3.13722062 , -0.019278666, -1.38209713 , 920.9354    , 28.7309265  , 798.595642  , 0.4         , 7           , 255         , 0           , 0
-0.192214832, 0.0406985953, 9.791157    , 0.0001249722, 0.000395487063, -0.000192767067, -3.1372273  , -0.0192857049, -1.3820951  , 920.9354    , 28.7309265  , 798.5994    , 0.41        , 7           , 255         , 0           , 0
-0.194368318, 0.04948286  , 9.793782    , -0.000128438871, 0.000266374554, 0.0001166017, -3.13722849 , -0.0192883629, -1.382096   , 920.9354    , 28.7309265  , 798.5995    , 0.42        , 7           , 255         , 0           , 0
-0.177599221, 0.0426979363, 9.801288    , -2.70463643E-05, -2.59266235E-05, 0.000212881831, -3.13722873 , -0.0192880966, -1.3820982  , 920.9813    , 28.74626    , 798.5996    , 0.43        , 7           , 255         , 0           , 0
-0.184865817, 0.0342917666, 9.800342    , -0.000315518, -0.000423029647, 6.5903645E-05, -3.13723183 , -0.0192838665, -1.38209879 , 920.9813    , 28.74626    , 798.599731  , 0.44        , 7           , 255         , 0           , 0
-0.190404   , 0.035976667 , 9.801027    , -0.000224683376, -0.0004324062, -7.988128E-06, -3.13723421 , -0.0192795377, -1.38209879 , 920.9813    , 28.74626    , 798.599854  , 0.45        , 7           , 255         , 0           , 0
-0.194620043, 0.043272    , 9.803673    , 0.000111543282, -0.0006226689, 0.0005606846, -3.137233   , -0.01927329 , -1.38210428 , 920.9813    , 28.74626    , 798.6       , 0.46        , 7           , 255         , 0           , 0
-0.186831445, 0.0438920781, 9.803896    , -0.000342619343, -0.000289369375, 0.0002920765, -3.13723636 , -0.01927038 , -1.38210726 , 920.9813    , 28.74626    , 798.6001    , 0.47        , 7           , 255         , 0           , 0
-0.1846365  , 0.037442714 , 9.795888    , 0.000176840171, -0.000572557561, -8.40819557E-05, -3.13723445 , -0.0192646626, -1.3821063  , 920.9813    , 28.74626    , 798.6002    , 0.48        , 7           , 255         , 0           , 0
-0.171384618, 0.03517315  , 9.80252     , 5.58084575E-05, 0.000118415104, 3.31283663E-05, -3.137234   , -0.0192658454, -1.38210666 , 920.9813    , 28.74626    , 798.600342  , 0.49        , 7           , 255         , 0           , 0
-0.181906939, 0.02934655  , 9.793337    , -0.000273010461, 0.000315060373, 0.0003123862, -3.1372366  , -0.0192689821, -1.38210988 , 920.9813    , 28.74626    , 798.600464  , 0.5         , 7           , 255         , 0           , 0
-0.181961149, 0.0386168659, 9.795568    , -0.000299802516, 4.03851736E-05, 0.000109585177, -3.13724852 , -0.0192614589, -1.38211071 , 920.9813    , 28.74626    , 798.5179    , 0.51        , 7           , 255         , 0           , 0
-0.1846768  , 0.037577983 , 9.802187    , -0.000661710743, -3.28815077E-05, 0.0002498821, -3.13725519 , -0.01926112 , -1.382113   , 920.9813    , 28.74626    , 798.518     , 0.52        , 7           , 255         , 0           , 0
-0.1935517  , 0.0427982919, 9.799639    , -0.0006507556, 0.000362615567, 0.0002525241, -3.13726163 , -0.0192647371, -1.38211548 , 920.95636   , 28.7532463  , 798.5181    , 0.53        , 7           , 255         , 0           , 0
-0.182898641, 0.0552551337, 9.802703    , -0.0005468487, 0.0004951982, -0.000432625646, -3.137267   , -0.0192697067, -1.38211107 , 920.95636   , 28.7532463  , 798.51825   , 0.54        , 7           , 255         , 0           , 0
-0.185033   , 0.0485959537, 9.795336    , -0.0004074269, 0.000299443956, 9.702495E-05, -3.13727117 , -0.0192726981, -1.382112   , 920.95636   , 28.7532463  , 798.5184    , 0.55        , 7           , 255         , 0           , 0
-0.192880481, 0.0406046249, 9.800096    , -0.000166234735, -7.00284727E-06, 0.000911658339, -3.13727283 , -0.01927259 , -1.38212109 , 920.95636   , 28.7532463  , 798.5185    , 0.56        , 7           , 255         , 0           , 0
-0.189197272, 0.034678407 , 9.800204    , 0.000366323045, 0.000147641171, 0.0006992103, -3.137269   , -0.0192740355, -1.38212812 , 920.95636   , 28.7532463  , 798.5186    , 0.57        , 7           , 255         , 0           , 0
-0.184246734, 0.0382425264, 9.795795    , 0.0005815241, -0.000123883365, 5.46106021E-05, -3.137263   , -0.0192727912, -1.38212872 , 920.95636   , 28.7532463  , 798.518738  , 0.58        , 7           , 255         , 0           , 0
-0.190031856, 0.0409722328, 9.794534    , 0.000105336017, -0.000360769, -0.000921229366, -3.13726234 , -0.0192692243, -1.38211954 , 920.95636   , 28.7532463  , 798.51886   , 0.59        , 7           , 255         , 0           , 0
-0.188113183, 0.03502469  , 9.795168    , 0.000112105743, -8.558668E-05, -0.00120795891, -3.13726139 , -0.0192684215, -1.38210738 , 920.95636   , 28.7532463  , 798.519     , 0.6         , 7           , 255         , 0           , 0
-0.190249234, 0.03949929  , 9.796575    , 0.000216899789, -8.033542E-05, -0.0003946863, -3.137262   , -0.01926352 , -1.38210344 , 920.95636   , 28.7532463  , 798.5023    , 0.61        , 7           , 255         , 0           , 0
-0.190173611, 0.05304091  , 9.791903    , -3.553013E-05, 4.476239E-05, 0.0005935801, -3.13726234 , -0.0192639418, -1.38210928 , 920.95636   , 28.7532463  , 798.502441  , 0.62        , 7           , 255         , 0           , 0
-0.192469686, 0.04229165  , 9.793613    , -0.000126675935, -7.011369E-05, 4.89915838E-05, -3.13726354 , -0.0192632433, -1.38210976 , 920.959839  , 28.75759    , 798.502563  , 0.63        , 7           , 255         , 0           , 0
-0.185708717, 0.039592    , 9.798645    , 9.20631E-05 , -0.0007073181, 0.000270186749, -3.13726258 , -0.0192561541, -1.38211238 , 920.959839  , 28.75759    , 798.5027    , 0.64        , 7           , 255         , 0           , 0
-0.189548224, 0.03517785  , 9.801191    , 0.000398339122, -9.330036E-05, 0.000303711917, -3.13725853 , -0.0192552079, -1.38211548 , 920.959839  , 28.75759    , 798.5028    , 0.65        , 7           , 255         , 0           , 0
-0.18579708 , 0.03353072  , 9.799451    , -3.30764451E-05, 0.000303754117, 0.000455582282, -3.13725877 , -0.0192582253, -1.38212    , 920.959839  , 28.75759    , 798.5029    , 0.66        , 7           , 255         , 0           , 0
-0.178266853, 0.04572464  , 9.802429    , -0.0006032178, 0.0007245443, -0.0003831933, -3.137265   , -0.0192654878, -1.38211608 , 920.959839  , 28.75759    , 798.503052  , 0.67        , 7           , 255         , 0           , 0
-0.179827631, 0.041077558 , 9.801867    , -0.0003558831, 0.000139077427, 1.25168008E-05, -3.13726854 , -0.0192668773, -1.38211632 , 920.959839  , 28.75759    , 798.5032    , 0.68        , 7           , 255         , 0           , 0
-0.182713315, 0.0368558876, 9.784231    , 0.00018679921, 0.000291463919, -0.000143727724, -3.13726664 , -0.0192697942, -1.38211489 , 920.959839  , 28.75759    , 798.5033    , 0.69        , 7           , 255         , 0           , 0
-0.1778323  , 0.0379843153, 9.788885    , -0.000565821771, 0.0001606585, -0.000340931, -3.13727236 , -0.01927142 , -1.38211143 , 920.959839  , 28.75759    , 798.5034    , 0.7         , 7           , 255         , 0           , 0
-0.1893835  , 0.0366852321, 9.800413    , -0.000608104747, 0.000196004054, -0.0005680653, -3.13728428 , -0.0192637667, -1.38210559 , 920.959839  , 28.75759    , 798.4864    , 0.71        , 7           , 255         , 0           , 0
-0.181539014, 0.0396835431, 9.801106    , 0.000448562379, -0.000509507256, -0.000360144477, -3.13727975 , -0.019258691, -1.382102   , 920.959839  , 28.75759    , 798.4865    , 0.72        , 7           , 255         , 0           , 0
-0.182798237, 0.0378016643, 9.802703    , 0.0006673383, 0.000272686826, -6.053262E-05, -3.137273   , -0.019261416, -1.38210154 , 920.9098    , 28.7647133  , 798.486633  , 0.73        , 7           , 255         , 0           , 0
-0.188480362, 0.04858678  , 9.806902    , 0.000194765918, -2.99392268E-05, -0.000310882926, -3.13727117 , -0.01926113 , -1.38209844 , 920.9098    , 28.7647133  , 798.486755  , 0.74        , 7           , 255         , 0           , 0
-0.193301514, 0.0497934371, 9.796789    , 0.0001646998, 0.000236821361, -0.000302441273, -3.13726974 , -0.0192635134, -1.38209534 , 920.9098    , 28.7647133  , 798.4869    , 0.75        , 7           , 255         , 0           , 0
-0.193181366, 0.0494728349, 9.807752    , 0.0005348522, 0.000360434875, -0.000422797515, -3.13726425 , -0.0192671325, -1.38209116 , 920.9098    , 28.7647133  , 798.487     , 0.76        , 7           , 255         , 0           , 0
-0.185192019, 0.042847313 , 9.797684    , 0.000247190183, -4.91181854E-05, -0.000249468954, -3.13726187 , -0.0192666538, -1.38208878 , 920.9098    , 28.7647133  , 798.4871    , 0.77        , 7           , 255         , 0           , 0
-0.18179898 , 0.03734194  , 9.800804    , 8.572539E-05, 0.000511363149, -0.000126461, -3.13726115 , -0.0192717724, -1.38208747 , 920.9098    , 28.7647133  , 798.487244  , 0.78        , 7           , 255         , 0           , 0
-0.193234235, 0.0430017039, 9.800268    , 0.000340469 , 5.856785E-05, -0.0007290847, -3.13725781 , -0.01927239 , -1.38208032 , 920.9098    , 28.7647133  , 798.487366  , 0.79        , 7           , 255         , 0           , 0
-0.190814227, 0.0402137563, 9.801241    , 0.0003283737, -0.000157507136, 2.20697839E-05, -3.13725448 , -0.0192708131, -1.38208044 , 920.9098    , 28.7647133  , 798.4875    , 0.8         , 7           , 255         , 0           , 0
-0.19363448 , 0.0364163332, 9.802653    , 5.098729E-05, 0.00013555726, -0.0007111373, -3.13725376 , -0.019270407, -1.3820734  , 920.9098    , 28.7647133  , 798.5369    , 0.81        , 7           , 255         , 0           , 0
-0.19156906 , 0.03607676  , 9.788414    , -0.000248932454, 4.52415552E-05, -0.000675742747, -3.13725638 , -0.01927089 , -1.38206649 , 920.9098    , 28.7647133  , 798.5371    , 0.82        , 7           , 255         , 0           , 0
-0.192098171, 0.04827513  , 9.794554    , 6.168877E-05, -0.0003427479, -0.000524723146, -3.137256   , -0.0192674845, -1.38206124 , 920.903137  , 28.76505    , 798.5373    , 0.83        , 7           , 255         , 0           , 0
-0.19301495 , 0.0416090265, 9.790976    , -0.000343007268, -0.0002799409, -9.08914662E-05, -3.13725948 , -0.0192646943, -1.38206029 , 920.903137  , 28.76505    , 798.5375    , 0.84        , 7           , 255         , 0           , 0
-0.194897562, 0.03808409  , 9.795767    , -0.000401482364, -9.84543E-05, 4.45871847E-05, -3.1372633  , -0.0192637052, -1.38206065 , 920.903137  , 28.76505    , 798.537659  , 0.85        , 7           , 255         , 0           , 0
-0.192330867, 0.0443652943, 9.797502    , -0.00025317067, 3.2938784E-05, 0.000207321369, -3.137266   , -0.0192640256, -1.38206267 , 920.903137  , 28.76505    , 798.537842  , 0.86        , 7           , 255         , 0           , 0
-0.196649045, 0.0420277379, 9.802281    , -0.0006968465, -0.000589977368, 0.000173354812, -3.13727283 , -0.0192581173, -1.38206434 , 920.903137  , 28.76505    , 798.538     , 0.87        , 7           , 255         , 0           , 0
-0.195204332, 0.03775741  , 9.79192     , 0.000405365659, -0.0002252867, 3.54000949E-05, -3.13726878 , -0.0192558635, -1.3820647  , 920.903137  , 28.76505    , 798.5382    , 0.88        , 7           , 255         , 0           , 0
-0.203655317, 0.03358201  , 9.793828    , -0.000204931188, -0.000311958836, -6.354615E-05, -3.13727069 , -0.019252751, -1.382064   , 920.903137  , 28.76505    , 798.5384    , 0.89        , 7           , 255         , 0           , 0
-0.191471308, 0.04289434  , 9.799075    , -0.000448304956, -0.000101034995, 0.00033918838, -3.13727522 , -0.01925172 , -1.38206744 , 920.903137  , 28.76505    , 798.538635  , 0.9         , 7           , 255         , 0           , 0
-0.180780977, 0.0510378666, 9.7939      , 0.00039994152, -4.13162634E-05, -0.000213324645, -3.1372776  , -0.0192668326, -1.38206518 , 920.903137  , 28.76505    , 798.5855    , 0.91        , 7           , 255         , 0           , 0
-0.176878035, 0.0439627245, 9.792463    , 1.75677123E-05, 7.680291E-05, 1.51549466E-06, -3.13727736 , -0.0192676  , -1.3820653  , 920.903137  , 28.76505    , 798.5858    , 0.92        , 7           , 255         , 0           , 0
-0.18910785 , 0.0343842171, 9.798736    , 3.68303736E-05, -0.000171028078, 0.0006062129, -3.137277   , -0.0192658678, -1.38207114 , 920.975159  , 28.76851    , 798.5861    , 0.93        , 7           , 255         , 0           , 0
-0.186477676, 0.0355094746, 9.795164    , 0.000439750438, 5.08390367E-05, -7.753901E-06, -3.1372726  , -0.0192663744, -1.38207114 , 920.975159  , 28.76851    , 798.5864    , 0.94        , 7           , 255         , 0           , 0
-0.193476945, 0.044021748 , 9.792486    , 0.000443210651, 0.000394597882, -0.000194875436, -3.137268   , -0.01927033 , -1.38206911 , 920.975159  , 28.76851    , 798.586731  , 0.95        , 7           , 255         , 0           , 0
-0.1973708  , 0.0468527153, 9.796869    , 0.000522894843, 0.000116330804, -8.86052439E-05, -3.13726282 , -0.0192714948, -1.38206816 , 920.975159  , 28.76851    , 798.587036  , 0.96        , 7           , 255         , 0           , 0
-0.196368277, 0.04932591  , 9.796797    , 0.0008048006, -0.000117776217, -0.000350858871, -3.137255   , -0.0192703325, -1.3820647  , 920.975159  , 28.76851    , 798.587341  , 0.97        , 7           , 255         , 0           , 0
-0.188115567, 0.0457502939, 9.803587    , -8.606113E-05, -0.0003664305, -0.000204261712, -3.137256   , -0.019266678, -1.38206267 , 920.975159  , 28.76851    , 798.587646  , 0.98        , 7           , 255         , 0           , 0
-0.191298813, 0.04275738  , 9.79363     , -0.000116370327, -4.967209E-06, 0.000195428787, -3.13725686 , -0.01926662 , -1.38206458 , 920.975159  , 28.76851    , 798.587952  , 0.99        , 7           , 255         , 0           , 0
-0.1909723  , 0.0428761169, 9.790378    , 0.000196012959, 0.000388503075, -0.0006601516, -3.13725519 , -0.0192705318, -1.382058   , 920.975159  , 28.76851    , 798.588257  , 1           , 7           , 0           , 6.47423649  , 100
-0.189803421, 0.0358581729, 9.795823    , 0.000351978466, 0.000444757752, 0.000195852946, -3.137248   , -0.0192758143, -1.38205993 , 920.975159  , 28.76851    , 798.5482    , 1.01        , 7           , 1           , 0           , 0
-0.187228322, 0.04482378  , 9.793885    , 0.000196769484, 1.32592395E-05, 0.00049784797, -3.137246   , -0.01927593 , -1.38206482 , 920.975159  , 28.76851    , 798.548462  , 1.02        , 7           , 2           , 0           , 0
-0.191224769, 0.0472727828, 9.79429     , 0.000436571427, 0.00051067234, -9.730225E-06, -3.1372416  , -0.0192810334, -1.3820647  , 920.913     , 28.771904   , 798.5487    , 1.03        , 7           , 3           , 0           , 0
-0.179688   , 0.0394875556, 9.797924    , 0.000272195321, -3.65842134E-05, 0.000358940859, -3.13723874 , -0.0192806516, -1.38206828 , 920.913     , 28.771904   , 798.54895   , 1.04        , 7           , 4           , 0           , 0
-0.1874564  , 0.0371195376, 9.798049    , 0.000108514214, 0.000122213736, 0.000216362474, -3.13723755 , -0.019281866, -1.38207054 , 920.913     , 28.771904   , 798.5492    , 1.05        , 7           , 5           , 0           , 0
-0.189439267, 0.0353076458, 9.792644    , -0.000148456427, -6.46056142E-05, -0.000203369331, -3.13723922 , -0.0192812271, -1.38206851 , 920.913     , 28.771904   , 798.549438  , 1.06        , 7           , 6           , 0           , 0
-0.181723952, 0.0517361872, 9.788515    , -0.000919483, -0.00037398946, -5.051063E-05, -3.13724828 , -0.0192774888, -1.38206792 , 920.913     , 28.771904   , 798.5497    , 1.07        , 7           , 7           , 0           , 0
-0.189955086, 0.0392979868, 9.79521751  , -0.000779932656, -0.00010508718, -0.000308697374, -3.13725615 , -0.0192764513, -1.38206482 , 920.913     , 28.771904   , 798.5499    , 1.08        , 7           , 8           , 5           , 5
-0.1911615  , 0.03922102  , 9.795927    , 0.00010251021, 0.000357080949, -2.11950974E-05, -3.13725519 , -0.01928002 , -1.38206458 , 920.913     , 28.771904   , 798.5502    , 1.09        , 7           , 9           , 5           , 0.1
-0.188009545, 0.0329345539, 9.799139    , -2.09182035E-05, 0.000339382328, 0.00039645232, -3.13725543 , -0.019283399, -1.38206851 , 920.913     , 28.771904   , 798.5504    , 1.1         , 7           , 10          , 0.1         , 0.1
-0.18549566 , 0.043784    , 9.802853    , 0.000164341123, -0.000406424748, 0.000359939237, -3.13726    , -0.0192757826, -1.382072   , 920.913     , 28.771904   , 798.5813    , 1.11        , 7           , 11          , 0.009588474 , 0.00958847348
-0.190146983, 0.0355337337, 9.79965     , -0.000172618136, -0.0001813767, 0.000443055877, -3.13726163 , -0.0192739535, -1.38207638 , 920.913     , 28.771904   , 798.5816    , 1.12        , 7           , 12          , 0.0346428268, 0
-0.188136742, 0.03960234  , 9.801476    , 0.000289895863, 0.000306651 , -0.000234596082, -3.13725877 , -0.0192770269, -1.38207412 , 920.957031  , 28.7718353  , 798.5819    , 1.13        , 7           , 13          , 0           , 0
-0.1892095  , 0.0377732925, 9.795789    , 0.000342954125, 0.000357998535, -0.0003739843, -3.13725543 , -0.0192806218, -1.38207042 , 920.957031  , 28.7718353  , 798.5822    , 1.14        , 7           , 14          , 0.000818510947, 0.00211782055
-0.189284682, 0.0392763652, 9.788193    , -0.000177177775, 0.0001928811, -0.0001258371, -3.137257   , -0.0192825552, -1.38206911 , 920.957031  , 28.7718353  , 798.5825    , 1.15        , 7           , 15          , 0           , 0.000530613936
-0.186218709, 0.04260856  , 9.795884    , -4.63886536E-05, 0.000423177145, -0.0003735041, -3.13725781 , -0.019286802, -1.38206542 , 920.957031  , 28.7718353  , 798.5828    , 1.16        , 7           , 16          , 0           , 1.401298E-45
-0.191228434, 0.0385828242, 9.798823    , 0.0002729564, -7.634284E-05, -0.00051362 , -3.137255   , -0.0192860626, -1.38206041 , 920.957031  , 28.7718353  , 798.5831    , 1.17        , 7           , 20          , 0           , 0
-0.197818682, 0.03734317  , 9.802034    , 7.425004E-05, 0.000275089173, -6.514799E-05, -3.13725424 , -0.0192888137, -1.38205981 , 920.957031  , 28.7718353  , 798.5835    , 1.18        , 7           , 21          , 0           , 0
-0.1929917  , 0.0339870267, 9.791535    , 4.003005E-05, 5.43831848E-05, 0.000291925331, -3.137254   , -0.0192893445, -1.38206279 , 920.957031  , 28.7718353  , 798.583862  , 1.19        , 7           , 22          , 0           , 0
-0.192931131, 0.037420325 , 9.794087    , -3.2179174E-05, 0.000132186571, 0.000782790361, -3.137254   , -0.0192906335, -1.38207066 , 920.957031  , 28.7718353  , 798.5842    , 1.2         , 7           , 40          , 0           , 0
-0.198267147, 0.0492151976, 9.795594    , -5.59752225E-05, 0.000267474446, 0.000459091854, -3.13726354 , -0.0192966089, -1.38207507 , 920.957031  , 28.7718353  , 798.565735  , 1.21        , 7           , 41          , 0           , 0
-0.191160962, 0.0419333056, 9.79662     , -0.0003057717, 0.000235248357, 0.0005910994, -3.13726664 , -0.0192989353, -1.38208091 , 920.957031  , 28.7718353  , 798.56604   , 1.22        , 7           , 42          , 1           , 0
-0.187998712, 0.0415068679, 9.797483    , 0.000152535446, -0.000114778988, -0.0003009488, -3.13726521 , -0.0192978  , -1.382078   , 920.964966  , 28.77638    , 798.566345  , 1.23        , 7           , 255         , 0           , 0
-0.191658169, 0.0457564145, 9.799174    , -0.000685795, -0.0005668937, -8.89838848E-05, -3.13727212 , -0.0192921348, -1.3820771  , 920.964966  , 28.77638    , 798.56665   , 1.24        , 7           , 255         , 0           , 0
-0.1891272  , 0.03629865  , 9.798758    , -0.0005241024, -3.85125168E-05, -0.000126808824, -3.13727736 , -0.0192917529, -1.38207579 , 920.964966  , 28.77638    , 798.566956  , 1.25        , 7           , 255         , 0           , 0
-0.183535472, 0.03884952  , 9.790369    , -0.0003754512, 0.000192512758, -0.000276115781, -3.13728118 , -0.019293692, -1.38207293 , 920.964966  , 28.77638    , 798.567261  , 1.26        , 7           , 255         , 0           , 0
-0.181242868, 0.0446247421, 9.793924    , -6.73598261E-05, 2.35680491E-05, -0.000385508, -3.137282   , -0.0192939434, -1.38206911 , 920.964966  , 28.77638    , 798.567566  , 1.27        , 7           , 255         , 0           , 0
-0.185959548, 0.04890851  , 9.796547    , -0.00024295639, 0.00010830909, 0.000558722648, -3.137284   , -0.0192950014, -1.38207459 , 920.964966  , 28.77638    , 798.5679    , 1.28        , 7           , 255         , 0           , 0
-0.182586417, 0.044126343 , 9.791716    , 0.000224351475, 0.000396560878, 0.000111630245, -3.137282   , -0.0192989614, -1.38207567 , 920.964966  , 28.77638    , 798.5682    , 1.29        , 7           , 255         , 0           , 0
-0.192041114, 0.04695485  , 9.794848    , 0.000303880835, -5.47263771E-05, -0.0001142651, -3.1372788  , -0.0192984212, -1.38207459 , 920.964966  , 28.77638    , 798.5685    , 1.3         , 7           , 255         , 0           , 0
-0.189579055, 0.0584883466, 9.800273    , 0.0002615191, -4.572794E-05, 8.60603759E-05, -3.13727236 , -0.0192963611, -1.38207567 , 920.964966  , 28.77638    , 798.5436    , 1.31        , 7           , 255         , 0           , 0
-0.1892646  , 0.0500729755, 9.798192    , 0.001102492 , 0.00025497633, -4.053081E-05, -3.13726139 , -0.019298913, -1.38207519 , 920.964966  , 28.77638    , 798.5438    , 1.32        , 7           , 255         , 0           , 0
-0.189900368, 0.04686121  , 9.796106    , -7.78543763E-05, 0.000317360973, -0.000296255166, -3.13726234 , -0.0193020962, -1.38207221 , 920.9379    , 28.7776031  , 798.544067  , 1.33        , 7           , 255         , 0           , 0
-0.183623269, 0.0350199975, 9.799318    , 0.000279464526, 0.0003254742, 0.0002953887, -3.13725948 , -0.0193053409, -1.38207519 , 920.9379    , 28.7776031  , 798.5443    , 1.34        , 7           , 255         , 0           , 0
-0.188238308, 0.04120759  , 9.7982645   , 0.000467229052, 0.000222574919, 0.000218974077, -3.13725471 , -0.0193075556, -1.38207746 , 920.9379    , 28.7776031  , 798.544556  , 1.35        , 7           , 255         , 0           , 0
-0.188831389, 0.0395519026, 9.798672    , 0.000124722952, 0.0004436914, 0.0004309236, -3.13725328 , -0.0193119738, -1.38208175 , 920.9379    , 28.7776031  , 798.5448    , 1.36        , 7           , 255         , 0           , 0
-0.181896672, 0.0380359963, 9.806529    , -0.000155365269, -0.000179482973, 0.00053556147, -3.13725471 , -0.0193101559, -1.38208723 , 920.9379    , 28.7776031  , 798.545044  , 1.37        , 7           , 255         , 0           , 0
-0.18730785 , 0.0378072932, 9.798106    , -0.0005045896, -0.000229175435, 0.00035320298, -3.13725972 , -0.01930785 , -1.38209069 , 920.9379    , 28.7776031  , 798.5453    , 1.38        , 7           , 255         , 0           , 0
-0.188134983, 0.03900624  , 9.802087    , -0.000345817738, -0.000296853832, -0.0005060851, -3.1372633  , -0.0193049051, -1.38208556 , 920.9379    , 28.7776031  , 798.545532  , 1.39        , 7           , 255         , 0           , 0
-0.191540524, 0.0507468469, 9.794985    , -0.000186213059, 0.000270035118, 0.00027067773, -3.13726521 , -0.019307591, -1.38208818 , 920.9379    , 28.7776031  , 798.5458    , 1.4         , 7           , 255         , 0           , 0
-0.186141223, 0.04115665  , 9.796902    , 0.0009876713, -7.618428E-05, 0.0004641129, -3.13725281 , -0.01930403 , -1.38209271 , 920.9379    , 28.7776031  , 798.551147  , 1.41        , 7           , 255         , 0           , 0
-0.18892    , 0.0350515954, 9.799647    , -0.000215623586, 0.000200922368, 0.0002343491, -3.137255   , -0.0193060283, -1.3820951  , 920.9379    , 28.7776031  , 798.5514    , 1.42        , 7           , 255         , 0           , 0
-0.190904677, 0.0458388478, 9.795698    , -0.0006580675, 4.764297E-05, 8.773274E-05, -3.13726139 , -0.0193065014, -1.382096   , 920.9344    , 28.7791634  , 798.551636  , 1.43        , 7           , 255         , 0           , 0
-0.193219811, 0.0407570377, 9.798202    , 5.65010123E-06, 0.000154837267, 0.000185465033, -3.13726139 , -0.0193080455, -1.38209784 , 920.9344    , 28.7791634  , 798.5519    , 1.44        , 7           , 255         , 0           , 0
-0.192380741, 0.0465501174, 9.79273     , 0.000289490854, 0.000466503436, -0.000127306761, -3.13725853 , -0.0193127133, -1.38209665 , 920.9344    , 28.7791634  , 798.5521    , 1.45        , 7           , 255         , 0           , 0
-0.182579845, 0.0442296   , 9.786867    , -0.000109661778, 0.0001925712, -0.00130001886, -3.13726    , -0.0193146951, -1.38208354 , 920.9344    , 28.7791634  , 798.552368  , 1.46        , 7           , 255         , 0           , 0
-0.177951783, 0.03957299  , 9.79346     , -0.000657023746, 0.0003120273, -0.0008454898, -3.13726664 , -0.0193178523, -1.382075   , 920.9344    , 28.7791634  , 798.5526    , 1.47        , 7           , 255         , 0           , 0
-0.178585947, 0.05284337  , 9.802408    , -0.000890859345, 0.000144134043, -0.000231081067, -3.13727546 , -0.0193193015, -1.38207269 , 920.9344    , 28.7791634  , 798.552856  , 1.48        , 7           , 255         , 0           , 0
-0.188040823, 0.0512286946, 9.797171    , 6.07741531E-05, -0.0002767481, -0.00016804639, -3.137275   , -0.019316541, -1.3820709  , 920.9344    , 28.7791634  , 798.5531    , 1.49        , 7           , 255         , 0           , 0
-0.1880537  , 0.0425094962, 9.797969    , 0.000346562185, -0.0002037147, 1.14724389E-05, -3.1372714  , -0.019314507, -1.38207114 , 920.9344    , 28.7791634  , 798.553345  , 1.5         , 7           , 255         , 0           , 0
-0.185392022, 0.0452959128, 9.799919    , -0.000425565231, 0.000142930541, 0.000328814727, -3.13727212 , -0.0193100851, -1.38207436 , 920.9344    , 28.7791634  , 798.5617    , 1.51        , 7           , 255         , 0           , 0
-0.182185963, 0.0448983721, 9.795954    , 0.000211353356, 2.78085936E-05, -4.006957E-06, -3.13727    , -0.0193103589, -1.38207436 , 920.9344    , 28.7791634  , 798.562     , 1.52        , 7           , 255         , 0           , 0
-0.186081454, 0.0405029431, 9.798406    , 0.000541308 , 9.334041E-05, 0.000224646763, -3.13726449 , -0.0193112828, -1.3820765  , 920.9061    , 28.78018    , 798.5623    , 1.53        , 7           , 255         , 0           , 0
-0.18032515 , 0.04118224  , 9.796126    , -5.62577625E-05, 8.41631554E-05, 0.0007698961, -3.137265   , -0.0193120912, -1.38208425 , 920.9061    , 28.78018    , 798.5626    , 1.54        , 7           , 255         , 0           , 0
-0.19848612 , 0.0421111137, 9.7885      , 0.000396280841, -0.000151702436, -5.70552074E-05, -3.13726115 , -0.019310575, -1.38208365 , 920.9061    , 28.78018    , 798.5629    , 1.55        , 7           , 255         , 0           , 0
-0.194329619, 0.0513050668, 9.80224     , 0.0004472789, -0.00010316004, -0.0005501395, -3.13725662 , -0.0193095729, -1.38207817 , 920.9061    , 28.78018    , 798.563232  , 1.56        , 7           , 255         , 0           , 0
-0.189782977, 0.04146792  , 9.797544    , 4.8453745E-05, 0.000255761668, -5.459407E-05, -3.13725615 , -0.0193121266, -1.38207769 , 920.9061    , 28.78018    , 798.563538  , 1.57        , 7           , 255         , 0           , 0
-0.19394885 , 0.03940611  , 9.803831    , 0.000165867677, 0.00027134642, -0.000295388425, -3.13725471 , -0.0193148553, -1.38207471 , 920.9061    , 28.78018    , 798.563843  , 1.58        , 7           , 255         , 0           , 0
-0.182473868, 0.0423444137, 9.799349    , -1.49738044E-05, -2.05130782E-05, -0.000116814394, -3.13725471 , -0.019314656, -1.38207352 , 920.9061    , 28.78018    , 798.564148  , 1.59        , 7           , 255         , 0           , 0
-0.188548565, 0.05067586  , 9.794699    , -0.000348723523, -0.00018179859, 0.000696809962, -3.137258   , -0.0193128083, -1.38208044 , 920.9061    , 28.78018    , 798.564453  , 1.6         , 7           , 255         , 0           , 0
-0.1873087  , 0.0486590751, 9.799633    , -0.000186083955, -0.0003592898, 0.0004177504, -3.13725686 , -0.01930696 , -1.38208449 , 920.9061    , 28.78018    , 798.6021    , 1.61        , 7           , 255         , 0           , 0
-0.191924661, 0.03734716  , 9.802707    , 0.00015856215, -0.000155104324, -0.00025648193, -3.13725519 , -0.01930542 , -1.38208187 , 920.9061    , 28.78018    , 798.602661  , 1.62        , 7           , 255         , 0           , 0
-0.192124531, 0.0383623838, 9.797209    , 0.000165608071, -0.000116111711, 0.000922333 , -3.13725352 , -0.01930422 , -1.38209116 , 920.9555    , 28.7837753  , 798.6032    , 1.63        , 7           , 255         , 0           , 0
-0.1944373  , 0.047935985 , 9.795692    , -0.000192542619, -0.000119671691, 0.00023407134, -3.13725519 , -0.0193030126, -1.38209355 , 920.9555    , 28.7837753  , 798.60376   , 1.64        , 7           , 255         , 0           , 0
-0.193021685, 0.04178462  , 9.795806    , -0.000675439544, -0.000382078928, 0.00032399164, -3.137262   , -0.0192991812, -1.38209665 , 920.9555    , 28.7837753  , 798.6043    , 1.65        , 7           , 255         , 0           , 0
-0.197239831, 0.03156289  , 9.802094    , -5.98797342E-05, -0.000172522268, 0.000440010976, -3.13726258 , -0.0192974322, -1.382101   , 920.9555    , 28.7837753  , 798.604858  , 1.66        , 7           , 255         , 0           , 0
-0.193955585, 0.039539393 , 9.793592    , 0.0001925808, -7.578591E-05, -2.10499275E-05, -3.13726068 , -0.0192966741, -1.38210094 , 920.9555    , 28.7837753  , 798.6054    , 1.67        , 7           , 255         , 0           , 0
-0.1878261  , 0.04419661  , 9.800109    , 0.000274579215, -0.00023881346, -0.000372622453, -3.13725781 , -0.0192943029, -1.38209724 , 920.9555    , 28.7837753  , 798.605957  , 1.68        , 7           , 255         , 0           , 0
-0.182478577, 0.0468821228, 9.798225    , 0.000127544918, -0.0004286426, -3.82384751E-05, -3.13725662 , -0.0192900188, -1.38209689 , 920.9555    , 28.7837753  , 798.6065    , 1.69        , 7           , 255         , 0           , 0
-0.196558222, 0.03697575  , 9.800543    , 0.0005120454, -0.000216461136, 0.0008984484, -3.13725138 , -0.0192878172, -1.38210583 , 920.9555    , 28.7837753  , 798.607056  , 1.7         , 7           , 255         , 0           , 0
-0.184336439, 0.0334856138, 9.803813    , 0.000202423776, -0.000115630915, -8.316472E-05, -3.13725162 , -0.019291617, -1.382105   , 920.9555    , 28.7837753  , 798.5865    , 1.71        , 7           , 255         , 0           , 0
-0.185814589, 0.0355178937, 9.800235    , 0.000126682688, -0.000492868, -0.0003937412, -3.13725042 , -0.0192867015, -1.382101   , 920.9555    , 28.7837753  , 798.5869    , 1.72        , 7           , 255         , 0           , 0
-0.198511228, 0.0473404229, 9.794291    , 0.0005669935, -0.000191451167, -0.0005983594, -3.1372447  , -0.0192848146, -1.3820951  , 920.946     , 28.7856083  , 798.587341  , 1.73        , 7           , 255         , 0           , 0
-0.187153071, 0.0427817963, 9.801424    , -0.000106078165, 0.000129731139, -0.0005897521, -3.137246   , -0.0192861389, -1.38208914 , 920.946     , 28.7856083  , 798.587769  , 1.74        , 7           , 255         , 0           , 0
-0.180311769, 0.0378979929, 9.793444    , 0.000151181477, -7.479405E-05, -0.000136950373, -3.13724446 , -0.0192853957, -1.38208783 , 920.946     , 28.7856083  , 798.5882    , 1.75        , 7           , 255         , 0           , 0
-0.184630185, 0.04548265  , 9.799845    , 0.000178077724, -0.0002644054, 0.0002458461, -3.13724256 , -0.0192827433, -1.38209033 , 920.946     , 28.7856083  , 798.5886    , 1.76        , 7           , 255         , 0           , 0
-0.17731519 , 0.04925006  , 9.79700851  , 0.000678043 , -0.000287231174, 0.000345998676, -3.13723588 , -0.0192798525, -1.38209367 , 920.946     , 28.7856083  , 798.58905   , 1.77        , 7           , 255         , 0           , 0
-0.185681567, 0.0409038663, 9.802345    , 0.000452180975, -0.0003329973, -4.90614621E-05, -3.13723135 , -0.0192765258, -1.38209319 , 920.946     , 28.7856083  , 798.5895    , 1.78        , 7           , 255         , 0           , 0
-0.187690556, 0.04686766  , 9.802771    , -0.000358987338, 0.00020277407, -3.779051E-05, -3.137235   , -0.0192785561, -1.38209271 , 920.946     , 28.7856083  , 798.5899    , 1.79        , 7           , 255         , 0           , 0
-0.1912394  , 0.0476967171, 9.795963    , -0.00048397042, -0.0003356426, 0.000353096635, -3.13723969 , -0.0192751884, -1.38209617 , 920.946     , 28.7856083  , 798.590332  , 1.8         , 7           , 255         , 0           , 0
-0.186705425, 0.04433906  , 9.794793    , 3.293081E-05, -0.000223332783, 0.0004445535, -3.137239   , -0.0192678124, -1.3821007  , 920.946     , 28.7856083  , 798.5818    , 1.81        , 7           , 255         , 0           , 0
-0.1903726  , 0.0397509225, 9.79182     , 0.000198472873, -2.45787669E-05, -0.000234756211, -3.137237   , -0.0192675777, -1.38209832 , 920.946     , 28.7856083  , 798.5822    , 1.82        , 7           , 255         , 0           , 0
-0.189877957, 0.0384198129, 9.788656    , -0.000315978541, 7.99559057E-05, -0.000474784436, -3.13724041 , -0.0192683972, -1.38209343 , 920.9134    , 28.78269    , 798.582642  , 1.83        , 7           , 255         , 0           , 0
-0.1850361  , 0.048319906 , 9.794034    , 0.000175861409, -7.388252E-05, 0.000104286184, -3.1372385  , -0.0192676578, -1.38209462 , 920.9134    , 28.78269    , 798.583069  , 1.84        , 7           , 255         , 0           , 0
-0.192202479, 0.0459462442, 9.797076    , 0.00014089176, -0.000192265026, 0.000418107316, -3.137237   , -0.0192657132, -1.38209867 , 920.9134    , 28.78269    , 798.5835    , 1.85        , 7           , 255         , 0           , 0
-0.191793352, 0.0384399258, 9.795852    , 0.000481553725, -2.368819E-06, -0.000442934863, -3.1372323  , -0.01926571 , -1.38209426 , 920.9134    , 28.78269    , 798.5839    , 1.86        , 7           , 255         , 0           , 0
-0.176003128, 0.0387438759, 9.799603    , 0.0005405756, 0.000317972619, 0.000213112857, -3.13722682 , -0.0192688778, -1.38209641 , 920.9134    , 28.78269    , 798.584351  , 1.87        , 7           , 255         , 0           , 0
-0.175797537, 0.0402666852, 9.80033     , 0.000437022652, 0.000328584341, -0.000101226236, -3.13722253 , -0.019272171, -1.38209546 , 920.9134    , 28.78269    , 798.5848    , 1.88        , 7           , 255         , 0           , 0
-0.186316013, 0.0542648248, 9.803656    , -7.32467743E-06, -5.411054E-05, 0.000584101363, -3.13722253 , -0.019271601, -1.3821013  , 920.9134    , 28.78269    , 798.5852    , 1.89        , 7           , 255         , 0           , 0
-0.181362838, 0.0391160734, 9.797071    , -0.000683119753, 0.000216824468, 0.000198570371, -3.1372292  , -0.0192737617, -1.38210332 , 920.9134    , 28.78269    , 798.585632  , 1.9         , 7           , 255         , 0           , 0
-0.187494189, 0.03299259  , 9.78955     , -0.000333886332, 0.0002047529, 0.000137274852, -3.1372323  , -0.01926897 , -1.38210464 , 920.9134    , 28.78269    , 798.6154    , 1.91        , 7           , 255         , 0           , 0
-0.195362717, 0.04597819  , 9.78943     , -0.0001667075, 0.000166774262, 6.09341078E-05, -3.137234   , -0.01927063 , -1.38210523 , 920.9134    , 28.78269    , 798.616     , 1.92        , 7           , 255         , 0           , 0
-0.184776276, 0.0450689122, 9.793303    , 0.000252808561, 0.000314502744, 0.000897981459, -3.13723135 , -0.0192737374, -1.382114   , 920.936462  , 28.7857437  , 798.616638  , 1.93        , 7           , 255         , 0           , 0
-0.1828765  , 0.04317216  , 9.79452     , 0.000140655553, 0.000113345915, 0.000153662113, -3.13723    , -0.01927486 , -1.3821156  , 920.936462  , 28.7857437  , 798.617249  , 1.94        , 7           , 255         , 0           , 0
-0.189084738, 0.038465485 , 9.793745    , 0.000383229577, -0.000248642755, 0.0001027488, -3.137226   , -0.0192723684, -1.38211668 , 920.936462  , 28.7857437  , 798.617859  , 1.95        , 7           , 255         , 0           , 0
-0.179337949, 0.0406611338, 9.796865    , 0.000195155153, -0.000153791159, 0.000288077164, -3.137224   , -0.0192708187, -1.38211966 , 920.936462  , 28.7857437  , 798.618469  , 1.96        , 7           , 255         , 0           , 0
-0.182236582, 0.05035401  , 9.791449    , -0.000158162788, -0.000193529879, 0.0001145149, -3.13722563 , -0.0192688778, -1.38212061 , 920.936462  , 28.7857437  , 798.6191    , 1.97        , 7           , 255         , 0           , 0
-0.191138059, 0.0360581577, 9.797351    , -0.00047925234, 0.000325865345, -0.000202697091, -3.1372304  , -0.0192721449, -1.38211858 , 920.936462  , 28.7857437  , 798.6197    , 1.98        , 7           , 255         , 0           , 0
-0.177999735, 0.0425576828, 9.797146    , -0.000242326874, -0.000112086069, -0.000180465315, -3.137233   , -0.0192710329, -1.38211679 , 920.936462  , 28.7857437  , 798.6203    , 1.99        , 7           , 255         , 0           , 0
-0.171546146, 0.0376949832, 9.805294    , -2.54217885E-05, -0.000163855031, -9.934811E-05, -3.13723326 , -0.0192694  , -1.38211572 , 920.936462  , 28.7857437  , 798.6209    , 2           , 7           , 0           , 7.47423649  , 200
-0.186259508, 0.05584357  , 9.804235    , -5.189964E-05, -0.000164764235, 0.000584649 , -3.13723683 , -0.0192572754, -1.38212168 , 920.936462  , 28.7857437  , 798.619751  , 2.01        , 7           , 1           , 0           , 0
-0.1885368  , 0.0501640551, 9.799379    , -0.000132146175, 0.000270040473, 0.000287014816, -3.13723826 , -0.0192599613, -1.38212442 , 920.936462  , 28.7857437  , 798.620361  , 2.02        , 7           , 2           , 0           , 0
-0.187084049, 0.0359833948, 9.790559    , -0.00074260676, -7.3954E-05 , -0.0006337161, -3.13724566 , -0.0192592461, -1.38211811 , 920.9747    , 28.7860832  , 798.621     , 2.03        , 7           , 3           , 0           , 0
-0.189589024, 0.043319203 , 9.801134    , -0.0005667055, 0.000360533828, -0.00134740106, -3.13725162 , -0.0192629136, -1.38210452 , 920.9747    , 28.7860832  , 798.6216    , 2.04        , 7           , 4           , 0           , 0
-0.1881367  , 0.05481718  , 9.796601    , 0.000292309443, 0.000258305343, -0.000920362, -3.137249   , -0.0192655381, -1.38209522 , 920.9747    , 28.7860832  , 798.6222    , 2.05        , 7           , 5           , 0           , 0
-0.179406777, 0.0504111052, 9.800788    , 6.23440137E-05, -0.000414427021, -0.000273562531, -3.13724828 , -0.019261403, -1.38209248 , 920.9747    , 28.7860832  , 798.6228    , 2.06        , 7           , 6           , 0           , 0
-0.1886742  , 0.0419018678, 9.794996    , 0.000394976465, 0.00011977111, 0.0008871308, -3.13724422 , -0.0192625616, -1.3821013  , 920.9747    , 28.7860832  , 798.6234    , 2.07        , 7           , 7           , 0           , 0
-0.195787162, 0.03836229  , 9.804409    , -0.000119058124, 0.000738883158, 0.0004530921, -3.13724542 , -0.0192699283, -1.38210583 , 920.9747    , 28.7860832  , 798.624     , 2.08        , 7           , 8           , 5           , 5
-0.186323091, 0.0471173935, 9.799553    , 0.000152104127, -8.138409E-05, 0.0002325506, -3.13724375 , -0.019269105, -1.38210821 , 920.9747    , 28.7860832  , 798.624634  , 2.09        , 7           , 9           , 5           , 0.1
-0.185744643, 0.04128172  , 9.799448    , -0.00039152542, -0.0003375681, -0.00024489357, -3.1372478  , -0.0192657448, -1.38210559 , 920.9747    , 28.7860832  , 798.625244  , 2.1         , 7           , 10          , 0.1         , 0.1
-0.194250613, 0.0437920168, 9.795294    , -0.00035054193, -6.866851E-05, 0.0004597379, -3.13724518 , -0.019262841, -1.38211024 , 920.9747    , 28.7860832  , 798.576233  , 2.11        , 7           , 11          , 0.008611199 , 0.008611199
-0.183565646, 0.03704115  , 9.792893    , -5.065999E-05, -0.000342950225, 0.000332703872, -3.13724566 , -0.0192593951, -1.38211358 , 920.9747    , 28.7860832  , 798.576538  , 2.12        , 7           , 12          , 0.0346481539, 0
-0.189625472, 0.0560250469, 9.796106    , 0.000166981481, -0.000545650139, -2.66620191E-05, -3.137244   , -0.019253945, -1.38211334 , 920.959656  , 28.7897453  , 798.576843  , 2.13        , 7           , 13          , 0           , 0
-0.186425358, 0.0499681532, 9.796271    , -6.742345E-05, -0.000127224484, -0.0002187329, -3.1372447  , -0.0192526784, -1.38211107 , 920.959656  , 28.7897453  , 798.577148  , 2.14        , 7           , 14          , 0.0008184974, 0.00211788784
-0.187963814, 0.0361416638, 9.803159    , 0.000315542449, 0.00027955207, -0.000789784, -3.1372416  , -0.0192555077, -1.3821032  , 920.959656  , 28.7897453  , 798.577454  , 2.15        , 7           , 15          , 0           , 0.0005306134
-0.1948968  , 0.0512570366, 9.798357    , -1.56788155E-06, 0.000135355629, 0.000106403779, -3.1372416  , -0.0192568563, -1.38210428 , 920.959656  , 28.7897453  , 798.577759  , 2.16        , 7           , 16          , 0           , 1.401298E-45
-0.1946521  , 0.0490781032, 9.7917      , -0.0006015246, 0.000348778442, -2.101122E-05, -3.1372478  , -0.019260345, -1.38210416 , 920.959656  , 28.7897453  , 798.578064  , 2.17        , 7           , 20          , 0           , 0
-0.181196317, 0.0408608876, 9.789532    , 0.000132740242, -0.0003769613, -0.000298790517, -3.13724637 , -0.01925659 , -1.38210118 , 920.959656  , 28.7897453  , 798.578369  , 2.18        , 7           , 21          , 0           , 0
-0.182372048, 0.0430563428, 9.788015    , -0.000202619936, -7.031928E-05, 0.000439077965, -3.13724828 , -0.0192558672, -1.38210547 , 920.959656  , 28.7897453  , 798.5787    , 2.19        , 7           , 22          , 0           , 0
-0.1850131  , 0.04506713  , 9.802779    , -9.675068E-05, -0.000230813166, -0.0002275662, -3.13724947 , -0.0192535687, -1.3821032  , 920.959656  , 28.7897453  , 798.579041  , 2.2         , 7           , 40          , 0           , 0
-0.184821427, 0.04569147  , 9.79770851  , -0.0006134884, -0.000494904933, -5.796933E-05, -3.13725    , -0.0192472916, -1.38210249 , 920.959656  , 28.7897453  , 798.5536    , 2.21        , 7           , 41          , 0           , 0
-0.187286139, 0.0507366844, 9.801607    , -0.0003094696, -0.000118987635, 0.000430373824, -3.137253   , -0.0192460828, -1.38210678 , 920.959656  , 28.7897453  , 798.5538    , 2.22        , 7           , 42          , 1           , 0
-0.186639875, 0.04325304  , 9.798562    , 0.0006300356, 0.000183249591, 0.0009601212, -3.13724661 , -0.01924787 , -1.38211632 , 920.959534  , 28.7900848  , 798.553955  , 2.23        , 7           , 255         , 0           , 0
-0.181931674, 0.04445781  , 9.793463    , 0.000642100757, -4.95086424E-05, 0.0005710929, -3.13724    , -0.0192473512, -1.38212228 , 920.959534  , 28.7900848  , 798.554138  , 2.24        , 7           , 255         , 0           , 0
-0.188567847, 0.03943523  , 9.792464    , -0.000301597058, 0.000359806465, 0.000157857838, -3.137243   , -0.01925094 , -1.38212371 , 920.959534  , 28.7900848  , 798.5543    , 2.25        , 7           , 255         , 0           , 0
-0.193459436, 0.04196282  , 9.799227    , 0.000716394337, 0.000362945953, 7.768429E-05, -3.13723588 , -0.019254569, -1.38212442 , 920.959534  , 28.7900848  , 798.5545    , 2.26        , 7           , 255         , 0           , 0
-0.189636767, 0.0404111072, 9.796351    , -0.000100342266, 0.000319833634, 0.000322740874, -3.13723683 , -0.0192577522, -1.38212764 , 920.959534  , 28.7900848  , 798.5547    , 2.27        , 7           , 255         , 0           , 0
-0.183539063, 0.0519916229, 9.79872     , -0.000802276656, -9.406288E-05, 0.000141069526, -3.1372447  , -0.0192568041, -1.38212907 , 920.959534  , 28.7900848  , 798.5549    , 2.28        , 7           , 255         , 0           , 0
-0.1897226  , 0.0423744433, 9.799571    , -0.0003402906, -0.000426114653, 1.73250446E-05, -3.13724828 , -0.0192525424, -1.38212919 , 920.959534  , 28.7900848  , 798.555054  , 2.29        , 7           , 255         , 0           , 0
-0.187389091, 0.0364196077, 9.795075    , -0.000275924685, 3.2868702E-05, -0.000678650045, -3.13725114 , -0.0192529  , -1.38212252 , 920.959534  , 28.7900848  , 798.555237  , 2.3         , 7           , 255         , 0           , 0
-0.190626785, 0.0424794033, 9.802268    , 8.643954E-05, 0.000223738374, 8.76380363E-05, -3.13724828 , -0.0192526784, -1.38212335 , 920.959534  , 28.7900848  , 798.532349  , 2.31        , 7           , 255         , 0           , 0
-0.190740168, 0.0452468172, 9.79447     , -0.0005208106, -2.67280266E-05, -1.48557592E-06, -3.13725352 , -0.01925241 , -1.38212323 , 920.959534  , 28.7900848  , 798.5324    , 2.32        , 7           , 255         , 0           , 0
-0.185356811, 0.0513548926, 9.800174    , 1.9873667E-05, -4.67645E-05, 0.0004142571, -3.13725328 , -0.019251924, -1.3821274  , 920.9218    , 28.7913055  , 798.5325    , 2.33        , 7           , 255         , 0           , 0
-0.189859957, 0.04169566  , 9.804049    , 4.36272239E-05, -0.0004223002, 0.0004414576, -3.13725257 , -0.01924768 , -1.38213193 , 920.9218    , 28.7913055  , 798.532532  , 2.34        , 7           , 255         , 0           , 0
-0.18833819 , 0.0470849164, 9.7964735   , -2.44092662E-05, -8.379808E-05, 0.0003094562, -3.13725281 , -0.01924683 , -1.382135   , 920.9218    , 28.7913055  , 798.5326    , 2.35        , 7           , 255         , 0           , 0
-0.186177477, 0.04617258  , 9.79814     , -9.54062562E-05, -5.19829337E-05, -0.000365039683, -3.13725376 , -0.0192463249, -1.38213134 , 920.9218    , 28.7913055  , 798.532654  , 2.36        , 7           , 255         , 0           , 0
-0.178760529, 0.03640569  , 9.796614    , -0.000239282672, 0.000196590554, -0.000318423641, -3.13725638 , -0.0192483049, -1.382128   , 920.9218    , 28.7913055  , 798.5327    , 2.37        , 7           , 255         , 0           , 0
-0.189536244, 0.0363887   , 9.791197    , -0.000471240375, 0.0001928932, 0.00014268799, -3.137261   , -0.0192502327, -1.38212931 , 920.9218    , 28.7913055  , 798.5328    , 2.38        , 7           , 255         , 0           , 0
-0.186169237, 0.029217476 , 9.791006    , -0.000235622225, -0.00018778001, 0.000123975042, -3.1372633  , -0.019248344, -1.38213062 , 920.9218    , 28.7913055  , 798.532837  , 2.39        , 7           , 255         , 0           , 0
-0.182063371, 0.0317711122, 9.798155    , -0.000305291382, 0.000621870859, 0.000142257719, -3.1372664  , -0.0192545578, -1.382132   , 920.9218    , 28.7913055  , 798.5329    , 2.4         , 7           , 255         , 0           , 0
-0.180513352, 0.0398302674, 9.802479    , -0.0003746711, 0.000271501951, -0.00019758413, -3.13727331 , -0.0192539264, -1.38212991 , 920.9218    , 28.7913055  , 798.5625    , 2.41        , 7           , 255         , 0           , 0
-0.177242652, 0.03790156  , 9.801834    , 0.000394394447, -0.000396776246, -0.000400986552, -3.1372695  , -0.0192499757, -1.38212585 , 920.9218    , 28.7913055  , 798.562744  , 2.42        , 7           , 255         , 0           , 0
-0.175532848, 0.0320293419, 9.793178    , 6.08844566E-05, 0.000265656039, -0.000489692145, -3.137269   , -0.0192526523, -1.382121   , 920.881836  , 28.7892036  , 798.563     , 2.43        , 7           , 255         , 0           , 0
-0.185365751, 0.03802431  , 9.801782    , -2.515805E-05, 0.000427822815, -0.000346000073, -3.13726926 , -0.0192569513, -1.38211751 , 920.881836  , 28.7892036  , 798.563232  , 2.44        , 7           , 255         , 0           , 0
-0.18554686 , 0.03450575  , 9.795568    , -0.000109204848, 1.74157321E-06, 0.0004700686, -3.13727021 , -0.0192569438, -1.382122   , 920.881836  , 28.7892036  , 798.5635    , 2.45        , 7           , 255         , 0           , 0
-0.182107776, 0.0415904   , 9.804456    , -0.0005066163, 0.0003975709, -0.0003361241, -3.13727546 , -0.0192609336, -1.3821187  , 920.881836  , 28.7892036  , 798.5637    , 2.46        , 7           , 255         , 0           , 0
-0.185685962, 0.0334037   , 9.806788    , -0.000337733218, 0.0003987723, -0.000427075633, -3.1372788  , -0.01926494 , -1.38211429 , 920.881836  , 28.7892036  , 798.564     , 2.47        , 7           , 255         , 0           , 0
-0.183898568, 0.0329888463, 9.792867    , 0.000438823423, 0.000242443988, -0.00104819366, -3.13727474 , -0.01926741 , -1.3821038  , 920.881836  , 28.7892036  , 798.564331  , 2.48        , 7           , 255         , 0           , 0
-0.1851559  , 0.04011691  , 9.796786    , 3.23485E-05 , -0.000395824085, -0.0007683373, -3.1372745  , -0.0192634854, -1.382096   , 920.881836  , 28.7892036  , 798.564636  , 2.49        , 7           , 255         , 0           , 0
-0.1907355  , 0.0408392176, 9.795594    , 0.000185419165, -0.000132447341, -0.0007876227, -3.13727283 , -0.0192621946, -1.38208818 , 920.881836  , 28.7892036  , 798.564941  , 2.5         , 7           , 255         , 0           , 0
-0.189628437, 0.0263967812, 9.804834    , -7.14794151E-05, 3.485591E-05, -0.000155942747, -3.13728213 , -0.01925342 , -1.38208652 , 920.881836  , 28.7892036  , 798.644348  , 2.51        , 7           , 255         , 0           , 0
-0.1806791  , 0.03509075  , 9.802283    , -3.3568358E-05, 9.734323E-05, -0.0007134165, -3.13728261 , -0.0192544237, -1.38207948 , 920.881836  , 28.7892036  , 798.645142  , 2.52        , 7           , 255         , 0           , 0
-0.201361611, 0.0360886939, 9.80479     , 0.000360663864, 5.074544E-05, 6.904575E-05, -3.137279   , -0.0192549285, -1.3820802  , 920.9159    , 28.7937489  , 798.645935  , 2.53        , 7           , 255         , 0           , 0
-0.1889386  , 0.0509539545, 9.794867    , 0.000247667078, 6.310735E-05, 0.000203865522, -3.13727641 , -0.01925555 , -1.38208222 , 920.9159    , 28.7937489  , 798.6467    , 2.54        , 7           , 255         , 0           , 0
-0.178891212, 0.0448390432, 9.790316    , -0.000475033128, 0.000407187967, -0.00013822256, -3.13728118 , -0.019259626, -1.38208079 , 920.9159    , 28.7937489  , 798.6475    , 2.55        , 7           , 255         , 0           , 0
-0.180272579, 0.0377688   , 9.801767    , -0.000235758489, -0.000140778255, -0.000138918112, -3.13728356 , -0.0192582253, -1.38207948 , 920.9159    , 28.7937489  , 798.6483    , 2.56        , 7           , 255         , 0           , 0
-0.184916079, 0.0448593274, 9.804395    , 0.000147245359, 0.000269251177, -0.000459919916, -3.13728237 , -0.01926094 , -1.38207483 , 920.9159    , 28.7937489  , 798.6491    , 2.57        , 7           , 255         , 0           , 0
-0.1909229  , 0.0501517728, 9.804125    , 0.000195619534, 0.000252412166, -0.000842376438, -3.13728046 , -0.0192635059, -1.38206625 , 920.9159    , 28.7937489  , 798.6499    , 2.58        , 7           , 255         , 0           , 0
-0.183262229, 0.041256614 , 9.803585    , 0.000263879076, 0.00053812447, -0.000724522863, -3.137278   , -0.0192689132, -1.3820591  , 920.9159    , 28.7937489  , 798.6507    , 2.59        , 7           , 255         , 0           , 0
-0.187255189, 0.0440876558, 9.790408    , 0.000210303348, 0.000520197442, -8.20863061E-05, -3.137276   , -0.0192741212, -1.38205826 , 920.9159    , 28.7937489  , 798.6515    , 2.6         , 7           , 255         , 0           , 0
-0.188545138, 0.0534574278, 9.789038    , 0.0005028748, -4.12899535E-05, -0.0006063683, -3.1372726  , -0.01927043 , -1.3820523  , 920.9159    , 28.7937489  , 798.6739    , 2.61        , 7           , 255         , 0           , 0
-0.186930373, 0.0440617763, 9.793974    , -0.0002791579, 0.000247772317, -3.37435631E-05, -3.13727546 , -0.0192729067, -1.382052   , 920.9159    , 28.7937489  , 798.674866  , 2.62        , 7           , 255         , 0           , 0
-0.192344412, 0.0400316827, 9.798792    , -0.000155213289, 0.000177376671, -0.000264072267, -3.13727713 , -0.0192746911, -1.38204932 , 920.908569  , 28.7920532  , 798.675842  , 2.63        , 7           , 255         , 0           , 0
-0.196539432, 0.03608115  , 9.792943    , -0.000320716179, -0.000163866673, 0.000166834914, -3.13728023 , -0.0192730445, -1.382051   , 920.908569  , 28.7920532  , 798.6768    , 2.64        , 7           , 255         , 0           , 0
-0.188512266, 0.04289141  , 9.792992    , -0.0004293962, -0.000245916541, 0.000129998021, -3.13728452 , -0.019270584, -1.38205218 , 920.908569  , 28.7920532  , 798.6778    , 2.65        , 7           , 255         , 0           , 0
-0.188477248, 0.04545999  , 9.800095    , 1.8687977E-05, -0.000118808122, -5.54418075E-05, -3.13728428 , -0.0192693938, -1.38205147 , 920.908569  , 28.7920532  , 798.6788    , 2.66        , 7           , 255         , 0           , 0
-0.184912637, 0.0405059271, 9.79751     , 0.000202865631, 0.000122101046, 0.0006173875, -3.13728213 , -0.0192705877, -1.38205767 , 920.908569  , 28.7920532  , 798.679749  , 2.67        , 7           , 255         , 0           , 0
-0.1798658  , 0.03962651  , 9.793688    , -7.370574E-05, 0.0003079176, 0.000186844845, -3.13728285 , -0.0192736611, -1.38205957 , 920.908569  , 28.7920532  , 798.6807    , 2.68        , 7           , 255         , 0           , 0
-0.186975613, 0.0433652028, 9.798117    , 0.000205125369, -0.000137214083, 5.91138378E-05, -3.137281   , -0.0192722846, -1.38206017 , 920.908569  , 28.7920532  , 798.6817    , 2.69        , 7           , 255         , 0           , 0
-0.1945053  , 0.0394603275, 9.804315    , 0.000341516163, -0.0005609684, 0.00026885618, -3.13727736 , -0.019266665, -1.38206291 , 920.908569  , 28.7920532  , 798.6827    , 2.7         , 7           , 255         , 0           , 0
-0.189553365, 0.0437638946, 9.793071    , -4.823366E-05, -0.000166845624, -5.89194533E-05, -3.13727736 , -0.0192649048, -1.38206244 , 920.908569  , 28.7920532  , 798.71106   , 2.71        , 7           , 255         , 0           , 0
-0.185728833, 0.0310834255, 9.796546    , -5.252019E-05, 0.000236565713, 0.000189693237, -3.13727784 , -0.0192672629, -1.38206422 , 920.908569  , 28.7920532  , 798.7122    , 2.72        , 7           , 255         , 0           , 0
-0.181470186, 0.03227474  , 9.797579    , -0.000174508546, -0.000152064255, -0.000301202759, -3.13727975 , -0.019265756, -1.38206124 , 920.9679    , 28.7974129  , 798.7134    , 2.73        , 7           , 255         , 0           , 0
-0.189221859, 0.04765276  , 9.800028    , 6.361946E-05, 0.000179532683, -0.00010620238, -3.137279   , -0.0192675553, -1.38206017 , 920.9679    , 28.7974129  , 798.714539  , 2.74        , 7           , 255         , 0           , 0
-0.1892417  , 0.04562854  , 9.799168    , 0.0001620464, -4.16710973E-05, 0.000227300858, -3.13727736 , -0.0192671288, -1.38206244 , 920.9679    , 28.7974129  , 798.7157    , 2.75        , 7           , 255         , 0           , 0
-0.193176389, 0.0327275023, 9.806862    , -1.25664519E-05, 0.000255896477, -0.000264753, -3.1372776  , -0.0192696955, -1.38205981 , 920.9679    , 28.7974129  , 798.716858  , 2.76        , 7           , 255         , 0           , 0
-0.191479132, 0.03864614  , 9.795164    , 4.09296481E-05, -8.68917E-05, 0.0006244283, -3.13727713 , -0.0192688  , -1.382066   , 920.9679    , 28.7974129  , 798.718     , 2.77        , 7           , 255         , 0           , 0
-0.187204152, 0.0360675678, 9.794627    , 0.0003194873, -0.0007001454, -0.000115961477, -3.13727379 , -0.0192618035, -1.38206482 , 920.9679    , 28.7974129  , 798.7192    , 2.78        , 7           , 255         , 0           , 0
-0.190943524, 0.0405287854, 9.801633    , -0.000314889883, -0.000476074521, 0.000316493446, -3.137277   , -0.01925703 , -1.382068   , 920.9679    , 28.7974129  , 798.720337  , 2.79        , 7           , 255         , 0           , 0
-0.190661162, 0.0423814841, 9.795858    , 3.339199E-05, -0.000461123884, -0.000118385884, -3.13727665 , -0.0192524251, -1.382067   , 920.9679    , 28.7974129  , 798.7215    , 2.8         , 7           , 255         , 0           , 0
-0.1953071  , 0.0419118255, 9.796184    , -0.0002895501, -0.00038475974, -0.000556576939, -3.137285   , -0.0192486979, -1.38206124 , 920.9679    , 28.7974129  , 798.6623    , 2.81        , 7           , 255         , 0           , 0
-0.188344866, 0.0464217737, 9.793649    , 0.0003897667, -0.000282309484, 0.000375014031, -3.137281   , -0.0192458648, -1.38206494 , 920.9679    , 28.7974129  , 798.6631    , 2.82        , 7           , 255         , 0           , 0
-0.178717941, 0.04817856  , 9.793313    , 0.000805718068, -0.000151020242, 0.0007236706, -3.13727283 , -0.0192443244, -1.38207209 , 921.001953  , 28.7938843  , 798.6639    , 2.83        , 7           , 255         , 0           , 0
-0.1847231  , 0.0429370068, 9.799411    , -2.36639753E-05, 0.000118129887, -2.76861247E-05, -3.137273   , -0.0192455016, -1.38207185 , 921.001953  , 28.7938843  , 798.6647    , 2.84        , 7           , 255         , 0           , 0
-0.185715318, 0.03944903  , 9.795951    , -0.0007106054, 0.0003396545, 0.000283022237, -3.13728    , -0.0192488879, -1.38207459 , 921.001953  , 28.7938843  , 798.665466  , 2.85        , 7           , 255         , 0           , 0
-0.185198635, 0.04547286  , 9.795461    , -0.000447944039, 0.000266836025, 0.00034182  , -3.13728452 , -0.01925154 , -1.382078   , 921.001953  , 28.7938843  , 798.66626   , 2.86        , 7           , 255         , 0           , 0
-0.191486716, 0.039491348 , 9.799774    , -0.000271450321, 0.000263014575, -0.0004618063, -3.13728738 , -0.0192541871, -1.3820734  , 921.001953  , 28.7938843  , 798.667053  , 2.87        , 7           , 255         , 0           , 0
-0.193880826, 0.04099095  , 9.801549    , -0.000258661516, 1.45570375E-05, -0.0003314298, -3.13729    , -0.0192543473, -1.38207006 , 921.001953  , 28.7938843  , 798.667847  , 2.88        , 7           , 255         , 0           , 0
-0.183626443, 0.0477504   , 9.800236    , -0.00026975316, -0.0001346441, -0.000336805475, -3.13729262 , -0.0192530174, -1.38206649 , 921.001953  , 28.7938843  , 798.66864   , 2.89        , 7           , 255         , 0           , 0
-0.183690324, 0.04307503  , 9.796139    , -0.000448508974, -0.000290845172, 0.000233632571, -3.13729715 , -0.0192500968, -1.38206887 , 921.001953  , 28.7938843  , 798.669434  , 2.9         , 7           , 255         , 0           , 0
-0.1872839  , 0.0447889864, 9.801485    , 0.000237900415, 7.955474E-05, -0.00016854587, -3.13729262 , -0.019248303, -1.38206708 , 921.001953  , 28.7938843  , 798.569336  , 2.91        , 7           , 255         , 0           , 0
-0.182622492, 0.0318116173, 9.805087    , -0.0002040664, -0.00021010451, 8.05882737E-05, -3.13729453 , -0.0192462  , -1.3820678  , 921.001953  , 28.7938843  , 798.5695    , 2.92        , 7           , 255         , 0           , 0
-0.187194049, 0.03798867  , 9.791529    , -0.000124378654, -0.000285919523, -0.0002375344, -3.137296   , -0.0192433521, -1.38206542 , 920.9294    , 28.7939529  , 798.5697    , 2.93        , 7           , 255         , 0           , 0
-0.1913199  , 0.0402882919, 9.792193    , -2.88755982E-05, -0.0003567245, 0.000132397166, -3.1372962  , -0.0192397777, -1.38206685 , 920.9294    , 28.7939529  , 798.5699    , 2.94        , 7           , 255         , 0           , 0
-0.186030909, 0.0385776833, 9.8034935   , 0.000129370543, -0.000475812121, 0.000223480863, -3.13729477 , -0.0192350112, -1.38206911 , 920.9294    , 28.7939529  , 798.570068  , 2.95        , 7           , 255         , 0           , 0
-0.192151666, 0.04331729  , 9.809669    , -0.000212231942, 0.0003396948, -1.61772477E-05, -3.137297   , -0.01923841 , -1.38206887 , 920.9294    , 28.7939529  , 798.570251  , 2.96        , 7           , 255         , 0           , 0
-0.19269605 , 0.0430215   , 9.79993248  , 8.21116846E-05, 0.000120898476, 0.000235715182, -3.1372962  , -0.0192396082, -1.38207126 , 920.9294    , 28.7939529  , 798.570435  , 2.97        , 7           , 255         , 0           , 0
-0.187398225, 0.0470926948, 9.79322     , 0.0009040368, 6.568036E-05, 0.000399902463, -3.137287   , -0.0192402471, -1.38207519 , 920.9294    , 28.7939529  , 798.5706    , 2.98        , 7           , 255         , 0           , 0
-0.18568185 , 0.040697135 , 9.794672    , -3.30333132E-05, 0.000137459254, 0.0004513521, -3.13728714 , -0.0192416  , -1.3820796  , 920.9294    , 28.7939529  , 798.5708    , 2.99        , 7           , 255         , 0           , 0
-0.182974249, 0.0384036079, 9.799268    , 0.000332056545, 0.000266059069, -0.00121846469, -3.137284   , -0.0192443132, -1.38206744 , 920.9294    , 28.7939529  , 798.571     , 3           , 7           , 0           , 8.47423649  , 300
-0.182886213, 0.03653127  , 9.796959    , 0.0004607198, -0.000375138363, -0.0008537042, -3.137282   , -0.0192390922, -1.38205886 , 920.9294    , 28.7939529  , 798.5861    , 3.01        , 7           , 1           , 0           , 0
-0.185300753, 0.03929593  , 9.798197    , 8.849625E-05, -0.0004898028, -0.000152433757, -3.13728118 , -0.0192342009, -1.38205731 , 920.9294    , 28.7939529  , 798.5864    , 3.02        , 7           , 2           , 0           , 0
-0.191049024, 0.0439980738, 9.804669    , -0.0001708743, -0.0002854613, -0.0007446036, -3.137283   , -0.0192313734, -1.3820498  , 920.9471    , 28.7972088  , 798.586731  , 3.03        , 7           , 3           , 0           , 0
-0.185146838, 0.0398304053, 9.800409    , -0.000231272716, 0.0003330803, -0.000581841159, -3.13728547 , -0.0192347337, -1.38204384 , 920.9471    , 28.7972088  , 798.587036  , 3.04        , 7           , 4           , 0           , 0
-0.185444862, 0.03979092  , 9.792624    , -0.0003397603, -0.0001321435, -0.000154022418, -3.13728881 , -0.01923342 , -1.38204241 , 920.9471    , 28.7972088  , 798.587341  , 3.05        , 7           , 5           , 0           , 0
-0.1856161  , 0.042023845 , 9.791403    , -0.000169873, -0.0006084938, 0.00052352756, -3.13729048 , -0.019227311, -1.38204753 , 920.9471    , 28.7972088  , 798.587646  , 3.06        , 7           , 6           , 0           , 0
