Acc X       , Acc Y       , Acc Z       , Gyro X      , Gyro Y      , Gyro Z      , Euler X     , Euler Y     , Euler Z     , Pres X      , Pres Y      , Pres Z      , Time        , Status      , LowRate X   , LowRate Y   , LowRate Z    
-9.786361   , 0.113144219 , -0.221103534, 0           , 0           , 0           , -0.4729836  , -1.54542243 , 0           , 920.827     , 27.60882    , 799.5844    , 0           , 2           , 0           , 5.47623158  , 0
-9.78903    , 0.12773028  , -0.230418012, -0.000193691463, -0.0005805092, 0.0004800239, -0.473256975, -1.54542387 , 0.0002719639, 920.827     , 27.60882    , 799.5844    , 0.01        , 3           , 1           , 0           , 0
-9.788445   , 0.12465398  , -0.234495044, -0.0005620336, -0.00217731274, 0.000544757 , -0.473844349, -1.54543793 , 0.000854053535, 920.827     , 27.60882    , 799.5844    , 0.02        , 3           , 2           , 0           , 0
-9.790375   , 0.118982658 , -0.234316155, -0.0002542903, -0.003872938, -0.0002580052, -0.4744558  , -1.5454756  , 0.00146271009, 920.828735  , 27.20204    , 799.5844    , 0.03        , 3           , 3           , 0           , 0
-9.793322   , 0.1180822   , -0.222957775, -0.0004935645, -0.004086283, 5.12814731E-05, -0.4752173  , -1.54551089 , 0.0022193   , 920.828735  , 27.20204    , 799.5844    , 0.04        , 3           , 4           , 0           , 0
-9.794264   , 0.124633506 , -0.22738266 , -0.000294588157, -0.00393987866, -0.000419050746, -0.475786   , -1.54554629 , 0.00278571039, 920.828735  , 27.20204    , 799.5844    , 0.05        , 3           , 5           , 0           , 0
-9.799322   , 0.125469491 , -0.2206234  , 0.0006858745, -0.000466310885, -0.0009209997, -0.475539654, -1.54555333 , 0.0025457032, 920.828735  , 27.20204    , 799.5844    , 0.06        , 3           , 6           , 0           , 0
-9.797539   , 0.117002547 , -0.215294167, -7.92369246E-05, 0.00297864527, -0.000197165966, -0.4749324  , -1.54552734 , 0.00193728006, 920.828735  , 27.20204    , 799.5844    , 0.07        , 3           , 7           , 0           , 0
-9.789259   , 0.126362056 , -0.225180477, 4.49733343E-05, 0.004552511 , 0.000257769716, -0.474199474, -1.545492   , 0.00120498042, 920.828735  , 27.20204    , 799.5844    , 0.08        , 3           , 8           , 5           , 5
-9.786214   , 0.116818383 , -0.228682518, 0.000366637367, 0.00365886232, 0.000257296429, -0.473627269, -1.545459   , 0.000636389654, 920.828735  , 27.20204    , 799.5844    , 0.09        , 3           , 9           , 5           , 0.1
-9.791441   , 0.118896864 , -0.229389757, 0.00047647662, 0.00168536045, -0.0008458742, -0.473022342, -1.54544735 , 3.586206E-05, 920.828735  , 27.20204    , 799.5844    , 0.1         , 3           , 10          , 0.1         , 0.1
-9.781672   , 0.115047731 , -0.233175546, -0.0005124081, -0.002618683, -0.00013024325, -0.474134147, -1.54543555 , 0.001142797 , 920.828735  , 27.20204    , 799.5687    , 0.11        , 3           , 11          , 0.0109544508, 0.0109544508
-9.788542   , 0.104665317 , -0.239887476, -0.000299336971, -0.007935293, -0.000575618, -0.475366771, -1.54550612 , 0.00237293961, 920.828735  , 27.20204    , 799.5687    , 0.12        , 3           , 12          , 0.174642488 , 0
-9.792374   , 0.115681723 , -0.2387588  , -0.000183461932, -0.0102886874, -5.40837063E-05, -0.4772191  , -1.54559827 , 0.00422319  , 920.8221    , 27.2424049  , 799.5687    , 0.13        , 3           , 13          , 0           , 0
-9.792692   , 0.11881052  , -0.224295661, -0.000147968181, -0.0109849032, -9.56628646E-05, -0.479195625, -1.545693   , 0.006198913 , 920.8221    , 27.2424049  , 799.5687    , 0.14        , 3           , 14          , 0.00159863837, 0.00323731918
-9.791356   , 0.102058545 , -0.212739319, 0.000409243745, -0.0109888287, -0.000344569853, -0.4810952  , -1.54579067 , 0.008103497 , 920.8221    , 27.2424049  , 799.5687    , 0.15        , 3           , 15          , 0           , 0.0005700883
-9.791871   , 0.108907714 , -0.2172018  , 0.000273536425, -0.009317385, -0.000254093145, -0.482732683, -1.545879   , 0.009743781 , 920.8221    , 27.2424049  , 799.5687    , 0.16        , 3           , 16          , 0           , 1.401298E-45
-9.796267   , 0.102763079 , -0.214026213, 0.000135752838, -0.005588001, -0.0003253714, -0.483658522, -1.54592443 , 0.0106710978, 920.8221    , 27.2424049  , 799.5687    , 0.17        , 3           , 20          , 0           , 0
-9.787816   , 0.104637943 , -0.209212512, 0.000370819 , -0.0007168851, -0.0003985027, -0.48364526 , -1.54593885 , 0.0106626274, 920.8221    , 27.2424049  , 799.5687    , 0.18        , 3           , 21          , 0           , 0
-9.794301   , 0.1106291   , -0.214850947, 0.000203515869, 0.00295275636, 0.000390435569, -0.48323068 , -1.54591012 , 0.0102494434, 920.8221    , 27.2424049  , 799.5688    , 0.19        , 3           , 22          , 0           , 0
-9.793312   , 0.108840682 , -0.2212675  , -0.000454590539, 0.00440258067, -0.0004210805, -0.482264459, -1.54586947 , 0.009278072 , 920.8221    , 27.2424049  , 799.568848  , 0.2         , 3           , 40          , 0           , 0
-9.78291    , 0.123773456 , -0.228843614, -0.0008226481, 0.0018936072, -0.000434367132, -0.480803549, -1.54584551 , 0.0078088413, 920.8221    , 27.2424049  , 799.599365  , 0.21        , 3           , 41          , 0           , 0
-9.780531   , 0.11662297  , -0.230480939, 0.000332296 , -0.00217945012, 8.935155E-05, -0.481235236, -1.54586458 , 0.008244593 , 920.8221    , 27.2424049  , 799.5994    , 0.22        , 3           , 42          , 0           , 0
-9.782546   , 0.112094067 , -0.234368637, 0.000258644577, -0.006253448, -0.00016382552, -0.4823377  , -1.54591727 , 0.009350012 , 920.7872    , 27.2694073  , 799.5995    , 0.23        , 3           , 255         , 0           , 0
-9.788032   , 0.106763318 , -0.2210621  , 7.3788804E-05, -0.00739961769, 0.0003420096, -0.483842075, -1.54598927 , 0.0108548263, 920.7872    , 27.2694073  , 799.599548  , 0.24        , 3           , 255         , 0           , 0
-9.795008   , 0.11564368  , -0.22201097 , 0.000428120024, -0.00652140565, 0.000159021991, -0.48511976 , -1.54603982 , 0.0121375332, 920.7872    , 27.2694073  , 799.5996    , 0.25        , 3           , 255         , 0           , 0
-9.794425   , 0.123330832 , -0.217983052, 0.000279861968, -0.00662735663, -0.0006794625, -0.4861237  , -1.54611218 , 0.01314505  , 920.7872    , 27.2694073  , 799.5997    , 0.26        , 3           , 255         , 0           , 0
-9.796364   , 0.125268772 , -0.212362811, -9.51107359E-05, -0.005898715, -0.0006632497, -0.4870054  , -1.54616046 , 0.0140269417, 920.7872    , 27.2694073  , 799.599731  , 0.27        , 3           , 255         , 0           , 0
-9.796671   , 0.112511262 , -0.218148515, 0.000565227238, -0.004937091, -0.0007973191, -0.487652779, -1.54620159 , 0.0146800485, 920.7872    , 27.2694073  , 799.5998    , 0.28        , 3           , 255         , 0           , 0
-9.793789   , 0.114969358 , -0.21030955 , -0.000308607356, -0.000204876764, -0.000308343529, -0.487584352, -1.54620647 , 0.0146068325, 920.7872    , 27.2694073  , 799.599854  , 0.29        , 3           , 255         , 0           , 0
-9.79680252 , 0.11905805  , -0.202619642, -0.000144071179, 0.006412953 , -4.15494433E-05, -0.486352175, -1.54615319 , 0.01337343  , 920.7872    , 27.2694073  , 799.5999    , 0.3         , 3           , 255         , 0           , 0
-9.793676   , 0.1262446   , -0.215563387, -0.000174835441, 0.0115691954, -0.0002219076, -0.484268427, -1.5460254  , 0.011287054 , 920.7872    , 27.2694073  , 799.7155    , 0.31        , 3           , 255         , 0           , 0
-9.794907   , 0.119833268 , -0.225458577, -2.02477677E-05, 0.0133167524, -0.0007295776, -0.481517076, -1.54591727 , 0.008535073 , 920.7872    , 27.2694073  , 799.7156    , 0.32        , 3           , 255         , 0           , 0
-9.791643   , 0.110963866 , -0.222530812, -0.000274910126, 0.0122542391, -0.000178509246, -0.479185075, -1.54580736 , 0.00620054454, 920.826843  , 27.2861633  , 799.715637  , 0.33        , 3           , 255         , 0           , 0
-9.799322   , 0.122457966 , -0.229195386, -0.0002476616, 0.010146847 , 0.00017642352, -0.477385521, -1.54571915 , 0.004397377 , 920.826843  , 27.2861633  , 799.7157    , 0.34        , 3           , 255         , 0           , 0
-9.783871   , 0.120234832 , -0.234701484, -0.000445834, 0.00601222273, 0.00106699206, -0.47666806 , -1.54565513 , 0.003675238 , 920.826843  , 27.2861633  , 799.715759  , 0.35        , 3           , 255         , 0           , 0
-9.784725   , 0.11659199  , -0.235208556, -0.000243913615, 0.00153706223, -0.00013604539, -0.4763417  , -1.54563856 , 0.00334628019, 920.826843  , 27.2861633  , 799.7158    , 0.36        , 3           , 255         , 0           , 0
-9.79412651 , 0.118345715 , -0.233602   , -0.000375450123, -0.0007675318, -0.00015352809, -0.47643137 , -1.54564559 , 0.00343262451, 920.826843  , 27.2861633  , 799.7159    , 0.37        , 3           , 255         , 0           , 0
-9.792354   , 0.128668815 , -0.236167759, -5.259132E-05, -0.00248949975, -8.55560356E-05, -0.476857275, -1.54566932 , 0.00385746453, 920.826843  , 27.2861633  , 799.715942  , 0.38        , 3           , 255         , 0           , 0
-9.789866   , 0.113403462 , -0.232693881, -1.36081362E-05, -0.0019630047, -0.000586448645, -0.477008581, -1.545693   , 0.004008375 , 920.826843  , 27.2861633  , 799.716     , 0.39        , 3           , 255         , 0           , 0
-9.781866   , 0.110583141 , -0.222816229, -0.000190522056, -0.0002839868, 0.000401202764, -0.477202743, -1.54569066 , 0.00420142151, 920.826843  , 27.2861633  , 799.716064  , 0.4         , 3           , 255         , 0           , 0
-9.781769   , 0.105825685 , -0.214464992, 3.43075953E-05, -0.000361944549, 0.0001245034, -0.4773797  , -1.545648   , 0.00437821634, 920.826843  , 27.2861633  , 799.683533  , 0.41        , 3           , 255         , 0           , 0
-9.7917     , 0.105835959 , -0.223600388, 4.19080025E-05, -0.000722157536, -0.000198448717, -0.477441519, -1.54565513 , 0.004440563 , 920.826843  , 27.2861633  , 799.6836    , 0.42        , 3           , 255         , 0           , 0
-9.800528   , 0.103687838 , -0.231182247, 6.15778845E-06, -0.001518577, 0.000130064262, -0.477765858, -1.54566932 , 0.004764332 , 920.773865  , 27.2970867  , 799.683655  , 0.43        , 3           , 255         , 0           , 0
-9.801897   , 0.104541615 , -0.213711113, 7.861236E-05, 0.0008393063, -0.000220096292, -0.477533072, -1.54566455 , 0.004533013 , 920.773865  , 27.2970867  , 799.6837    , 0.44        , 3           , 255         , 0           , 0
-9.798281   , 0.1056473   , -0.216393515, -0.000234968844, 0.00442534871, -0.000177689537, -0.4766649  , -1.545622   , 0.00366219133, 920.773865  , 27.2970867  , 799.6838    , 0.45        , 3           , 255         , 0           , 0
-9.789347   , 0.112124324 , -0.2253213  , 0.0004043792, 0.00574166141, -0.00017794178, -0.4755538  , -1.5455817  , 0.00255398452, 920.773865  , 27.2970867  , 799.683838  , 0.46        , 3           , 255         , 0           , 0
-9.78294    , 0.112003207 , -0.235519841, -0.000111331465, 0.004356575 , -6.193307E-05, -0.474743515, -1.54553688 , 0.00174353179, 920.773865  , 27.2970867  , 799.6839    , 0.47        , 3           , 255         , 0           , 0
-9.784468   , 0.10356991  , -0.2387108  , 0.000244978582, -0.000214720378, -0.00106787286, -0.474404424, -1.54554152 , 0.00140641816, 920.773865  , 27.2970867  , 799.68396   , 0.48        , 3           , 255         , 0           , 0
-9.789294   , 0.101869188 , -0.236435369, 0.000666952343, -0.00672431756, 5.4376258E-05, -0.475635827, -1.54560542 , 0.00264497078, 920.773865  , 27.2970867  , 799.684     , 0.49        , 3           , 255         , 0           , 0
-9.786819   , 0.114095606 , -0.2334433  , -0.0005977672, -0.0106666591, -0.000266484567, -0.477493078, -1.54570735 , 0.0044966205, 920.773865  , 27.2970867  , 799.6841    , 0.5         , 3           , 255         , 0           , 0
-9.787455   , 0.102155373 , -0.221630529, -1.35111623E-06, -0.0110000456, -0.000171378837, -0.478114456, -1.54578352 , 0.00511922641, 920.773865  , 27.2970867  , 799.7622    , 0.51        , 3           , 255         , 0           , 0
-9.790189   , 0.113079667 , -0.220411852, -1.0796939E-05, -0.009371479, 0.000150232867, -0.4798981  , -1.54586458 , 0.006902639 , 920.773865  , 27.2970867  , 799.7623    , 0.52        , 3           , 255         , 0           , 0
-9.789978   , 0.115043581 , -0.2173425  , 0.000134488451, -0.009178662, 0.000758066948, -0.481872082, -1.545946   , 0.008879796 , 920.785034  , 27.3087559  , 799.762451  , 0.53        , 3           , 255         , 0           , 0
-9.792083   , 0.114190772 , -0.219289944, -0.00023902033, -0.008908133, -0.0001431164, -0.4834897  , -1.54603016 , 0.0104953554, 920.785034  , 27.3087559  , 799.7626    , 0.54        , 3           , 255         , 0           , 0
-9.78316    , 0.111987017 , -0.219261169, 6.31461153E-05, -0.007452606, 6.73391041E-05, -0.484915167, -1.54608071 , 0.0119208582, 920.785034  , 27.3087559  , 799.7627    , 0.55        , 3           , 255         , 0           , 0
-9.790735   , 0.121078238 , -0.214726761, 0.000427276245, -0.004707733, -0.0002652699, -0.4857052  , -1.5461266  , 0.0127156908, 920.785034  , 27.3087559  , 799.7628    , 0.56        , 3           , 255         , 0           , 0
-9.789637   , 0.112954214 , -0.2223645  , 0.000449061277, -0.00159942824, 0.000176348549, -0.486067057, -1.54615319 , 0.0130829243, 920.785034  , 27.3087559  , 799.762939  , 0.57        , 3           , 255         , 0           , 0
-9.795641   , 0.115568236 , -0.221767992, 0.000334928976, 0.00049064937, 6.04183879E-05, -0.4859937  , -1.54614592 , 0.0130128134, 920.785034  , 27.3087559  , 799.763062  , 0.58        , 3           , 255         , 0           , 0
-9.786778   , 0.116844043 , -0.2235156  , -0.0002405541, 1.05381478E-05, -0.000287751929, -0.485889316, -1.54614115 , 0.0129052205, 920.785034  , 27.3087559  , 799.7632    , 0.59        , 3           , 255         , 0           , 0
-9.793707   , 0.11824514  , -0.221079826, -0.0004139779, -0.0009617037, -0.000103866507, -0.486038625, -1.5461508  , 0.0130508458, 920.785034  , 27.3087559  , 799.7633    , 0.6         , 3           , 255         , 0           , 0
-9.788247   , 0.119704269 , -0.2230972  , -1.4363206E-05, -0.00419080677, 0.000283739122, -0.486703873, -1.54616284 , 0.0137155252, 920.785034  , 27.3087559  , 799.79834   , 0.61        , 3           , 255         , 0           , 0
-9.781221   , 0.11759387  , -0.2240854  , 0.000508360448, -0.0065614935, -0.00016551037, -0.487887621, -1.54622829 , 0.0149050141, 920.785034  , 27.3087559  , 799.798462  , 0.62        , 3           , 255         , 0           , 0
-9.784786   , 0.11775367  , -0.222106576, 0.00019049109, -0.007925079, -0.000296236045, -0.489295363, -1.54628909 , 0.0163147375, 920.792053  , 27.3145218  , 799.7986    , 0.63        , 3           , 255         , 0           , 0
-9.784887   , 0.118858621 , -0.21731019 , -0.000347057474, -0.008578439, 0.000162943383, -0.491007864, -1.546367   , 0.0180251151, 920.792053  , 27.3145218  , 799.7987    , 0.64        , 3           , 255         , 0           , 0
-9.791878   , 0.11292734  , -0.219441742, -1.96733745E-05, -0.009011949, -0.000504159951, -0.492569983, -1.54645014 , 0.019587582 , 920.792053  , 27.3145218  , 799.7988    , 0.65        , 3           , 255         , 0           , 0
-9.789403   , 0.116568364 , -0.217377946, -0.000395274023, -0.008790693, -0.0006107347, -0.494065672, -1.54653347 , 0.0210795514, 920.792053  , 27.3145218  , 799.79895   , 0.66        , 3           , 255         , 0           , 0
-9.795411   , 0.120505214 , -0.218246579, -0.0003854552, -0.006814228, 0.0004413603, -0.495564729, -1.546595   , 0.02257522  , 920.792053  , 27.3145218  , 799.7991    , 0.67        , 3           , 255         , 0           , 0
-9.800575   , 0.113421641 , -0.21090889 , 0.000211985782, -0.004243741, -8.430224E-05, -0.4963684  , -1.54662454 , 0.0233814958, 920.792053  , 27.3145218  , 799.7992    , 0.68        , 3           , 255         , 0           , 0
-9.795427   , 0.118910864 , -0.2027349  , -9.920704E-05, 0.000766942045, -0.000429606531, -0.496061265, -1.54662216 , 0.0230728555, 920.792053  , 27.3145218  , 799.7993    , 0.69        , 3           , 255         , 0           , 0
-9.790978   , 0.11287111  , -0.201346442, 0.000285455957, 0.006154541 , -0.0006834427, -0.49459964 , -1.54657781 , 0.0216138717, 920.792053  , 27.3145218  , 799.799438  , 0.7         , 3           , 255         , 0           , 0
-9.799283   , 0.117868342 , -0.221122354, 0.000261038658, 0.00828179251, -0.00107582973, -0.4927604  , -1.54648685 , 0.01977661  , 920.792053  , 27.3145218  , 799.815     , 0.71        , 3           , 255         , 0           , 0
-9.790163   , 0.129606873 , -0.221826985, 0.000858469866, 0.006967579 , -0.000313329481, -0.491287768, -1.54642808 , 0.0183123443, 920.792053  , 27.3145218  , 799.8151    , 0.72        , 3           , 255         , 0           , 0
-9.784349   , 0.123575285 , -0.2324265  , -2.32493039E-05, 0.00244522537, 0.0007088588, -0.491071016, -1.54639876 , 0.0180950873, 920.8716    , 27.3189983  , 799.8153    , 0.73        , 3           , 255         , 0           , 0
-9.78301    , 0.111626729 , -0.23332791 , -0.000642223, -0.00232905638, 0.000380774844, -0.4916664  , -1.54641581 , 0.0186843071, 920.8716    , 27.3189983  , 799.8155    , 0.74        , 3           , 255         , 0           , 0
-9.782971   , 0.116016343 , -0.21722798 , -0.000124611775, -0.00570034329, -0.00020979924, -0.492698282, -1.54647219 , 0.019716166 , 920.8716    , 27.3189983  , 799.8157    , 0.75        , 3           , 255         , 0           , 0
-9.796468   , 0.118347026 , -0.2177467  , -0.0003145123, -0.00513037667, -0.000418781827, -0.4935494  , -1.54651392 , 0.0205628742, 920.8716    , 27.3189983  , 799.815857  , 0.76        , 3           , 255         , 0           , 0
-9.78837    , 0.11681889  , -0.221114725, -0.0005210367, -0.00429367 , -0.000644517946, -0.494160384, -1.54655313 , 0.021169411 , 920.8716    , 27.3189983  , 799.81604   , 0.77        , 3           , 255         , 0           , 0
-9.791974   , 0.116552964 , -0.2199914  , 0.00014596642, -0.003841303, -0.000100883422, -0.4948752  , -1.5465852  , 0.021886019 , 920.8716    , 27.3189983  , 799.8162    , 0.78        , 3           , 255         , 0           , 0
-9.796968   , 0.102608219 , -0.220174983, 0.000168583589, -0.004489771, 0.0005866483, -0.4959699  , -1.54661965 , 0.02298253  , 920.8716    , 27.3189983  , 799.8164    , 0.79        , 3           , 255         , 0           , 0
-9.793698   , 0.103708446 , -0.220441058, 0.000545349 , -0.00560055673, 3.431778E-05, -0.4970811  , -1.5466789  , 0.0241002   , 920.8716    , 27.3189983  , 799.8166    , 0.8         , 3           , 255         , 0           , 0
-9.78553    , 0.113354661 , -0.207862347, 0.0004113717, -0.004044348, 0.000556289742, -0.497627676, -1.54667151 , 0.0246510431, 920.8716    , 27.3189983  , 799.7295    , 0.81        , 3           , 255         , 0           , 0
-9.788243   , 0.117974564 , -0.213847563, -0.000533889048, -0.00118126068, -0.0001993361, -0.49779582 , -1.5466814  , 0.0248135235, 920.8716    , 27.3189983  , 799.729553  , 0.82        , 3           , 255         , 0           , 0
-9.79128    , 0.110307537 , -0.2109201  , -0.000116090174, 0.00220663473, -6.94671762E-05, -0.497335076, -1.54665911 , 0.0243504979, 920.786865  , 27.3227978  , 799.7296    , 0.83        , 3           , 255         , 0           , 0
-9.795993   , 0.117332637 , -0.221261784, -7.21812248E-05, 0.00485720951, -0.0002676978, -0.4962789  , -1.54662216 , 0.0232945271, 920.786865  , 27.3227978  , 799.7297    , 0.84        , 3           , 255         , 0           , 0
-9.784626   , 0.112632133 , -0.226075292, -0.000284499954, 0.005078939 , -0.000123234058, -0.495237827, -1.54656792 , 0.0222508367, 920.786865  , 27.3227978  , 799.729736  , 0.85        , 3           , 255         , 0           , 0
-9.78569    , 0.102789141 , -0.22170797 , -0.000327977818, 0.00342046842, -1.32314744E-05, -0.494568676, -1.54654336 , 0.0215768069, 920.786865  , 27.3227978  , 799.7298    , 0.86        , 3           , 255         , 0           , 0
-9.790806   , 0.103624344 , -0.2233471  , -3.50656919E-05, 0.0023120665, 0.000417737232, -0.494265974, -1.5465163  , 0.02127503  , 920.786865  , 27.3227978  , 799.729858  , 0.87        , 3           , 255         , 0           , 0
-9.794218   , 0.111713149 , -0.226369   , -0.000203419011, -0.0009782163, 0.0004978971, -0.494639874, -1.54652119 , 0.0216466058, 920.786865  , 27.3227978  , 799.7299    , 0.88        , 3           , 255         , 0           , 0
-9.795537   , 0.115761437 , -0.225168139, -0.00015562796, -0.00256956648, -0.000915852, -0.494811356, -1.54654825 , 0.0218157675, 920.786865  , 27.3227978  , 799.73      , 0.89        , 3           , 255         , 0           , 0
-9.784841   , 0.1113956   , -0.230313733, 0.000101692043, -0.004495372, -9.782822E-05, -0.495656937, -1.54658759 , 0.0226630587, 920.786865  , 27.3227978  , 799.7301    , 0.9         , 3           , 255         , 0           , 0
-9.788809   , 0.112221338 , -0.218261719, -0.000855695631, -0.005827639, -0.000481974217, -0.4956783  , -1.54661226 , 0.0226757824, 920.786865  , 27.3227978  , 799.758057  , 0.91        , 3           , 255         , 0           , 0
-9.784902   , 0.109326065 , -0.209879011, -0.000537269167, -0.00556891831, -0.0005951398, -0.496563345, -1.54665911 , 0.0235553086, 920.786865  , 27.3227978  , 799.7582    , 0.92        , 3           , 255         , 0           , 0
-9.795234   , 0.111637257 , -0.208603382, 0.000141058816, -0.003500448, 0.000120748358, -0.497297376, -1.54669368 , 0.0242911633, 920.846069  , 27.3268681  , 799.7583    , 0.93        , 3           , 255         , 0           , 0
-9.79112148 , 0.117729865 , -0.21365504 , 3.39187682E-05, -0.00198003859, 0.000565941737, -0.497895479, -1.54670608 , 0.0248902645, 920.846069  , 27.3268681  , 799.7584    , 0.94        , 3           , 255         , 0           , 0
-9.799758   , 0.109927878 , -0.219614   , -0.000144151738, -0.00132424256, 0.001111839 , -0.498564661, -1.546716   , 0.025558535 , 920.846069  , 27.3268681  , 799.758545  , 0.95        , 3           , 255         , 0           , 0
-9.794337   , 0.104239509 , -0.208230779, -0.000446899678, 0.000797145069, 1.527858E-05, -0.4984166  , -1.54670608 , 0.0254056323, 920.846069  , 27.3268681  , 799.758667  , 0.96        , 3           , 255         , 0           , 0
-9.794294   , 0.107465863 , -0.213259608, -0.000441629323, 0.003906539 , -4.02494334E-05, -0.497633159, -1.546674   , 0.02461761  , 920.846069  , 27.3268681  , 799.7588    , 0.97        , 3           , 255         , 0           , 0
-9.789198   , 0.113388792 , -0.22550483 , -1.19354809E-05, 0.0052393144, -0.000281520741, -0.496495724, -1.54663444 , 0.0234802179, 920.846069  , 27.3268681  , 799.7589    , 0.98        , 3           , 255         , 0           , 0
-9.788704   , 0.115532652 , -0.228251576, 0.000352625153, 0.004046436 , 0.0003700697, -0.495830655, -1.54659259 , 0.0228188857, 920.846069  , 27.3268681  , 799.759033  , 0.99        , 3           , 255         , 0           , 0
-9.792038   , 0.1088116   , -0.224522427, -0.000115540228, 0.0008592587, -0.0001331917, -0.495616078, -1.5465852  , 0.022602465 , 920.846069  , 27.3268681  , 799.759155  , 1           , 3           , 0           , 6.47623634  , 100
-9.786694   , 0.106613182 , -0.228553817, -0.000247466844, -0.00183028751, -0.00062121154, -0.495020658, -1.5465827  , 0.0220052171, 920.846069  , 27.3268681  , 799.7174    , 1.01        , 3           , 1           , 0           , 0
-9.800641   , 0.113481343 , -0.23026976 , -0.000541643938, -0.005996193, -0.000322007225, -0.4960881  , -1.54664183 , 0.0230671931, 920.846069  , 27.3268681  , 799.717468  , 1.02        , 3           , 2           , 0           , 0
-9.773117   , 0.112714611 , -0.224914819, -0.000247964985, -0.008707966, -0.0006242902, -0.4975844  , -1.54671109 , 0.024561679 , 920.8237    , 27.3283615  , 799.7175    , 1.03        , 3           , 3           , 0           , 0
-9.79205    , 0.10618867  , -0.214791492, 0.000189178623, -0.007973628, -0.000830320467, -0.498863518, -1.54679036 , 0.0258420967, 920.8237    , 27.3283615  , 799.7176    , 1.04        , 3           , 4           , 0           , 0
-9.802402   , 0.111958884 , -0.205611825, 0.000299014151, -0.00369782187, -0.0006232857, -0.499370337, -1.54682267 , 0.026353091 , 920.8237    , 27.3283615  , 799.717651  , 1.05        , 3           , 5           , 0           , 0
-9.804461   , 0.11841891  , -0.202564627, 0.000184895238, 0.00284379232, -0.000736292335, -0.498532265, -1.54680526 , 0.0255155   , 920.8237    , 27.3283615  , 799.7177    , 1.06        , 3           , 6           , 0           , 0
-9.796471   , 0.11846485  , -0.211967856, -0.000276639359, 0.008297939 , -0.000528284931, -0.496693015, -1.54673338 , 0.0236732624, 920.8237    , 27.3283615  , 799.7178    , 1.07        , 3           , 7           , 0           , 0
-9.787678   , 0.117165051 , -0.226262644, -0.000533971, 0.008014152 , 5.853566E-05, -0.495137781, -1.5466665  , 0.0221128166, 920.8237    , 27.3283615  , 799.717834  , 1.08        , 3           , 8           , 5           , 5
-9.784494   , 0.12149068  , -0.231166989, -0.000410491717, 0.00562649965, 0.000327059824, -0.494155884, -1.54661965 , 0.0211261939, 920.8237    , 27.3283615  , 799.7179    , 1.09        , 3           , 9           , 5           , 0.1
-9.787527   , 0.119542383 , -0.225329041, -7.18480442E-06, 0.00382354  , 0.000144832651, -0.493460685, -1.5465802  , 0.0204302538, 920.8237    , 27.3283615  , 799.717957  , 1.1         , 3           , 10          , 0.1         , 0.1
-9.791003   , 0.122975849 , -0.224384159, -5.2090385E-05, 0.00133456639, -0.0004889231, -0.492478043, -1.54652858 , 0.019447187 , 920.8237    , 27.3283615  , 799.705933  , 1.11        , 3           , 11          , 0.009158641 , 0.009158642
-9.800337   , 0.114014171 , -0.227222174, -0.0006162982, -0.0016483285, -0.00084669143, -0.492498517, -1.54654336 , 0.0194620788, 920.8237    , 27.3283615  , 799.706     , 1.12        , 3           , 12          , 0.174642846 , 0
-9.793386   , 0.11443267  , -0.219973683, -0.00115109072, -0.00345514528, 0.000235228566, -0.493270725, -1.5465728  , 0.0202223659, 920.8339    , 27.3323631  , 799.706055  , 1.13        , 3           , 13          , 0           , 0
-9.801008   , 0.108797356 , -0.221712828, -0.000129517168, -0.00624714652, -0.0001739113, -0.494431973, -1.54663444 , 0.0213832539, 920.8339    , 27.3323631  , 799.7061    , 1.14        , 3           , 14          , 0.0015986365, 0.00323709217
-9.785759   , 0.111371659 , -0.210708767, 0.0007052155, -0.007752248, -0.0005923715, -0.495735139, -1.54670858 , 0.02269373  , 920.8339    , 27.3323631  , 799.7062    , 1.15        , 3           , 15          , 0           , 0.000570068369
-9.793773   , 0.117739595 , -0.210638314, 0.0002039948, -0.00634193746, 3.470201E-05, -0.49700135 , -1.54675817 , 0.0239625312, 920.8339    , 27.3323631  , 799.706238  , 1.16        , 3           , 16          , 0           , 1.401298E-45
-9.798906   , 0.113371849 , -0.212994248, -0.000429995242, -0.00430068653, 6.628904E-05, -0.4978843  , -1.54679537 , 0.024841018 , 920.8339    , 27.3323631  , 799.7063    , 1.17        , 3           , 20          , 0           , 0
-9.801285   , 0.104708955 , -0.213470742, -0.000268353033, -0.000764452154, 0.000171376741, -0.4981023  , -1.54680526 , 0.025057232 , 920.8339    , 27.3323631  , 799.70636   , 1.18        , 3           , 21          , 0           , 0
-9.796834   , 0.103329852 , -0.21857591 , 0.000258911285, 0.003891148 , -0.00027058227, -0.497228   , -1.54676807 , 0.0241852   , 920.8339    , 27.3323631  , 799.7064    , 1.19        , 3           , 22          , 0           , 0
-9.794775   , 0.105747029 , -0.226807326, -0.0005998871, 0.004202404 , -0.0005674559, -0.4961941  , -1.54673338 , 0.0231446344, 920.8339    , 27.3323631  , 799.7065    , 1.2         , 3           , 40          , 0           , 0
-9.787203   , 0.110152461 , -0.223639891, -2.91861361E-05, 0.00272624684, 0.000272827456, -0.4952447  , -1.54669368 , 0.0221953522, 920.8339    , 27.3323631  , 799.6856    , 1.21        , 3           , 41          , 0           , 0
-9.796148   , 0.106138229 , -0.219073489, 0.0003851595, 0.00308347284, 0.000262697577, -0.494728863, -1.54666162 , 0.0216824226, 920.8339    , 27.3323631  , 799.6856    , 1.22        , 3           , 42          , 0           , 0
-9.78239    , 0.100646675 , -0.217967346, 0.0007254557, 0.002932315 , -0.000581631029, -0.493932933, -1.54663944 , 0.0208941083, 920.8321    , 27.3306     , 799.6856    , 1.23        , 3           , 255         , 0           , 0
-9.802627   , 0.106473923 , -0.222401068, -0.000129448832, 0.00206930959, -0.0005087564, -0.493341476, -1.54661965 , 0.02030133  , 920.8321    , 27.3306     , 799.6856    , 1.24        , 3           , 255         , 0           , 0
-9.789668   , 0.108135782 , -0.22910063 , 0.000219010166, -1.38257165E-05, -0.0006109182, -0.49312    , -1.54662955 , 0.0200818181, 920.8321    , 27.3306     , 799.6856    , 1.25        , 3           , 255         , 0           , 0
-9.785889   , 0.1029312   , -0.227411464, -0.000108557404, -0.00143807475, 0.000295398175, -0.493510365, -1.54664183 , 0.0204713773, 920.8321    , 27.3306     , 799.6856    , 1.26        , 3           , 255         , 0           , 0
-9.787176   , 0.104734682 , -0.228203461, -1.09244138E-05, -0.00350830052, 0.00039262342, -0.494342834, -1.546669   , 0.0213035252, 920.8321    , 27.3306     , 799.6856    , 1.27        , 3           , 255         , 0           , 0
-9.78336048 , 0.10707809  , -0.218471855, -0.0007283273, -0.006208649, 0.00011898583, -0.495617777, -1.54671848 , 0.02257058  , 920.8321    , 27.3306     , 799.6856    , 1.28        , 3           , 255         , 0           , 0
-9.786753   , 0.114274517 , -0.221402764, 9.305368E-05, -0.00740963034, 0.000528218166, -0.497276425, -1.54678547 , 0.0242318623, 920.8321    , 27.3306     , 799.6856    , 1.29        , 3           , 255         , 0           , 0
-9.797379   , 0.117156878 , -0.217876986, 0.000914218952, -0.008175674, 0.00024035637, -0.49898535 , -1.54685748 , 0.0259504654, 920.8321    , 27.3306     , 799.6856    , 1.3         , 3           , 255         , 0           , 0
-9.79523849 , 0.1162466   , -0.217196748, 6.446487E-05, -0.00734105241, 0.000147063751, -0.4991621  , -1.5468874  , 0.02612803  , 920.8321    , 27.3306     , 799.668945  , 1.31        , 3           , 255         , 0           , 0
-9.796636   , 0.114020564 , -0.211140513, -0.0003595294, -0.00618515955, -0.0005630492, -0.5001993  , -1.54693985 , 0.0271623675, 920.8321    , 27.3306     , 799.6689    , 1.32        , 3           , 255         , 0           , 0
-9.783687   , 0.118276976 , -0.205497056, -7.400452E-05, -0.00575234 , 5.53599675E-05, -0.5013799  , -1.54699743 , 0.0283421483, 920.8164    , 27.3355522  , 799.6689    , 1.33        , 3           , 255         , 0           , 0
-9.797054   , 0.121200785 , -0.2139117  , -0.000134384027, -0.004100945, -2.58398359E-05, -0.5022006  , -1.54702747 , 0.0291625168, 920.8164    , 27.3355522  , 799.6689    , 1.34        , 3           , 255         , 0           , 0
-9.795431   , 0.114041016 , -0.220248073, -0.000143587822, -0.00406312244, -0.000175710826, -0.502962053, -1.54706514 , 0.0299224276, 920.8164    , 27.3355522  , 799.6689    , 1.35        , 3           , 255         , 0           , 0
-9.792828   , 0.111128092 , -0.2128655  , 8.127303E-05, -0.00326384115, 0.000212331768, -0.5037035  , -1.54709029 , 0.0306641888, 920.8164    , 27.3355522  , 799.6689    , 1.36        , 3           , 255         , 0           , 0
-9.801168   , 0.118176796 , -0.209652662, 8.870533E-05, -0.00151685055, 0.000264647068, -0.5041078  , -1.54710531 , 0.03106994  , 920.8164    , 27.3355522  , 799.6689    , 1.37        , 3           , 255         , 0           , 0
-9.783912   , 0.114520885 , -0.222394183, -0.000546753756, -0.00110053783, 7.18451338E-05, -0.5043632  , -1.54711282 , 0.0313208625, 920.8164    , 27.3355522  , 799.6689    , 1.38        , 3           , 255         , 0           , 0
-9.795617   , 0.112314627 , -0.212633088, 0.000164036639, -0.0029591748, 0.0004982485, -0.50515157 , -1.54713559 , 0.0321103074, 920.8164    , 27.3355522  , 799.6689    , 1.39        , 3           , 255         , 0           , 0
-9.813441   , 0.11109364  , -0.205585927, 0.0002641722, 0.000944528962, -0.000196807378, -0.5048822  , -1.54713047 , 0.03184456  , 920.8164    , 27.3355522  , 799.6689    , 1.4         , 3           , 255         , 0           , 0
-9.793735   , 0.120692648 , -0.209517434, 3.367907E-05, 0.006897367 , 0.0004593259, -0.5034865  , -1.54705    , 0.0304478481, 920.8164    , 27.3355522  , 799.6701    , 1.41        , 3           , 255         , 0           , 0
-9.787279   , 0.123346366 , -0.2222002  , 0.000312042073, 0.008902706 , -0.0007457145, -0.501407564, -1.5469799  , 0.0283711143, 920.8164    , 27.3355522  , 799.6701    , 1.42        , 3           , 255         , 0           , 0
-9.786205   , 0.104695    , -0.226608038, 0.000178419636, 0.005876145 , -0.000341554, -0.5000952  , -1.54692233 , 0.0270613022, 920.863159  , 27.3394871  , 799.6701    , 1.43        , 3           , 255         , 0           , 0
-9.777117   , 0.112765931 , -0.233303189, -1.1357246E-05, -0.0001085205, -0.000471964362, -0.49994415 , -1.54692984 , 0.0269082151, 920.863159  , 27.3394871  , 799.6701    , 1.44        , 3           , 255         , 0           , 0
-9.78623    , 0.12042091  , -0.227077052, -0.000426827464, -0.004848171, 4.30038781E-05, -0.5009385  , -1.54696488 , 0.0278994758, 920.863159  , 27.3394871  , 799.6701    , 1.45        , 3           , 255         , 0           , 0
-9.788887   , 0.1182821   , -0.2188993  , 0.000410024775, -0.00643057935, 0.00045367534, -0.5024006  , -1.54703    , 0.02936613  , 920.863159  , 27.3394871  , 799.6701    , 1.46        , 3           , 255         , 0           , 0
-9.78623    , 0.116319276 , -0.212499663, 0.0005436195, -0.00540626654, -0.000147650484, -0.503436565, -1.54706764 , 0.030408496 , 920.863159  , 27.3394871  , 799.6701    , 1.47        , 3           , 255         , 0           , 0
-9.793591   , 0.11382439  , -0.204979733, 0.000736926449, -0.00376661867, 1.03670754E-05, -0.504201   , -1.54711282 , 0.0311803352, 920.863159  , 27.3394871  , 799.6701    , 1.48        , 3           , 255         , 0           , 0
-9.795046   , 0.112636231 , -0.215030745, -0.000295756385, -0.00226381863, -0.000300601125, -0.5045542  , -1.547128   , 0.03153023  , 920.863159  , 27.3394871  , 799.6701    , 1.49        , 3           , 255         , 0           , 0
-9.783076   , 0.112425968 , -0.215860173, 5.71231358E-05, -0.001747096, -0.000435853668, -0.5047508  , -1.54714561 , 0.0317280851, 920.863159  , 27.3394871  , 799.6701    , 1.5         , 3           , 255         , 0           , 0
-9.789033   , 0.116905048 , -0.2182143  , -0.0005262998, -0.00106862281, -0.00113150431, -0.5040271  , -1.54711282 , 0.0309991557, 920.863159  , 27.3394871  , 799.622131  , 1.51        , 3           , 255         , 0           , 0
-9.781011   , 0.111663423 , -0.214752108, -0.000268200645, -0.00185001886, -0.0006990683, -0.5041497  , -1.54713047 , 0.0311180372, 920.863159  , 27.3394871  , 799.6219    , 1.52        , 3           , 255         , 0           , 0
-9.792921   , 0.113915548 , -0.212599352, -0.000201508752, -0.000431324355, -0.00120280171, -0.5037949  , -1.54713809 , 0.0307619385, 920.844     , 27.3430824  , 799.621643  , 1.53        , 3           , 255         , 0           , 0
-9.796499   , 0.101492368 , -0.210943848, -0.000168340281, -0.000167136779, 0.0003714349, -0.503968835, -1.5471406  , 0.03093491  , 920.844     , 27.3430824  , 799.6214    , 1.54        , 3           , 255         , 0           , 0
-9.786924   , 0.103576794 , -0.216779321, -0.0002498217, -0.0005738479, 0.00034133892, -0.504215539, -1.5471431  , 0.03117839  , 920.844     , 27.3430824  , 799.6212    , 1.55        , 3           , 255         , 0           , 0
-9.791507   , 0.10772828  , -0.213080242, 0.000195821282, 0.001501299 , 5.964405E-05, -0.503930449, -1.54713047 , 0.0308948345, 920.844     , 27.3430824  , 799.621033  , 1.56        , 3           , 255         , 0           , 0
-9.783852   , 0.114798032 , -0.212843224, -3.30234179E-05, 0.00346855214, -0.000399997632, -0.5030756  , -1.5470978  , 0.030039601 , 920.844     , 27.3430824  , 799.62085   , 1.57        , 3           , 255         , 0           , 0
-9.79163551 , 0.111179926 , -0.219241574, -0.000340932049, 0.004218386 , -0.000329967821, -0.5021023  , -1.54707515 , 0.029062489 , 920.844     , 27.3430824  , 799.620667  , 1.58        , 3           , 255         , 0           , 0
-9.787707   , 0.115617178 , -0.223868847, -2.13920139E-05, 0.00328595  , -1.48364925E-05, -0.501432657, -1.547035   , 0.02839293  , 920.844     , 27.3430824  , 799.6205    , 1.59        , 3           , 255         , 0           , 0
-9.785927   , 0.112351537 , -0.225793883, -0.000758509967, 0.000625230139, 5.35632134E-05, -0.5013338  , -1.54703248 , 0.0282863136, 920.844     , 27.3430824  , 799.6203    , 1.6         , 3           , 255         , 0           , 0
-9.788223   , 0.112506844 , -0.229894161, 0.000380138634, -0.00181676226, 0.000508894445, -0.50089407 , -1.54700744 , 0.0278505553, 920.844     , 27.3430824  , 799.5973    , 1.61        , 3           , 255         , 0           , 0
-9.787388   , 0.113254212 , -0.22261104 , 0.0008449361, -0.003130864, -0.000338830519, -0.5013939  , -1.547035   , 0.028359035 , 920.844     , 27.3430824  , 799.597     , 1.62        , 3           , 255         , 0           , 0
-9.786346   , 0.11459285  , -0.2223322  , 0.0005427678, -0.003621375, 0.000120803539, -0.5021652  , -1.54707265 , 0.0291363522, 920.8145    , 27.3417263  , 799.5967    , 1.63        , 3           , 255         , 0           , 0
-9.800751   , 0.1114009   , -0.222209737, 0.000171226216, -0.0036839915, -0.0005341113, -0.5027133  , -1.54710281 , 0.0296864081, 920.8145    , 27.3417263  , 799.5964    , 1.64        , 3           , 255         , 0           , 0
-9.79225349 , 0.114062965 , -0.220441788, 0.000275953324, -0.00351322023, -0.000650038768, -0.5031854  , -1.54713809 , 0.0301618241, 920.8145    , 27.3417263  , 799.596069  , 1.65        , 3           , 255         , 0           , 0
-9.78287    , 0.115952119 , -0.221947879, 3.22274864E-05, -0.003080163, -0.00127776642, -0.5033416  , -1.54716575 , 0.0303178914, 920.8145    , 27.3417263  , 799.595764  , 1.66        , 3           , 255         , 0           , 0
-9.787196   , 0.112041771 , -0.220532984, 0.000527923 , -0.003832202, -0.0009257949, -0.5037767  , -1.54720366 , 0.0307587385, 920.8145    , 27.3417263  , 799.595459  , 1.67        , 3           , 255         , 0           , 0
-9.793153   , 0.103854343 , -0.210148379, 0.000503110932, -0.00204564142, 0.000325874425, -0.504312336, -1.54723144 , 0.03129959  , 920.8145    , 27.3417263  , 799.595154  , 1.68        , 3           , 255         , 0           , 0
-9.802279   , 0.11493893  , -0.208411664, 0.0002291298, 0.00103317806, -0.000103561732, -0.50406    , -1.5472163  , 0.0310491323, 920.8145    , 27.3417263  , 799.594849  , 1.69        , 3           , 255         , 0           , 0
-9.797902   , 0.119226851 , -0.20380573 , 0.000547777163, 0.00517205754, -0.0009532686, -0.5026433  , -1.54717338 , 0.0296372678, 920.8145    , 27.3417263  , 799.594543  , 1.7         , 3           , 255         , 0           , 0
-9.79892349 , 0.114168048 , -0.211561829, -0.000492115971, 0.0101722572, -0.0008298848, -0.499673456, -1.54706013 , 0.026662549 , 920.8145    , 27.3417263  , 799.606567  , 1.71        , 3           , 255         , 0           , 0
-9.799294   , 0.121206783 , -0.217696548, 0.000111639616, 0.0124995951, -0.000293486431, -0.4970538  , -1.54695237 , 0.0240427349, 920.8145    , 27.3417263  , 799.6063    , 1.72        , 3           , 255         , 0           , 0
-9.777589   , 0.113074876 , -0.221446827, 0.000424426282, 0.0109025538, 0.0004673478, -0.495051682, -1.54685259 , 0.0220442023, 920.799133  , 27.3447113  , 799.6061    , 1.73        , 3           , 255         , 0           , 0
-9.778152   , 0.10971389  , -0.232006267, -9.342807E-05, 0.008411832 , 0.000198925962, -0.4934612  , -1.54678047 , 0.0204524249, 920.799133  , 27.3447113  , 799.605835  , 1.74        , 3           , 255         , 0           , 0
-9.771846   , 0.1136148   , -0.236863568, 0.0005002627, 0.00459341938, -0.000119199743, -0.4925089  , -1.54673088 , 0.01950537  , 920.799133  , 27.3447113  , 799.6056    , 1.75        , 3           , 255         , 0           , 0
-9.786328   , 0.11787647  , -0.2368184  , 0.000119707547, 1.133047E-05, 6.85096E-05 , -0.492530465, -1.54673576 , 0.0195272528, 920.799133  , 27.3447113  , 799.605347  , 1.76        , 3           , 255         , 0           , 0
-9.799079   , 0.116994046 , -0.22944887 , 0.000349746435, -0.00329570333, 0.0004890306, -0.4933538  , -1.54676056 , 0.0203540381, 920.799133  , 27.3447113  , 799.6051    , 1.77        , 3           , 255         , 0           , 0
-9.785471   , 0.119179025 , -0.2283822  , 0.000437050126, -0.00558587536, 0.000167397258, -0.494513035, -1.54681766 , 0.0215187464, 920.799133  , 27.3447113  , 799.604858  , 1.78        , 3           , 255         , 0           , 0
-9.790831   , 0.113050893 , -0.224646732, -0.00044081267, -0.006999908, -0.0001325722, -0.49585706 , -1.5468775  , 0.0228589326, 920.799133  , 27.3447113  , 799.6046    , 1.79        , 3           , 255         , 0           , 0
-9.787076   , 0.111603938 , -0.224361852, -0.0002626382, -0.00718688 , -7.02576945E-05, -0.4972659  , -1.54693985 , 0.02426491  , 920.799133  , 27.3447113  , 799.6044    , 1.8         , 3           , 255         , 0           , 0
-9.790645   , 0.1096523   , -0.217184752, -0.000186257181, -0.005271628, -0.000352814328, -0.497404665, -1.54691732 , 0.0244025961, 920.799133  , 27.3447113  , 799.633     , 1.81        , 3           , 255         , 0           , 0
-9.781794   , 0.114467636 , -0.222659737, 0.000551464967, -0.004370861, -0.0005496751, -0.498072982, -1.54696238 , 0.0250765383, 920.799133  , 27.3447113  , 799.632935  , 1.82        , 3           , 255         , 0           , 0
-9.788801   , 0.11548619  , -0.215189144, 0.000621587737, -0.002848603, -0.0006000842, -0.498416483, -1.54699492 , 0.0254266541, 920.8772    , 27.3446426  , 799.6329    , 1.83        , 3           , 255         , 0           , 0
-9.80427    , 0.107694544 , -0.202735975, -4.687498E-05, 0.00111359893, -0.000330952433, -0.498071849, -1.54698241 , 0.0250817686, 920.8772    , 27.3446426  , 799.6328    , 1.84        , 3           , 255         , 0           , 0
-9.810822   , 0.11165382  , -0.205647081, -1.88787235E-05, 0.007734378 , 4.66707861E-05, -0.496541828, -1.54691982 , 0.0235503968, 920.8772    , 27.3446426  , 799.632751  , 1.85        , 3           , 255         , 0           , 0
-9.797169   , 0.101192906 , -0.219006851, -0.0003138457, 0.0127008213, 0.000308570219, -0.494135916, -1.54680037 , 0.0211409461, 920.8772    , 27.3446426  , 799.6327    , 1.86        , 3           , 255         , 0           , 0
-9.781335   , 0.0998875   , -0.227615   , -0.000104956562, 0.0112286052, 0.000407315325, -0.492074758, -1.54670858 , 0.0190781113, 920.8772    , 27.3446426  , 799.6326    , 1.87        , 3           , 255         , 0           , 0
-9.785026   , 0.1131572   , -0.237165928, 0.00038899458, 0.00734109245, 0.000107984059, -0.490674973, -1.54664433 , 0.0176815912, 920.8772    , 27.3446426  , 799.632568  , 1.88        , 3           , 255         , 0           , 0
-9.795127   , 0.111058138 , -0.2334102  , 0.0006145418, 0.00337489485, -0.0002303482, -0.489927173, -1.54660487 , 0.0169401057, 920.8772    , 27.3446426  , 799.6325    , 1.89        , 3           , 255         , 0           , 0
-9.774467   , 0.113126673 , -0.244457528, -0.000225785538, -0.00220594648, -0.000251975056, -0.490267456, -1.54662955 , 0.01727839  , 920.8772    , 27.3446426  , 799.632446  , 1.9         , 3           , 255         , 0           , 0
-9.776341   , 0.118773282 , -0.234667659, -0.000380857266, -0.008560564, -0.000202364085, -0.490920216, -1.54667151 , 0.017928265 , 920.8772    , 27.3446426  , 799.567749  , 1.91        , 3           , 255         , 0           , 0
-9.79541    , 0.114147663 , -0.226676852, -9.928655E-05, -0.0115938112, -0.0007174563, -0.492933929, -1.54678047 , 0.0199414771, 920.8772    , 27.3446426  , 799.5673    , 1.92        , 3           , 255         , 0           , 0
-9.784872   , 0.11057502  , -0.220300317, 3.70742055E-05, -0.0112472149, -0.00106048863, -0.4947673  , -1.5468874  , 0.0217760969, 920.8497    , 27.3455925  , 799.5669    , 1.93        , 3           , 255         , 0           , 0
-9.794607   , 0.09806192  , -0.205251411, 0.000346151181, -0.008929117, 0.00021348428, -0.496622622, -1.54696488 , 0.0236343   , 920.8497    , 27.3455925  , 799.566467  , 1.94        , 3           , 255         , 0           , 0
-9.795085   , 0.102999628 , -0.202378541, 0.0004562816, -0.00478981342, 0.000275184866, -0.497679681, -1.54699993 , 0.0246966463, 920.8497    , 27.3455925  , 799.56604   , 1.95        , 3           , 255         , 0           , 0
-9.799977   , 0.109780684 , -0.202928215, -0.0004110618, 0.00276298332, -3.58810066E-05, -0.497116029, -1.54697239 , 0.0241289958, 920.8497    , 27.3455925  , 799.5656    , 1.96        , 3           , 255         , 0           , 0
-9.80261    , 0.112798437 , -0.207170337, 0.000468117534, 0.00767447427, 0.0003523401, -0.495708138, -1.54690993 , 0.0227254871, 920.8497    , 27.3455925  , 799.5652    , 1.97        , 3           , 255         , 0           , 0
-9.796811   , 0.118168034 , -0.221127942, 0.0004566341, 0.0101932557, 0.0005165466, -0.493872672, -1.54681277 , 0.0208933577, 920.8497    , 27.3455925  , 799.564758  , 1.98        , 3           , 255         , 0           , 0
-9.778513   , 0.111766122 , -0.227002859, 0.000398858334, 0.00899164751, -0.0002959641, -0.4919901  , -1.54673576 , 0.0190141853, 920.8497    , 27.3455925  , 799.564331  , 1.99        , 3           , 255         , 0           , 0
-9.788185   , 0.108919717 , -0.22999458 , 0.0003792065, 0.005486804 , -0.000204425363, -0.490836322, -1.54669619 , 0.0178638119, 920.8497    , 27.3455925  , 799.5639    , 2           , 3           , 0           , 7.47623634  , 200
-9.788047   , 0.109671988 , -0.234062582, 0.00053119217, 0.00150211924, -0.000377559045, -0.4897681  , -1.54665172 , 0.0168011934, 920.8497    , 27.3455925  , 799.5385    , 2.01        , 3           , 1           , 0           , 0
-9.785074   , 0.112426065 , -0.234250113, -0.000362304854, -0.003152265, -9.9160854E-05, -0.4903505  , -1.5466789  , 0.0173796155, 920.8497    , 27.3455925  , 799.537964  , 2.02        , 3           , 2           , 0           , 0
-9.791593   , 0.110741995 , -0.231803179, 0.0004123582, -0.0068803085, 0.000116643147, -0.491736025, -1.54674327 , 0.0187701881, 920.779968  , 27.3487148  , 799.5374    , 2.03        , 3           , 3           , 0           , 0
-9.792369   , 0.106542252 , -0.223875955, -4.834775E-05, -0.009154943, -3.04542482E-05, -0.4935267  , -1.54682517 , 0.0205613151, 920.779968  , 27.3487148  , 799.536865  , 2.04        , 3           , 4           , 0           , 0
-9.782002   , 0.114879526 , -0.224144816, -3.111805E-05, -0.011272369, -0.0006288581, -0.49553293 , -1.54692233 , 0.022567641 , 920.779968  , 27.3487148  , 799.5363    , 2.05        , 3           , 5           , 0           , 0
-9.783538   , 0.11238265  , -0.221916437, 6.071548E-05, -0.0128635652, -0.00016818344, -0.4980434  , -1.54704249 , 0.0250795446, 920.779968  , 27.3487148  , 799.535767  , 2.06        , 3           , 6           , 0           , 0
-9.786897   , 0.120327212 , -0.2182683  , -0.000461833552, -0.0120885875, 0.000484178774, -0.500668764, -1.54714561 , 0.02770059  , 920.779968  , 27.3487148  , 799.5352    , 2.07        , 3           , 7           , 0           , 0
-9.791905   , 0.116504654 , -0.214733317, -0.000161816482, -0.008904596, 0.000902712345, -0.5028182  , -1.5472213  , 0.0298496634, 920.779968  , 27.3487148  , 799.534668  , 2.08        , 3           , 8           , 5           , 5
-9.795819   , 0.115156129 , -0.211604714, 0.000578040956, -0.006960313, -0.000330992916, -0.5041166  , -1.5472821  , 0.03115409  , 920.779968  , 27.3487148  , 799.5341    , 2.09        , 3           , 9           , 5           , 0.1
-9.794986   , 0.126345128 , -0.21095188 , -0.000282829744, -0.00464754226, -9.749914E-05, -0.5050405  , -1.54732275 , 0.0320749   , 920.779968  , 27.3487148  , 799.533569  , 2.1         , 3           , 10          , 0.1         , 0.1
-9.80072    , 0.124641165 , -0.207559347, -0.0003623647, 0.000111162663, 0.000327404356, -0.504584253, -1.54727709 , 0.0316158533, 920.779968  , 27.3487148  , 799.5977    , 2.11        , 3           , 11          , 0.00802567  , 0.008025671
-9.815793   , 0.12612839  , -0.214188963, 0.000227212789, 0.004257149 , -0.000193494023, -0.5036371  , -1.54723656 , 0.0306701921, 920.779968  , 27.3487148  , 799.5976    , 2.12        , 3           , 12          , 0.174643889 , 0
-9.788509   , 0.117333136 , -0.209518939, -4.68143262E-05, 0.005993533 , -0.000454753055, -0.502243   , -1.54718089 , 0.0292753056, 920.8487    , 27.3505459  , 799.5975    , 2.13        , 3           , 13          , 0           , 0
-9.798604   , 0.118306026 , -0.216868162, -0.000113807153, 0.00510600954, -0.000427856168, -0.501046956, -1.54714811 , 0.0280775353, 920.8487    , 27.3505459  , 799.597351  , 2.14        , 3           , 14          , 0.00159862777, 0.00323622557
-9.778826   , 0.126813024 , -0.222957462, 8.971314E-06, 0.00423888769, -0.00058795535, -0.499969274, -1.54710782 , 0.0270000678, 920.8487    , 27.3505459  , 799.5972    , 2.15        , 3           , 15          , 0           , 0.0005700151
-9.779389   , 0.109575689 , -0.228733227, 1.7139595E-05, 0.0006346721, -0.0008970689, -0.499508351, -1.54710782 , 0.026539756 , 920.8487    , 27.3505459  , 799.5971    , 2.16        , 3           , 16          , 0           , 1.401298E-45
-9.776382   , 0.1141335   , -0.229270175, -0.0007668094, -0.00293069915, -0.0004926166, -0.49992758 , -1.547133   , 0.0269506034, 920.8487    , 27.3505459  , 799.597     , 2.17        , 3           , 20          , 0           , 0
-9.791347   , 0.114254095 , -0.222524717, -0.000146012288, -0.00545190927, 0.000202149211, -0.5011108  , -1.547186   , 0.0281324461, 920.8487    , 27.3505459  , 799.596863  , 2.18        , 3           , 21          , 0           , 0
-9.785183   , 0.1180558   , -0.224501878, -0.000304664951, -0.006832529, 0.0008049785, -0.502805352, -1.54724407 , 0.0298247728, 920.8487    , 27.3505459  , 799.596741  , 2.19        , 3           , 22          , 0           , 0
-9.774576   , 0.119914852 , -0.220065236, -0.000396049349, -0.00687471544, -0.0005219001, -0.504024148, -1.547305   , 0.03104054  , 920.8487    , 27.3505459  , 799.5966    , 2.2         , 3           , 40          , 0           , 0
-9.792992   , 0.115300454 , -0.225807235, -0.0006327605, -0.00686541 , 0.00038785208, -0.5054679  , -1.54731512 , 0.0324783   , 920.8487    , 27.3505459  , 799.567444  , 2.21        , 3           , 41          , 0           , 0
-9.795832   , 0.112194158 , -0.2172594  , -0.000411933754, -0.00733307 , 7.219298E-05, -0.5070154  , -1.54737866 , 0.0340218134, 920.8487    , 27.3505459  , 799.567139  , 2.22        , 3           , 42          , 0           , 0
-9.794313   , 0.119189382 , -0.210856915, 3.281003E-05, -0.00541870948, -0.000133501075, -0.508091152, -1.54742956 , 0.03509867  , 920.837341  , 27.35102    , 799.566833  , 2.23        , 3           , 255         , 0           , 0
-9.794156   , 0.113311194 , -0.208639786, 0.000167817809, -0.00096621993, -0.0003883849, -0.5081457  , -1.54743731 , 0.03515451  , 920.837341  , 27.35102    , 799.5665    , 2.24        , 3           , 255         , 0           , 0
-9.789925   , 0.109213926 , -0.2117619  , 0.000222127419, 0.001964084 , 0.0008096391, -0.508036435, -1.54741681 , 0.03504807  , 920.837341  , 27.35102    , 799.5662    , 2.25        , 3           , 255         , 0           , 0
-9.791365   , 0.100580633 , -0.217015937, 0.0007221452, 0.00401808973, 0.000430074171, -0.5073574  , -1.54737353 , 0.0343753844, 920.837341  , 27.35102    , 799.5659    , 2.26        , 3           , 255         , 0           , 0
-9.790067   , 0.113383487 , -0.223384455, 0.000171231222, 0.00428056531, 0.000200751238, -0.5065434  , -1.54734814 , 0.0335624777, 920.837341  , 27.35102    , 799.5656    , 2.27        , 3           , 255         , 0           , 0
-9.790197   , 0.113718487 , -0.223643571, -0.000180371339, 0.0036669767, -0.0008141718, -0.505485535, -1.5473125  , 0.0325027034, 920.837341  , 27.35102    , 799.5653    , 2.28        , 3           , 255         , 0           , 0
-9.782499   , 0.113778852 , -0.222473577, 0.0005154747, 0.002768438 , -0.00122848735, -0.5044533  , -1.54729736 , 0.03147498  , 920.837341  , 27.35102    , 799.565     , 2.29        , 3           , 255         , 0           , 0
-9.782251   , 0.109797642 , -0.220717281, 2.64822738E-05, -0.000773445, -0.000511051039, -0.504421055, -1.54730237 , 0.0314435661, 920.837341  , 27.35102    , 799.5647    , 2.3         , 3           , 255         , 0           , 0
-9.784152   , 0.114278078 , -0.221948147, 0.00021636067, -0.00322900736, 0.000463572855, -0.504461348, -1.54729223 , 0.0314857326, 920.837341  , 27.35102    , 799.5535    , 2.31        , 3           , 255         , 0           , 0
-9.782103   , 0.1074188   , -0.2208155  , 0.0006262697, -0.00345422537, 0.000201185117, -0.5052415  , -1.54732525 , 0.03227202  , 920.837341  , 27.35102    , 799.553162  , 2.32        , 3           , 255         , 0           , 0
-9.788306   , 0.11365471  , -0.210307449, 0.00104812556, -0.0023708  , 0.0007625692, -0.5060038  , -1.54734051 , 0.0330456719, 920.828247  , 27.3509521  , 799.5528    , 2.33        , 3           , 255         , 0           , 0
-9.796944   , 0.106881224 , -0.201696917, 0.0001782194, 0.00295936433, 0.000836243446, -0.505701959, -1.547305   , 0.03274564  , 920.828247  , 27.3509521  , 799.5524    , 2.34        , 3           , 255         , 0           , 0
-9.795568   , 0.10632626  , -0.202351853, -0.0006437263, 0.00807877351, 0.000321766478, -0.504166961, -1.54723656 , 0.03120419  , 920.828247  , 27.3509521  , 799.552063  , 2.35        , 3           , 255         , 0           , 0
-9.787388   , 0.113142207 , -0.222388312, -0.000137921772, 0.0104487175, -0.000493820058, -0.501851439, -1.54715061 , 0.0288861636, 920.828247  , 27.3509521  , 799.5517    , 2.36        , 3           , 255         , 0           , 0
-9.7946     , 0.1114828   , -0.223098308, -0.00025142252, 0.0107692145, -0.0004951991, -0.499490768, -1.54706013 , 0.0265221838, 920.828247  , 27.3509521  , 799.551331  , 2.37        , 3           , 255         , 0           , 0
-9.780384   , 0.113391086 , -0.231509954, 0.00016936101, 0.00772357639, -0.000291350443, -0.497828245, -1.54698992 , 0.0248608738, 920.828247  , 27.3509521  , 799.550964  , 2.38        , 3           , 255         , 0           , 0
-9.779091   , 0.1163909   , -0.234349847, 0.000147114042, 0.00276408275, -0.00083749136, -0.4969646  , -1.54696488 , 0.02399824  , 920.828247  , 27.3509521  , 799.5506    , 2.39        , 3           , 255         , 0           , 0
-9.77781    , 0.112549342 , -0.227894872, -0.000325078145, -0.003936737, 6.248255E-05, -0.497779548, -1.54699993 , 0.0248111058, 920.828247  , 27.3509521  , 799.550232  , 2.4         , 3           , 255         , 0           , 0
-9.784513   , 0.1180941   , -0.224745   , -0.0004022203, -0.00650216546, 0.000372080482, -0.4981277  , -1.54701245 , 0.02515598  , 920.828247  , 27.3509521  , 799.5528    , 2.41        , 3           , 255         , 0           , 0
-9.792997   , 0.116738364 , -0.220211416, -0.000581215252, -0.005472135, -0.001011244, -0.498862684, -1.54705751 , 0.025884131 , 920.828247  , 27.3509521  , 799.5524    , 2.42        , 3           , 255         , 0           , 0
-9.794076   , 0.123352945 , -0.219488934, -6.909168E-05, -0.00189987337, 8.762348E-06, -0.499248445, -1.54707515 , 0.0262700114, 920.787     , 27.354887   , 799.5521    , 2.43        , 3           , 255         , 0           , 0
-9.798029   , 0.131736323 , -0.23016417 , 6.824627E-05, -0.0003926272, 6.484467E-05, -0.499351531, -1.54708016 , 0.02637406  , 920.787     , 27.354887   , 799.5518    , 2.44        , 3           , 255         , 0           , 0
-9.797815   , 0.12835069  , -0.220045209, -0.000283269444, -0.000133864582, 0.00043845654, -0.499544263, -1.54708016 , 0.026562985 , 920.787     , 27.354887   , 799.5515    , 2.45        , 3           , 255         , 0           , 0
-9.788324   , 0.120895483 , -0.223893523, 6.707932E-05, -0.0006193733, 0.0002543982, -0.49976337 , -1.54708517 , 0.0267833732, 920.787     , 27.354887   , 799.5512    , 2.46        , 3           , 255         , 0           , 0
-9.784111   , 0.116836227 , -0.227424264, 0.000336471 , -0.002362473, 0.000304844871, -0.5003514  , -1.54710531 , 0.0273747668, 920.787     , 27.354887   , 799.5509    , 2.47        , 3           , 255         , 0           , 0
-9.79192352 , 0.124395967 , -0.228299469, 1.54128065E-05, -0.00531879067, -2.681883E-05, -0.5014197  , -1.54714561 , 0.0284441654, 920.787     , 27.354887   , 799.5506    , 2.48        , 3           , 255         , 0           , 0
-9.791319   , 0.1212484   , -0.22507444 , -5.342369E-05, -0.00725558633, 0.000215335458, -0.502978146, -1.54721379 , 0.0300020967, 920.787     , 27.354887   , 799.5503    , 2.49        , 3           , 255         , 0           , 0
-9.78973    , 0.111619808 , -0.215492129, 0.0001431331, -0.00779652 , -0.000193463347, -0.504503965, -1.54728723 , 0.03153062  , 920.787     , 27.354887   , 799.55      , 2.5         , 3           , 255         , 0           , 0
-9.789038   , 0.106693111 , -0.21470511 , 0.000396798365, -0.008055361, 0.000219555339, -0.506185353, -1.54731    , 0.0332160629, 920.787     , 27.354887   , 799.608337  , 2.51        , 3           , 255         , 0           , 0
-9.785031   , 0.111837186 , -0.202051   , -0.000295644626, -0.007997531, 0.0001752734, -0.5079102  , -1.54738116 , 0.0349377953, 920.787     , 27.354887   , 799.6084    , 2.52        , 3           , 255         , 0           , 0
-9.787346   , 0.115801372 , -0.205437228, 4.101859E-05, -0.00630655233, -0.000326200417, -0.5090986  , -1.54743469 , 0.0361273922, 920.8251    , 27.3564472  , 799.608459  , 2.53        , 3           , 255         , 0           , 0
-9.798123   , 0.109135911 , -0.204848021, -0.0003897407, -0.00243225414, 0.000114763679, -0.5096522  , -1.54745519 , 0.03667748  , 920.8251    , 27.3564472  , 799.6085    , 2.54        , 3           , 255         , 0           , 0
-9.788706   , 0.107515261 , -0.207847923, -0.000104983337, 0.00203063223, 0.000102157064, -0.509267867, -1.54743218 , 0.0362913869, 920.8251    , 27.3564472  , 799.6086    , 2.55        , 3           , 255         , 0           , 0
-9.785749   , 0.108276188 , -0.214765817, -0.000312854419, 0.004555787 , -0.000540357549, -0.5081196  , -1.547399   , 0.0351399258, 920.8251    , 27.3564472  , 799.608643  , 2.56        , 3           , 255         , 0           , 0
-9.784767   , 0.09661095  , -0.217932582, -0.000170612475, 0.004638778 , -0.000700900331, -0.5068979  , -1.5473634  , 0.03391526  , 920.8251    , 27.3564472  , 799.6087    , 2.57        , 3           , 255         , 0           , 0
-9.794646   , 0.101144336 , -0.221298724, 1.7604907E-05, 0.00216933317, -0.000390935049, -0.5063019  , -1.54734564 , 0.03332074  , 920.8251    , 27.3564472  , 799.608765  , 2.58        , 3           , 255         , 0           , 0
-9.806464   , 0.108115591 , -0.218133047, 6.928481E-05, -0.0006462459, -0.000276679173, -0.506332934, -1.54735315 , 0.0333523825, 920.8251    , 27.3564472  , 799.6088    , 2.59        , 3           , 255         , 0           , 0
-9.792637   , 0.106605962 , -0.218988419, 0.0003089658, -0.00178384862, 0.000229280617, -0.506784856, -1.5473659  , 0.0338078029, 920.8251    , 27.3564472  , 799.6089    , 2.6         , 3           , 255         , 0           , 0
-9.785243   , 0.102345526 , -0.213943243, 0.000520902 , -0.00231084041, 0.000101523648, -0.5064252  , -1.54737353 , 0.0334536172, 920.8251    , 27.3564472  , 799.608154  , 2.61        , 3           , 255         , 0           , 0
-9.79066849 , 0.106907368 , -0.220014662, 0.000162311248, -0.00185349619, -0.0006654287, -0.5065582  , -1.54738879 , 0.0335883275, 920.8251    , 27.3564472  , 799.6082    , 2.62        , 3           , 255         , 0           , 0
-9.787355   , 0.105494119 , -0.218297884, 0.0003245275, -0.00246209837, 0.0004377492, -0.5072285  , -1.54740918 , 0.0342611559, 920.7993    , 27.3574657  , 799.6083    , 2.63        , 3           , 255         , 0           , 0
-9.784739   , 0.102529466 , -0.21281068 , 0.000161154312, -0.00188411109, 0.000974199269, -0.5079815  , -1.54741681 , 0.035016425 , 920.7993    , 27.3574657  , 799.608337  , 2.64        , 3           , 255         , 0           , 0
-9.792646   , 0.111131623 , -0.214445323, -0.000262776157, -0.000771182356, 0.0005146846, -0.5083366  , -1.54742193 , 0.03536927  , 920.7993    , 27.3574657  , 799.6084    , 2.65        , 3           , 255         , 0           , 0
-9.787651   , 0.105139971 , -0.217963427, -1.91389117E-05, 0.00011934177, -2.011063E-05, -0.508303344, -1.54741943 , 0.0353345573, 920.7993    , 27.3574657  , 799.608459  , 2.66        , 3           , 255         , 0           , 0
-9.79954    , 0.106555305 , -0.206893712, 0.0007349816, 0.00154766976, 0.000110770983, -0.508013964, -1.54740667 , 0.03505313  , 920.7993    , 27.3574657  , 799.6085    , 2.67        , 3           , 255         , 0           , 0
-9.789434   , 0.114426449 , -0.2153384  , 0.000106514548, 0.003954798 , 0.0003142181, -0.5073101  , -1.5473634  , 0.0343505964, 920.7993    , 27.3574657  , 799.6086    , 2.68        , 3           , 255         , 0           , 0
-9.786161   , 0.121115707 , -0.221631616, 0.00021821924, 0.004968222 , 0.000347686931, -0.5064091  , -1.54732525 , 0.0334508419, 920.7993    , 27.3574657  , 799.608643  , 2.69        , 3           , 255         , 0           , 0
-9.789088   , 0.108190395 , -0.219570011, 0.000220490154, 0.004916044 , -0.0006308769, -0.5051584  , -1.54729223 , 0.03220233  , 920.7993    , 27.3574657  , 799.6087    , 2.7         , 3           , 255         , 0           , 0
-9.778806   , 0.11759343  , -0.231579512, 1.84789533E-05, 0.00423983065, -0.000546305848, -0.503067732, -1.54722643 , 0.0301114619, 920.7993    , 27.3574657  , 799.643555  , 2.71        , 3           , 255         , 0           , 0
-9.786327   , 0.121796176 , -0.235769778, -4.85561322E-05, -0.0005242473, 0.000289162446, -0.5032831  , -1.54722643 , 0.03032693  , 920.7993    , 27.3574657  , 799.64386   , 2.72        , 3           , 255         , 0           , 0
-9.797359   , 0.116968915 , -0.225625589, -0.000176144647, -0.003102822, -0.000318814884, -0.503800035, -1.54725683 , 0.03084266  , 920.8192    , 27.36018    , 799.644165  , 2.73        , 3           , 255         , 0           , 0
-9.79397    , 0.131066084 , -0.2278903  , -0.000160358613, -0.00474052969, -0.0009238662, -0.5044329  , -1.54729736 , 0.03147235  , 920.8192    , 27.36018    , 799.6445    , 2.74        , 3           , 255         , 0           , 0
-9.79024    , 0.124240056 , -0.224179074, -8.515711E-05, -0.00487879757, -0.0002342335, -0.505350947, -1.54735065 , 0.0323919654, 920.8192    , 27.36018    , 799.6448    , 2.75        , 3           , 255         , 0           , 0
-9.78305    , 0.124732114 , -0.225199461, -0.000481472, -0.00446946267, 0.000336304423, -0.506404638, -1.54737866 , 0.0334405042, 920.8192    , 27.36018    , 799.6451    , 2.76        , 3           , 255         , 0           , 0
-9.784592   , 0.122367188 , -0.232577056, -7.26644648E-05, -0.006387894, -1.81830837E-05, -0.5077249  , -1.54744744 , 0.0347596258, 920.8192    , 27.36018    , 799.6454    , 2.77        , 3           , 255         , 0           , 0
-9.788495   , 0.114804409 , -0.226599932, -0.0003530085, -0.00908603 , -0.000685230945, -0.5093675  , -1.547514   , 0.0364004746, 920.8192    , 27.36018    , 799.6457    , 2.78        , 3           , 255         , 0           , 0
-9.784976   , 0.119040892 , -0.2156559  , -0.000754773268, -0.0114467693, -5.94828161E-05, -0.511760652, -1.54762435 , 0.0387861766, 920.8192    , 27.36018    , 799.646     , 2.79        , 3           , 255         , 0           , 0
-9.785025   , 0.111603834 , -0.214686424, -0.0006165138, -0.012361167, -0.000144095218, -0.5143379  , -1.54773259 , 0.0413571522, 920.8192    , 27.36018    , 799.6463    , 2.8         , 3           , 255         , 0           , 0
-9.796069   , 0.1112082   , -0.20823057 , 1.92531152E-05, -0.010195178, 0.000244677882, -0.516132951, -1.54774809 , 0.043154262 , 920.8192    , 27.36018    , 799.6485    , 2.81        , 3           , 255         , 0           , 0
-9.799317   , 0.115103304 , -0.205761716, 0.0004631402, -0.00503108557, 0.000379431818, -0.5173511  , -1.54779732 , 0.04437722  , 920.8192    , 27.36018    , 799.6488    , 2.82        , 3           , 255         , 0           , 0
-9.80533    , 0.114436463 , -0.209445566, -0.0004586348, 0.000210843747, 0.000122235331, -0.517356455, -1.54778957 , 0.0443777442, 920.7981    , 27.3572617  , 799.6492    , 2.83        , 3           , 255         , 0           , 0
-9.79939    , 0.110623777 , -0.205807969, -0.000334303128, 0.00316519453, -2.138468E-05, -0.5166719  , -1.54776108 , 0.0436896235, 920.7981    , 27.3572617  , 799.649536  , 2.84        , 3           , 255         , 0           , 0
-9.792342   , 0.109730527 , -0.219744489, -0.0005461526, 0.004339533 , -0.000192388863, -0.5156771  , -1.54772484 , 0.04268927  , 920.7981    , 27.3572617  , 799.6499    , 2.85        , 3           , 255         , 0           , 0
-9.784737   , 0.120750651 , -0.224162936, 0.000199043658, 0.00238627871, -0.000115109433, -0.5151229  , -1.5477016  , 0.0421363972, 920.7981    , 27.3572617  , 799.650269  , 2.86        , 3           , 255         , 0           , 0
-9.7866745  , 0.114883661 , -0.2193764  , 0.000110820169, -0.00273514772, -7.688685E-05, -0.5156763  , -1.54773    , 0.04269155  , 920.7981    , 27.3572617  , 799.650635  , 2.87        , 3           , 255         , 0           , 0
-9.785892   , 0.122463346 , -0.217170119, -0.0004546931, -0.00727646146, -0.000345701439, -0.5171093  , -1.5477947  , 0.04412081  , 920.7981    , 27.3572617  , 799.651     , 2.88        , 3           , 255         , 0           , 0
-9.797862   , 0.112103485 , -0.219205469, -0.000565220835, -0.009457878, 0.0003132457, -0.519273341, -1.54787517 , 0.0462791733, 920.7981    , 27.3572617  , 799.651367  , 2.89        , 3           , 255         , 0           , 0
-9.794844   , 0.107900105 , -0.2166576  , 0.000490359031, -0.009232633, 4.87450743E-05, -0.5212916  , -1.54795861 , 0.0483032428, 920.7981    , 27.3572617  , 799.651733  , 2.9         , 3           , 255         , 0           , 0
-9.79532051 , 0.105131164 , -0.199660733, -0.000533327, -0.005334138, -0.000386814063, -0.5218453  , -1.547969   , 0.04885091  , 920.7981    , 27.3572617  , 799.6828    , 2.91        , 3           , 255         , 0           , 0
-9.795205   , 0.108283594 , -0.204857111, 0.0004373002, 0.00026847003, 8.500478E-05, -0.521813154, -1.54797161 , 0.0488234535, 920.7981    , 27.3572617  , 799.68335   , 2.92        , 3           , 255         , 0           , 0
-9.792867   , 0.111163832 , -0.220947936, 0.0005011156, 0.0020283917, 0.000144880789, -0.5214217  , -1.547956   , 0.0484369025, 920.812     , 27.358551   , 799.6839    , 2.93        , 3           , 255         , 0           , 0
-9.78324    , 0.109357476 , -0.215197235, -0.000513198669, -0.000590184471, -2.8229435E-05, -0.5215448  , -1.54796124 , 0.0485557653, 920.812     , 27.358551   , 799.684448  , 2.94        , 3           , 255         , 0           , 0
-9.794532   , 0.105470277 , -0.218930274, -0.000558505533, -0.00199736352, -0.000126496656, -0.5219392  , -1.54797423 , 0.0489438176, 920.812     , 27.358551   , 799.685     , 2.95        , 3           , 255         , 0           , 0
-9.794445   , 0.107967779 , -0.213351086, -2.28283461E-05, -0.002148928, 0.000372301671, -0.5225515  , -1.54799247 , 0.049555894 , 920.812     , 27.358551   , 799.685547  , 2.96        , 3           , 255         , 0           , 0
-9.803478   , 0.115073182 , -0.2196126  , 0.0004874582, -0.00343065942, -0.0003589154, -0.52316153 , -1.54802394 , 0.0501716919, 920.812     , 27.358551   , 799.6861    , 2.97        , 3           , 255         , 0           , 0
-9.800917   , 0.108925842 , -0.229646772, 9.988982E-05, -0.005133322, -0.000256181316, -0.524192452, -1.548071   , 0.051204    , 920.812     , 27.358551   , 799.686646  , 2.98        , 3           , 255         , 0           , 0
-9.792602   , 0.106889486 , -0.212447479, 1.61288772E-05, -0.005525926, 0.000212658721, -0.525492132, -1.5481236  , 0.0525039658, 920.812     , 27.358551   , 799.6872    , 2.99        , 3           , 255         , 0           , 0
-9.794756   , 0.1085554   , -0.218848988, -8.84116162E-05, -0.005845853, -9.666965E-05, -0.526752   , -1.54817092 , 0.053762868 , 920.812     , 27.358551   , 799.687744  , 3           , 3           , 0           , 8.476236    , 300
-9.793566   , 0.110734604 , -0.2029609  , -0.000282988069, -0.005419098, -0.000328032562, -0.5269624  , -1.54819739 , 0.05397104  , 920.812     , 27.358551   , 799.6941    , 3.01        , 3           , 1           , 0           , 0
-9.796755   , 0.109664261 , -0.207971931, 3.4124474E-05, -0.00427098153, -0.0007783808, -0.527616   , -1.54823434 , 0.05462534  , 920.812     , 27.358551   , 799.6947    , 3.02        , 3           , 2           , 0           , 0
-9.784483   , 0.112809181 , -0.213124469, -0.000416318071, -0.00380467926, -3.95317329E-06, -0.5284689  , -1.548266   , 0.0554748029, 920.807556  , 27.3621464  , 799.6953    , 3.03        , 3           , 3           , 0           , 0
-9.792041   , 0.118649051 , -0.209265783, -0.000420580269, -0.00390070584, 0.000383636041, -0.529494941, -1.54829514 , 0.05649653  , 920.807556  , 27.3621464  , 799.6959    , 3.04        , 3           , 4           , 0           , 0
-9.802248   , 0.112549663 , -0.203660011, 4.17256961E-05, -0.00129582593, 0.000301440945, -0.5298998  , -1.54830575 , 0.0569030754, 920.807556  , 27.3621464  , 799.696533  , 3.05        , 3           , 5           , 0           , 0
-9.792542   , 0.114804246 , -0.202044576, 2.6664813E-05, 0.00126505829, 0.000452801643, -0.5297904  , -1.5482899  , 0.0567927733, 920.807556  , 27.3621464  , 799.697144  , 3.06        , 3           , 6           , 0           , 0
-9.799967   , 0.120638564 , -0.204262137, -0.000344418455, 0.00195320928, 0.00037235592, -0.529499352, -1.54826868 , 0.05649724  , 920.807556  , 27.3621464  , 799.697754  , 3.07        , 3           , 7           , 0           , 0
-9.797251   , 0.122791335 , -0.210247487, -0.000285669579, 0.00182213588, -0.000579980842, -0.5288714  , -1.54825544 , 0.0558673479, 920.807556  , 27.3621464  , 799.698364  , 3.08        , 3           , 8           , 5           , 5
-9.782133   , 0.125381559 , -0.215538412, 5.93012664E-05, 0.00269013317, -0.000517018547, -0.5280713  , -1.54823434 , 0.05506703  , 920.807556  , 27.3621464  , 799.699     , 3.09        , 3           , 9           , 5           , 0.1
-9.788374   , 0.1166353   , -0.2221928  , -0.000168453786, 0.00190906785, 5.18097659E-05, -0.5276659  , -1.54822111 , 0.0546591245, 920.807556  , 27.3621464  , 799.6996    , 3.1         , 3           , 10          , 0.1         , 0.1
-9.791906   , 0.121838473 , -0.214369223, 0.000211379374, 0.00141152111, -8.540042E-05, -0.5269418  , -1.54817891 , 0.0539383069, 920.807556  , 27.3621464  , 799.7108    , 3.11        , 3           , 11          , 0.00720796362, 0.007207966
-9.796159   , 0.116089523 , -0.213645846, -0.000473625725, 0.0002295312, -0.000233731669, -0.5268074  , -1.54817891 , 0.053798575 , 920.807556  , 27.3621464  , 799.7115    , 3.12        , 3           , 12          , 0.174645633 , 0
-9.796468   , 0.127045855 , -0.208977178, -0.000181491836, -0.00131583447, -0.000204821, -0.5270244  , -1.548192   , 0.05401335  , 920.8371    , 27.36269    , 799.712158  , 3.13        , 3           , 13          , 0           , 0
-9.787928   , 0.125665665 , -0.220540091, -6.46978151E-06, -0.000846945448, -0.0005595114, -0.5269991  , -1.5482     , 0.0539880246, 920.8371    , 27.36269    , 799.7128    , 3.14        , 3           , 14          , 0.00159861438, 0.00323461485
-9.785542   , 0.127167135 , -0.217570022, -0.000147239654, -0.00107925455, 0.000390872417, -0.5273895  , -1.54822111 , 0.0543777943, 920.8371    , 27.36269    , 799.7135    , 3.15        , 3           , 15          , 0           , 0.0005697853
-9.783377   , 0.11523328  , -0.216280967, 0.000121481018, -0.00253127748, 0.000234836072, -0.528042138, -1.54823434 , 0.05503278  , 920.8371    , 27.36269    , 799.7142    , 3.16        , 3           , 16          , 0           , 1.401298E-45
-9.77701    , 0.11376401  , -0.213122651, -0.000234634732, -0.003828533, -0.000147598563, -0.528844953, -1.54826343 , 0.055831518 , 920.8371    , 27.36269    , 799.714844  , 3.17        , 3           , 20          , 0           , 0
-9.788474   , 0.102953039 , -0.212577462, -0.0002502649, -0.006458551, 9.219389E-05, -0.530332267, -1.54832435 , 0.05731737  , 920.8371    , 27.36269    , 799.7155    , 3.18        , 3           , 21          , 0           , 0
-9.782428   , 0.110697255 , -0.224282473, -0.0006856084, -0.0105703129, -0.00016120018, -0.5326662  , -1.54842    , 0.05964476  , 920.8371    , 27.36269    , 799.7162    , 3.19        , 3           , 22          , 0           , 0
-9.79437351 , 0.114048287 , -0.205720544, -0.0006617011, -0.0108576817, 0.000179945666, -0.535213649, -1.54851079 , 0.0621881   , 920.8371    , 27.36269    , 799.716858  , 3.2         , 3           , 40          , 0           , 0
-9.795877   , 0.103123866 , -0.199960783, -0.00027149613, -0.0071532703, -0.000325196073, -0.536049   , -1.54851341 , 0.06301922  , 920.8371    , 27.36269    , 799.683655  , 3.21        , 3           , 41          , 0           , 0
-9.804585   , 0.100782014 , -0.203808591, -0.00039298716, -0.00276382 , 0.000150968728, -0.5367451  , -1.54853487 , 0.06371269  , 920.8371    , 27.36269    , 799.684143  , 3.22        , 3           , 42          , 0           , 0
-9.800593   , 0.107720554 , -0.204640359, -0.000151665881, 0.00104564941, -0.000226341857, -0.5364177  , -1.54852951 , 0.06338363  , 920.7816    , 27.3618069  , 799.684631  , 3.23        , 3           , 255         , 0           , 0
-9.791345   , 0.104984835 , -0.2077908  , 0.00038063142, 0.00213059038, -0.000815761741, -0.53561    , -1.54851341 , 0.06257971  , 920.7816    , 27.3618069  , 799.6851    , 3.24        , 3           , 255         , 0           , 0
-9.787667   , 0.107295312 , -0.208854362, 0.000108692213, 0.002879892 , -0.00162239955, -0.5343236  , -1.54850006 , 0.06129346  , 920.7816    , 27.3618069  , 799.6856    , 3.25        , 3           , 255         , 0           , 0
-9.78319    , 0.104718626 , -0.210190132, 0.0002677919, 0.00315801473, -0.00110762229, -0.5331746  , -1.54848135 , 0.0601465255, 920.7816    , 27.3618069  , 799.6861    , 3.26        , 3           , 255         , 0           , 0
