Acc X       , Acc Y       , Acc Z       , Gyro X      , Gyro Y      , Gyro Z      , Euler X     , Euler Y     , Euler Z     , Pres X      , Pres Y      , Pres Z      , Time        , Status      , LowRate X   , LowRate Y   , LowRate Z    
-0.1350007  , -0.11976479 , 9.786924    , 0           , 0           , 0           , 3.12935615  , -0.01379208 , 0           , 923.2891    , 26.985487   , 777.460266  , 0           , 2           , 0           , 5.460232    , 0
-0.124201678, -0.1253734  , 9.800156    , 0.000296805752, -8.7625E-05 , 0.000189940736, 3.129359    , -0.0137915127, -1.910106E-06, 923.2891    , 26.985487   , 777.460266  , 0.01        , 3           , 1           , 0           , 0
-0.125576079, -0.123090193, 9.801001    , -0.000387353939, 5.6881574E-05, 0.000656353543, 3.12935519  , -0.0137921628, -8.466659E-06, 923.2891    , 26.985487   , 777.460266  , 0.02        , 3           , 2           , 0           , 0
-0.141101956, -0.118664578, 9.784678    , -0.0003690375, -8.584582E-06, 0.0006879036, 3.12935162  , -0.0137921618, -1.534671E-05, 923.2396    , 26.5704975  , 777.460266  , 0.03        , 3           , 3           , 0           , 0
-0.135634318, -0.117618881, 9.79352951  , 0.0003557324, -0.000287601026, 0.000230709556, 3.12935519  , -0.0137893129, -1.76889971E-05, 923.2396    , 26.5704975  , 777.460266  , 0.04        , 3           , 4           , 0           , 0
-0.1297479  , -0.117775582, 9.7911      , 0.000315026147, -4.223257E-05, 0.0004405895, 3.12935853  , -0.0137889441, -2.21000355E-05, 923.2396    , 26.5704975  , 777.460266  , 0.05        , 3           , 5           , 0           , 0
-0.127930954, -0.125199527, 9.795446    , -0.000385208055, -0.000235877, -0.000422538957, 3.12935448  , -0.0137865338, -1.79035342E-05, 923.2396    , 26.5704975  , 777.460266  , 0.06        , 3           , 6           , 0           , 0
-0.1384394  , -0.118591681, 9.786511    , -0.0002907752, 0.000486033852, 0.00038955576, 3.12935162  , -0.0137914419, -2.17395882E-05, 923.2396    , 26.5704975  , 777.460266  , 0.07        , 3           , 7           , 0           , 0
-0.1443949  , -0.111862041, 9.792208    , -0.000128472224, -0.000357857323, 7.30779138E-05, 3.12935042  , -0.0137878731, -2.25141775E-05, 923.2396    , 26.5704975  , 777.460266  , 0.08        , 3           , 8           , 5           , 5
-0.141014338, -0.106951609, 9.79208     , -2.72213947E-06, -0.000199416536, -9.148687E-05, 3.12935042  , -0.013785868, -2.16237186E-05, 923.2396    , 26.5704975  , 777.460266  , 0.09        , 3           , 9           , 5           , 0.1
-0.139656976, -0.10882479 , 9.799467    , -0.000174864777, -8.809671E-05, 0.000596274855, 3.12934875  , -0.01378506 , -2.75972288E-05, 923.2396    , 26.5704975  , 777.460266  , 0.1         , 3           , 10          , 0.1         , 0.1
-0.133473322, -0.110523261, 9.796698    , -0.0006489977, -2.98892846E-05, -0.000201318035, 3.12935162  , -0.0137836  , -2.5717738E-05, 923.2396    , 26.5704975  , 777.9043    , 0.11        , 3           , 11          , 0.0109544508, 0.0109544508
-0.139164731, -0.114148654, 9.794642    , -0.0005820831, -0.000113526243, -0.000228980469, 3.12934566  , -0.0137824379, -2.344184E-05, 923.2396    , 26.5704975  , 777.9043    , 0.12        , 3           , 12          , 0.174642488 , 0
-0.135630965, -0.117380217, 9.794924    , -4.6326546E-05, 0.000132913119, 0.000853967736, 3.12934542  , -0.0137838712, -3.19652063E-05, 923.211731  , 26.6114063  , 777.9043    , 0.13        , 3           , 13          , 0           , 0
-0.139965743, -0.1186444  , 9.793167    , 0.0002614716, -0.00012806023, 0.000608645671, 3.129348    , -0.0137826651, -3.806731E-05, 923.211731  , 26.6114063  , 777.9043    , 0.14        , 3           , 14          , 0.00191016006, 0.00148021209
-0.132848635, -0.120531321, 9.792012    , 9.696884E-05, -0.000271933037, 0.000308890769, 3.129349    , -0.0137799829, -4.1189498E-05, 923.211731  , 26.6114063  , 777.9043    , 0.15        , 3           , 15          , 0           , 0.00032774813
-0.1388232  , -0.127253622, 9.79519     , -5.15296124E-05, -0.000678744167, 0.000247832038, 3.12934852  , -0.013773228, -4.37509225E-05, 923.211731  , 26.6114063  , 777.9043    , 0.16        , 3           , 16          , 0           , 1.401298E-45
-0.142394036, -0.127122551, 9.801944    , 0.000160255 , -5.28603559E-05, -0.000868045, 3.12935019  , -0.0137725938, -3.507698E-05, 923.211731  , 26.6114063  , 777.904358  , 0.17        , 3           , 20          , 0           , 0
-0.133031636, -0.119604923, 9.793333    , 0.000146118924, -7.507566E-05, 4.66467463E-05, 3.12935162  , -0.0137718506, -3.55526281E-05, 923.211731  , 26.6114063  , 777.9044    , 0.18        , 3           , 21          , 0           , 0
-0.130993918, -0.127291992, 9.781663    , 1.621421E-05, -3.22646229E-05, -0.000232503444, 3.12935162  , -0.0137714967, -3.323157E-05, 923.211731  , 26.6114063  , 777.9045    , 0.19        , 3           , 22          , 0           , 0
-0.12812832 , -0.111034036, 9.785722    , -0.000245988835, -0.000206101919, 0.0007760365, 3.12934947  , -0.0137695326, -4.101713E-05, 923.211731  , 26.6114063  , 777.904541  , 0.2         , 3           , 40          , 0           , 0
-0.131268   , -0.118316755, 9.800189    , 7.26648141E-05, -0.000126081868, 1.38943433E-05, 3.12935233  , -0.0137701016, -4.12013178E-05, 923.211731  , 26.6114063  , 778.030334  , 0.21        , 3           , 41          , 0           , 0
-0.129635811, -0.123217463, 9.797907    , -0.000291077653, 0.000227525714, 0.000448496954, 3.12934947  , -0.01377243 , -4.565841E-05, 923.211731  , 26.6114063  , 778.0304    , 0.22        , 3           , 42          , 0           , 0
-0.13209869 , -0.122508287, 9.786749    , 5.12781553E-05, 5.90268755E-05, 0.0006564576, 3.12935     , -0.0137731014, -5.221574E-05, 923.250244  , 26.6388149  , 778.030457  , 0.23        , 3           , 255         , 0           , 0
-0.131280988, -0.11916288 , 9.787254    , 0.000293045538, -0.000156470225, 0.0007830948, 3.129353    , -0.0137716318, -6.0065795E-05, 923.250244  , 26.6388149  , 778.0305    , 0.24        , 3           , 255         , 0           , 0
-0.14139311 , -0.116958238, 9.7950325   , 0.000329846051, 0.000150354463, 6.82889658E-05, 3.12935638  , -0.0137731452, -6.07302645E-05, 923.250244  , 26.6388149  , 778.0306    , 0.25        , 3           , 255         , 0           , 0
-0.1351266  , -0.10946916 , 9.789774    , 2.03424133E-05, -7.965241E-05, -0.00023547333, 3.12935662  , -0.0137723181, -5.83853071E-05, 923.250244  , 26.6388149  , 778.03064   , 0.26        , 3           , 255         , 0           , 0
-0.129248172, -0.109616414, 9.791636    , -8.149457E-05, -0.000111725065, 0.0003595744, 3.12935567  , -0.0137712462, -6.19947E-05, 923.250244  , 26.6388149  , 778.0307    , 0.27        , 3           , 255         , 0           , 0
-0.138085872, -0.120537445, 9.801371    , -0.000463478733, 9.494717E-06, 0.000261711539, 3.12935114  , -0.0137713738, -6.461066E-05, 923.250244  , 26.6388149  , 778.030762  , 0.28        , 3           , 255         , 0           , 0
-0.134581625, -0.117540315, 9.783252    , 0.00022187829, 0.000421857461, 0.000623762549, 3.12935352  , -0.0137756681, -7.079661E-05, 923.250244  , 26.6388149  , 778.0308    , 0.29        , 3           , 255         , 0           , 0
-0.132977366, -0.119847715, 9.785157    , 0.000146643491, 0.000130045577, 0.000767085236, 3.129355    , -0.0137770623, -7.84515E-05, 923.250244  , 26.6388149  , 778.0309    , 0.3         , 3           , 255         , 0           , 0
-0.132872969, -0.111350179, 9.783745    , 9.22227046E-05, -6.335671E-05, 9.824737E-05, 3.12936449  , -0.0137711316, -7.956014E-05, 923.250244  , 26.6388149  , 777.956665  , 0.31        , 3           , 255         , 0           , 0
-0.138003483, -0.110237263, 9.79136     , -9.97603638E-05, 4.329998E-05, 0.00036615826, 3.12936354  , -0.0137716085, -8.321641E-05, 923.250244  , 26.6388149  , 777.9567    , 0.32        , 3           , 255         , 0           , 0
-0.1376287  , -0.105036974, 9.793487    , -5.86374663E-05, 0.000151608139, 0.00039664912, 3.129363    , -0.013773174, -8.716433E-05, 923.2529    , 26.6544189  , 777.9568    , 0.33        , 3           , 255         , 0           , 0
-0.125540942, -0.108226553, 9.795216    , 4.781678E-05, -3.02313128E-05, -4.10483335E-05, 3.12936354  , -0.0137728667, -8.675754E-05, 923.2529    , 26.6544189  , 777.956848  , 0.34        , 3           , 255         , 0           , 0
-0.136455655, -0.11744944 , 9.792158    , 0.0005873168, 0.000121745979, -6.084738E-05, 3.1293695   , -0.0137740774, -8.613419E-05, 923.2529    , 26.6544189  , 777.9569    , 0.35        , 3           , 255         , 0           , 0
-0.140653715, -0.124513723, 9.799585    , 0.000259190216, 2.14453321E-05, -3.655569E-05, 3.12937212  , -0.013774287, -8.576601E-05, 923.2529    , 26.6544189  , 777.957     , 0.36        , 3           , 255         , 0           , 0
-0.1269535  , -0.127294183, 9.784439    , 0.000162200886, -1.79028139E-05, -8.56695E-05, 3.12937355  , -0.013774097, -8.4911524E-05, 923.2529    , 26.6544189  , 777.957031  , 0.37        , 3           , 255         , 0           , 0
-0.14129819 , -0.119675182, 9.787836    , 5.01255272E-05, 4.276051E-06, -4.98075678E-05, 3.129374    , -0.0137741379, -8.44129245E-05, 923.2529    , 26.6544189  , 777.9571    , 0.38        , 3           , 255         , 0           , 0
-0.139521316, -0.119961753, 9.79225349  , 7.231266E-05, 7.0328475E-05, -0.000554559636, 3.12937474  , -0.0137747712, -7.885874E-05, 923.2529    , 26.6544189  , 777.957153  , 0.39        , 3           , 255         , 0           , 0
-0.136472031, -0.116301917, 9.785713    , 6.292795E-05, 9.17563448E-05, 0.000624848646, 3.12937546  , -0.013775765, -8.50960059E-05, 923.2529    , 26.6544189  , 777.9572    , 0.4         , 3           , 255         , 0           , 0
-0.125648826, -0.119232044, 9.787259    , -4.500104E-05, 0.000218092115, 0.000226279488, 3.129391    , -0.0137808537, -8.7551176E-05, 923.2529    , 26.6544189  , 777.9138    , 0.41        , 3           , 255         , 0           , 0
-0.124047205, -0.1120797  , 9.78974152  , -0.000272698118, 5.875784E-05, -0.000222158269, 3.129388    , -0.0137814144, -8.532244E-05, 923.2529    , 26.6544189  , 777.9139    , 0.42        , 3           , 255         , 0           , 0
-0.13909626 , -0.1262183  , 9.797702    , -0.0005155859, -0.0002696435, -0.000207509773, 3.129383    , -0.013778693, -8.328027E-05, 923.2401    , 26.6692085  , 777.91394   , 0.43        , 3           , 255         , 0           , 0
-0.1438634  , -0.127515912, 9.793976    , -0.00015637849, -0.0001678589, -1.34090078E-05, 3.12938142  , -0.0137770139, -8.316666E-05, 923.2401    , 26.6692085  , 777.914     , 0.44        , 3           , 255         , 0           , 0
-0.1387133  , -0.1277538  , 9.794447    , 0.000663360348, 0.000101206126, 0.000284551759, 3.129388    , -0.01377806 , -8.599981E-05, 923.2401    , 26.6692085  , 777.914063  , 0.45        , 3           , 255         , 0           , 0
-0.13978681 , -0.1233923  , 9.797059    , 0.000352996634, 0.000139075564, -7.170168E-05, 3.12939167  , -0.0137794418, -8.526582E-05, 923.2401    , 26.6692085  , 777.9141    , 0.46        , 3           , 255         , 0           , 0
-0.130281538, -0.124560036, 9.799634    , 0.0005882988, -7.054955E-05, 0.000522249145, 3.12939763  , -0.0137788  , -9.04969E-05, 923.2401    , 26.6692085  , 777.9142    , 0.47        , 3           , 255         , 0           , 0
-0.136243552, -0.118291914, 9.795092    , 1.91793079E-05, 6.6397246E-05, 0.0004989749, 3.12939787  , -0.0137795247, -9.547851E-05, 923.2401    , 26.6692085  , 777.914246  , 0.48        , 3           , 255         , 0           , 0
-0.1295729  , -0.119602941, 9.793901    , 0.000416944735, 2.11722218E-05, -0.000352948933, 3.129402    , -0.013779697, -9.19464437E-05, 923.2401    , 26.6692085  , 777.9143    , 0.49        , 3           , 255         , 0           , 0
-0.135877013, -0.12512216 , 9.799331    , -0.000109387329, 0.000331976917, 0.000566083239, 3.129401    , -0.0137830852, -9.756679E-05, 923.2401    , 26.6692085  , 777.914368  , 0.5         , 3           , 255         , 0           , 0
-0.144468024, -0.126409143, 9.797716    , -0.0005328666, 4.389207E-06, -1.46152161E-05, 3.12938714  , -0.0137811182, -9.73018E-05, 923.2401    , 26.6692085  , 777.9114    , 0.51        , 3           , 255         , 0           , 0
-0.132368639, -0.127214462, 9.797051    , 0.0007085778, 8.425035E-05, -0.000183984608, 3.129394    , -0.0137819378, -9.545167E-05, 923.2401    , 26.6692085  , 777.911438  , 0.52        , 3           , 255         , 0           , 0
-0.1247343  , -0.123638012, 9.788009    , 0.0007857195, 0.000212006038, -6.977859E-05, 3.129402    , -0.0137840491, -9.472805E-05, 923.263245  , 26.6769428  , 777.9115    , 0.53        , 3           , 255         , 0           , 0
-0.1336006  , -0.119110033, 9.796365    , 0.000224440009, 0.0006741303, -0.0001765448, 3.129404    , -0.0137907686, -9.288044E-05, 923.263245  , 26.6769428  , 777.91156   , 0.54        , 3           , 255         , 0           , 0
-0.13966319 , -0.118555665, 9.795266    , -0.000481161871, 7.233431E-05, 1.23185455E-05, 3.1293993   , -0.0137914922, -9.29948E-05, 923.263245  , 26.6769428  , 777.9116    , 0.55        , 3           , 255         , 0           , 0
-0.13273415 , -0.12058951 , 9.79320049  , -0.000212996965, 0.000314163743, -9.45307E-06, 3.12939715  , -0.0137946336, -9.286196E-05, 923.263245  , 26.6769428  , 777.9117    , 0.56        , 3           , 255         , 0           , 0
-0.136640146, -0.11730472 , 9.78521     , 7.4730604E-05, 5.98611077E-05, -6.15025638E-05, 3.12939787  , -0.0137952249, -9.223962E-05, 923.263245  , 26.6769428  , 777.911743  , 0.57        , 3           , 255         , 0           , 0
-0.134884074, -0.116140112, 9.788979    , 2.56303465E-05, 2.451567E-05, -0.00021373012, 3.129398    , -0.0137954438, -9.009936E-05, 923.263245  , 26.6769428  , 777.9118    , 0.58        , 3           , 255         , 0           , 0
-0.140733764, -0.121761546, 9.790228    , 9.12376E-05 , -0.000124148559, -0.000308199815, 3.129399    , -0.0137941642, -8.70325239E-05, 923.263245  , 26.6769428  , 777.9119    , 0.59        , 3           , 255         , 0           , 0
-0.135683447, -0.117199861, 9.788755    , -0.0001846106, 0.000342076528, -0.000157616974, 3.12939715  , -0.0137975654, -8.541464E-05, 923.263245  , 26.6769428  , 777.912048  , 0.6         , 3           , 255         , 0           , 0
-0.135017619, -0.12377131 , 9.793795    , -0.000193830929, 0.00075971405, 0.000235068583, 3.12939024  , -0.0138069252, -8.760351E-05, 923.263245  , 26.6769428  , 777.874     , 0.61        , 3           , 255         , 0           , 0
-0.137894467, -0.119244   , 9.79632     , -7.810502E-05, 2.48648E-05 , 0.0005687345, 3.12938952  , -0.0138072427, -9.328778E-05, 923.263245  , 26.6769428  , 777.8741    , 0.62        , 3           , 255         , 0           , 0
-0.138201967, -0.1106328  , 9.793719    , 0.000137293362, 0.000225362019, -0.0006001851, 3.129391    , -0.013809423, -8.725848E-05, 923.235962  , 26.68298    , 777.874146  , 0.63        , 3           , 255         , 0           , 0
-0.134951949, -0.129430845, 9.789305    , -0.00085358473, 0.000143853249, -0.0009651524, 3.12938213  , -0.0138107417, -7.758942E-05, 923.235962  , 26.68298    , 777.8742    , 0.64        , 3           , 255         , 0           , 0
-0.133821487, -0.128739387, 9.78804     , -0.0007287223, 6.28765E-05 , 0.0001051072, 3.129375    , -0.0138113834, -7.863281E-05, 923.235962  , 26.68298    , 777.874268  , 0.65        , 3           , 255         , 0           , 0
-0.131407127, -0.122083567, 9.788363    , 0.0001340612, 0.000269985758, -0.000474829867, 3.12937617  , -0.0138140265, -7.38515446E-05, 923.235962  , 26.68298    , 777.8743    , 0.66        , 3           , 255         , 0           , 0
-0.130414218, -0.127623752, 9.798067    , -7.97339E-05, 4.5386143E-05, 0.000157667382, 3.12937546  , -0.0138145  , -7.542266E-05, 923.235962  , 26.68298    , 777.8744    , 0.67        , 3           , 255         , 0           , 0
-0.133915886, -0.125444323, 9.80308     , -0.0003786015, 0.000461201416, 0.000250262237, 3.12937164  , -0.01381914 , -7.786891E-05, 923.235962  , 26.68298    , 777.8745    , 0.68        , 3           , 255         , 0           , 0
-0.139298856, -0.124359474, 9.80631     , -0.000343256048, 0.000489046564, -0.0004009324, 3.12936831  , -0.0138239814, -7.379983E-05, 923.235962  , 26.68298    , 777.874634  , 0.69        , 3           , 255         , 0           , 0
-0.14451474 , -0.11828389 , 9.787735    , -0.000506964861, 0.000375463162, 9.046958E-05, 3.129363    , -0.0138277449, -7.465862E-05, 923.235962  , 26.68298    , 777.874756  , 0.7         , 3           , 255         , 0           , 0
-0.144462809, -0.118036427, 9.79375648  , -0.000656144, -0.00027277146, 0.000178547052, 3.12934685  , -0.0138269477, -7.634315E-05, 923.235962  , 26.68298    , 777.8844    , 0.71        , 3           , 255         , 0           , 0
-0.133653551, -0.1239806  , 9.796653    , -0.000410277047, -0.0006532957, 0.000266400573, 3.12934279  , -0.0138204489, -7.90871563E-05, 923.235962  , 26.68298    , 777.8845    , 0.72        , 3           , 255         , 0           , 0
-0.131909326, -0.117844805, 9.796494    , -0.0004099321, -0.000143409474, 0.0005109938, 3.12933874  , -0.013819078, -8.421464E-05, 923.265     , 26.6862373  , 777.884644  , 0.73        , 3           , 255         , 0           , 0
-0.130537987, -0.1180072  , 9.794781    , 0.000457560061, 0.0005181007, -0.000203276344, 3.12934327  , -0.0138242347, -8.211841E-05, 923.265     , 26.6862373  , 777.884766  , 0.74        , 3           , 255         , 0           , 0
-0.139286131, -0.119802177, 9.80472     , 0.0002830947, 0.000187608646, 0.0004021568, 3.12934613  , -0.0138261588, -8.611697E-05, 923.265     , 26.6862373  , 777.8849    , 0.75        , 3           , 255         , 0           , 0
-0.132818356, -0.116158918, 9.789977    , 0.000109087559, 0.0003292748, 0.0005869215, 3.12934732  , -0.0138295228, -9.194585E-05, 923.265     , 26.6862373  , 777.885     , 0.76        , 3           , 255         , 0           , 0
-0.1243003  , -0.107316054, 9.77839851  , 0.000356812379, 0.000248701428, 0.0005420802, 3.12935114  , -0.0138320765, -9.733618E-05, 923.265     , 26.6862373  , 777.885132  , 0.77        , 3           , 255         , 0           , 0
-0.137442321, -0.10747385 , 9.785734    , -9.401608E-05, 0.000149137457, -0.000127418258, 3.12935019  , -0.0138335526, -9.604376E-05, 923.265     , 26.6862373  , 777.885254  , 0.78        , 3           , 255         , 0           , 0
-0.144915   , -0.1121973  , 9.792302    , -0.000289437, -5.841418E-05, 0.000108626729, 3.129347    , -0.0138329817, -9.713718E-05, 923.265     , 26.6862373  , 777.8854    , 0.79        , 3           , 255         , 0           , 0
-0.131628752, -0.122117   , 9.803991    , -0.0005865821, -0.000293355552, 4.90385573E-05, 3.12934136  , -0.0138300546, -9.76634838E-05, 923.265     , 26.6862373  , 777.8855    , 0.8         , 3           , 255         , 0           , 0
-0.13825126 , -0.110970281, 9.803808    , 5.4258504E-05, -0.0003421147, 0.000354558637, 3.129353    , -0.0138257006, -0.000101403326, 923.265     , 26.6862373  , 777.856934  , 0.81        , 3           , 255         , 0           , 0
-0.144055247, -0.116604149, 9.793442    , -0.000110564521, 8.474616E-05, 0.00074917957, 3.12935185  , -0.01382664 , -0.00010888472, 923.265     , 26.6862373  , 777.857056  , 0.82        , 3           , 255         , 0           , 0
-0.136303648, -0.112066351, 9.786892    , -2.83967238E-05, 0.000396094867, 0.000330636743, 3.12935162  , -0.01383064 , -0.0001121426, 923.2644    , 26.6905117  , 777.8572    , 0.83        , 3           , 255         , 0           , 0
-0.118789293, -0.106575511, 9.782176    , -0.000157796545, 0.000299001927, -1.06970547E-05, 3.12935019  , -0.013833628, -0.000111999027, 923.2644    , 26.6905117  , 777.8573    , 0.84        , 3           , 255         , 0           , 0
-0.123860635, -0.113529429, 9.789775    , 0.000108328066, 0.000297270366, 0.0002736058, 3.12935114  , -0.0138366334, -0.000114698669, 923.2644    , 26.6905117  , 777.8574    , 0.85        , 3           , 255         , 0           , 0
-0.13987346 , -0.120576143, 9.792569    , 0.0003731897, 7.484469E-05, 7.865805E-06, 3.129355    , -0.0138373822, -0.000114768176, 923.2644    , 26.6905117  , 777.857544  , 0.86        , 3           , 255         , 0           , 0
-0.136290222, -0.119658768, 9.79102     , 0.00018892216, 0.000150842476, 0.0005363322, 3.12935686  , -0.0138389561, -0.000120113022, 923.2644    , 26.6905117  , 777.857666  , 0.87        , 3           , 255         , 0           , 0
-0.1401818  , -0.119117722, 9.788392    , -0.000255813939, 0.000308914576, 0.000477216381, 3.12935448  , -0.0138421049, -0.000124847356, 923.2644    , 26.6905117  , 777.8578    , 0.88        , 3           , 255         , 0           , 0
-0.143351108, -0.129385024, 9.790348    , 0.000189036713, -0.0003570757, 7.142662E-06, 3.12935638  , -0.0138385342, -0.000124962491, 923.2644    , 26.6905117  , 777.8579    , 0.89        , 3           , 255         , 0           , 0
-0.14078562 , -0.123623013, 9.791487    , 0.000268778647, 0.000329675968, 0.000339040882, 3.129359    , -0.013841873, -0.000128312546, 923.2644    , 26.6905117  , 777.858032  , 0.9         , 3           , 255         , 0           , 0
-0.126250818, -0.117586181, 9.799694    , -8.638017E-07, -0.000150768436, 0.0004203565, 3.12936854  , -0.0138428677, -0.000132664543, 923.2644    , 26.6905117  , 777.8357    , 0.91        , 3           , 255         , 0           , 0
-0.1321657  , -0.112141572, 9.806577    , -0.000203806325, -0.000415339367, 0.000454921479, 3.12936664  , -0.0138387689, -0.0001372645, 923.2644    , 26.6905117  , 777.835754  , 0.92        , 3           , 255         , 0           , 0
-0.13559708 , -0.124732673, 9.799852    , -0.000224438962, -0.0001746061, 0.000239050685, 3.12936425  , -0.0138370525, -0.000139676355, 923.269653  , 26.6936321  , 777.8358    , 0.93        , 3           , 255         , 0           , 0
-0.14002803 , -0.121295847, 9.790059    , -0.000375270029, 0.000342613435, 0.000378409721, 3.12936068  , -0.0138405254, -0.00014341854, 923.269653  , 26.6936321  , 777.8359    , 0.94        , 3           , 255         , 0           , 0
-0.130661428, -0.119220771, 9.797269    , 3.835489E-05, 0.000212301733, 0.000213300256, 3.12936115  , -0.0138426749, -0.000145525584, 923.269653  , 26.6936321  , 777.835938  , 0.95        , 3           , 255         , 0           , 0
-0.126694918, -0.1234995  , 9.791953    , 0.000145860366, 0.000265062437, -0.000224213421, 3.12936258  , -0.0138452975, -0.000143251033, 923.269653  , 26.6936321  , 777.836     , 0.96        , 3           , 255         , 0           , 0
-0.136499047, -0.112000011, 9.790571    , -0.000383010251, 0.000177162 , -0.000869607436, 3.12935853  , -0.0138469609, -0.000134533315, 923.269653  , 26.6936321  , 777.83606   , 0.97        , 3           , 255         , 0           , 0
-0.137587443, -0.117712364, 9.79294     , -0.000101038022, 0.000187116675, -0.00105378591, 3.12935734  , -0.0138487043, -0.000123972612, 923.269653  , 26.6936321  , 777.8361    , 0.98        , 3           , 255         , 0           , 0
-0.126173645, -0.114376687, 9.793867    , 0.000250921 , -0.000124302111, -9.053564E-05, 3.12936     , -0.0138474517, -0.000123082456, 923.269653  , 26.6936321  , 777.836243  , 0.99        , 3           , 255         , 0           , 0
-0.134175077, -0.122886494, 9.788889    , 0.000450351625, -0.0002620652, -0.00043929083, 3.12936425  , -0.0138447769, -0.000118721618, 923.269653  , 26.6936321  , 777.836365  , 1           , 3           , 0           , 6.46023655  , 100
-0.136402145, -0.132941037, 9.796083    , -3.935059E-05, -0.000108261243, 0.000300386135, 3.12936735  , -0.013835948, -0.000121784127, 923.269653  , 26.6936321  , 777.8121    , 1.01        , 3           , 1           , 0           , 0
-0.140727878, -0.126892254, 9.799247    , 0.0001708162, 0.000148466439, -0.000367217173, 3.12936878  , -0.0138373878, -0.000118093812, 923.269653  , 26.6936321  , 777.812134  , 1.02        , 3           , 2           , 0           , 0
-0.1375619  , -0.120412514, 9.795294    , -2.95679783E-05, -0.000165955978, 0.0009111017, 3.12936878  , -0.01383584 , -0.00012722511, 923.2612    , 26.6960068  , 777.8122    , 1.03        , 3           , 3           , 0           , 0
-0.1331397  , -0.113402113, 9.795819    , 0.0005196945, -0.000231192331, 0.000758191454, 3.129374    , -0.0138336206, -0.000134835253, 923.2612    , 26.6960068  , 777.812256  , 1.04        , 3           , 4           , 0           , 0
-0.131700739, -0.123406306, 9.789662    , 0.000542643 , -0.000251906924, 0.00100702606, 3.12937951  , -0.0138312262, -0.000144936232, 923.2612    , 26.6960068  , 777.8123    , 1.05        , 3           , 5           , 0           , 0
-0.1339012  , -0.125408933, 9.78644848  , 0.0003379532, -7.380033E-06, 0.0006859547, 3.129383    , -0.0138312364, -0.000151796674, 923.2612    , 26.6960068  , 777.8124    , 1.06        , 3           , 6           , 0           , 0
-0.133417487, -0.120336369, 9.787499    , -6.334111E-05, 4.06514155E-05, -0.000337179052, 3.12938237  , -0.0138316015, -0.000148419931, 923.2612    , 26.6960068  , 777.812439  , 1.07        , 3           , 7           , 0           , 0
-0.1275888  , -0.123573221, 9.791269    , -0.00015617779, 0.0004832236, -0.0005024503, 3.1293807   , -0.0138363717, -0.000143336423, 923.2612    , 26.6960068  , 777.8125    , 1.08        , 3           , 8           , 5           , 5
-0.142884165, -0.118163884, 9.793195    , 0.000221551629, 7.286633E-05, -5.4626842E-05, 3.129383    , -0.0138370935, -0.000142781253, 923.2612    , 26.6960068  , 777.812561  , 1.09        , 3           , 9           , 5           , 0.1
-0.144863129, -0.12060573 , 9.804323    , 0.0003284081, 0.00014407048, 0.0001895031, 3.12938619  , -0.0138385566, -0.000144658727, 923.2612    , 26.6960068  , 777.8126    , 1.1         , 3           , 10          , 0.1         , 0.1
-0.13736251 , -0.12457    , 9.792517    , -0.0006566583, -3.57693061E-05, -0.000215953973, 3.129372    , -0.0138401436, -0.000142395918, 923.2612    , 26.6960068  , 777.8006    , 1.11        , 3           , 11          , 0.0092183   , 0.0092183
-0.131783262, -0.119961962, 9.786957    , 0.000191435916, -0.000394505216, 1.8236693E-05, 3.12937379  , -0.0138362013, -0.000142626508, 923.2612    , 26.6960068  , 777.800659  , 1.12        , 3           , 12          , 0.174642846 , 0
-0.1365755  , -0.113447547, 9.789472    , -0.000147087965, -0.000195997069, -6.028873E-05, 3.12937236  , -0.0138342353, -0.000142047575, 923.2766    , 26.7001438  , 777.8007    , 1.13        , 3           , 13          , 0           , 0
-0.142092556, -0.11104022 , 9.79133     , 4.70487867E-05, -0.000119559118, 0.000100595236, 3.12937284  , -0.0138330515, -0.000143068144, 923.2766    , 26.7001438  , 777.8008    , 1.14        , 3           , 14          , 0.00191015354, 0.00148021546
-0.138563722, -0.117014863, 9.79666     , 0.0004254228, -0.000431015971, 0.000123942242, 3.12937713  , -0.0138287563, -0.0001443602, 923.2766    , 26.7001438  , 777.800842  , 1.15        , 3           , 15          , 0           , 0.0003277481
-0.138484791, -0.121554956, 9.790204    , 2.660125E-05, -0.0002681627, 0.000111041329, 3.12937737  , -0.0138260918, -0.000145503363, 923.2766    , 26.7001438  , 777.8009    , 1.16        , 3           , 16          , 0           , 1.401298E-45
-0.139252067, -0.122106038, 9.795537    , 6.513903E-06, 0.000702566933, -0.0002026339, 3.12937737  , -0.0138330907, -0.000143391211, 923.2766    , 26.7001438  , 777.800964  , 1.17        , 3           , 20          , 0           , 0
-0.132278115, -0.109842077, 9.79155     , 0.0006257137, 7.15408241E-05, -0.000449761865, 3.12938356  , -0.013833751, -0.000138884847, 923.2766    , 26.7001438  , 777.801     , 1.18        , 3           , 21          , 0           , 0
-0.130369261, -0.106400587, 9.782317    , 1.990702E-05, -0.000107333995, 0.0005193327, 3.1293838   , -0.0138327414, -0.00014409126, 923.2766    , 26.7001438  , 777.8011    , 1.19        , 3           , 22          , 0           , 0
-0.135447472, -0.113162793, 9.787166    , -0.0001527532, 2.5588437E-05, -0.00016551427, 3.12938237  , -0.013832977, -0.000142433, 923.2766    , 26.7001438  , 777.801147  , 1.2         , 3           , 40          , 0           , 0
-0.136660278, -0.123132542, 9.798632    , 7.264642E-05, -2.689904E-05, 0.000251723046, 3.12939572  , -0.0138354693, -0.000145129088, 923.2766    , 26.7001438  , 777.774841  , 1.21        , 3           , 41          , 0           , 0
-0.137074843, -0.116754964, 9.797457    , 5.797413E-05, 0.000401454978, 0.000344600354, 3.12939644  , -0.0138395252, -0.000148526116, 923.2766    , 26.7001438  , 777.774841  , 1.22        , 3           , 42          , 0           , 0
-0.1381607  , -0.11797557 , 9.794093    , 0.00055469363, 0.000142324483, 3.817017E-05, 3.129402    , -0.0138409538, -0.000148890467, 923.2909    , 26.70123    , 777.774841  , 1.23        , 3           , 255         , 0           , 0
-0.135085449, -0.115604118, 9.79031849  , 0.000169174047, -6.007857E-05, -0.000132557427, 3.12940359  , -0.0138403354, -0.000147572238, 923.2909    , 26.70123    , 777.774841  , 1.24        , 3           , 255         , 0           , 0
-0.135307863, -0.117054179, 9.790335    , -1.82711519E-05, 2.897135E-05, 0.0005364646, 3.12940359  , -0.01384069 , -0.000152933324, 923.2909    , 26.70123    , 777.774841  , 1.25        , 3           , 255         , 0           , 0
-0.127716213, -0.121178783, 9.792778    , 0.000181935029, -0.00017626828, 0.000482793548, 3.1294055   , -0.0138389859, -0.000157782721, 923.2909    , 26.70123    , 777.774841  , 1.26        , 3           , 255         , 0           , 0
-0.122411713, -0.1112233  , 9.789794    , -8.11523059E-05, -7.887278E-05, -0.0009117186, 3.12940454  , -0.0138380863, -0.000148675186, 923.2909    , 26.70123    , 777.774841  , 1.27        , 3           , 255         , 0           , 0
-0.133967191, -0.114806712, 9.791675    , -0.0001639385, 0.000122978585, -0.0003979046, 3.12940288  , -0.0138392672, -0.000144681151, 923.2909    , 26.70123    , 777.774841  , 1.28        , 3           , 255         , 0           , 0
-0.141188428, -0.117605984, 9.802538    , -2.483558E-05, -3.93076334E-05, -0.0002225084, 3.1294024   , -0.0138388462, -0.000142460864, 923.2909    , 26.70123    , 777.774841  , 1.29        , 3           , 255         , 0           , 0
-0.132135123, -0.124199748, 9.786745    , 0.0002521926, -0.000395483221, 0.000120647805, 3.129405    , -0.0138349105, -0.00014371553, 923.2909    , 26.70123    , 777.774841  , 1.3         , 3           , 255         , 0           , 0
-0.128821746, -0.121764183, 9.796627    , 0.0003294301, -0.000207104837, 0.000517742243, 3.12941217  , -0.0138286883, -0.000148970255, 923.2909    , 26.70123    , 777.7371    , 1.31        , 3           , 255         , 0           , 0
-0.123232707, -0.116625711, 9.795118    , 5.46799274E-05, 0.000380745158, -0.000273211277, 3.12941265  , -0.013832463, -0.000146191785, 923.2909    , 26.70123    , 777.737     , 1.32        , 3           , 255         , 0           , 0
-0.12924853 , -0.118014514, 9.790039    , 5.120656E-05, -0.000118347467, 0.0005784345, 3.12941337  , -0.01383135 , -0.000151990535, 923.2755    , 26.7046223  , 777.7369    , 1.33        , 3           , 255         , 0           , 0
-0.12911807 , -0.1173618  , 9.797826    , -0.000106939231, 7.215759E-05, 7.397923E-05, 3.12941217  , -0.01383208 , -0.00015272155, 923.2755    , 26.7046223  , 777.736755  , 1.34        , 3           , 255         , 0           , 0
-0.122743748, -0.109720767, 9.79107952  , 8.019956E-05, -0.000186981051, 0.000417896546, 3.12941313  , -0.01383026 , -0.000156923285, 923.2755    , 26.7046223  , 777.736633  , 1.35        , 3           , 255         , 0           , 0
-0.1375657  , -0.114110447, 9.794844    , 0.0001649271, -7.74409855E-05, -0.000427118881, 3.12941456  , -0.0138294343, -0.000152661523, 923.2755    , 26.7046223  , 777.7365    , 1.36        , 3           , 255         , 0           , 0
-0.144845277, -0.116241232, 9.797255    , 0.000378013 , -9.718246E-05, -0.000457234331, 3.12941837  , -0.01382841 , -0.00014810104, 923.2755    , 26.7046223  , 777.7364    , 1.37        , 3           , 255         , 0           , 0
-0.141110808, -0.115697518, 9.796669    , -0.000175339752, -0.000440405915, -0.000381939579, 3.12941647  , -0.0138239581, -0.000144335281, 923.2755    , 26.7046223  , 777.736267  , 1.38        , 3           , 255         , 0           , 0
-0.136565566, -0.117989756, 9.792715    , -0.000130092027, -0.000694879738, 4.646281E-05, 3.12941527  , -0.0138170142, -0.000144884529, 923.2755    , 26.7046223  , 777.736145  , 1.39        , 3           , 255         , 0           , 0
-0.138902068, -0.109839842, 9.796379    , -0.000112407142, -0.0002781686, 0.000161547738, 3.129414    , -0.0138142537, -0.000146533872, 923.2755    , 26.7046223  , 777.736     , 1.4         , 3           , 255         , 0           , 0
-0.139592111, -0.112400055, 9.802544    , -0.000533589162, 0.000480602961, -0.0004534321, 3.12941718  , -0.0138136372, -0.000142057383, 923.2755    , 26.7046223  , 777.718     , 1.41        , 3           , 255         , 0           , 0
-0.147117   , -0.120622292, 9.802397    , -0.000193983549, 0.000428652856, -0.000146997278, 3.12941527  , -0.0138179054, -0.000140535238, 923.2755    , 26.7046223  , 777.717834  , 1.42        , 3           , 255         , 0           , 0
-0.138836935, -0.124953821, 9.797555    , 0.000295673031, 0.000138827367, 0.000235797052, 3.12941813  , -0.013819322, -0.000142876277, 923.2391    , 26.7038765  , 777.717651  , 1.43        , 3           , 255         , 0           , 0
-0.149149135, -0.117128395, 9.793027    , 6.670831E-05, 0.0005660879, -0.000360917038, 3.12941885  , -0.0138249369, -0.000139198208, 923.2391    , 26.7038765  , 777.717468  , 1.44        , 3           , 255         , 0           , 0
-0.144537717, -0.115195774, 9.786497    , -2.523826E-05, 0.000378898461, 0.000164897734, 3.12941861  , -0.0138287451, -0.000140801028, 923.2391    , 26.7038765  , 777.7173    , 1.45        , 3           , 255         , 0           , 0
-0.1411961  , -0.121894062, 9.791158    , -0.000208800309, 0.000326465815, 1.10481633E-05, 3.12941647  , -0.0138320122, -0.000140871765, 923.2391    , 26.7038765  , 777.7171    , 1.46        , 3           , 255         , 0           , 0
-0.128264248, -0.115969   , 9.79004     , 0.000151394866, 5.33212442E-05, -0.000182223564, 3.12941813  , -0.0138325235, -0.000139043041, 923.2391    , 26.7038765  , 777.7169    , 1.47        , 3           , 255         , 0           , 0
-0.13754718 , -0.111307286, 9.78777     , 0.000490962761, -1.94372842E-05, -0.000129366177, 3.129423    , -0.013832313, -0.000137751747, 923.2391    , 26.7038765  , 777.716736  , 1.48        , 3           , 255         , 0           , 0
-0.134899825, -0.117034458, 9.789981    , 0.0002005964, -0.00016935193, -4.36681439E-05, 3.12942481  , -0.0138306133, -0.000137335679, 923.2391    , 26.7038765  , 777.716553  , 1.49        , 3           , 255         , 0           , 0
-0.132566288, -0.126089692, 9.792483    , -0.00026073982, 6.11576252E-05, -0.0006192001, 3.12942219  , -0.01383115 , -0.000131136258, 923.2391    , 26.7038765  , 777.7164    , 1.5         , 3           , 255         , 0           , 0
-0.131406471, -0.135125086, 9.793892    , -0.000342521467, 5.962525E-05, 0.000484728836, 3.12942123  , -0.01384173 , -0.000136010145, 923.2391    , 26.7038765  , 777.7385    , 1.51        , 3           , 255         , 0           , 0
-0.134743363, -0.130697668, 9.7907505   , 0.0002429107, -0.000367382076, -0.000306801085, 3.12942362  , -0.0138380192, -0.000132986839, 923.2391    , 26.7038765  , 777.738464  , 1.52        , 3           , 255         , 0           , 0
-0.142424718, -0.127279416, 9.79702     , -0.000409519533, -0.000194189837, -0.000294234, 3.12941957  , -0.0138360411, -0.000130068132, 923.243652  , 26.7049618  , 777.7384    , 1.53        , 3           , 255         , 0           , 0
-0.1312894  , -0.130208477, 9.789461    , 0.000520492555, -0.0007083026, 0.0009627721, 3.12942481  , -0.0138290776, -0.000139782045, 923.243652  , 26.7049618  , 777.738342  , 1.54        , 3           , 255         , 0           , 0
-0.130938515, -0.133625031, 9.787949    , -3.9396924E-05, -0.000428980915, 0.00020116911, 3.12942457  , -0.0138248121, -0.000141845943, 923.243652  , 26.7049618  , 777.7383    , 1.55        , 3           , 255         , 0           , 0
-0.137639865, -0.130405813, 9.792097    , -0.000120566459, -0.000225448282, 0.0006575946, 3.12942338  , -0.0138226375, -0.000148449311, 923.243652  , 26.7049618  , 777.7382    , 1.56        , 3           , 255         , 0           , 0
-0.144406   , -0.1290901  , 9.799789    , -0.000146605191, -0.0002776879, 9.775677E-05, 3.129422    , -0.0138198724, -0.000149460684, 923.243652  , 26.7049618  , 777.738159  , 1.57        , 3           , 255         , 0           , 0
-0.143039122, -0.124436282, 9.797102    , -3.35267978E-05, -0.0003950356, 0.000207630917, 3.12942171  , -0.0138159478, -0.00015158506, 923.243652  , 26.7049618  , 777.7381    , 1.58        , 3           , 255         , 0           , 0
-0.1328818  , -0.122615814, 9.793272    , 0.000345662818, 6.134773E-05, -0.00045355974, 3.129425    , -0.0138165094, -0.00014704201, 923.243652  , 26.7049618  , 777.738037  , 1.59        , 3           , 255         , 0           , 0
-0.1358343  , -0.122528173, 9.794487    , 0.000226880773, -0.000112592475, 0.000379144971, 3.12942743  , -0.0138154272, -0.000150847132, 923.243652  , 26.7049618  , 777.738     , 1.6         , 3           , 255         , 0           , 0
-0.127772   , -0.117667094, 9.793381    , 0.000185052049, -0.000165646663, 9.747912E-05, 3.12940645  , -0.0138162626, -0.00015152822, 923.243652  , 26.7049618  , 777.753235  , 1.61        , 3           , 255         , 0           , 0
-0.130780175, -0.11618606 , 9.794878    , 8.002913E-05, 0.000142952544, -0.0005064923, 3.12940717  , -0.0138176307, -0.000146445891, 923.243652  , 26.7049618  , 777.753235  , 1.62        , 3           , 255         , 0           , 0
-0.132034481, -0.121305153, 9.797899    , -2.08579E-05, -0.000363581, -0.000803089642, 3.129407    , -0.013813898, -0.00013845932, 923.2231    , 26.7036037  , 777.753235  , 1.63        , 3           , 255         , 0           , 0
-0.135352924, -0.11795529 , 9.794513    , 0.000657013967, 0.000421344535, -6.947169E-05, 3.1294136   , -0.013818102, -0.000137713272, 923.2231    , 26.7036037  , 777.753235  , 1.64        , 3           , 255         , 0           , 0
-0.134893969, -0.115664519, 9.792585    , 0.0003793753, -0.000205315184, -0.000394077448, 3.12941718  , -0.013816   , -0.000133797512, 923.2231    , 26.7036037  , 777.753235  , 1.65        , 3           , 255         , 0           , 0
-0.1346596  , -0.120112225, 9.803927    , 0.0002990911, -0.00045573758, 8.599856E-05, 3.12942028  , -0.013811457, -0.000134712958, 923.2231    , 26.7036037  , 777.753235  , 1.66        , 3           , 255         , 0           , 0
-0.131573766, -0.115376711, 9.78979     , 0.00017785083, -0.000151439337, -0.0006637706, 3.129422    , -0.0138098607, -0.000128093729, 923.2231    , 26.7036037  , 777.753235  , 1.67        , 3           , 255         , 0           , 0
-0.135827631, -0.118334696, 9.79791451  , 9.339687E-05, -1.00649195E-05, 0.0005773021, 3.129423    , -0.0138098309, -0.000133867958, 923.2231    , 26.7036037  , 777.753235  , 1.68        , 3           , 255         , 0           , 0
-0.132306963, -0.114048466, 9.794199    , -0.000224710209, -0.0003032022, -0.000126459432, 3.12942076  , -0.0138067836, -0.000132640271, 923.2231    , 26.7036037  , 777.753235  , 1.69        , 3           , 255         , 0           , 0
-0.1363606  , -0.108497918, 9.787028    , 0.0004356472, -0.000229866244, 2.98093655E-05, 3.129425    , -0.0138044879, -0.000132966321, 923.2231    , 26.7036037  , 777.753235  , 1.7         , 3           , 255         , 0           , 0
-0.1377812  , -0.111908652, 9.790761    , 0.0003520979, 0.000186612946, 4.48696373E-05, 3.12943482  , -0.0138014629, -0.000133477384, 923.2231    , 26.7036037  , 777.79      , 1.71        , 3           , 255         , 0           , 0
-0.138065726, -0.12163762 , 9.794291    , 0.00010501733, 0.000300851418, -0.000114634589, 3.12943578  , -0.0138044581, -0.000132294459, 923.2231    , 26.7036037  , 777.7902    , 1.72        , 3           , 255         , 0           , 0
-0.130090982, -0.1109098  , 9.796373    , 0.0003206965, -0.000227572978, 8.02988361E-05, 3.12943888  , -0.0138021922, -0.000133125111, 923.2899    , 26.7090988  , 777.790466  , 1.73        , 3           , 255         , 0           , 0
-0.130018443, -0.116723873, 9.794634    , 0.00068304874, 0.0001112991, -6.09608251E-05, 3.12944579  , -0.0138032977, -0.000132501984, 923.2899    , 26.7090988  , 777.7907    , 1.74        , 3           , 255         , 0           , 0
-0.138700753, -0.115485407, 9.794119    , -0.000442676828, -0.000159824733, -0.000383180828, 3.12944126  , -0.0138016529, -0.0001286896, 923.2899    , 26.7090988  , 777.790955  , 1.75        , 3           , 255         , 0           , 0
-0.1358561  , -0.122655496, 9.793167    , -0.00031338085, -0.0004375613, 0.000540521054, 3.12943816  , -0.0137973437, -0.00013414798, 923.2899    , 26.7090988  , 777.7912    , 1.76        , 3           , 255         , 0           , 0
-0.131162092, -0.11500708 , 9.79096     , 0.000178483315, -0.000613681, 0.0001884856, 3.12944     , -0.0137912333, -0.00013610741, 923.2899    , 26.7090988  , 777.791443  , 1.77        , 3           , 255         , 0           , 0
-0.1356944  , -0.110108688, 9.793081    , 0.000208132435, -0.00011054182, 0.000175380846, 3.12944221  , -0.0137901492, -0.000137874638, 923.2899    , 26.7090988  , 777.7917    , 1.78        , 3           , 255         , 0           , 0
-0.143212527, -0.107451126, 9.79004     , -5.72708668E-05, -0.0001037512, 0.00017977762, 3.12944174  , -0.0137891341, -0.000139685013, 923.2899    , 26.7090988  , 777.791931  , 1.79        , 3           , 255         , 0           , 0
-0.138496667, -0.121096216, 9.792993    , -0.000403906684, -0.000440034084, 0.0005007986, 3.12943769  , -0.0137847951, -0.000144746431, 923.2899    , 26.7090988  , 777.7922    , 1.8         , 3           , 255         , 0           , 0
-0.134668559, -0.12341442 , 9.792196    , 0.000235650456, -0.000165239209, 0.00082589977, 3.12944913  , -0.0137849944, -0.000153148445, 923.2899    , 26.7090988  , 777.7498    , 1.81        , 3           , 255         , 0           , 0
-0.131162733, -0.1135361  , 9.798488    , -7.14336056E-06, -0.00029117032, -1.60124036E-05, 3.129449    , -0.0137820793, -0.000153023677, 923.2899    , 26.7090988  , 777.7498    , 1.82        , 3           , 255         , 0           , 0
-0.137566119, -0.110635534, 9.795278    , -0.0004320735, 8.41936562E-05, -0.0007952561, 3.1294446   , -0.0137828263, -0.000145060927, 923.24884   , 26.7084885  , 777.7498    , 1.83        , 3           , 255         , 0           , 0
-0.14802742 , -0.109905079, 9.796885    , 0.00010324805, 1.14454888E-05, -0.000421124685, 3.12944555  , -0.01378289 , -0.000140848308, 923.24884   , 26.7084885  , 777.7498    , 1.84        , 3           , 255         , 0           , 0
-0.143245131, -0.108867243, 9.791654    , 0.000119587872, -0.000122296158, -0.000255525782, 3.12944674  , -0.0137816351, -0.0001383079, 923.24884   , 26.7084885  , 777.7498    , 1.85        , 3           , 255         , 0           , 0
-0.1363143  , -0.118353404, 9.789015    , -0.000275656348, 4.967337E-05, -1.07631495E-05, 3.129444    , -0.01378213 , -0.000138194227, 923.24884   , 26.7084885  , 777.7498    , 1.86        , 3           , 255         , 0           , 0
-0.142504215, -0.120827593, 9.796049    , 2.77538784E-05, 0.000166894519, -5.3167576E-05, 3.12944412  , -0.013783792, -0.0001376423, 923.24884   , 26.7084885  , 777.7498    , 1.87        , 3           , 255         , 0           , 0
-0.144561738, -0.134918466, 9.795933    , 0.000369622139, 2.53949547E-05, 0.0006683783, 3.129448    , -0.0137841273, -0.000144322956, 923.24884   , 26.7084885  , 777.7498    , 1.88        , 3           , 255         , 0           , 0
-0.135247871, -0.122183405, 9.798685    , 0.000438244315, -9.27948859E-05, 0.0006119929, 3.12945247  , -0.0137832742, -0.000150454129, 923.24884   , 26.7084885  , 777.7498    , 1.89        , 3           , 255         , 0           , 0
-0.138643146, -0.120949641, 9.793921    , 0.0005715098, 0.000184078584, 0.000191024155, 3.12945819  , -0.0137851369, -0.000152342036, 923.24884   , 26.7084885  , 777.7498    , 1.9         , 3           , 255         , 0           , 0
-0.143907338, -0.117887959, 9.785376    , -0.000263844035, -1.084141E-05, -0.000231591534, 3.12945676  , -0.0137937777, -0.000150045336, 923.24884   , 26.7084885  , 777.7589    , 1.91        , 3           , 255         , 0           , 0
-0.135837853, -0.120759964, 9.793357    , -0.0001735012, 2.28858553E-05, 0.000444107922, 3.129455    , -0.01379406 , -0.000154483627, 923.24884   , 26.7084885  , 777.759     , 1.92        , 3           , 255         , 0           , 0
-0.127942175, -0.118869923, 9.799529    , 0.000394259929, 8.801266E-05, 0.000202270166, 3.12945914  , -0.0137949651, -0.000156495647, 923.247437  , 26.7119484  , 777.759033  , 1.93        , 3           , 255         , 0           , 0
-0.132360652, -0.112484381, 9.810367    , 4.93194675E-05, 0.000208121259, 0.000124275655, 3.12945962  , -0.0137970615, -0.000157713162, 923.247437  , 26.7119484  , 777.7591    , 1.94        , 3           , 255         , 0           , 0
-0.141219854, -0.109493837, 9.798746    , 0.00010132941, 0.000318667153, 0.0005160661, 3.12946081  , -0.01380031 , -0.000162835175, 923.247437  , 26.7119484  , 777.759155  , 1.95        , 3           , 255         , 0           , 0
-0.133775234, -0.124322414, 9.8000145   , 1.34512084E-05, 0.000104205566, 0.0003168928, 3.12946081  , -0.0138013894, -0.000165991427, 923.247437  , 26.7119484  , 777.7592    , 1.96        , 3           , 255         , 0           , 0
-0.1309079  , -0.118678011, 9.795412    , -0.00030592538, 0.0002589994, -9.66465E-05, 3.12945771  , -0.0138039673, -0.000164993515, 923.247437  , 26.7119484  , 777.7593    , 1.97        , 3           , 255         , 0           , 0
-0.14418599 , -0.123717487, 9.799485    , 0.000106710591, -0.000380893471, 0.000173523382, 3.129459    , -0.0138001787, -0.000166774946, 923.247437  , 26.7119484  , 777.759338  , 1.98        , 3           , 255         , 0           , 0
-0.136498958, -0.116608068, 9.78982     , -4.2464002E-05, 0.0001576466, 0.000509656 , 3.12945843  , -0.0138018169, -0.000171852385, 923.247437  , 26.7119484  , 777.7594    , 1.99        , 3           , 255         , 0           , 0
-0.129646212, -0.113583818, 9.795362    , 0.000198883587, 6.777514E-05, 0.00096373813, 3.12946057  , -0.0138026141, -0.000181481446, 923.247437  , 26.7119484  , 777.75946   , 2           , 3           , 0           , 7.46023655  , 200
-0.135715753, -0.114862941, 9.79114     , -0.0001174144, 0.000137456344, -0.000115688788, 3.12946177  , -0.013804758, -0.000180339062, 923.247437  , 26.7119484  , 777.769531  , 2.01        , 3           , 1           , 0           , 0
-0.137527078, -0.113275513, 9.795568    , -0.0004650012, 0.000166395213, -0.0005656029, 3.129457    , -0.0138063515, -0.0001746629, 923.247437  , 26.7119484  , 777.7697    , 2.02        , 3           , 2           , 0           , 0
-0.1322895  , -0.117875062, 9.793074    , -5.922909E-05, 6.260269E-05, -0.0005784291, 3.12945628  , -0.0138069065, -0.000168871, 923.259949  , 26.7112713  , 777.7699    , 2.03        , 3           , 3           , 0           , 0
-0.142114237, -0.119008616, 9.788694    , 0.0002641445, 0.000395192648, -0.0005761809, 3.129459    , -0.0138107873, -0.000163061268, 923.259949  , 26.7112713  , 777.7701    , 2.04        , 3           , 4           , 0           , 0
-0.136526629, -0.123692885, 9.799968    , 0.000139415264, 5.150109E-05, 0.000190810446, 3.12946033  , -0.0138113257, -0.0001649631, 923.259949  , 26.7112713  , 777.770264  , 2.05        , 3           , 5           , 0           , 0
-0.140546039, -0.124398805, 9.798044    , 2.62100948E-05, -0.000442440971, 0.0001360857, 3.12946057  , -0.01380692 , -0.000166377649, 923.259949  , 26.7112713  , 777.770447  , 2.06        , 3           , 6           , 0           , 0
-0.1374561  , -0.123436108, 9.792445    , -0.000308154966, -0.0002679251, -0.0003962965, 3.12945747  , -0.0138041927, -0.000162447192, 923.259949  , 26.7112713  , 777.7706    , 2.07        , 3           , 7           , 0           , 0
-0.1344511  , -0.127311319, 9.789251    , -0.0003685729, -0.000582752749, 3.1003583E-05, 3.129454    , -0.0137983691, -0.000162827957, 923.259949  , 26.7112713  , 777.7708    , 2.08        , 3           , 8           , 5           , 5
-0.129268408, -0.122451581, 9.796273    , 0.00018383842, -0.000277139, 0.0002748275, 3.12945557  , -0.0137956319, -0.000165609861, 923.259949  , 26.7112713  , 777.771     , 2.09        , 3           , 9           , 5           , 0.1
-0.1436018  , -0.123630926, 9.802736    , -0.0003406084, 0.000193405082, -0.000128281768, 3.12945223  , -0.01379755 , -0.000164303579, 923.259949  , 26.7112713  , 777.7712    , 2.1         , 3           , 10          , 0.1         , 0.1
-0.138310045, -0.1269124  , 9.792292    , 3.75784E-05 , -8.304976E-05, -0.000635453034, 3.12944818  , -0.0138000064, -0.000157898816, 923.259949  , 26.7112713  , 777.7648    , 2.11        , 3           , 11          , 0.008175374 , 0.008175373
-0.133481085, -0.124064371, 9.783682    , -0.000341208884, -0.000130784232, -0.000196465378, 3.1294446   , -0.0137986755, -0.000155950067, 923.259949  , 26.7112713  , 777.7649    , 2.12        , 3           , 12          , 0.174643889 , 0
-0.1404672  , -0.125278488, 9.792189    , -0.0002268483, -0.0002401314, 0.0006606283, 3.12944245  , -0.0137963546, -0.000162585507, 923.271667  , 26.7152061  , 777.765     , 2.13        , 3           , 13          , 0           , 0
-0.138304919, -0.122643277, 9.795107    , -6.660796E-05, -7.293443E-05, 0.0009047751, 3.129442    , -0.0137957353, -0.0001716421, 923.271667  , 26.7152061  , 777.765137  , 2.14        , 3           , 14          , 0.00191012537, 0.00148017565
-0.130420327, -0.120334923, 9.796856    , 7.673539E-05, 0.000124968356, 3.69267364E-05, 3.12944269  , -0.01379699 , -0.0001719962, 923.271667  , 26.7152061  , 777.765259  , 2.15        , 3           , 15          , 0           , 0.000327747228
-0.120381854, -0.119899228, 9.797353    , 0.000293537974, -0.000172358239, -0.000208323661, 3.12944579  , -0.0137952408, -0.00016993389, 923.271667  , 26.7152061  , 777.7654    , 2.16        , 3           , 16          , 0           , 1.401298E-45
-0.131884068, -0.120786235, 9.798679    , 8.256268E-05, 7.297378E-06, -0.000473808148, 3.12944651  , -0.0137952566, -0.0001651949, 923.271667  , 26.7152061  , 777.7655    , 2.17        , 3           , 20          , 0           , 0
-0.142201   , -0.125588939, 9.797581    , -0.000414898852, -0.000326764071, -0.0005877138, 3.12944221  , -0.0137919169, -0.000159357471, 923.271667  , 26.7152061  , 777.7656    , 2.18        , 3           , 21          , 0           , 0
-0.137943015, -0.128933251, 9.790019    , -0.00061221444, -3.92826041E-05, 0.000167557533, 3.129436    , -0.0137915444, -0.0001610378, 923.271667  , 26.7152061  , 777.765747  , 2.19        , 3           , 22          , 0           , 0
-0.136383384, -0.111706175, 9.792299    , -0.000200393843, 0.000573273748, -9.30014357E-05, 3.129434    , -0.0137972664, -0.000160038078, 923.271667  , 26.7152061  , 777.765869  , 2.2         , 3           , 40          , 0           , 0
-0.135466889, -0.113663755, 9.786737    , -5.184149E-05, 0.000626666355, -7.497001E-05, 3.12942576  , -0.0138031822, -0.00015910533, 923.271667  , 26.7152061  , 777.7451    , 2.21        , 3           , 41          , 0           , 0
-0.138723075, -0.1124536  , 9.793139    , -7.53343338E-05, 0.00014327094, -0.00017838928, 3.129425    , -0.0138045931, -0.000157304, 923.271667  , 26.7152061  , 777.7451    , 2.22        , 3           , 42          , 0           , 0
-0.134735554, -0.113684617, 9.796863    , 0.000464559416, 4.64677578E-05, 0.00014067255, 3.12942982  , -0.0138050755, -0.000158705065, 923.2293    , 26.7135086  , 777.7451    , 2.23        , 3           , 255         , 0           , 0
-0.136828512, -0.117743529, 9.799181    , -0.000177415088, 1.06950756E-05, 6.40534854E-05, 3.129428    , -0.01380519 , -0.0001593443, 923.2293    , 26.7135086  , 777.7451    , 2.24        , 3           , 255         , 0           , 0
-0.136166543, -0.119204581, 9.796018    , -0.000267909141, 0.000196365057, -0.0001576396, 3.12942529  , -0.0138071347, -0.000157744027, 923.2293    , 26.7135086  , 777.7451    , 2.25        , 3           , 255         , 0           , 0
-0.137396947, -0.123030223, 9.793895    , 4.12832E-06 , 3.194774E-05, -0.000359512283, 3.12942529  , -0.0138074113, -0.000154145033, 923.2293    , 26.7135086  , 777.7451    , 2.26        , 3           , 255         , 0           , 0
-0.139647365, -0.125072449, 9.800549    , 3.92878428E-05, -0.000475644832, 0.00067596  , 3.12942576  , -0.013802737, -0.000160962489, 923.2293    , 26.7135086  , 777.7451    , 2.27        , 3           , 255         , 0           , 0
-0.135910958, -0.115449667, 9.787255    , -0.0005629938, 0.000294893747, 0.0006743029, 3.12942028  , -0.0138057657, -0.000167669627, 923.2293    , 26.7135086  , 777.7451    , 2.28        , 3           , 255         , 0           , 0
-0.141294613, -0.115794942, 9.789962    , -0.000163114048, -0.000112966634, -0.000112908281, 3.12941861  , -0.0138046229, -0.00016655428, 923.2293    , 26.7135086  , 777.7451    , 2.29        , 3           , 255         , 0           , 0
-0.135378748, -0.119079925, 9.798915    , 5.068991E-05, 4.704483E-05, 0.0004151857, 3.129419    , -0.0138051435, -0.000170700412, 923.2293    , 26.7135086  , 777.7452    , 2.3         , 3           , 255         , 0           , 0
-0.137909278, -0.1246356  , 9.796904    , -5.593116E-05, -7.638964E-05, 0.000483720331, 3.129422    , -0.013808297, -0.000175592853, 923.2293    , 26.7135086  , 777.781433  , 2.31        , 3           , 255         , 0           , 0
-0.126310676, -0.126055449, 9.796575    , -9.518E-06  , 0.000416399329, 0.0005970767, 3.129422    , -0.0138125345, -0.000181512893, 923.2293    , 26.7135086  , 777.7817    , 2.32        , 3           , 255         , 0           , 0
-0.135313973, -0.119870581, 9.7949      , 0.000282707741, 0.000228123739, 0.0004794881, 3.12942481  , -0.0138148731, -0.00018628 , 923.2608    , 26.7150688  , 777.7819    , 2.33        , 3           , 255         , 0           , 0
-0.133668154, -0.114213265, 9.792437    , -0.000186447985, -0.000316826627, 0.000135247712, 3.129423    , -0.0138117224, -0.000187671016, 923.2608    , 26.7150688  , 777.782166  , 2.34        , 3           , 255         , 0           , 0
-0.1359376  , -0.110739306, 9.792338    , 0.000389241963, -0.000106131891, -0.000192566018, 3.12942672  , -0.0138106365, -0.000185758283, 923.2608    , 26.7150688  , 777.7824    , 2.35        , 3           , 255         , 0           , 0
-0.1367971  , -0.113042809, 9.7825985   , 0.000158241834, 0.000184104778, 9.360723E-06, 3.12942839  , -0.01381248 , -0.0001858295, 923.2608    , 26.7150688  , 777.782654  , 2.36        , 3           , 255         , 0           , 0
-0.134097889, -0.114936389, 9.791413    , -0.000236311, 3.95382522E-05, 0.000229278288, 3.129426    , -0.0138129033, -0.000188117468, 923.2608    , 26.7150688  , 777.782959  , 2.37        , 3           , 255         , 0           , 0
-0.14003256 , -0.118966818, 9.796159    , 2.97977822E-05, 0.000138674164, -0.0006422968, 3.12942624  , -0.0138142109, -0.000181677635, 923.2608    , 26.7150688  , 777.783264  , 2.38        , 3           , 255         , 0           , 0
-0.136137158, -0.11527735 , 9.793537    , 0.0005376205, -0.000144689, 0.000195487344, 3.12943172  , -0.0138127878, -0.000183650074, 923.2608    , 26.7150688  , 777.783569  , 2.39        , 3           , 255         , 0           , 0
-0.1324058  , -0.109066471, 9.785142    , 0.000168639119, -0.0004306815, 0.00051423  , 3.12943339  , -0.0138085438, -0.000188844759, 923.2608    , 26.7150688  , 777.7839    , 2.4         , 3           , 255         , 0           , 0
-0.138799533, -0.116207704, 9.78410149  , 0.000383972074, -0.000141532626, 3.227932E-05, 3.129443    , -0.0138062267, -0.000189262515, 923.2608    , 26.7150688  , 777.7743    , 2.41        , 3           , 255         , 0           , 0
-0.140222564, -0.115526043, 9.795088    , 0.000451983069, 0.0002449822, -0.000161907345, 3.12944746  , -0.0138086556, -0.000187613667, 923.2608    , 26.7150688  , 777.774536  , 2.42        , 3           , 255         , 0           , 0
-0.133026809, -0.113177642, 9.803938    , 0.00036480173, 0.000161412056, 0.000412588 , 3.129451    , -0.0138103189, -0.00019171997, 923.276855  , 26.7145271  , 777.7748    , 2.43        , 3           , 255         , 0           , 0
-0.127217084, -0.1126289  , 9.793148    , 0.000199822825, 0.000410820241, -0.00022884176, 3.12945318  , -0.013814399, -0.0001893817, 923.276855  , 26.7145271  , 777.775     , 2.44        , 3           , 255         , 0           , 0
-0.131151259, -0.117062829, 9.787462    , -3.262027E-05, 0.00018243154, -0.00024282 , 3.12945271  , -0.0138161937, -0.000186931327, 923.276855  , 26.7145271  , 777.775269  , 2.45        , 3           , 255         , 0           , 0
-0.140502617, -0.118222   , 9.78659248  , -0.0004065499, -0.000180079136, -0.000274315738, 3.12944865  , -0.01381436 , -0.000184210061, 923.276855  , 26.7145271  , 777.7755    , 2.46        , 3           , 255         , 0           , 0
-0.141020373, -0.126787841, 9.79373     , -9.63909552E-05, 0.000231374637, 9.45895154E-05, 3.1294477   , -0.0138166845, -0.000185127879, 923.276855  , 26.7145271  , 777.775757  , 2.47        , 3           , 255         , 0           , 0
-0.136234432, -0.123390816, 9.797905    , 8.960988E-05, -0.0002062309, 0.000415529357, 3.12944865  , -0.0138146728, -0.000189308208, 923.276855  , 26.7145271  , 777.776     , 2.48        , 3           , 255         , 0           , 0
-0.149212942, -0.119717635, 9.804374    , -4.35251277E-05, 0.000171184773, 0.0005576866, 3.12944818  , -0.0138164526, -0.000194864275, 923.276855  , 26.7145271  , 777.776245  , 2.49        , 3           , 255         , 0           , 0
-0.134124473, -0.126778752, 9.801181    , -0.000461813179, 8.47093761E-05, 0.000925245055, 3.129444    , -0.01381741 , -0.000204106414, 923.276855  , 26.7145271  , 777.7765    , 2.5         , 3           , 255         , 0           , 0
-0.1308187  , -0.131402373, 9.791687    , -0.00041892624, -0.000190270483, 0.0008763771, 3.12943959  , -0.0138190184, -0.00021289225, 923.276855  , 26.7145271  , 777.7461    , 2.51        , 3           , 255         , 0           , 0
-0.127264827, -0.134876758, 9.792544    , 0.000238739769, -0.00038725487, -0.000331406569, 3.129442    , -0.0138151059, -0.000209625287, 923.276855  , 26.7145271  , 777.746155  , 2.52        , 3           , 255         , 0           , 0
-0.132663041, -0.129874319, 9.797808    , -0.000314500765, 1.89089915E-05, -0.000288314332, 3.12943888  , -0.0138152605, -0.000206739816, 923.268     , 26.7200222  , 777.7462    , 2.53        , 3           , 255         , 0           , 0
-0.139563292, -0.12681134 , 9.796661    , -0.000234668492, -0.000141041819, 0.000370261871, 3.12943649  , -0.0138138952, -0.000210459577, 923.268     , 26.7200222  , 777.7463    , 2.54        , 3           , 255         , 0           , 0
-0.134892911, -0.120140769, 9.799767    , 0.000279972446, 0.000170876039, 0.000539762434, 3.12943935  , -0.0138156684, -0.000215836422, 923.268     , 26.7200222  , 777.746338  , 2.55        , 3           , 255         , 0           , 0
-0.125069737, -0.128654331, 9.786792    , 0.000149697647, -0.000317864353, 1.36217568E-06, 3.12944078  , -0.0138124907, -0.0002158887, 923.268     , 26.7200222  , 777.7464    , 2.56        , 3           , 255         , 0           , 0
-0.13065812 , -0.117556512, 9.783837    , -0.000343311462, -0.0006321242, 0.000262245681, 3.12943745  , -0.0138062024, -0.000218588, 923.268     , 26.7200222  , 777.74646   , 2.57        , 3           , 255         , 0           , 0
-0.134808987, -0.119299375, 9.788732    , -0.000100353151, -0.000291675678, 0.0005122939, 3.12943649  , -0.0138033489, -0.000223746363, 923.268     , 26.7200222  , 777.7465    , 2.58        , 3           , 255         , 0           , 0
-0.138849914, -0.116836384, 9.808757    , -0.00108121731, -0.000475539127, 0.0006069242, 3.12942576  , -0.013798668, -0.000229873447, 923.268     , 26.7200222  , 777.7466    , 2.59        , 3           , 255         , 0           , 0
-0.13653335 , -0.117852807, 9.798251    , -4.212465E-05, -0.00012716162, 0.000117085292, 3.12942553  , -0.0137974108, -0.000231059763, 923.268     , 26.7200222  , 777.746643  , 2.6         , 3           , 255         , 0           , 0
-0.137252539, -0.124231517, 9.799467    , -4.281185E-05, 0.0002943806, -0.0005214626, 3.129415    , -0.0137961376, -0.0002256729, 923.268     , 26.7200222  , 777.7318    , 2.61        , 3           , 255         , 0           , 0
-0.1431006  , -0.121312462, 9.7878      , -0.000447392, 0.000255117542, -0.000297351944, 3.12941051  , -0.0137986522, -0.0002226683, 923.268     , 26.7200222  , 777.73175   , 2.62        , 3           , 255         , 0           , 0
-0.134620428, -0.116251729, 9.797879    , 0.00014234276, -0.000540402136, -0.000152816414, 3.129412    , -0.01379323 , -0.000221206021, 923.2722    , 26.7213783  , 777.7317    , 2.63        , 3           , 255         , 0           , 0
-0.128189057, -0.1199459  , 9.789698    , 2.10356666E-05, -0.0006775978, 0.000148788618, 3.12941217  , -0.013786477, -0.00022277642, 923.2722    , 26.7213783  , 777.7316    , 2.64        , 3           , 255         , 0           , 0
-0.145001128, -0.1273092  , 9.792437    , 0.000171730178, -0.000582217355, -0.00038477598, 3.12941384  , -0.0137806078, -0.000218999572, 923.2722    , 26.7213783  , 777.731567  , 2.65        , 3           , 255         , 0           , 0
-0.134014636, -0.133763492, 9.79929     , 0.000539969071, -0.0003729671, -0.000781462062, 3.129419    , -0.0137767848, -0.000211230363, 923.2722    , 26.7213783  , 777.731567  , 2.66        , 3           , 255         , 0           , 0
-0.131983384, -0.123719156, 9.788065    , 9.94404545E-05, 0.00011640857, -0.0002640994, 3.12942     , -0.0137779145, -0.0002085752, 923.2722    , 26.7213783  , 777.731567  , 2.67        , 3           , 255         , 0           , 0
-0.129549518, -0.1345298  , 9.785731    , -0.000113885268, -0.000163846184, 0.000309794239, 3.129419    , -0.0137763144, -0.000211693114, 923.2722    , 26.7213783  , 777.731567  , 2.68        , 3           , 255         , 0           , 0
-0.136074647, -0.129011557, 9.801424    , 0.00045758707, -0.000227361219, 0.00011586945, 3.12942362  , -0.0137740541, -0.000212879473, 923.2722    , 26.7213783  , 777.731567  , 2.69        , 3           , 255         , 0           , 0
-0.135633573, -0.133057356, 9.798682    , 0.0004515577, -0.000171576627, -0.0001692629, 3.12942815  , -0.0137723172, -0.000211207735, 923.2722    , 26.7213783  , 777.731567  , 2.7         , 3           , 255         , 0           , 0
-0.13036941 , -0.129212216, 9.793364    , 0.000700080767, -0.000101582846, 0.000391514332, 3.129422    , -0.0137723535, -0.000214952888, 923.2722    , 26.7213783  , 777.7131    , 2.71        , 3           , 255         , 0           , 0
-0.136379242, -0.1140483  , 9.801102    , 0.00021801074, 0.000125359278, 0.000679164 , 3.129424    , -0.0137736909, -0.0002217292, 923.2722    , 26.7213783  , 777.712952  , 2.72        , 3           , 255         , 0           , 0
-0.133977264, -0.119910255, 9.779177    , 0.000272125 , 3.76477838E-05, 0.000229301048, 3.129427    , -0.013774096, -0.000224017625, 923.2886    , 26.7205658  , 777.7128    , 2.73        , 3           , 255         , 0           , 0
-0.136829764, -0.1231334  , 9.790215    , 8.250354E-07, -0.000320157153, 0.000147335086, 3.129427    , -0.0137709109, -0.000225529948, 923.2886    , 26.7205658  , 777.7127    , 2.74        , 3           , 255         , 0           , 0
-0.138102934, -0.116881   , 9.795099    , -0.0006020877, 2.11027218E-05, -0.000196059482, 3.12942076  , -0.013771099, -0.000223566793, 923.2886    , 26.7205658  , 777.7126    , 2.75        , 3           , 255         , 0           , 0
-0.124975525, -0.119975664, 9.796341    , 0.000139022479, -0.000422028243, 0.000442826247, 3.12942243  , -0.0137669332, -0.0002280464, 923.2886    , 26.7205658  , 777.712463  , 2.76        , 3           , 255         , 0           , 0
-0.1347175  , -0.129236057, 9.79395     , 0.000406777021, -0.0002629268, 0.000240042049, 3.12942648  , -0.0137643358, -0.000230478778, 923.2886    , 26.7205658  , 777.712341  , 2.77        , 3           , 255         , 0           , 0
-0.132762536, -0.119726375, 9.789375    , 0.0002113271, 0.000156558119, 0.000830278441, 3.12942863  , -0.013766001, -0.000238762455, 923.2886    , 26.7205658  , 777.7122    , 2.78        , 3           , 255         , 0           , 0
-0.137887508, -0.106339082, 9.793838    , -0.0002680919, -5.35947038E-05, -0.0007264464, 3.12942576  , -0.013765377, -0.000231504557, 923.2886    , 26.7205658  , 777.7121    , 2.79        , 3           , 255         , 0           , 0
-0.134304643, -0.111385725, 9.791105    , -0.000320492545, -0.000424979138, -0.00015807226, 3.12942266  , -0.0137611087, -0.000229975572, 923.2886    , 26.7205658  , 777.712     , 2.8         , 3           , 255         , 0           , 0
-0.135966927, -0.121408723, 9.801196    , -5.37827145E-05, -0.000130081666, -0.000749581, 3.12942243  , -0.0137579618, -0.000222501054, 923.2886    , 26.7205658  , 777.673645  , 2.81        , 3           , 255         , 0           , 0
-0.141780958, -0.123681746, 9.809939    , -1.87688274E-05, -2.7113012E-05, 0.000121821649, 3.12942219  , -0.0137577057, -0.000223722542, 923.2886    , 26.7205658  , 777.6733    , 2.82        , 3           , 255         , 0           , 0
-0.1255151  , -0.118327178, 9.781351    , -0.000208001467, 0.000222822535, 0.000345923036, 3.12942028  , -0.0137599763, -0.000227154625, 923.2619    , 26.7223282  , 777.6729    , 2.83        , 3           , 255         , 0           , 0
-0.126027718, -0.113036379, 9.792976    , 0.000253913458, 0.000169872772, 0.000252848928, 3.12942266  , -0.0137617057, -0.000229662459, 923.2619    , 26.7223282  , 777.672546  , 2.84        , 3           , 255         , 0           , 0
-0.1319812  , -0.128809527, 9.795598    , -9.569479E-05, 0.000176158152, -7.11786E-05, 3.12942171  , -0.0137634585, -0.000228929246, 923.2619    , 26.7223282  , 777.6722    , 2.85        , 3           , 255         , 0           , 0
-0.129624814, -0.122523449, 9.794954    , -0.0005827404, 0.0001934215, -0.000406757928, 3.129416    , -0.0137653435, -0.0002248381, 923.2619    , 26.7223282  , 777.6718    , 2.86        , 3           , 255         , 0           , 0
-0.1356448  , -0.117997482, 9.796744    , -0.000594354351, 0.000338636222, 0.000143825309, 3.12941     , -0.0137687447, -0.00022623509, 923.2619    , 26.7223282  , 777.671448  , 2.87        , 3           , 255         , 0           , 0
-0.1394426  , -0.129998952, 9.792288    , -0.00023056916, -0.0006919918, 5.243093E-05, 3.12940764  , -0.0137618324, -0.000226843709, 923.2619    , 26.7223282  , 777.6711    , 2.88        , 3           , 255         , 0           , 0
-0.143601686, -0.1400588  , 9.792407    , 9.732321E-05, -0.0002652743, 3.216468E-06, 3.1294086   , -0.01375918 , -0.0002269082, 923.2619    , 26.7223282  , 777.6707    , 2.89        , 3           , 255         , 0           , 0
-0.1387879  , -0.129316986, 9.786545    , 0.000268350355, 0.000169423292, -0.000546499563, 3.12941122  , -0.013760807, -0.000221422612, 923.2619    , 26.7223282  , 777.670349  , 2.9         , 3           , 255         , 0           , 0
-0.131692618, -0.127875209, 9.784655    , 0.0009249948, -0.000158707961, 0.0004035182, 3.12941122  , -0.0137593076, -0.000225346987, 923.2619    , 26.7223282  , 777.6746    , 2.91        , 3           , 255         , 0           , 0
-0.130652338, -0.123637334, 9.785125    , 0.0002632182, -0.000181232579, 0.0006285109, 3.12941384  , -0.0137575725, -0.00023165415, 923.2619    , 26.7223282  , 777.6743    , 2.92        , 3           , 255         , 0           , 0
-0.14594005 , -0.09933817 , 9.79342651  , 1.68530969E-05, -0.0003156633, -2.48721335E-07, 3.129414    , -0.0137544163, -0.000231690108, 923.252     , 26.721447   , 777.674     , 2.93        , 3           , 255         , 0           , 0
-0.140038952, -0.102124773, 9.804016    , 0.000327353016, -0.000271812663, 0.000661747647, 3.12941742  , -0.0137517769, -0.000238340639, 923.252     , 26.721447   , 777.6737    , 2.94        , 3           , 255         , 0           , 0
-0.134347737, -0.107271791, 9.796948    , 0.0003770165, -0.000332815456, -0.000386563741, 3.129421    , -0.0137484018, -0.000234515552, 923.252     , 26.721447   , 777.6734    , 2.95        , 3           , 255         , 0           , 0
-0.122867763, -0.111602783, 9.793232    , 8.907507E-05, -0.000271710916, 7.904542E-06, 3.129422    , -0.013745686, -0.000234627689, 923.252     , 26.721447   , 777.6731    , 2.96        , 3           , 255         , 0           , 0
-0.118247613, -0.124576665, 9.795181    , 0.000416208641, -0.0002581752, 0.000740129733, 3.12942624  , -0.0137431975, -0.000242060312, 923.252     , 26.721447   , 777.6728    , 2.97        , 3           , 255         , 0           , 0
-0.128802583, -0.12459147 , 9.788836    , -0.0001905564, 0.000146138831, 0.000746972859, 3.12942457  , -0.0137447482, -0.000249512232, 923.252     , 26.721447   , 777.6725    , 2.98        , 3           , 255         , 0           , 0
-0.134146065, -0.123880193, 9.792936    , -0.0004283375, -0.000221865834, 0.0004482931, 3.12942028  , -0.0137425838, -0.000254022132, 923.252     , 26.721447   , 777.6722    , 2.99        , 3           , 255         , 0           , 0
-0.150484219, -0.115980409, 9.794538    , -0.0005970638, -0.0005796475, 0.000760902651, 3.12941432  , -0.0137368822, -0.0002617017, 923.252     , 26.721447   , 777.6719    , 3           , 3           , 0           , 8.460237    , 300
-0.149821967, -0.113316849, 9.7922      , -0.000265430077, -0.000484699616, -0.000219081849, 3.129418    , -0.0137301628, -0.000259653665, 923.252     , 26.721447   , 777.690063  , 3.01        , 3           , 1           , 0           , 0
-0.132661477, -0.107154265, 9.794846    , -0.000291898032, 0.000173877343, -0.0003327239, 3.1294148   , -0.0137318615, -0.000256305269, 923.252     , 26.721447   , 777.6899    , 3.02        , 3           , 2           , 0           , 0
-0.137658522, -0.102428637, 9.781861    , -0.000484509277, -0.00021016004, 5.01623435E-05, 3.12941     , -0.013729766, -0.000256832456, 923.266968  , 26.7236862  , 777.6897    , 3.03        , 3           , 3           , 0           , 0
-0.143589973, -0.109546207, 9.787379    , -0.0006767084, -0.000269255717, -0.000271162222, 3.129403    , -0.013727041, -0.000254153652, 923.266968  , 26.7236862  , 777.6895    , 3.04        , 3           , 4           , 0           , 0
-0.131481692, -0.113886856, 9.797225    , 0.000151384738, -0.000109822955, 0.0002913901, 3.12940478  , -0.0137259783, -0.000257080916, 923.266968  , 26.7236862  , 777.689331  , 3.05        , 3           , 5           , 0           , 0
-0.1256551  , -0.110953175, 9.801211    , 0.000174941844, 0.000280531356, -6.72955939E-05, 3.12940645  , -0.0137287751, -0.000256373838, 923.266968  , 26.7236862  , 777.689148  , 3.06        , 3           , 6           , 0           , 0
-0.129809111, -0.117659464, 9.788908    , -2.49295263E-05, 0.000313312979, 8.3447434E-05, 3.12940621  , -0.0137319174, -0.0002571701, 923.266968  , 26.7236862  , 777.688965  , 3.07        , 3           , 7           , 0           , 0
-0.134341389, -0.118226334, 9.782563    , 0.0004869782, -0.000125471735, 0.00017623225, 3.12941122  , -0.0137306843, -0.0002589477, 923.266968  , 26.7236862  , 777.6888    , 3.08        , 3           , 8           , 5           , 5
-0.143930644, -0.118125476, 9.783423    , 0.0006043812, 0.000190284685, -0.000474240253, 3.12941718  , -0.0137325283, -0.000254182145, 923.266968  , 26.7236862  , 777.6886    , 3.09        , 3           , 9           , 5           , 0.1
-0.139758155, -0.125096917, 9.785777    , -0.000169823412, 0.000587102 , -0.000270459917, 3.12941527  , -0.0137383668, -0.0002514061, 923.266968  , 26.7236862  , 777.6884    , 3.1         , 3           , 10          , 0.1         , 0.1
-0.139937565, -0.125543445, 9.803392    , -0.000309696654, -0.000217122142, -4.72424726E-05, 3.12942648  , -0.0137423659, -0.000251154852, 923.266968  , 26.7236862  , 777.6833    , 3.11        , 3           , 11          , 0.00743761426, 0.0074376124
-0.139337614, -0.134094357, 9.803985    , -6.696372E-05, -0.000480435439, -0.000247989723, 3.12942576  , -0.0137375314, -0.000248733471, 923.266968  , 26.7236862  , 777.6831    , 3.12        , 3           , 12          , 0.174645633 , 0
-0.136463568, -0.121933937, 9.803223    , 0.0005966271, -0.000628758746, -0.000487758953, 3.12943172  , -0.0137311863, -0.000243932387, 923.244751  , 26.72355    , 777.6829    , 3.13        , 3           , 13          , 0           , 0
-0.1279587  , -0.120010272, 9.785108    , 0.000293236924, -0.0003599897, 0.00034608366, 3.12943459  , -0.0137276286, -0.000247436983, 923.244751  , 26.72355    , 777.682739  , 3.14        , 3           , 14          , 0.00191015378, 0.00148015213
-0.1285263  , -0.124774851, 9.787775    , 3.3142278E-06, -9.13143158E-05, -0.000240147725, 3.12943459  , -0.0137266861, -0.0002450466, 923.244751  , 26.72355    , 777.682556  , 3.15        , 3           , 15          , 0           , 0.000327747315
-0.124668837, -0.123346433, 9.799511    , -3.372098E-05, -0.00046149164, -0.0001004424, 3.12943435  , -0.0137220584, -0.000244098323, 923.244751  , 26.72355    , 777.6824    , 3.16        , 3           , 16          , 0           , 1.401298E-45
-0.12107636 , -0.129014522, 9.800569    , -0.0001718339, -8.010212E-05, 0.0003989343, 3.12943268  , -0.0137213059, -0.0002480974, 923.244751  , 26.72355    , 777.6822    , 3.17        , 3           , 20          , 0           , 0
-0.127841234, -0.118321873, 9.79533     , -0.000314742676, 0.0006166233, 0.000457028975, 3.12942958  , -0.013727529, -0.000252592639, 923.244751  , 26.72355    , 777.682     , 3.18        , 3           , 21          , 0           , 0
-0.131249219, -0.123875067, 9.791779    , -0.0002645033, 0.0005223162, 0.000333925 , 3.129427    , -0.0137327919, -0.000255868363, 923.244751  , 26.72355    , 777.6818    , 3.19        , 3           , 22          , 0           , 0
-0.140779853, -0.128015548, 9.785532    , 0.000168206636, -0.000147960149, 0.00017305353, 3.12942863  , -0.0137313334, -0.0002576169, 923.244751  , 26.72355    , 777.681641  , 3.2         , 3           , 40          , 0           , 0
-0.137572944, -0.127835244, 9.789537    , 0.000358771766, -0.000448692823, 0.0004882393, 3.12942314  , -0.0137226768, -0.0002624294, 923.244751  , 26.72355    , 777.70874   , 3.21        , 3           , 41          , 0           , 0
-0.125384286, -0.119774356, 9.788911    , 0.000168223167, -6.359536E-06, -0.000240263413, 3.12942481  , -0.0137225837, -0.000260027533, 923.244751  , 26.72355    , 777.70874   , 3.22        , 3           , 42          , 0           , 0
-0.132130951, -0.113909744, 9.790222    , -0.0001408119, -0.000399612356, 0.0007792816, 3.12942362  , -0.0137186833, -0.000267868949, 923.264954  , 26.7272816  , 777.70874   , 3.23        , 3           , 255         , 0           , 0
-0.132491559, -0.103198722, 9.796599    , -3.15206125E-05, -0.0008995409, 0.000469574967, 3.12942338  , -0.0137097482, -0.000272674137, 923.264954  , 26.7272816  , 777.70874   , 3.24        , 3           , 255         , 0           , 0
-0.133659   , -0.103168294, 9.790526    , 0.0003371993, -0.0004316892, 8.48039344E-05, 3.12942672  , -0.0137054408, -0.000273574726, 923.264954  , 26.7272816  , 777.70874   , 3.25        , 3           , 255         , 0           , 0
-0.134412989, -0.110884324, 9.800008    , 2.655515E-05, 0.000235676067, -0.000719515956, 3.129427    , -0.0137077086, -0.000266350864, 923.264954  , 26.7272816  , 777.70874   , 3.26        , 3           , 255         , 0           , 0
-0.1424132  , -0.109250188, 9.797281    , 0.0007566544, 0.000120042707, 0.000280364329, 3.12943459  , -0.0137089435, -0.000269139884, 923.264954  , 26.7272816  , 777.70874   , 3.27        , 3           , 255         , 0           , 0
-0.147187918, -0.111212716, 9.782832    , -0.0002494395, 0.0001901132, -3.234914E-05, 3.129432    , -0.01371084 , -0.000268793316, 923.264954  , 26.7272816  , 777.70874   , 3.28        , 3           , 255         , 0           , 0
-0.151833579, -0.109378658, 9.783684    , -0.0006013358, -0.000284852926, 0.0002692437, 3.129426    , -0.0137080252, -0.000271520374, 923.264954  , 26.7272816  , 777.70874   , 3.29        , 3           , 255         , 0           , 0
-0.14036195 , -0.114756405, 9.791468    , -0.000403948128, 8.86966E-05 , -8.437649E-05, 3.129422    , -0.0137089025, -0.000270665827, 923.264954  , 26.7272816  , 777.70874   , 3.3         , 3           , 255         , 0           , 0
-0.1327865  , -0.123899832, 9.794012    , -0.000225103577, 0.000127654523, 2.78924126E-05, 3.129434    , -0.0137175871, -0.000271125464, 923.264954  , 26.7272816  , 777.703735  , 3.31        , 3           , 255         , 0           , 0
-0.131718278, -0.120713055, 9.79056     , 0.0004653735, -0.000118130818, -4.80176241E-05, 3.12943864  , -0.0137164  , -0.000270659628, 923.264954  , 26.7272816  , 777.703735  , 3.32        , 3           , 255         , 0           , 0
-0.135418773, -0.121439815, 9.78982449  , 0.000317341648, -0.0002645927, -0.000102430116, 3.12944174  , -0.0137137417, -0.000269667478, 923.2702    , 26.723278   , 777.703735  , 3.33        , 3           , 255         , 0           , 0
-0.131939292, -0.120101854, 9.791491    , 0.000492303865, -7.0719514E-05, 0.0003982107, 3.12944674  , -0.013713086, -0.000273658137, 923.2702    , 26.723278   , 777.703735  , 3.34        , 3           , 255         , 0           , 0
-0.130181864, -0.120204486, 9.788068    , 0.000131762587, -4.85554338E-05, -0.000301742, 3.12944818  , -0.0137125617, -0.000270646677, 923.2702    , 26.723278   , 777.703735  , 3.35        , 3           , 255         , 0           , 0
-0.138015   , -0.129214078, 9.79093     , -8.070632E-05, 0.000130988657, 0.000242062466, 3.12944722  , -0.0137139019, -0.000273051322, 923.2702    , 26.723278   , 777.703735  , 3.36        , 3           , 255         , 0           , 0
-0.129467085, -0.130908325, 9.804692    , 3.04596033E-05, 0.000165682985, -0.00014452303, 3.1294477   , -0.013715541, -0.000271586, 923.2702    , 26.723278   , 777.703735  , 3.37        , 3           , 255         , 0           , 0
-0.13338466 , -0.120292865, 9.793278    , -0.000155536691, 0.000353469164, 0.000420340075, 3.129446    , -0.0137191266, -0.000275746424, 923.2702    , 26.723278   , 777.703735  , 3.38        , 3           , 255         , 0           , 0
-0.140785813, -0.126001149, 9.790998    , 0.000401903875, 0.000239396817, 0.0009425691, 3.12945032  , -0.0137216328, -0.000285142974, 923.2702    , 26.723278   , 777.703735  , 3.39        , 3           , 255         , 0           , 0
-0.127054527, -0.129532963, 9.78830051  , -0.000224327552, -0.000290632248, 0.0004837376, 3.129448    , -0.0137187857, -0.000290015625, 923.2702    , 26.723278   , 777.703735  , 3.4         , 3           , 255         , 0           , 0
-0.13152729 , -0.129912063, 9.798567    , 2.4195062E-05, 6.51991E-05 , 0.0008708191, 3.1294384   , -0.01371724 , -0.0002985788, 923.2702    , 26.723278   , 777.691956  , 3.41        , 3           , 255         , 0           , 0
-0.133543879, -0.133303747, 9.801817    , -0.000272659818, -0.000387004926, 0.000647093868, 3.12943578  , -0.0137134492, -0.0003050967, 923.2702    , 26.723278   , 777.6919    , 3.42        , 3           , 255         , 0           , 0
-0.137788817, -0.125720859, 9.800338    , -0.000302243745, -0.000626215129, 0.000273330457, 3.129433    , -0.0137072206, -0.000307906128, 923.269348  , 26.7287064  , 777.691833  , 3.43        , 3           , 255         , 0           , 0
-0.142404646, -0.129011229, 9.789789    , -0.000210623373, -0.000257507549, -0.000578515232, 3.12943053  , -0.0137045756, -0.0003021523, 923.269348  , 26.7287064  , 777.6918    , 3.44        , 3           , 255         , 0           , 0
-0.13680099 , -0.1321537  , 9.792779    , -0.000374541851, -0.0006221929, 0.0007131924, 3.129427    , -0.0136984419, -0.000309359923, 923.269348  , 26.7287064  , 777.6917    , 3.45        , 3           , 255         , 0           , 0
-0.130775884, -0.1265231  , 9.787294    , 0.000125082675, -0.000273625483, 0.000287777424, 3.12942815  , -0.0136957411, -0.000312271, 923.269348  , 26.7287064  , 777.69165   , 3.46        , 3           , 255         , 0           , 0
-0.141282529, -0.122252785, 9.793739    , -0.0004863107, -0.000180910574, 2.26655975E-05, 3.12942338  , -0.0136939343, -0.000312519638, 923.269348  , 26.7287064  , 777.6916    , 3.47        , 3           , 255         , 0           , 0
-0.134322181, -0.130577758, 9.79573     , -0.0006277141, -0.000355645549, 0.000263947324, 3.12941718  , -0.0136904093, -0.000315202371, 923.269348  , 26.7287064  , 777.6915    , 3.48        , 3           , 255         , 0           , 0
-0.132395357, -0.126965925, 9.7938      , -0.000336522353, -9.73441638E-05, 0.000296037673, 3.12941384  , -0.0136894723, -0.000318174571, 923.269348  , 26.7287064  , 777.691467  , 3.49        , 3           , 255         , 0           , 0
-0.129451871, -0.13143082 , 9.788172    , -0.000358062563, -0.000216646469, 0.000345157081, 3.12941027  , -0.013687348, -0.0003216525, 923.269348  , 26.7287064  , 777.6914    , 3.5         , 3           , 255         , 0           , 0
-0.136192471, -0.121247314, 9.77763748  , 3.769272E-05, -0.00047813484, 8.74389953E-05, 3.12939525  , -0.0136839  , -0.00032237242, 923.269348  , 26.7287064  , 777.6827    , 3.51        , 3           , 255         , 0           , 0
-0.142494634, -0.102539159, 9.788042    , -0.000356114819, -0.00044299115, -6.02540968E-05, 3.12939167  , -0.0136794662, -0.000321823958, 923.269348  , 26.7287064  , 777.682556  , 3.52        , 3           , 255         , 0           , 0
-0.131768629, -0.09845569 , 9.804132    , -5.600066E-05, -0.0002940538, -5.42169437E-06, 3.129391    , -0.0136765232, -0.000321805652, 923.2294    , 26.7261276  , 777.682434  , 3.53        , 3           , 255         , 0           , 0
-0.1428596  , -0.08942751 , 9.793068    , -0.00016846729, -0.0001020662, 0.000144179357, 3.12938929  , -0.01367552 , -0.000323259883, 923.2294    , 26.7261276  , 777.6823    , 3.54        , 3           , 255         , 0           , 0
-0.146982074, -0.08724482 , 9.787546    , 6.209966E-05, -0.0006298125, -4.62222379E-05, 3.12939     , -0.0136692161, -0.000322874519, 923.2294    , 26.7261276  , 777.6822    , 3.55        , 3           , 255         , 0           , 0
-0.15198037 , -0.0891276449, 9.787963    , 0.000422313577, -0.000371924369, -0.00082291 , 3.129394    , -0.0136653986, -0.0003146909, 923.2294    , 26.7261276  , 777.682068  , 3.56        , 3           , 255         , 0           , 0
-0.129366562, -0.09459755 , 9.791463    , 0.000220461981, 4.465843E-05, -0.000210416241, 3.1293962   , -0.01366582 , -0.0003125813, 923.2294    , 26.7261276  , 777.681946  , 3.57        , 3           , 255         , 0           , 0
-0.136942253, -0.09022653 , 9.795523    , -0.000225287513, -0.000316533726, -8.02086142E-05, 3.129394    , -0.0136626447, -0.000311817828, 923.2294    , 26.7261276  , 777.6818    , 3.58        , 3           , 255         , 0           , 0
-0.143007442, -0.09981489 , 9.791616    , -0.000218793517, -0.000856952334, -0.000413843256, 3.12939167  , -0.0136540281, -0.000307783979, 923.2294    , 26.7261276  , 777.6817    , 3.59        , 3           , 255         , 0           , 0
-0.128955036, -0.109665647, 9.797432    , 0.000179917552, -0.000531810161, -0.00034258404, 3.12939358  , -0.0136486674, -0.0003044231, 923.2294    , 26.7261276  , 777.6816    , 3.6         , 3           , 255         , 0           , 0
-0.131838039, -0.122285426, 9.786952    , 0.000300088432, 0.000215164619, 0.000334234966, 3.1294384   , -0.0136610446, -0.000308310759, 923.2294    , 26.7261276  , 777.7311    , 3.61        , 3           , 255         , 0           , 0
-0.132165059, -0.116845563, 9.798483    , 0.000165751437, 0.000131373177, -0.000568079529, 3.12944     , -0.0136622889, -0.000302614062, 923.2294    , 26.7261276  , 777.731262  , 3.62        , 3           , 255         , 0           , 0
-0.138839692, -0.120473526, 9.797212    , 0.0003573196, -1.79134076E-05, -0.0007762932, 3.12944341  , -0.013662016, -0.000294853351, 923.251831  , 26.729723   , 777.731445  , 3.63        , 3           , 255         , 0           , 0
-0.137172312, -0.136443943, 9.799738    , 0.00027155038, -0.000268417178, 9.203589E-05, 3.12944627  , -0.0136593468, -0.000295806327, 923.251831  , 26.729723   , 777.7316    , 3.64        , 3           , 255         , 0           , 0
-0.126476973, -0.146439314, 9.79344749  , 0.0006532811, 0.0001141415, 0.00113134156, 3.129453    , -0.0136606237, -0.000307105831, 923.251831  , 26.729723   , 777.7318    , 3.65        , 3           , 255         , 0           , 0
-0.121929549, -0.152414918, 9.782201    , 0.0007707812, -0.000326681067, 0.0008292852, 3.12946057  , -0.0136574591, -0.0003154383, 923.251831  , 26.729723   , 777.732     , 3.66        , 3           , 255         , 0           , 0
-0.1291891  , -0.147112161, 9.79401     , -4.68411E-05, 0.000119828852, 0.0005886886, 3.12946033  , -0.0136587294, -0.000321310625, 923.251831  , 26.729723   , 777.7322    , 3.67        , 3           , 255         , 0           , 0
-0.130723238, -0.143704787, 9.790585    , -0.000580495, -0.000232600956, 0.000321969041, 3.12945461  , -0.0136564421, -0.000324558525, 923.251831  , 26.729723   , 777.732361  , 3.68        , 3           , 255         , 0           , 0
-0.13353321 , -0.146470517, 9.796327    , -2.94889323E-05, -0.000484215561, 0.000356884731, 3.12945437  , -0.0136516439, -0.000328186143, 923.251831  , 26.729723   , 777.7326    , 3.69        , 3           , 255         , 0           , 0
-0.135962635, -0.140731037, 9.814647    , -7.227366E-05, -3.7707272E-05, 0.000482600415, 3.12945366  , -0.0136513254, -0.0003330167, 923.251831  , 26.729723   , 777.732849  , 3.7         , 3           , 255         , 0           , 0
-0.144848377, -0.135782719, 9.800149    , 0.000213123276, 4.157133E-05, -0.000362076971, 3.129429    , -0.0136487363, -0.000329028029, 923.251831  , 26.729723   , 777.743     , 3.71        , 3           , 255         , 0           , 0
-0.137949929, -0.126843721, 9.79511452  , 0.000278461375, -0.0005925826, 0.0005051977, 3.129432    , -0.0136428708, -0.000334152079, 923.251831  , 26.729723   , 777.7433    , 3.72        , 3           , 255         , 0           , 0
-0.142012388, -0.1267297  , 9.783439    , -2.00845534E-05, -0.000297455932, 0.000466524478, 3.12943172  , -0.0136399539, -0.000338853453, 923.277954  , 26.7301979  , 777.7436    , 3.73        , 3           , 255         , 0           , 0
-0.141128033, -0.114735082, 9.789852    , -0.0006733994, -0.000116812414, 0.000361980143, 3.129425    , -0.0136388307, -0.000342487445, 923.277954  , 26.7301979  , 777.7439    , 3.74        , 3           , 255         , 0           , 0
-0.1488527  , -0.1083201  , 9.794158    , -0.000564269, 0.000275598723, 0.000175365625, 3.12941957  , -0.0136416079, -0.0003442075, 923.277954  , 26.7301979  , 777.7442    , 3.75        , 3           , 255         , 0           , 0
-0.137233078, -0.106360376, 9.795397    , -0.000321579515, 0.000167646678, 0.000224202842, 3.12941647  , -0.0136433095, -0.000346429151, 923.277954  , 26.7301979  , 777.7445    , 3.76        , 3           , 255         , 0           , 0
-0.132196248, -0.112747028, 9.794089    , -0.0003109997, 0.000315102283, -0.000209030215, 3.12941313  , -0.0136464359, -0.0003443005, 923.277954  , 26.7301979  , 777.7448    , 3.77        , 3           , 255         , 0           , 0
-0.136637166, -0.106825307, 9.795767    , 0.0002316396, 4.35358379E-05, 0.000231693819, 3.12941551  , -0.0136469  , -0.0003466121, 923.277954  , 26.7301979  , 777.7451    , 3.78        , 3           , 255         , 0           , 0
-0.135966972, -0.118571043, 9.786617    , 0.000275830855, -0.00018953206, 0.000477409834, 3.12941837  , -0.0136450622, -0.000351409224, 923.277954  , 26.7301979  , 777.7454    , 3.79        , 3           , 255         , 0           , 0
-0.13441956 , -0.111287437, 9.797276    , 0.000369551242, -0.000294626, 0.000129382475, 3.12942219  , -0.0136421314, -0.00035273892, 923.277954  , 26.7301979  , 777.7457    , 3.8         , 3           , 255         , 0           , 0
-0.140065491, -0.118580304, 9.797942    , 0.0003404665, 0.000319408718, 0.000357694662, 3.12942958  , -0.0136545217, -0.000356330769, 923.277954  , 26.7301979  , 777.7172    , 3.81        , 3           , 255         , 0           , 0
