Acc X       , Acc Y       , Acc Z       , Gyro X      , Gyro Y      , Gyro Z      , Euler X     , Euler Y     , Euler Z     , Pres X      , Pres Y      , Pres Z      , Time        , Status      , LowRate X   , LowRate Y   , LowRate Z    
-0.09284429 , -0.09244634 , -9.787103   , 0           , 0           , 0           , 0.00944545  , -0.009485684, 0           , 919.0649    , 33.0747833  , 815.451538  , 0           , 2           , 0           , 5.43723154  , 0
-0.0942765  , -0.0771692  , -9.797165   , 0.000283454225, -0.000162346056, -0.000378490658, 0.009448287 , -0.00948707 , -3.80014558E-06, 919.0649    , 33.0747833  , 815.451538  , 0.01        , 3           , 1           , 0           , 0
-0.09806651 , -0.08406256 , -9.782528   , 0.000276298029, 0.000131972323, 0.000107790045, 0.009451042 , -0.009485761, -2.70980127E-06, 919.0649    , 33.0747833  , 815.451538  , 0.02        , 3           , 2           , 0           , 0
-0.09297251 , -0.0955440253, -9.791669   , 0.0004881083, -0.00033050956, 0.0001786343, 0.009455904 , -0.009489083, -9.547432E-07, 919.041565  , 32.6450729  , 815.451538  , 0.03        , 3           , 3           , 0           , 0
-0.08359255 , -0.0995082557, -9.802683   , 0.000194958819, 0.000162755052, -8.043149E-06, 0.009457855 , -0.009487455, -1.01977867E-06, 919.041565  , 32.6450729  , 815.451538  , 0.04        , 3           , 4           , 0           , 0
-0.0906303748, -0.108067773, -9.801344   , -0.000475640467, -0.000103533443, -7.427171E-05, 0.009453108 , -0.009488483, -1.77226661E-06, 919.041565  , 32.6450729  , 815.451538  , 0.05        , 3           , 5           , 0           , 0
-0.09664205 , -0.0974917  , -9.795138   , -0.000185387267, 3.574096E-06, -0.000682350947, 0.009451318 , -0.009488382, -8.59527154E-06, 919.041565  , 32.6450729  , 815.451538  , 0.06        , 3           , 6           , 0           , 0
-0.09273468 , -0.0876040459, -9.784314   , 0.00047209824, 4.80166927E-05, 0.0001959325, 0.009456019 , -0.00948792 , -6.63145329E-06, 919.041565  , 32.6450729  , 815.451538  , 0.07        , 3           , 7           , 0           , 0
-0.09576109 , -0.09324226 , -9.791434   , 8.29238E-05 , 0.000477246 , -0.000128889311, 0.00945686  , -0.009483136, -7.875185E-06, 919.041565  , 32.6450729  , 815.451538  , 0.08        , 3           , 8           , 5           , 5
-0.0985245854, -0.107076548, -9.798888   , 8.81719461E-05, 0.00019722966, 3.19218962E-05, 0.009457738 , -0.00948116649, -7.53732138E-06, 919.041565  , 32.6450729  , 815.451538  , 0.09        , 3           , 9           , 5           , 0.1
-0.0964817554, -0.101777628, -9.798716   , 0.000401860132, 0.000337186968, 0.0008146223, 0.009461681 , -0.00947787 , 6.405969E-07, 919.041565  , 32.6450729  , 815.451538  , 0.1         , 3           , 10          , 0.1         , 0.1
-0.0982652456, -0.09592979 , -9.804849   , 0.000252460653, 4.13691741E-05, 0.00018328616, 0.009473993 , -0.009481447, 2.384344E-06, 919.041565  , 32.6450729  , 815.6604    , 0.11        , 3           , 11          , 0.0109544508, 0.0109544508
-0.08423393 , -0.103105389, -9.807109   , 0.000250374345, 1.01540063E-05, -0.000421066448, 0.009476537 , -0.009481305, -1.82525241E-06, 919.041565  , 32.6450729  , 815.6604    , 0.12        , 3           , 12          , 0.174642488 , 0
-0.0941181  , -0.09142868 , -9.795709   , 6.668671E-05, -0.000113124828, -0.000171499312, 0.00947722  , -0.009482421, -3.55092516E-06, 919.014038  , 32.6781769  , 815.6604    , 0.13        , 3           , 13          , 0           , 0
-0.102730215, -0.09572102 , -9.791329   , 0.000253773731, -5.511426E-05, 0.000218344154, 0.009479737 , -0.009482993, -1.37275845E-06, 919.014038  , 32.6781769  , 815.6604    , 0.14        , 3           , 14          , -0.000448879378, -0.000184721182
-0.0943412557, -0.102688596, -9.797701   , -0.000164216442, 0.000369970454, -0.0001246024, 0.009478107 , -0.00947928 , -2.58368141E-06, 919.014038  , 32.6781769  , 815.6604    , 0.15        , 3           , 15          , 0           , 9.079607E-06
-0.0890754  , -0.10205932 , -9.8028965  , -9.030744E-06, -0.00035575428, -0.000444492762, 0.009478059 , -0.009482796, -7.06222E-06, 919.014038  , 32.6781769  , 815.660461  , 0.16        , 3           , 16          , 0           , 1.401298E-45
-0.09388647 , -0.09509879 , -9.800398   , 0.0001625616, -0.000174400237, -0.000119535631, 0.009479695 , -0.009484529, -8.274071E-06, 919.014038  , 32.6781769  , 815.6605    , 0.17        , 3           , 20          , 0           , 0
-0.096539   , -0.09687115 , -9.798464   , 0.000269882439, -2.80480454E-05, 0.000325511 , 0.009482363 , -0.00948484 , -5.02170224E-06, 919.014038  , 32.6781769  , 815.6606    , 0.18        , 3           , 21          , 0           , 0
-0.09354268 , -0.102777578, -9.790475   , 0.0006128956, -0.000497885339, 0.0004980978, 0.009488445 , -0.009489864, -8.80758E-08, 919.014038  , 32.6781769  , 815.660645  , 0.19        , 3           , 22          , 0           , 0
-0.09121166 , -0.103413679, -9.787527   , 0.000219264053, -0.0005273276, 0.0001729194, 0.00949062  , -0.009495154, 1.59103263E-06, 919.014038  , 32.6781769  , 815.6607    , 0.2         , 3           , 40          , 0           , 0
-0.100918889, -0.107487977, -9.790002   , 3.77223478E-06, 0.0003406069, 0.000122894489, 0.00950912852, -0.00949451 , 2.67678183E-06, 919.014038  , 32.6781769  , 815.785156  , 0.21        , 3           , 41          , 0           , 0
-0.09932685 , -0.09099997 , -9.789785   , -0.000253450155, 7.585275E-05, 5.445502E-05, 0.00950659  , -0.009493756, 3.22853543E-06, 919.014038  , 32.6781769  , 815.7852    , 0.22        , 3           , 42          , 0           , 0
-0.0963244438, -0.0846908  , -9.79227    , -0.00017818858, 0.0002468496, 0.00013063378, 0.009504796 , -0.009491299, 4.55830559E-06, 919.0176    , 32.7064     , 815.7853    , 0.23        , 3           , 255         , 0           , 0
-0.09773016 , -0.09676201 , -9.806599   , 8.384048E-05, 0.000451668166, -4.17945239E-06, 0.009505633 , -0.009486782, 4.55944064E-06, 919.0176    , 32.7064     , 815.785339  , 0.24        , 3           , 255         , 0           , 0
-0.09770529 , -0.08416979 , -9.801871   , -0.000256796571, -0.00026082393, 0.000288429845, 0.009503039 , -0.009489418, 7.41887925E-06, 919.0176    , 32.7064     , 815.7854    , 0.25        , 3           , 255         , 0           , 0
-0.09259785 , -0.08896868 , -9.789352   , -8.457145E-05, -0.000449596148, 0.000319713232, 0.009502163 , -0.009493944, 1.05732079E-05, 919.0176    , 32.7064     , 815.785461  , 0.26        , 3           , 255         , 0           , 0
-0.08728573 , -0.102784239, -9.793371   , 0.000128270651, 0.000616351841, 0.000186218647, 0.009503428 , -0.009487799, 1.24939106E-05, 919.0176    , 32.7064     , 815.7855    , 0.27        , 3           , 255         , 0           , 0
-0.09444419 , -0.102717258, -9.801751   , 0.000642782543, -8.535736E-05, 9.140401E-05, 0.009509846 , -0.009488662, 1.33998192E-05, 919.0176    , 32.7064     , 815.7856    , 0.28        , 3           , 255         , 0           , 0
-0.09739785 , -0.09391435 , -9.799495   , 0.0004577365, 0.0001031762, 0.0003330201, 0.009514392 , -0.00948766153, 1.673975E-05, 919.0176    , 32.7064     , 815.785645  , 0.29        , 3           , 255         , 0           , 0
-0.08885395 , -0.0924144462, -9.801874   , 0.000434677466, 9.998126E-06, -0.000218069385, 0.009518759 , -0.009487541, 1.45600579E-05, 919.0176    , 32.7064     , 815.7857    , 0.3         , 3           , 255         , 0           , 0
-0.0782868862, -0.09016437 , -9.79777    , 0.00094809  , -3.17774538E-06, 9.52316041E-05, 0.009532573 , -0.009494809, 1.54708177E-05, 919.0176    , 32.7064     , 815.8166    , 0.31        , 3           , 255         , 0           , 0
-0.09122124 , -0.09101737 , -9.804318   , -0.000105851388, 0.000168860963, 0.000392837537, 0.009531477 , -0.009493158, 1.94151944E-05, 919.0176    , 32.7064     , 815.81665   , 0.32        , 3           , 255         , 0           , 0
-0.09611504 , -0.09478152 , -9.784487   , 8.831406E-05, -0.000101736005, 2.40733589E-05, 0.009532358 , -0.009494178, 1.96462152E-05, 919.0112    , 32.7203751  , 815.8167    , 0.33        , 3           , 255         , 0           , 0
-0.0851965547, -0.08474951 , -9.79480648 , -0.0002261438, -0.000139044991, -0.000107367705, 0.009530107 , -0.009495557, 1.85593162E-05, 919.0112    , 32.7203751  , 815.8168    , 0.34        , 3           , 255         , 0           , 0
-0.09021185 , -0.08258316 , -9.793042   , -0.000398485339, -0.000147823113, 7.59112845E-06, 0.0095261205, -0.009497037, 1.86211364E-05, 919.0112    , 32.7203751  , 815.816833  , 0.35        , 3           , 255         , 0           , 0
-0.09281429 , -0.09089093 , -9.7945385  , -0.000121427525, 0.000345971435, -0.0001615607, 0.009524922 , -0.009493561, 1.70385265E-05, 919.0112    , 32.7203751  , 815.8169    , 0.36        , 3           , 255         , 0           , 0
-0.0898139  , -0.0866956338, -9.790673   , -8.544303E-06, -0.000143327648, 0.000494962733, 0.009524789 , -0.009495042, 2.19743761E-05, 919.0112    , 32.7203751  , 815.816956  , 0.37        , 3           , 255         , 0           , 0
-0.090734005, -0.0878193155, -9.78710651 , -0.000271007419, 4.80826129E-05, 0.000305671128, 0.009522049 , -0.00949459 , 2.50355952E-05, 919.0112    , 32.7203751  , 815.817     , 0.38        , 3           , 255         , 0           , 0
-0.0940543041, -0.08599401 , -9.799041   , 7.950724E-05, -0.000319436076, -2.117908E-05, 0.009522846 , -0.009497782, 2.47933931E-05, 919.0112    , 32.7203751  , 815.8171    , 0.39        , 3           , 255         , 0           , 0
-0.09899035 , -0.09505702 , -9.804771   , 0.000372352777, -0.0006779579, 0.000306732458, 0.009526541 , -0.009504592, 2.7796068E-05, 919.0112    , 32.7203751  , 815.817139  , 0.4         , 3           , 255         , 0           , 0
-0.09970469 , -0.0899199843, -9.799593   , 6.625074E-05, -0.000380422251, 0.000769921462, 0.009512456 , -0.009500777, 3.55982738E-05, 919.0112    , 32.7203751  , 815.8466    , 0.41        , 3           , 255         , 0           , 0
-0.09581433 , -0.0860403851, -9.80422    , 0.000141194847, -5.60205081E-05, 4.92315667E-05, 0.009513862 , -0.009501342, 3.60852537E-05, 919.0112    , 32.7203751  , 815.8467    , 0.42        , 3           , 255         , 0           , 0
-0.09075562 , -0.09097542 , -9.78887749 , -0.0005295613, -8.7727356E-05, -3.0280491E-05, 0.00950857  , -0.009502216, 3.577411E-05, 919.0221    , 32.7329941  , 815.846741  , 0.43        , 3           , 255         , 0           , 0
-0.09787211 , -0.09562939 , -9.7886095  , 1.469758E-05, -0.0001560257, 0.000162311262, 0.009508702 , -0.009503791, 3.73823423E-05, 919.0221    , 32.7329941  , 815.8468    , 0.44        , 3           , 255         , 0           , 0
-0.0926589146, -0.0894312561, -9.799108   , 0.000175809866, 1.25198276E-05, 0.0009885362, 0.009510366 , -0.009503759, 4.72686443E-05, 919.0221    , 32.7329941  , 815.846863  , 0.45        , 3           , 255         , 0           , 0
-0.09447275 , -0.101179935, -9.790469   , -0.000281300832, -0.000140766351, 0.0008466202, 0.009507474 , -0.009505248, 5.572124E-05, 919.0221    , 32.7329941  , 815.8469    , 0.46        , 3           , 255         , 0           , 0
-0.0917949453, -0.0986169353, -9.797086   , 0.00020435304, 8.588196E-05, 0.00114667206, 0.009509407 , -0.009504498, 6.719585E-05, 919.0221    , 32.7329941  , 815.847     , 0.47        , 3           , 255         , 0           , 0
-0.09278177 , -0.08910575 , -9.80364    , 0.000227251745, -0.000236876891, 0.000375754171, 0.009511643 , -0.009506903, 7.09307642E-05, 919.0221    , 32.7329941  , 815.8471    , 0.48        , 3           , 255         , 0           , 0
-0.095564425, -0.0974903  , -9.795328   , -0.000240206049, -0.0006750752, -0.000205568518, 0.009509261 , -0.009513633, 6.881093E-05, 919.0221    , 32.7329941  , 815.8472    , 0.49        , 3           , 255         , 0           , 0
-0.0983291045, -0.0906036943, -9.792147   , -0.000158934883, 0.000101063204, -0.000415859133, 0.009507711 , -0.009512584, 6.466205E-05, 919.0221    , 32.7329941  , 815.847351  , 0.5         , 3           , 255         , 0           , 0
-0.092187956, -0.0880612358, -9.796338   , -0.00028353004, 0.000133106485, 1.52987013E-05, 0.009504074 , -0.009517022, 6.48353162E-05, 919.0221    , 32.7329941  , 815.845032  , 0.51        , 3           , 255         , 0           , 0
-0.09436108 , -0.08724971 , -9.803058   , -0.0007608199, 0.000294246944, 8.797925E-05, 0.009496456 , -0.00951409 , 6.574305E-05, 919.0221    , 32.7329941  , 815.845154  , 0.52        , 3           , 255         , 0           , 0
-0.09994747 , -0.08622428 , -9.806943   , -0.000108919921, 0.0001152038, -0.0003713981, 0.009495405 , -0.0095129  , 6.20401E-05 , 919.028748  , 32.74385    , 815.8453    , 0.53        , 3           , 255         , 0           , 0
-0.09292299 , -0.08814355 , -9.792917   , 0.0001100302, -8.764556E-05, 0.0004937049, 0.009496456 , -0.009513823, 6.696871E-05, 919.028748  , 32.74385    , 815.8454    , 0.54        , 3           , 255         , 0           , 0
-0.08831303 , -0.08900759 , -9.777936   , -4.47405619E-05, 0.0004308016, 0.000233110317, 0.00949598849, -0.009509537, 6.93406546E-05, 919.028748  , 32.74385    , 815.8455    , 0.55        , 3           , 255         , 0           , 0
-0.09517856 , -0.08875066 , -9.788099   , 0.0003144084, 8.398847E-05, 7.55028159E-05, 0.009499124 , -0.009508705, 7.010363E-05, 919.028748  , 32.74385    , 815.845642  , 0.56        , 3           , 255         , 0           , 0
-0.096412994, -0.0997634754, -9.793099   , -5.209993E-05, -0.000158632422, 0.000452836073, 0.00949856  , -0.009510334, 7.461681E-05, 919.028748  , 32.74385    , 815.845764  , 0.57        , 3           , 255         , 0           , 0
-0.0909298956, -0.101133108, -9.793469   , -0.000272048579, -0.000282816647, -0.000410766748, 0.00949587952, -0.009513123, 7.048239E-05, 919.028748  , 32.74385    , 815.8459    , 0.58        , 3           , 255         , 0           , 0
-0.09244312 , -0.09503354 , -9.795497   , 0.000668060035, 0.00030408593, -0.0005161606, 0.009502609 , -0.009510034, 6.53498E-05 , 919.028748  , 32.74385    , 815.846     , 0.59        , 3           , 255         , 0           , 0
-0.08865096 , -0.1018519  , -9.804104   , -8.06174939E-05, 0.0007121899, -0.000199380389, 0.009501821 , -0.009502894, 6.342372E-05, 919.028748  , 32.74385    , 815.8461    , 0.6         , 3           , 255         , 0           , 0
-0.09058603 , -0.09630986 , -9.788871   , 5.871756E-05, 0.000204425276, -0.0007058852, 0.009500913 , -0.009500669, 5.639932E-05, 919.028748  , 32.74385    , 815.8343    , 0.61        , 3           , 255         , 0           , 0
-0.08743455 , -0.09947437 , -9.785317   , 3.77135875E-05, -0.000125266961, -0.000487110665, 0.009501337 , -0.009501876, 5.151643E-05, 919.028748  , 32.74385    , 815.8344    , 0.62        , 3           , 255         , 0           , 0
-0.09355725 , -0.09890287 , -9.803231   , -0.000663589453, -8.96817655E-05, -8.92790849E-05, 0.009494711 , -0.009502764, 5.061514E-05, 919.006531  , 32.74385    , 815.834534  , 0.63        , 3           , 255         , 0           , 0
-0.0929141641, -0.08836068 , -9.804438   , -0.0005452966, 0.00010540487, -0.0004101596, 0.009489296 , -0.00950167049, 4.65236626E-05, 919.006531  , 32.74385    , 815.834656  , 0.64        , 3           , 255         , 0           , 0
-0.0965358838, -0.08741634 , -9.795564   , 0.0003011055, 0.000316962658, -0.0002627707, 0.009492331 , -0.009498475, 4.39261057E-05, 919.006531  , 32.74385    , 815.8348    , 0.65        , 3           , 255         , 0           , 0
-0.09552971 , -0.08297676 , -9.793811   , -2.30868463E-05, 0.000190211111, -0.000782518648, 0.009492175 , -0.009496499, 3.61191669E-05, 919.006531  , 32.74385    , 815.8349    , 0.66        , 3           , 255         , 0           , 0
-0.08985675 , -0.08780563 , -9.793165   , 1.090212E-05, -0.000236066815, -0.000196715177, 0.009492302 , -0.009498841, 3.41296545E-05, 919.006531  , 32.74385    , 815.835     , 0.67        , 3           , 255         , 0           , 0
-0.08421463 , -0.08648983 , -9.788885   , -0.000329285162, -0.000112078415, 0.000450835767, 0.009488965 , -0.009500003, 3.86272659E-05, 919.006531  , 32.74385    , 815.835144  , 0.68        , 3           , 255         , 0           , 0
-0.08584964 , -0.09300029 , -9.804781   , -6.075739E-05, 8.195454E-05, 0.0005637121, 0.009488304 , -0.009499238, 4.42720266E-05, 919.006531  , 32.74385    , 815.835266  , 0.69        , 3           , 255         , 0           , 0
-0.09392435 , -0.09896298 , -9.801355   , 0.000411532179, -3.95552634E-05, 0.000378634752, 0.009492385 , -0.00949967 , 4.805452E-05, 919.006531  , 32.74385    , 815.8354    , 0.7         , 3           , 255         , 0           , 0
-0.09727844 , -0.09445729 , -9.788869   , -0.000198006979, 0.000294594 , -3.210111E-05, 0.009487477 , -0.009490829, 4.77892972E-05, 919.006531  , 32.74385    , 815.857056  , 0.71        , 3           , 255         , 0           , 0
-0.08263341 , -0.09479495 , -9.789816   , -0.000217119465, 4.25246253E-05, 0.000488897553, 0.009485261 , -0.009490449, 5.26821823E-05, 919.006531  , 32.74385    , 815.8572    , 0.72        , 3           , 255         , 0           , 0
-0.07722847 , -0.09216658 , -9.791033   , -0.00023369788, -0.000276215142, 0.000133210589, 0.009482911 , -0.009493223, 5.398806E-05, 919.0809    , 32.75043    , 815.8573    , 0.73        , 3           , 255         , 0           , 0
-0.09482838 , -0.09401121 , -9.805281   , -0.0003388069, -9.6069125E-05, 0.000170360581, 0.009479507 , -0.009494199, 5.5682518E-05, 919.0809    , 32.75043    , 815.8574    , 0.74        , 3           , 255         , 0           , 0
-0.0895684958, -0.09946863 , -9.80642    , -0.000359683123, 0.000119680088, 8.622855E-05, 0.009475902 , -0.009493011, 5.65561277E-05, 919.0809    , 32.75043    , 815.857544  , 0.75        , 3           , 255         , 0           , 0
-0.0890822038, -0.09424707 , -9.796767   , -0.000265052251, -9.264186E-05, -0.0003895433, 0.009473288 , -0.00949389953, 5.26520162E-05, 919.0809    , 32.75043    , 815.8577    , 0.76        , 3           , 255         , 0           , 0
-0.0956707746, -0.09965021 , -9.793603   , -2.84626149E-05, 0.0002893408, -0.001031311, 0.0094731   , -0.00949091 , 4.23665733E-05, 919.0809    , 32.75043    , 815.8579    , 0.77        , 3           , 255         , 0           , 0
-0.09500863 , -0.0976157  , -9.788565   , -0.000312215358, 0.0002238091, -0.000398025761, 0.009470017 , -0.009488635, 3.84076156E-05, 919.0809    , 32.75043    , 815.8581    , 0.78        , 3           , 255         , 0           , 0
-0.0960853  , -0.0860288  , -9.801043   , 0.0002518957, 0.000159873132, -1.51352433E-05, 0.009472537 , -0.009487035, 3.82714E-05 , 919.0809    , 32.75043    , 815.8583    , 0.79        , 3           , 255         , 0           , 0
-0.09490248 , -0.0900192559, -9.812017   , -2.31449667E-05, -5.032937E-05, -0.00085532153, 0.009472387 , -0.009487458, 2.97136248E-05, 919.0809    , 32.75043    , 815.858459  , 0.8         , 3           , 255         , 0           , 0
-0.09322643 , -0.092319265, -9.796083   , -0.000156260066, 8.895244E-05, -0.00028821273, 0.00947448  , -0.009481872, 2.68055883E-05, 919.0809    , 32.75043    , 815.7823    , 0.81        , 3           , 255         , 0           , 0
-0.091976665, -0.09674145 , -9.78755    , 7.40156975E-06, 0.000170353786, -0.00033693295, 0.009474585 , -0.009480136, 2.34524869E-05, 919.0809    , 32.75043    , 815.782349  , 0.82        , 3           , 255         , 0           , 0
-0.09180871 , -0.09354861 , -9.79425049 , 0.000373354385, -0.000153143614, -0.00011799435, 0.00947833  , -0.009481657, 2.22580529E-05, 918.967163  , 32.7521935  , 815.7825    , 0.83        , 3           , 255         , 0           , 0
-0.09503307 , -0.09153741 , -9.797415   , 0.0007156362, 3.32546624E-05, 0.0003689876, 0.009485451 , -0.00948136 , 2.59509925E-05, 918.967163  , 32.7521935  , 815.7826    , 0.84        , 3           , 255         , 0           , 0
-0.08884166 , -0.0927383  , -9.789426   , 8.273905E-05, 0.000336708967, -0.000231478392, 0.0094863   , -0.00947797 , 2.36682E-05 , 918.967163  , 32.7521935  , 815.7827    , 0.85        , 3           , 255         , 0           , 0
-0.0897964239, -0.0920856148, -9.799585   , 0.000325580331, -0.000373301737, 0.000219770984, 0.009489535 , -0.009481725, 2.583043E-05, 918.967163  , 32.7521935  , 815.782837  , 0.86        , 3           , 255         , 0           , 0
-0.09627999 , -0.09060822 , -9.797874   , -0.000316378631, -0.000148404433, -0.0004984507, 0.009486418 , -0.009483161, 2.08319743E-05, 918.967163  , 32.7521935  , 815.782959  , 0.87        , 3           , 255         , 0           , 0
-0.0902736  , -0.100171253, -9.790979   , -0.0005045163, -1.13956194E-05, 0.000606875459, 0.0094813155, -0.009483333, 2.68994936E-05, 918.967163  , 32.7521935  , 815.7831    , 0.88        , 3           , 255         , 0           , 0
-0.08651686 , -0.102009   , -9.790491   , 0.000296331185, -8.88931245E-05, -0.000144796039, 0.009484292 , -0.009484208, 2.54431416E-05, 918.967163  , 32.7521935  , 815.7832    , 0.89        , 3           , 255         , 0           , 0
-0.0863282755, -0.09318538 , -9.787871   , 0.000358747318, 4.27073974E-06, -0.0005242546, 0.00948793  , -0.009484115, 2.02011288E-05, 918.967163  , 32.7521935  , 815.7833    , 0.9         , 3           , 255         , 0           , 0
-0.08927007 , -0.08974904 , -9.796794   , -0.000307212817, -7.006808E-05, -0.000107224172, 0.009490127 , -0.009478765, 1.90724222E-05, 918.967163  , 32.7521935  , 815.8539    , 0.91        , 3           , 255         , 0           , 0
-0.08704258 , -0.09375776 , -9.798722   , 7.34215137E-05, 0.0001658958, 0.000229843165, 0.009490838 , -0.009477128, 2.13865387E-05, 918.967163  , 32.7521935  , 815.854065  , 0.92        , 3           , 255         , 0           , 0
-0.09531543 , -0.08782111 , -9.805731   , -8.391013E-06, 0.0001396954, 0.000381580816, 0.009490719 , -0.009475769, 2.52155E-05 , 919.062866  , 32.7565346  , 815.854248  , 0.93        , 3           , 255         , 0           , 0
-0.09281151 , -0.08996688 , -9.80078    , 0.00026960246, 1.89099665E-05, -1.17524742E-05, 0.009493417 , -0.009475578, 2.50997782E-05, 919.062866  , 32.7565346  , 815.8545    , 0.94        , 3           , 255         , 0           , 0
-0.100055411, -0.0920566  , -9.791439   , 0.0001322472, -0.000234605686, -0.0005142385, 0.009494788 , -0.009477875, 1.993524E-05, 919.062866  , 32.7565346  , 815.854736  , 0.95        , 3           , 255         , 0           , 0
-0.08942692 , -0.09286113 , -9.793104   , 0.000396994525, 0.000136910778, -0.000232567749, 0.009498778 , -0.009476483, 1.76226276E-05, 919.062866  , 32.7565346  , 815.855     , 0.96        , 3           , 255         , 0           , 0
-0.08642186 , -0.09790953 , -9.80401    , 0.000746406266, 0.000110347915, 0.000243112183, 0.00950622  , -0.009475403, 2.006417E-05, 919.062866  , 32.7565346  , 815.8552    , 0.97        , 3           , 255         , 0           , 0
-0.0901303738, -0.09247923 , -9.806925   , 0.00028261682, 0.000101177444, -0.000190307357, 0.009509062 , -0.009474374, 1.81707619E-05, 919.062866  , 32.7565346  , 815.855469  , 0.98        , 3           , 255         , 0           , 0
-0.09321739 , -0.08742435 , -9.799103   , 2.350827E-05, -6.853475E-05, -5.42984926E-05, 0.009509303 , -0.009475054, 1.762128E-05, 919.062866  , 32.7565346  , 815.8557    , 0.99        , 3           , 255         , 0           , 0
-0.088640444, -0.095817104, -9.783746   , 0.000562452769, 0.000181743351, -0.00050911383, 0.009514976 , -0.009473189, 1.25475581E-05, 919.062866  , 32.7565346  , 815.855957  , 1           , 3           , 0           , 6.43723631  , 100
-0.0868364647, -0.08847697 , -9.782083   , -0.000114886265, 0.000168726227, -0.000164635785, 0.009511361 , -0.009467612, 1.0940792E-05, 919.062866  , 32.7565346  , 815.809265  , 1.01        , 3           , 1           , 0           , 0
-0.09932711 , -0.09468384 , -9.805586   , -0.000137298368, -0.000271969417, 0.000171756546, 0.009509971 , -0.009470347, 1.26324439E-05, 919.062866  , 32.7565346  , 815.8094    , 1.02        , 3           , 2           , 0           , 0
-0.1004986  , -0.101615071, -9.806973   , 0.000339687569, -1.895042E-05, 6.485288E-05, 0.009513362 , -0.009470544, 1.3279152E-05, 919.0618    , 32.7594528  , 815.8095    , 1.03        , 3           , 3           , 0           , 0
-0.094013   , -0.0997657  , -9.799757   , 0.000468169281, 0.000164214085, -0.000878531951, 0.009518126 , -0.009468816, 4.509685E-06, 919.0618    , 32.7594528  , 815.809631  , 1.04        , 3           , 4           , 0           , 0
-0.09362365 , -0.08528509 , -9.7825985  , -0.000226250268, 3.23823624E-05, -0.00011250293, 0.009515876 , -0.009468485, 3.38776817E-06, 919.0618    , 32.7594528  , 815.809753  , 1.05        , 3           , 5           , 0           , 0
-0.0985236  , -0.0915549  , -9.773214   , -0.000403078739, 6.99408E-05 , 9.619203E-05, 0.009511835 , -0.009467793, 4.35632228E-06, 919.0618    , 32.7594528  , 815.8099    , 1.06        , 3           , 6           , 0           , 0
-0.106157504, -0.08830182 , -9.785396   , -0.000213815132, 0.0001249089, -5.1542178E-05, 0.009509702 , -0.009466538, 3.85279236E-06, 919.0618    , 32.7594528  , 815.81      , 1.07        , 3           , 7           , 0           , 0
-0.0938945  , -0.0932178348, -9.810855   , -3.54347867E-06, -1.17818854E-05, 0.000410735549, 0.009509628 , -0.009466695, 7.958931E-06, 919.0618    , 32.7594528  , 815.8101    , 1.08        , 3           , 8           , 5           , 5
-0.103293851, -0.0941819251, -9.816074   , -0.0001957484, -1.24159851E-06, 0.000101763428, 0.00950766  , -0.009466718, 8.976417E-06, 919.0618    , 32.7594528  , 815.810242  , 1.09        , 3           , 9           , 5           , 0.1
-0.1044629  , -0.08492388 , -9.79107952 , 0.0005154143, -6.380108E-05, -0.0003505603, 0.009512848 , -0.009467322, 5.464835E-06, 919.0618    , 32.7594528  , 815.8104    , 1.1         , 3           , 10          , 0.1         , 0.1
-0.09173719 , -0.0926465  , -9.772657   , -0.0004156664, 3.790026E-05, 0.000222668576, 0.009505916 , -0.009481264, 7.72118E-06 , 919.0618    , 32.7594528  , 815.771851  , 1.11        , 3           , 11          , 0.009403636 , 0.009403636
-0.08551791 , -0.101074912, -9.792274   , -0.000422033569, 2.15289474E-05, -0.000212431711, 0.009501717 , -0.00948103052, 5.598962E-06, 919.0618    , 32.7594528  , 815.7719    , 1.12        , 3           , 12          , 0.174642846 , 0
-0.08660941 , -0.09941071 , -9.797416   , -7.350958E-06, 0.000332701748, -9.728175E-05, 0.009501652 , -0.009477693, 4.65778248E-06, 919.0443    , 32.76108    , 815.772     , 1.13        , 3           , 13          , 0           , 0
-0.09820141 , -0.09469694 , -9.816422   , -0.000263422466, -6.342586E-05, 3.151819E-05, 0.009499015 , -0.009478331, 4.96693065E-06, 919.0443    , 32.76108    , 815.772034  , 1.14        , 3           , 14          , -0.000448876439, -0.000184719625
-0.09613323 , -0.09209286 , -9.798918   , 0.0005204486, 1.18248281E-05, -0.000667311, 0.009504283 , -0.009478149, -1.70488806E-06, 919.0443    , 32.76108    , 815.7721    , 1.15        , 3           , 15          , 0           , 9.079564E-06
-0.09384262 , -0.08616469 , -9.788618   , 0.000125500519, 7.710856E-05, -0.00102930551, 0.009505635 , -0.009477281, -1.1990348E-05, 919.0443    , 32.76108    , 815.772156  , 1.16        , 3           , 16          , 0           , 1.401298E-45
-0.0852881446, -0.0934227258, -9.780703   , -0.000150213862, 2.0573978E-05, -0.000232642109, 0.009504154 , -0.009477052, -1.43147508E-05, 919.0443    , 32.76108    , 815.7722    , 1.17        , 3           , 20          , 0           , 0
-0.09840019 , -0.09029329 , -9.798297   , -0.0003780308, 0.000341094245, 0.0003083625, 0.009500343 , -0.009473669, -1.11987874E-05, 919.0443    , 32.76108    , 815.7723    , 1.18        , 3           , 21          , 0           , 0
-0.100634217, -0.09144433 , -9.79991    , 4.93678672E-05, -3.19211831E-05, 0.000199263159, 0.009500818 , -0.009474008, -9.20924E-06, 919.0443    , 32.76108    , 815.772339  , 1.19        , 3           , 22          , 0           , 0
-0.09008796 , -0.09837115 , -9.798296   , -0.000208685029, 8.56081751E-05, -0.000120092831, 0.00949874148, -0.00947314 , -1.04020019E-05, 919.0443    , 32.76108    , 815.7724    , 1.2         , 3           , 40          , 0           , 0
-0.09442747 , -0.09180628 , -9.793088   , 6.62056E-05 , -0.000107525775, -0.000362397172, 0.00950194  , -0.009473635, -1.40597895E-05, 919.0443    , 32.76108    , 815.7569    , 1.21        , 3           , 41          , 0           , 0
-0.09676345 , -0.098783955, -9.799358   , 0.0004957002, -0.000133678826, -0.0009678068, 0.009506987 , -0.00947488 , -2.37503082E-05, 919.0443    , 32.76108    , 815.7569    , 1.22        , 3           , 42          , 0           , 0
-0.0892836  , -0.09794484 , -9.788636   , 0.0002605033, 0.000242311449, 0.000388392742, 0.009509554 , -0.009472493, -1.98434354E-05, 919.0381    , 32.7625732  , 815.756958  , 1.23        , 3           , 255         , 0           , 0
-0.0990506  , -0.0971528143, -9.806949   , 0.0004263356, -0.00035021716, 0.000361391343, 0.009513784 , -0.009476029, -1.62629276E-05, 919.0381    , 32.7625732  , 815.757     , 1.24        , 3           , 255         , 0           , 0
-0.100262783, -0.09521814 , -9.808225   , -0.000339091959, 0.0002469506, -0.000575997634, 0.009510447 , -0.009473505, -2.199927E-05, 919.0381    , 32.7625732  , 815.7571    , 1.25        , 3           , 255         , 0           , 0
-0.08973236 , -0.10259328 , -9.805572   , 9.06498462E-05, 0.000268969947, -0.000136089031, 0.00951136649, -0.009470803, -2.33345472E-05, 919.0381    , 32.7625732  , 815.757141  , 1.26        , 3           , 255         , 0           , 0
-0.0826014057, -0.09700155 , -9.792292   , -0.000124960177, -0.000202055249, -4.48705832E-05, 0.00951012  , -0.009472818, -2.38024513E-05, 919.0381    , 32.7625732  , 815.7572    , 1.27        , 3           , 255         , 0           , 0
-0.07939769 , -0.0974848047, -9.782175   , 0.000206806915, 4.98755835E-05, 9.422569E-06, 0.009512187 , -0.009472321, -2.37034837E-05, 919.0381    , 32.7625732  , 815.757263  , 1.28        , 3           , 255         , 0           , 0
-0.09508306 , -0.09557184 , -9.788244   , 0.000168044673, -6.396898E-05, 0.000216674889, 0.00951384753, -0.009472981, -2.15428736E-05, 919.0381    , 32.7625732  , 815.7573    , 1.29        , 3           , 255         , 0           , 0
-0.09735513 , -0.09117175 , -9.804302   , 0.0002841882, -0.000240351, 0.0003657337, 0.00951665547, -0.009475419, -1.79085018E-05, 919.0381    , 32.7625732  , 815.7574    , 1.3         , 3           , 255         , 0           , 0
-0.07990891 , -0.0937848538, -9.800375   , -0.000624432054, 0.0002575509, -0.0003303123, 0.009518126 , -0.009471801, -2.125985E-05, 919.0381    , 32.7625732  , 815.75      , 1.31        , 3           , 255         , 0           , 0
-0.08411278 , -0.0883580446, -9.793126   , -0.000483517244, 9.323018E-05, -0.000369246147, 0.009513327 , -0.009470835, -2.49433433E-05, 919.0381    , 32.7625732  , 815.75      , 1.32        , 3           , 255         , 0           , 0
-0.09294861 , -0.08856229 , -9.78831    , 0.0003051047, -2.01128714E-05, 0.0005526878, 0.009516327 , -0.009471088, -1.941852E-05, 919.043762  , 32.76081    , 815.75      , 1.33        , 3           , 255         , 0           , 0
-0.101148583, -0.1025029  , -9.79183    , 0.000133594644, 0.000383771985, 0.0003833736, 0.009517625 , -0.009467287, -1.5548354E-05, 919.043762  , 32.76081    , 815.75      , 1.34        , 3           , 255         , 0           , 0
-0.09883872 , -0.09745372 , -9.796471   , 0.000234668318, 0.0007356047, 0.000487774931, 0.009519925 , -0.009459978, -1.06007119E-05, 919.043762  , 32.76081    , 815.75      , 1.35        , 3           , 255         , 0           , 0
-0.100030206, -0.09227182 , -9.803852   , 0.000187318452, 0.000254949642, 0.000705873768, 0.009521731 , -0.009457495, -3.517883E-06, 919.043762  , 32.76081    , 815.75      , 1.36        , 3           , 255         , 0           , 0
-0.09768696 , -0.08827329 , -9.795154   , 2.48016731E-05, 0.0002003956, -0.000188188293, 0.00952199753, -0.009455474, -5.38063341E-06, 919.043762  , 32.76081    , 815.750061  , 1.37        , 3           , 255         , 0           , 0
-0.09279172 , -0.09264092 , -9.793224   , -0.000229993952, -0.0002861049, -0.00027203068, 0.009519724 , -0.009458309, -8.128107E-06, 919.043762  , 32.76081    , 815.7501    , 1.38        , 3           , 255         , 0           , 0
-0.08859618 , -0.0913529843, -9.802689   , 7.62566051E-05, -0.00026515327, 0.000329636416, 0.009520455 , -0.009460992, -4.857072E-06, 919.043762  , 32.76081    , 815.7502    , 1.39        , 3           , 255         , 0           , 0
-0.08761826 , -0.09277142 , -9.790804   , -3.625464E-05, 3.32884665E-05, 1.55330818E-05, 0.009520091 , -0.009460661, -4.6985765E-06, 919.043762  , 32.76081    , 815.750244  , 1.4         , 3           , 255         , 0           , 0
-0.09516155 , -0.08414131 , -9.787942   , 0.000576938153, 0.000225865821, 0.000122172569, 0.009524737 , -0.00945759 , -3.44483988E-06, 919.043762  , 32.76081    , 815.737549  , 1.41        , 3           , 255         , 0           , 0
-0.08650913 , -0.08951609 , -9.800257   , 0.000264187285, 0.000328670256, -0.000235783809, 0.009527401 , -0.009454281, -5.77130731E-06, 919.043762  , 32.76081    , 815.737549  , 1.42        , 3           , 255         , 0           , 0
-0.0814759359, -0.09829651 , -9.803446   , -4.12313966E-05, 0.0007517326, -0.000412548048, 0.009527027 , -0.009446725, -9.825069E-06, 919.007141  , 32.7618942  , 815.737549  , 1.43        , 3           , 255         , 0           , 0
-0.087584354, -0.08824007 , -9.806402   , 0.000388112967, 2.5078305E-05, -0.000288277282, 0.00953093451, -0.009446447, -1.2705379E-05, 919.007141  , 32.7618942  , 815.737549  , 1.44        , 3           , 255         , 0           , 0
-0.104943015, -0.0955365151, -9.791639   , -0.000275620725, 0.000221006136, -0.0003295542, 0.009528209 , -0.009444206, -1.59797764E-05, 919.007141  , 32.7618942  , 815.737549  , 1.45        , 3           , 255         , 0           , 0
-0.102153733, -0.09886082 , -9.791765   , -0.0002818196, -9.737501E-06, -0.000508334662, 0.009525442 , -0.009444255, -2.10639209E-05, 919.007141  , 32.7618942  , 815.737549  , 1.46        , 3           , 255         , 0           , 0
-0.102516688, -0.09010388 , -9.801742   , -0.000181944517, 7.849348E-05, 0.000233569153, 0.00952359848, -0.009443493, -1.87208134E-05, 919.007141  , 32.7618942  , 815.737549  , 1.47        , 3           , 255         , 0           , 0
-0.102458276, -0.09545986 , -9.80913    , 0.000356807432, -0.000283722416, -0.0001924492, 0.009527185 , -0.00944631 , -2.067228E-05, 919.007141  , 32.7618942  , 815.737549  , 1.48        , 3           , 255         , 0           , 0
-0.09989055 , -0.08821334 , -9.806817   , 0.000322108681, -0.000146567676, -0.000419512362, 0.009530445 , -0.009447736, -2.48812576E-05, 919.007141  , 32.7618942  , 815.737549  , 1.49        , 3           , 255         , 0           , 0
-0.08624517 , -0.0879025459, -9.798471   , 8.882361E-05, -0.000152744062, -0.0009568332, 0.009531423 , -0.009449173, -3.44639E-05, 919.007141  , 32.7618942  , 815.737549  , 1.5         , 3           , 255         , 0           , 0
-0.08684589 , -0.09385463 , -9.779306   , 0.000110392633, 0.000125519946, 0.000212203042, 0.009529115 , -0.009452419, -3.22978922E-05, 919.007141  , 32.7618942  , 815.764648  , 1.51        , 3           , 255         , 0           , 0
-0.08335658 , -0.09395843 , -9.781433   , -0.000136163173, 4.19299467E-05, -1.36295293E-05, 0.009527756 , -0.009451998, -3.243019E-05, 919.007141  , 32.7618942  , 815.7648    , 1.52        , 3           , 255         , 0           , 0
-0.0930850953, -0.0912722647, -9.798887   , 0.000240956491, -0.00031025536, -0.0002649557, 0.009530189 , -0.009455076, -3.51092349E-05, 919.015869  , 32.7621651  , 815.7649    , 1.53        , 3           , 255         , 0           , 0
-0.08300427 , -0.102812007, -9.81343    , 0.000263766764, 0.000133296315, -0.0002078288, 0.009532847 , -0.009453723, -3.717477E-05, 919.015869  , 32.7621651  , 815.765     , 1.54        , 3           , 255         , 0           , 0
-0.09128861 , -0.09708327 , -9.810071   , 6.35712058E-06, 3.22989945E-05, -0.000316544843, 0.009532941 , -0.00945337 , -4.03370577E-05, 919.015869  , 32.7621651  , 815.765137  , 1.55        , 3           , 255         , 0           , 0
-0.09988566 , -0.094588086, -9.798413   , -0.000279637374, -0.000115748, -0.000594502431, 0.0095302   , -0.009454471, -4.629296E-05, 919.015869  , 32.7621651  , 815.765259  , 1.56        , 3           , 255         , 0           , 0
-0.09016107 , -0.0978840441, -9.782651   , -0.000292959652, 0.000222022441, 1.77215425E-05, 0.00952727  , -0.009452253, -4.60945921E-05, 919.015869  , 32.7621651  , 815.7654    , 1.57        , 3           , 255         , 0           , 0
-0.09274242 , -0.09283968 , -9.795881   , -0.0003035818, 2.03998643E-05, 0.000188566948, 0.009524216 , -0.009452066, -4.42070268E-05, 919.015869  , 32.7621651  , 815.7655    , 1.58        , 3           , 255         , 0           , 0
-0.08505864 , -0.0819344446, -9.798684   , 0.0001289559, -8.11848149E-05, -0.0003899683, 0.009525544 , -0.009452841, -4.81143434E-05, 919.015869  , 32.7621651  , 815.7656    , 1.59        , 3           , 255         , 0           , 0
-0.0972039551, -0.09126664 , -9.803318   , -5.077818E-05, 9.418632E-05, -0.0003744067, 0.009525072 , -0.009451864, -5.18493471E-05, 919.015869  , 32.7621651  , 815.765747  , 1.6         , 3           , 255         , 0           , 0
-0.09549863 , -0.09729965 , -9.806289   , -0.000211066275, -7.38896051E-05, -0.000404227845, 0.009523822 , -0.009447183, -5.59063519E-05, 919.015869  , 32.7621651  , 815.78125   , 1.61        , 3           , 255         , 0           , 0
-0.09220323 , -0.0951112956, -9.811272   , -8.369476E-05, -8.43354646E-05, -0.0004260433, 0.009523026 , -0.009447986, -6.017471E-05, 919.015869  , 32.7621651  , 815.7815    , 1.62        , 3           , 255         , 0           , 0
-0.09590328 , -0.092316404, -9.7811     , 0.0005259955, -0.000225649812, -0.00108444551, 0.009528388 , -0.00945014 , -7.104038E-05, 919.076233  , 32.764      , 815.781738  , 1.63        , 3           , 255         , 0           , 0
-0.09849726 , -0.08673836 , -9.791822   , 0.000279701344, -0.000359400816, -0.000748150167, 0.009531255 , -0.009453662, -7.855594E-05, 919.076233  , 32.764      , 815.782     , 1.64        , 3           , 255         , 0           , 0
-0.08786821 , -0.09328474 , -9.79426    , 0.000691662251, 0.0003814439, 1.09064713E-05, 0.00953817  , -0.009449848, -7.84105E-05, 919.076233  , 32.764      , 815.7822    , 1.65        , 3           , 255         , 0           , 0
-0.09105251 , -0.09119911 , -9.788711   , 0.000678158831, -7.326431E-05, -8.371735E-05, 0.009544958 , -0.009450573, -7.92546343E-05, 919.076233  , 32.764      , 815.7825    , 1.66        , 3           , 255         , 0           , 0
-0.09167296 , -0.09415049 , -9.799603   , -0.0002942182, 5.582001E-05, 0.000416965078, 0.009541977 , -0.009450054, -7.507977E-05, 919.076233  , 32.764      , 815.7827    , 1.67        , 3           , 255         , 0           , 0
-0.0949455053, -0.0855843648, -9.79103    , 0.00017542229, 5.70705E-05 , 0.0006061804, 0.009543673 , -0.009449541, -6.901266E-05, 919.076233  , 32.764      , 815.782959  , 1.68        , 3           , 255         , 0           , 0
-0.09129183 , -0.0829753  , -9.801402   , -0.0002448868, 0.0004019682, -0.000209984762, 0.009541244 , -0.00944550149, -7.10741E-05, 919.076233  , 32.764      , 815.7832    , 1.69        , 3           , 255         , 0           , 0
-0.08552077 , -0.0912273452, -9.799258   , -0.000415120157, 0.00016339116, -5.02833E-06, 0.009537093 , -0.009443868, -7.110879E-05, 919.076233  , 32.764      , 815.783447  , 1.7         , 3           , 255         , 0           , 0
-0.08981039 , -0.0922754  , -9.797747   , -0.0006754029, 9.6957745E-05, -7.682158E-05, 0.009524995 , -0.009442558, -7.181721E-05, 919.076233  , 32.764      , 815.730652  , 1.71        , 3           , 255         , 0           , 0
-0.0921836644, -0.09951055 , -9.796584   , 0.0005392382, 0.000304447662, -0.000605028355, 0.009530445 , -0.009439455, -7.783834E-05, 919.076233  , 32.764      , 815.7306    , 1.72        , 3           , 255         , 0           , 0
-0.09104576 , -0.09739481 , -9.794577   , 0.00069277  , -7.85187E-05, 0.000360726321, 0.009537336 , -0.009440275, -7.42386546E-05, 919.0351    , 32.7679329  , 815.7305    , 1.73        , 3           , 255         , 0           , 0
-0.0860908851, -0.0959500149, -9.790071   , -0.000334457261, 0.000174116882, 8.858603E-05, 0.00953398552, -0.009438542, -7.333621E-05, 919.0351    , 32.7679329  , 815.730469  , 1.74        , 3           , 255         , 0           , 0
-0.08898991 , -0.08959614 , -9.781168   , -0.0007286061, -0.000461552525, -0.000336034631, 0.009526732 , -0.009443126, -7.674045E-05, 919.0351    , 32.7679329  , 815.7304    , 1.75        , 3           , 255         , 0           , 0
-0.09391794 , -0.09558425 , -9.790644   , -0.000156217488, -0.000221706025, 0.000601641368, 0.009525114 , -0.009445398, -7.074531E-05, 919.0351    , 32.7679329  , 815.7304    , 1.76        , 3           , 255         , 0           , 0
-0.09296819 , -0.107163154, -9.799459   , 0.0006221788, -7.88917532E-07, 0.0007942031, 0.009531259 , -0.009445483, -6.280355E-05, 919.0351    , 32.7679329  , 815.7304    , 1.77        , 3           , 255         , 0           , 0
-0.09651013 , -0.08785242 , -9.800265   , 0.000390861882, -0.000205544377, 6.347843E-05, 0.009535161 , -0.009447542, -6.218838E-05, 919.0351    , 32.7679329  , 815.7304    , 1.78        , 3           , 255         , 0           , 0
-0.08854213 , -0.08839717 , -9.802869   , 0.000450209161, 7.160617E-05, -9.623491E-05, 0.009539672 , -0.00944681652, -6.314387E-05, 919.0351    , 32.7679329  , 815.7304    , 1.79        , 3           , 255         , 0           , 0
-0.09628649 , -0.100017808, -9.787081   , 0.0005185156, 0.000379273377, -0.000189176659, 0.00954487547, -0.009443007, -6.499939E-05, 919.0351    , 32.7679329  , 815.7304    , 1.8         , 3           , 255         , 0           , 0
-0.09373067 , -0.10149388 , -9.791104   , 0.000907554 , 0.000584295543, -0.0002585436, 0.009559078 , -0.00943503 , -6.757713E-05, 919.0351    , 32.7679329  , 815.7289    , 1.81        , 3           , 255         , 0           , 0
-0.09830416 , -0.09306178 , -9.789996   , 0.000183496566, 0.000254467363, -0.000113364862, 0.009560923 , -0.009432474, -6.868642E-05, 919.0351    , 32.7679329  , 815.7289    , 1.82        , 3           , 255         , 0           , 0
-0.101905882, -0.09160352 , -9.795522   , -7.927182E-05, -0.0001950431, -9.05916459E-05, 0.00956014  , -0.009434416, -6.96109637E-05, 919.052856  , 32.76556    , 815.7289    , 1.83        , 3           , 255         , 0           , 0
-0.09442026 , -0.09915435 , -9.798975   , 0.000416158378, -0.000153444271, -0.0003798012, 0.009564337 , -0.009435914, -7.342354E-05, 919.052856  , 32.76556    , 815.7289    , 1.84        , 3           , 255         , 0           , 0
-0.090253   , -0.10002432 , -9.790143   , 0.0001281068, -0.000145650352, -4.04203E-05, 0.009565623 , -0.009437367, -7.38416638E-05, 919.052856  , 32.76556    , 815.7289    , 1.85        , 3           , 255         , 0           , 0
-0.08850403 , -0.0841192454, -9.78669548 , -0.0002772427, 0.000167835184, -0.000283332629, 0.009562876 , -0.009435661, -7.665886E-05, 919.052856  , 32.76556    , 815.7289    , 1.86        , 3           , 255         , 0           , 0
-0.0925528258, -0.08310393 , -9.785159   , -0.000113146, 5.517961E-05, -0.00019927707, 0.009561763 , -0.00943509 , -7.86463061E-05, 919.052856  , 32.76556    , 815.7289    , 1.87        , 3           , 255         , 0           , 0
-0.09339628 , -0.0888612345, -9.796522   , 0.0001370598, 7.329681E-05, 6.33920863E-05, 0.009563128 , -0.009434363, -7.800539E-05, 919.052856  , 32.76556    , 815.7289    , 1.88        , 3           , 255         , 0           , 0
-0.09550194 , -0.08967879 , -9.806311   , -0.000604582, -0.0004080676, 0.0006576194, 0.009557022 , -0.009438507, -7.146838E-05, 919.052856  , 32.76556    , 815.7289    , 1.89        , 3           , 255         , 0           , 0
-0.09553571 , -0.08797234 , -9.804635   , 0.000177177222, -9.861641E-05, 0.000102447011, 0.009558783 , -0.009439504, -7.045336E-05, 919.052856  , 32.76556    , 815.7289    , 1.9         , 3           , 255         , 0           , 0
-0.0863111541, -0.09892808 , -9.796988   , -1.56075112E-05, 0.000435392431, 0.000144657562, 0.009554383 , -0.009439853, -6.892528E-05, 919.052856  , 32.76556    , 815.706543  , 1.91        , 3           , 255         , 0           , 0
-0.09134436 , -0.09380801 , -9.794437   , -0.000438617921, 0.0009150917, 0.0008552384, 0.009549916 , -0.009430785, -6.02857071E-05, 919.052856  , 32.76556    , 815.7064    , 1.92        , 3           , 255         , 0           , 0
-0.0869787261, -0.08269066 , -9.793533   , -0.000101771991, 0.0006405215, 0.000482800446, 0.009548852 , -0.009424427, -5.539667E-05, 919.0576    , 32.7659     , 815.7063    , 1.93        , 3           , 255         , 0           , 0
-0.0910351649, -0.09030873 , -9.796587   , 0.000125462975, 3.125184E-05, 0.0005857194, 0.009550052 , -0.00942417 , -4.95366367E-05, 919.0576    , 32.7659     , 815.7062    , 1.94        , 3           , 255         , 0           , 0
-0.0928795561, -0.09281777 , -9.80625    , -0.0002155579, 5.43714268E-05, -0.000291102566, 0.009547924 , -0.009423598, -5.24423958E-05, 919.0576    , 32.7659     , 815.706055  , 1.95        , 3           , 255         , 0           , 0
-0.100238487, -0.08250879 , -9.788651   , 0.000329879171, -8.762989E-05, 0.000355848722, 0.00955119  , -0.009424508, -4.889237E-05, 919.0576    , 32.7659     , 815.705933  , 1.96        , 3           , 255         , 0           , 0
-0.09342542 , -0.08626689 , -9.792819   , -8.71433E-05, 0.000165885111, -0.00010552365, 0.009550327 , -0.009422839, -4.99317248E-05, 919.0576    , 32.7659     , 815.7058    , 1.97        , 3           , 255         , 0           , 0
-0.09257896 , -0.0892316252, -9.796803   , 0.000243145274, -8.388533E-05, -0.000746135833, 0.00955283  , -0.009423605, -5.74009027E-05, 919.0576    , 32.7659     , 815.7057    , 1.98        , 3           , 255         , 0           , 0
-0.0945986658, -0.0966551751, -9.803039   , 0.000320645981, -6.620804E-05, 0.000190739011, 0.009556019 , -0.009424286, -5.549989E-05, 919.0576    , 32.7659     , 815.705566  , 1.99        , 3           , 255         , 0           , 0
-0.09364379 , -0.09147626 , -9.799352   , 0.000372028677, 0.000228096411, 0.00107340061, 0.009559635 , -0.00942210853, -4.47443526E-05, 919.0576    , 32.7659     , 815.705444  , 2           , 3           , 0           , 7.43723631  , 200
-0.0924486443, -0.0858102739, -9.788603   , 0.0001539813, 0.0006619374, -0.000313283032, 0.009554983 , -0.009415402, -4.77552276E-05, 919.0576    , 32.7659     , 815.6797    , 2.01        , 3           , 1           , 0           , 0
-0.0910023  , -0.08881597 , -9.79054451 , 4.30670043E-05, -3.245179E-06, -0.001129414, 0.009555519 , -0.009415328, -5.90493728E-05, 919.0576    , 32.7659     , 815.6794    , 2.02        , 3           , 2           , 0           , 0
-0.09648805 , -0.0847312957, -9.790783   , 0.000243766815, 0.000260793779, -0.00112181425, 0.009558061 , -0.00941261 , -7.02423E-05, 919.0661    , 32.7707825  , 815.6791    , 2.03        , 3           , 3           , 0           , 0
-0.0980315655, -0.09330029 , -9.800088   , 0.0002591118, 0.00033402635, -0.0006070387, 0.009560709 , -0.009409212, -7.628059E-05, 919.0661    , 32.7707825  , 815.6788    , 2.04        , 3           , 4           , 0           , 0
-0.09438891 , -0.09983681 , -9.801448   , -0.0001254328, 0.000423282327, -9.356655E-05, 0.009559464 , -0.00940497 , -7.7175755E-05, 919.0661    , 32.7707825  , 815.6785    , 2.05        , 3           , 5           , 0           , 0
-0.092757836, -0.08851575 , -9.801373   , -2.05654069E-05, -1.9186351E-05, -0.0007504788, 0.009559329 , -0.00940509 , -8.468218E-05, 919.0661    , 32.7707825  , 815.6783    , 2.06        , 3           , 6           , 0           , 0
-0.08656077 , -0.09148406 , -9.783873   , 0.000422394456, -0.000395823561, -0.0005088289, 0.009563601 , -0.009408999, -8.980817E-05, 919.0661    , 32.7707825  , 815.67804   , 2.07        , 3           , 7           , 0           , 0
-0.08639367 , -0.100160852, -9.785452   , -0.000169584178, 6.06699323E-05, 1.9800993E-05, 0.009561902 , -0.009408395, -8.960437E-05, 919.0661    , 32.7707825  , 815.6778    , 2.08        , 3           , 8           , 5           , 5
-0.0830614939, -0.09128573 , -9.796962   , 0.000310301955, 0.000109411092, -0.000612542441, 0.009565064 , -0.009407243, -9.571917E-05, 919.0661    , 32.7707825  , 815.677551  , 2.09        , 3           , 9           , 5           , 0.1
-0.102394581, -0.09581968 , -9.805971   , 0.000228813471, -0.000240511392, -0.000165336649, 0.009567368 , -0.009409632, -9.73955E-05, 919.0661    , 32.7707825  , 815.6773    , 2.1         , 3           , 10          , 0.1         , 0.1
-0.094597   , -0.101245984, -9.80316    , -0.000153986155, -0.000126401472, 0.000116844611, 0.009562027 , -0.009411392, -9.62035047E-05, 919.0661    , 32.7707825  , 815.64386   , 2.11        , 3           , 11          , 0.00838233  , 0.008382328
-0.09048907 , -0.09730315 , -9.802474   , -6.724638E-05, 0.000251319318, -0.00010372117, 0.009561363 , -0.009408869, -9.721667E-05, 919.0661    , 32.7707825  , 815.6434    , 2.12        , 3           , 12          , 0.174643889 , 0
-0.0858656541, -0.0971196741, -9.781861   , 0.0006459662, -0.000175943234, -0.0002834491, 0.009567849 , -0.009410601, -0.0001000679, 919.0499    , 32.7657623  , 815.6429    , 2.13        , 3           , 13          , 0           , 0
-0.09025771 , -0.08993362 , -9.797833   , 0.000264383 , -6.794451E-05, 0.0002440887, 0.00957047  , -0.009411304, -9.763358E-05, 919.0499    , 32.7657623  , 815.6424    , 2.14        , 3           , 14          , -0.0004488479, -0.000184718563
-0.09559484 , -0.08414191 , -9.805333   , 0.000287743169, -1.208976E-05, 0.000439108931, 0.009573306 , -0.009411466, -9.324377E-05, 919.0499    , 32.7657623  , 815.6419    , 2.15        , 3           , 15          , 0           , 9.079283E-06
-0.090072304, -0.09545146 , -9.798979   , 0.000232075225, -0.000165736084, -0.000249606353, 0.009575651 , -0.0094131  , -9.575563E-05, 919.0499    , 32.7657623  , 815.6414    , 2.16        , 3           , 16          , 0           , 1.401298E-45
-0.0927258  , -0.09122147 , -9.796398   , 0.000386073283, -0.0001687517, -0.000423113466, 0.009579551 , -0.009414747, -0.000100002813, 919.0499    , 32.7657623  , 815.6409    , 2.17        , 3           , 20          , 0           , 0
-0.09767484 , -0.09045504 , -9.783099   , 0.00026052873, 0.0001630312, 0.000160535434, 0.00958214048, -0.009413132, -9.838188E-05, 919.0499    , 32.7657623  , 815.6405    , 2.18        , 3           , 21          , 0           , 0
-0.09121987 , -0.09036307 , -9.788597   , -5.58397151E-05, 0.000167220322, 0.0004466558, 0.00958154  , -0.009411504, -9.389942E-05, 919.0499    , 32.7657623  , 815.6401    , 2.19        , 3           , 22          , 0           , 0
-0.0864181  , -0.09499563 , -9.801977   , 0.00025956615, 0.0005481718, -0.000142496225, 0.009584147 , -0.009406009, -9.527181E-05, 919.0499    , 32.7657623  , 815.639648  , 2.2         , 3           , 40          , 0           , 0
-0.0965010747, -0.09633549 , -9.805597   , 0.000636620447, 0.000210588187, -0.000415477727, 0.009589435 , -0.009402419, -9.939577E-05, 919.0499    , 32.7657623  , 815.6307    , 2.21        , 3           , 41          , 0           , 0
-0.09175622 , -0.0993268639, -9.804111   , 0.0004579513, -1.78535411E-05, -6.000705E-05, 0.0095940195, -0.009402593, -9.99975455E-05, 919.0499    , 32.7657623  , 815.6302    , 2.22        , 3           , 42          , 0           , 0
-0.0896387845, -0.09270631 , -9.796076   , 0.0006473469, 0.00011679843, 0.000329894363, 0.009600461 , -0.009401455, -9.668748E-05, 919.045532  , 32.7660332  , 815.6297    , 2.23        , 3           , 255         , 0           , 0
-0.09085646 , -0.084967196, -9.791039   , 0.000116422016, 4.629926E-05, -0.0004285028, 0.009601667 , -0.009400951, -0.00010096794, 919.045532  , 32.7660332  , 815.6292    , 2.24        , 3           , 255         , 0           , 0
-0.090755336, -0.0901978537, -9.79616    , 0.0005597525, -0.000359404366, -4.5162993E-05, 0.009607268 , -0.009404541, -0.000101454083, 919.045532  , 32.7660332  , 815.6287    , 2.25        , 3           , 255         , 0           , 0
-0.0934601  , -0.0871821046, -9.79949    , 6.52326853E-05, -0.0006375876, -0.000379210222, 0.009607956 , -0.00941088 , -0.000105307336, 919.045532  , 32.7660332  , 815.628235  , 2.26        , 3           , 255         , 0           , 0
-0.0963767245, -0.09432114 , -9.800057   , 0.000399883167, -8.341369E-05, -4.828293E-05, 0.009611958 , -0.009411707, -0.000105798157, 919.045532  , 32.7660332  , 815.627747  , 2.27        , 3           , 255         , 0           , 0
-0.100284375, -0.09227727 , -9.801399   , -1.5824131E-05, 0.000103770682, -0.000233309867, 0.009611822 , -0.009410647, -0.000108121218, 919.045532  , 32.7660332  , 815.627258  , 2.28        , 3           , 255         , 0           , 0
-0.09504363 , -0.08678773 , -9.793337   , 0.000471565785, -2.74544582E-05, -0.000252689177, 0.009616561 , -0.009410897, -0.000110650682, 919.045532  , 32.7660332  , 815.6268    , 2.29        , 3           , 255         , 0           , 0
-0.09580003 , -0.08831694 , -9.791293   , 0.0003619707, -0.000217852139, 0.000961798069, 0.00962009  , -0.00941317 , -0.000101053905, 919.045532  , 32.7660332  , 815.6263    , 2.3         , 3           , 255         , 0           , 0
-0.09140863 , -0.09002888 , -9.79723549 , 6.297682E-05, 6.329983E-05, 0.0009822596, 0.00961547  , -0.009416061, -9.117692E-05, 919.045532  , 32.7660332  , 815.6247    , 2.31        , 3           , 255         , 0           , 0
-0.0899609253, -0.09455937 , -9.798883   , -4.59924631E-05, 5.3327487E-05, 0.00014263358, 0.009614996 , -0.00941554 , -8.97454956E-05, 919.045532  , 32.7660332  , 815.6242    , 2.32        , 3           , 255         , 0           , 0
-0.100889407, -0.100516185, -9.799445   , -0.000365155138, 0.000126055937, 0.0004996676, 0.00961129647, -0.009414327, -8.473683E-05, 919.0579    , 32.7690849  , 815.6237    , 2.33        , 3           , 255         , 0           , 0
-0.090657115, -0.100217223, -9.79575348 , 0.0001901908, -0.000317714643, -0.000116750518, 0.00961321  , -0.009417493, -8.593484E-05, 919.0579    , 32.7690849  , 815.6232    , 2.34        , 3           , 255         , 0           , 0
-0.0925743356, -0.09332331 , -9.795641   , 6.09390554E-06, 0.0001290517, -0.000144889549, 0.009613284 , -0.009416189, -8.737129E-05, 919.0579    , 32.7690849  , 815.622742  , 2.35        , 3           , 255         , 0           , 0
-0.09048336 , -0.09095352 , -9.79906    , 0.0006937133, 0.000213076579, 0.000113836177, 0.009620209 , -0.009414069, -8.62124652E-05, 919.0579    , 32.7690849  , 815.622253  , 2.36        , 3           , 255         , 0           , 0
-0.0938301757, -0.095821254, -9.792783   , 0.000448450563, 4.848579E-05, -0.000315847428, 0.009624723 , -0.009413553, -8.93662E-05, 919.0579    , 32.7690849  , 815.621765  , 2.37        , 3           , 255         , 0           , 0
-0.09236494 , -0.0894626155, -9.792977   , 0.00059775  , -0.0003138446, -0.000565174, 0.009630755 , -0.009416638, -9.50479953E-05, 919.0579    , 32.7690849  , 815.6213    , 2.38        , 3           , 255         , 0           , 0
-0.08857734 , -0.0930017158, -9.787809   , -8.420859E-05, -0.000220603863, 6.574722E-05, 0.009629906 , -0.009418849, -9.441178E-05, 919.0579    , 32.7690849  , 815.6208    , 2.39        , 3           , 255         , 0           , 0
-0.08718548 , -0.08086799 , -9.794143   , -0.000739115756, -0.0006654477, -0.000102532256, 0.009622525 , -0.009425495, -9.550114E-05, 919.0579    , 32.7690849  , 815.6203    , 2.4         , 3           , 255         , 0           , 0
-0.09546846 , -0.090824984, -9.800478   , -0.00045947422, 0.000170540516, 0.000131469613, 0.009615282 , -0.009422878, -9.41452454E-05, 919.0579    , 32.7690849  , 815.603333  , 2.41        , 3           , 255         , 0           , 0
-0.0979837552, -0.09097084 , -9.802907   , -4.292035E-05, 0.000336030556, -0.000208501777, 0.009614872 , -0.009419497, -9.619789E-05, 919.0579    , 32.7690849  , 815.6028    , 2.42        , 3           , 255         , 0           , 0
-0.08961551 , -0.0911547  , -9.808968   , -0.000301982684, 0.00015143404, 0.00017695727, 0.009611836 , -0.009417999, -9.44138155E-05, 919.0634    , 32.77024    , 815.602234  , 2.43        , 3           , 255         , 0           , 0
-0.0934547856, -0.0886731148, -9.797599   , -0.0002054575, 0.000200237468, 0.0007454986, 0.00960971  , -0.009416069, -8.69397845E-05, 919.0634    , 32.77024    , 815.6017    , 2.44        , 3           , 255         , 0           , 0
-0.087604   , -0.0945539847, -9.800395   , 0.0004633945, -9.67621E-05, -3.27259886E-06, 0.009614345 , -0.009417037, -8.69818E-05, 919.0634    , 32.77024    , 815.601135  , 2.45        , 3           , 255         , 0           , 0
-0.09093606 , -0.0881611854, -9.801247   , -5.403231E-05, 9.204545E-05, 0.000226412521, 0.009613783 , -0.009416137, -8.47088959E-05, 919.0634    , 32.77024    , 815.6006    , 2.46        , 3           , 255         , 0           , 0
-0.09394705 , -0.0912511051, -9.8092165  , 8.6872984E-05, 2.658958E-05, -0.0002639343, 0.009614677 , -0.009415846, -8.73456156E-05, 919.0634    , 32.77024    , 815.600037  , 2.47        , 3           , 255         , 0           , 0
-0.09919167 , -0.091120854, -9.802812   , 4.55345144E-05, -0.0004115466, 0.0002528431, 0.009615108 , -0.009419987, -8.485682E-05, 919.0634    , 32.77024    , 815.5995    , 2.48        , 3           , 255         , 0           , 0
-0.0976412147, -0.09495102 , -9.792845   , 0.000204769109, -0.00049004436, 0.000512608269, 0.009617109 , -0.009424936, -7.9777994E-05, 919.0634    , 32.77024    , 815.598938  , 2.49        , 3           , 255         , 0           , 0
-0.09102735 , -0.0960171  , -9.78688049 , 0.000416410243, -6.688293E-06, 1.20755531E-05, 0.009621272 , -0.009425004, -7.965788E-05, 919.0634    , 32.77024    , 815.5984    , 2.5         , 3           , 255         , 0           , 0
-0.0857252  , -0.0816771761, -9.797586   , 0.0003322725, 0.00063104  , 0.0005520008, 0.009620805 , -0.009420878, -7.40420946E-05, 919.0634    , 32.77024    , 815.5767    , 2.51        , 3           , 255         , 0           , 0
-0.08739435 , -0.08803648 , -9.797167   , -5.741956E-05, 0.000764167751, -0.000275491155, 0.009620258 , -0.009413213, -7.6723416E-05, 919.0634    , 32.77024    , 815.57605   , 2.52        , 3           , 255         , 0           , 0
-0.0900271162, -0.09233936 , -9.802725   , -0.000340033061, 0.000154665147, -4.53145731E-06, 0.009616857 , -0.009411663, -7.675385E-05, 919.055054  , 32.7688828  , 815.5754    , 2.53        , 3           , 255         , 0           , 0
-0.09363426 , -0.09560676 , -9.788676   , 8.564291E-05, -5.770952E-05, -0.00029854913, 0.009617742 , -0.009412211, -7.974481E-05, 919.055054  , 32.7688828  , 815.5747    , 2.54        , 3           , 255         , 0           , 0
-0.09379257 , -0.09444922 , -9.799896   , 0.0004467065, -0.000465244375, 0.0005287581, 0.00962215848, -0.009416915, -7.45021243E-05, 919.055054  , 32.7688828  , 815.574036  , 2.55        , 3           , 255         , 0           , 0
-0.0872028843, -0.100304291, -9.797026   , 0.000299863983, -0.000234859326, 9.107913E-05, 0.009625149 , -0.009419273, -7.361395E-05, 919.055054  , 32.7688828  , 815.573364  , 2.56        , 3           , 255         , 0           , 0
-0.08146865 , -0.08986465 , -9.7915     , 0.000191053608, 0.000207079749, 0.000346279645, 0.009627026 , -0.009417235, -7.013131E-05, 919.055054  , 32.7688828  , 815.5727    , 2.57        , 3           , 255         , 0           , 0
-0.09054695 , -0.09689005 , -9.795729   , -0.00116984628, -0.000240552588, -0.000131587745, 0.009615339 , -0.009419629, -7.147029E-05, 919.055054  , 32.7688828  , 815.572     , 2.58        , 3           , 255         , 0           , 0
-0.08974759 , -0.101072565, -9.803952   , -0.000164554076, 0.000334956538, -0.000939772057, 0.009613782 , -0.009416186, -8.083556E-05, 919.055054  , 32.7688828  , 815.57135   , 2.59        , 3           , 255         , 0           , 0
-0.0981748253, -0.09964106 , -9.79898548 , -0.000169159583, 0.000190264342, 0.0007056307, 0.009612023 , -0.00941435248, -7.37611554E-05, 919.055054  , 32.7688828  , 815.5707    , 2.6         , 3           , 255         , 0           , 0
-0.101388529, -0.08817898 , -9.78866    , 0.000265468552, 2.39138026E-05, 0.0002453314, 0.009614183 , -0.009409773, -7.13011541E-05, 919.055054  , 32.7688828  , 815.564148  , 2.61        , 3           , 255         , 0           , 0
-0.09431775 , -0.0930681  , -9.794039   , -0.000180701114, -0.000213129766, 0.0004681608, 0.009612331 , -0.009411951, -6.664016E-05, 919.055054  , 32.7688828  , 815.5634    , 2.62        , 3           , 255         , 0           , 0
-0.0871192962, -0.09196949 , -9.791844   , -0.000374316034, -8.099343E-05, 9.07718058E-05, 0.009608579 , -0.009412768, -6.574025E-05, 919.1315    , 32.76746    , 815.5627    , 2.63        , 3           , 255         , 0           , 0
-0.09183444 , -0.0931337  , -9.797073   , 0.000303684326, 0.000223246519, 0.0005405845, 0.009611565 , -0.009410588, -6.03130939E-05, 919.1315    , 32.76746    , 815.561951  , 2.64        , 3           , 255         , 0           , 0
-0.08931217 , -0.0987192541, -9.80034351 , -0.000171221531, 0.0005441662, 0.0006608213, 0.009609791 , -0.00940521 , -5.36527659E-05, 919.1315    , 32.76746    , 815.5612    , 2.65        , 3           , 255         , 0           , 0
-0.0837068856, -0.09667913 , -9.7958     , 0.000130114058, 0.00017199805, 0.000390823931, 0.009611055 , -0.009403528, -4.97281E-05, 919.1315    , 32.76746    , 815.560547  , 2.66        , 3           , 255         , 0           , 0
-0.08520198 , -0.0962808  , -9.791467   , 2.45095289E-05, 0.00016690584, -0.0007451111, 0.00961137  , -0.009401787, -5.71629753E-05, 919.1315    , 32.76746    , 815.5599    , 2.67        , 3           , 255         , 0           , 0
-0.0926463  , -0.101609789, -9.788579   , 4.37496346E-05, -0.000114014227, -0.000390485249, 0.009611845 , -0.00940289 , -6.107868E-05, 919.1315    , 32.76746    , 815.5592    , 2.68        , 3           , 255         , 0           , 0
-0.102435648, -0.08704378 , -9.798502   , 0.00029856927, -0.000210328, 4.893714E-05, 0.009614828 , -0.009404998, -6.06095418E-05, 919.1315    , 32.76746    , 815.558533  , 2.69        , 3           , 255         , 0           , 0
-0.09767692 , -0.0917988  , -9.806756   , 2.16591288E-05, 0.000409304746, 0.0007448275, 0.009614974 , -0.009400977, -5.31221158E-05, 919.1315    , 32.76746    , 815.557861  , 2.7         , 3           , 255         , 0           , 0
-0.0910597444, -0.09186436 , -9.799284   , 0.0002225263, 7.44799036E-06, 0.000211987048, 0.009616609 , -0.00940172 , -5.09962265E-05, 919.1315    , 32.76746    , 815.447754  , 2.71        , 3           , 255         , 0           , 0
-0.1052198  , -0.09592871 , -9.790877   , 0.000105416344, 5.374616E-05, 0.0003526945, 0.009617629 , -0.009401216, -4.74642075E-05, 919.1315    , 32.76746    , 815.44635   , 2.72        , 3           , 255         , 0           , 0
-0.0965095  , -0.08859102 , -9.785086   , -9.399728E-05, 0.000101925652, -0.000247279037, 0.009616713 , -0.009400174, -4.99271264E-05, 919.0242    , 32.76651    , 815.444946  , 2.73        , 3           , 255         , 0           , 0
-0.0903958753, -0.08392272 , -9.792524   , 0.000170787971, -0.000119926714, -7.499613E-05, 0.009618429 , -0.009401366, -5.06886063E-05, 919.0242    , 32.76651    , 815.443542  , 2.74        , 3           , 255         , 0           , 0
-0.09445077 , -0.08885051 , -9.802019   , -0.00064721785, 0.000251199381, -0.000250065437, 0.009611979 , -0.00939883 , -5.31650439E-05, 919.0242    , 32.76651    , 815.442139  , 2.75        , 3           , 255         , 0           , 0
-0.0896840543, -0.0976603851, -9.800211   , -0.000126538216, 0.000241102156, 0.000620713 , 0.009610656 , -0.00939648 , -4.6934907E-05, 919.0242    , 32.76651    , 815.440735  , 2.76        , 3           , 255         , 0           , 0
-0.0855781  , -0.08637396 , -9.791519   , 0.0006463955, -0.000280720415, 0.000118183918, 0.009617109 , -0.009399298, -4.57800852E-05, 919.0242    , 32.76651    , 815.439331  , 2.77        , 3           , 255         , 0           , 0
-0.08720537 , -0.09453958 , -9.789507   , -3.37394E-05, -0.000264719769, 0.0002893529, 0.009616744 , -0.009401972, -4.291209E-05, 919.0242    , 32.76651    , 815.4379    , 2.78        , 3           , 255         , 0           , 0
-0.0977407247, -0.09331038 , -9.79522    , 0.000326200854, 0.000280969834, -6.782417E-05, 0.009620011 , -0.009399157, -4.35632828E-05, 919.0242    , 32.76651    , 815.4365    , 2.79        , 3           , 255         , 0           , 0
-0.09164301 , -0.0854114  , -9.801016   , -0.00036132813, -0.000107616375, -0.000588549534, 0.009616453 , -0.009400176, -4.94589658E-05, 919.0242    , 32.76651    , 815.4351    , 2.8         , 3           , 255         , 0           , 0
-0.09638764 , -0.09285991 , -9.79669    , -0.000265576149, 7.53851637E-05, -0.0002886876, 0.009606816 , -0.009401129, -5.22726223E-05, 919.0242    , 32.76651    , 815.4904    , 2.81        , 3           , 255         , 0           , 0
-0.0948444456, -0.09728099 , -9.79729748 , -1.58805051E-06, -2.9259958E-05, -0.000409692759, 0.009606839 , -0.009401382, -5.63722533E-05, 919.0242    , 32.76651    , 815.4894    , 2.82        , 3           , 255         , 0           , 0
-0.09727041 , -0.0981643051, -9.793782   , 3.700456E-05, 9.767715E-05, -0.0004476987, 0.009607251 , -0.009400362, -6.08397349E-05, 919.055359  , 32.77119    , 815.488342  , 2.83        , 3           , 255         , 0           , 0
-0.09117041 , -0.09568764 , -9.78454    , 0.000257003878, -8.333447E-05, -0.000330379844, 0.009609851 , -0.009401164, -6.415145E-05, 919.055359  , 32.77119    , 815.4873    , 2.84        , 3           , 255         , 0           , 0
-0.0937725157, -0.08774032 , -9.790609   , 4.09064232E-05, 0.000207617122, -3.94590534E-05, 0.009610264 , -0.009399084, -6.452608E-05, 919.055359  , 32.77119    , 815.4863    , 2.85        , 3           , 255         , 0           , 0
-0.09278085 , -0.087137   , -9.802931   , -0.0001019511, 3.35980876E-05, -0.00014367413, 0.009609257 , -0.009398735, -6.595955E-05, 919.055359  , 32.77119    , 815.485352  , 2.86        , 3           , 255         , 0           , 0
-0.100948431, -0.09152047 , -9.799204   , 0.00017807199, -0.000399847224, -0.0007299157, 0.009611107 , -0.00940266252, -7.32969347E-05, 919.055359  , 32.77119    , 815.4844    , 2.87        , 3           , 255         , 0           , 0
-0.100607492, -0.0863045156, -9.795718   , 0.000197087 , -0.000275900878, 8.82322638E-05, 0.009613071 , -0.00940542948, -7.244115E-05, 919.055359  , 32.77119    , 815.4834    , 2.88        , 3           , 255         , 0           , 0
-0.103507675, -0.0942380652, -9.7897625  , 0.0002876426, -0.000598475046, 0.0003057182, 0.009615918 , -0.009411442, -6.944159E-05, 919.055359  , 32.77119    , 815.4824    , 2.89        , 3           , 255         , 0           , 0
-0.100382164, -0.09752889 , -9.796745   , -0.000168188271, 0.000198068243, 0.000405227678, 0.00961419847, -0.0094095  , -6.53703755E-05, 919.055359  , 32.77119    , 815.481445  , 2.9         , 3           , 255         , 0           , 0
-0.09911089 , -0.08603524 , -9.799326   , 5.998969E-06, -0.000112105554, -0.0002071512, 0.00961178  , -0.009420491, -6.742909E-05, 919.055359  , 32.77119    , 815.4874    , 2.91        , 3           , 255         , 0           , 0
-0.09463008 , -0.09104882 , -9.799738   , 0.000131033768, -0.000123132588, -0.000224279822, 0.009613112 , -0.0094217  , -6.968366E-05, 919.055359  , 32.77119    , 815.48645   , 2.92        , 3           , 255         , 0           , 0
-0.08593767 , -0.09497155 , -9.795607   , -0.0001467815, -0.000199771937, -3.54737567E-05, 0.009611647 , -0.009423694, -7.00576E-05, 919.022461  , 32.7690849  , 815.485535  , 2.93        , 3           , 255         , 0           , 0
-0.09091375 , -0.08634089 , -9.791896   , -0.0002919939, -7.68231E-05, -0.000313958357, 0.009608758 , -0.009424432, -7.320448E-05, 919.022461  , 32.7690849  , 815.4846    , 2.94        , 3           , 255         , 0           , 0
-0.094862   , -0.08042936 , -9.793955   , 1.336477E-06, -0.000452953856, -3.05662E-05, 0.009608774 , -0.009428958, -7.355366E-05, 919.022461  , 32.7690849  , 815.4837    , 2.95        , 3           , 255         , 0           , 0
-0.09138204 , -0.09683624 , -9.795168   , -0.000110388908, -0.0003094846, -0.000297945255, 0.0096077   , -0.009432025, -7.656277E-05, 919.022461  , 32.7690849  , 815.4828    , 2.96        , 3           , 255         , 0           , 0
-0.08930089 , -0.0909648538, -9.801962   , -0.000348509173, -0.000149178159, 0.000315557671, 0.009604184 , -0.009433547, -7.342161E-05, 919.022461  , 32.7690849  , 815.4819    , 2.97        , 3           , 255         , 0           , 0
-0.09995217 , -0.08699547 , -9.79392    , -1.89805E-05, -0.00010524258, 0.000136038274, 0.009603982 , -0.00943461247, -7.20713651E-05, 919.022461  , 32.7690849  , 815.480957  , 2.98        , 3           , 255         , 0           , 0
-0.10293901 , -0.0820236355, -9.790706   , 0.000295026985, -0.000603010238, 0.000443906581, 0.009606891 , -0.009440685, -6.769034E-05, 919.022461  , 32.7690849  , 815.480042  , 2.99        , 3           , 255         , 0           , 0
-0.09865917 , -0.07966654 , -9.79595    , 0.0005156821, 6.421346E-05, 6.414065E-05, 0.009612042 , -0.009440048, -6.704277E-05, 919.022461  , 32.7690849  , 815.4791    , 3           , 3           , 0           , 8.437237    , 300
-0.09049769 , -0.09452467 , -9.797954   , 0.0002515117, -7.343886E-06, 0.000565056631, 0.009602694 , -0.009444498, -6.128151E-05, 919.022461  , 32.7690849  , 815.5319    , 3.01        , 3           , 1           , 0           , 0
-0.09519504 , -0.09702855 , -9.81127    , 0.000528051634, -9.140925E-05, 6.810415E-05, 0.009607969 , -0.009445419, -6.06092763E-05, 919.022461  , 32.7690849  , 815.5313    , 3.02        , 3           , 2           , 0           , 0
-0.103249371, -0.101296782, -9.791767   , -0.00026171346, -0.0002600581, 3.60481463E-05, 0.009605348 , -0.009448023, -6.02737855E-05, 919.064453  , 32.7694931  , 815.5307    , 3.03        , 3           , 3           , 0           , 0
-0.08967113 , -0.09893498 , -9.795196   , -3.78325349E-05, -0.000367201166, -0.00062483 , 0.00960503  , -0.009451634, -6.655719E-05, 919.064453  , 32.7694931  , 815.5301    , 3.04        , 3           , 4           , 0           , 0
-0.09128627 , -0.0914873853, -9.793095   , -0.000292040582, 0.0003043731, -0.0009337985, 0.009602196 , -0.009448501, -7.586568E-05, 919.064453  , 32.7694931  , 815.5295    , 3.05        , 3           , 5           , 0           , 0
-0.101197019, -0.09953894 , -9.795874   , -0.0003060641, -0.000233898, 0.0003857157, 0.009599098 , -0.009450876, -7.20310854E-05, 919.064453  , 32.7694931  , 815.528931  , 3.06        , 3           , 6           , 0           , 0
-0.098988764, -0.109028362, -9.799021   , -0.000289134041, -0.000138240517, 0.000600684434, 0.009596151 , -0.009452315, -6.603767E-05, 919.064453  , 32.7694931  , 815.5284    , 3.07        , 3           , 7           , 0           , 0
-0.09270324 , -0.09880573 , -9.796099   , -0.000151510525, 0.00037518522, 0.000328052032, 0.009594604 , -0.009448595, -6.272123E-05, 919.064453  , 32.7694931  , 815.527832  , 3.08        , 3           , 8           , 5           , 5
-0.0919210762, -0.09243058 , -9.786871   , -0.000905877037, 0.00059316284, 0.000209594218, 0.009585526 , -0.009442684, -6.05684545E-05, 919.064453  , 32.7694931  , 815.5273    , 3.09        , 3           , 9           , 5           , 0.1
-0.102739215, -0.0949674845, -9.787313   , 0.000178573973, 0.000296491984, -0.000123864622, 0.009587322 , -0.009439708, -6.177864E-05, 919.064453  , 32.7694931  , 815.526733  , 3.1         , 3           , 10          , 0.1         , 0.1
-0.09218879 , -0.09305612 , -9.790011   , 0.0007647866, 0.000326331356, -5.245914E-05, 0.009601655 , -0.00944212 , -6.23350061E-05, 919.064453  , 32.7694931  , 815.513855  , 3.11        , 3           , 11          , 0.00765595166, 0.00765595
-0.09559244 , -0.0995075  , -9.799494   , 0.0006361357, -2.34810868E-05, -0.000382281083, 0.009608053 , -0.009442317, -6.615996E-05, 919.064453  , 32.7694931  , 815.5132    , 3.12        , 3           , 12          , 0.174645633 , 0
-0.09480508 , -0.09120701 , -9.795353   , 0.000371049566, 0.000590909 , -0.000123844569, 0.009611772 , -0.009436396, -6.734159E-05, 919.058     , 32.76956    , 815.5125    , 3.13        , 3           , 13          , 0           , 0
-0.09699902 , -0.08808443 , -9.7875185  , -2.90786556E-05, 0.000423948339, -2.45704614E-05, 0.009611485 , -0.009432154, -6.754654E-05, 919.058     , 32.76956    , 815.511841  , 3.14        , 3           , 14          , -0.000448740582, -0.000184624616
-0.101770565, -0.08783603 , -9.792764   , 0.0004241453, 0.000143161247, 0.000583724 , 0.009615671 , -0.009430779, -6.169569E-05, 919.058     , 32.76956    , 815.511169  , 3.15        , 3           , 15          , 0           , 9.077373E-06
-0.101253532, -0.07746466 , -9.792353   , 0.000216895161, 0.000383200473, 0.000411392044, 0.0096178   , -0.009426987, -5.754503E-05, 919.058     , 32.76956    , 815.510559  , 3.16        , 3           , 16          , 0           , 1.401298E-45
-0.103069618, -0.0826762244, -9.798548   , 6.123443E-05, -0.0004748637, 0.0002094437, 0.009618392 , -0.009431755, -5.549631E-05, 919.058     , 32.76956    , 815.509949  , 3.17        , 3           , 20          , 0           , 0
-0.0879668  , -0.09199534 , -9.788794   , 3.18013481E-05, 0.00012308493, -0.000630961731, 0.00961876847, -0.009430463, -6.179392E-05, 919.058     , 32.76956    , 815.509338  , 3.18        , 3           , 21          , 0           , 0
-0.09451766 , -0.09210602 , -9.792028   , 0.000217194553, 0.00057555153, -0.0001312999, 0.009620953 , -0.009424697, -6.305153E-05, 919.058     , 32.76956    , 815.5087    , 3.19        , 3           , 22          , 0           , 0
-0.09400922 , -0.09319145 , -9.797087   , -4.20953438E-05, 0.000244815252, -0.0001014098, 0.009620541 , -0.009422238, -6.404204E-05, 919.058     , 32.76956    , 815.5081    , 3.2         , 3           , 40          , 0           , 0
-0.0938831642, -0.0928348154, -9.798666   , 0.000342289 , -0.000133348338, -0.0009559228, 0.009615056 , -0.009431267, -7.352897E-05, 919.058     , 32.76956    , 815.5072    , 3.21        , 3           , 41          , 0           , 0
-0.08766883 , -0.09003117 , -9.803283   , -6.982262E-05, -0.000147066457, 1.66020254E-05, 0.009614356 , -0.009432739, -7.33771E-05, 919.058     , 32.76956    , 815.5066    , 3.22        , 3           , 42          , 0           , 0
-0.0812241361, -0.0907613263, -9.798024   , 0.000454917521, 0.0003323162, 0.0007360937, 0.009618834 , -0.00942948647, -6.59844E-05, 919.0471    , 32.77207    , 815.506     , 3.23        , 3           , 255         , 0           , 0
-0.08171602 , -0.101881526, -9.795909   , 0.000300416083, 0.000314864941, 0.000470391649, 0.009621794 , -0.009426384, -6.125032E-05, 919.0471    , 32.77207    , 815.5054    , 3.24        , 3           , 255         , 0           , 0
-0.09653399 , -0.08873718 , -9.795028   , 0.000486070174, 0.000243382 , 0.000261660229, 0.009626631 , -0.009423974, -5.86103633E-05, 919.0471    , 32.77207    , 815.504761  , 3.25        , 3           , 255         , 0           , 0
-0.09461479 , -0.07972787 , -9.791577   , -9.267757E-05, -0.000261454465, 0.000244917755, 0.009625682 , -0.00942661148, -5.61864181E-05, 919.0471    , 32.77207    , 815.50415   , 3.26        , 3           , 255         , 0           , 0
-0.09286843 , -0.0912639946, -9.793945   , 0.000166222191, -0.000401698519, 0.000194746666, 0.009627325 , -0.009430647, -5.42776725E-05, 919.0471    , 32.77207    , 815.50354   , 3.27        , 3           , 255         , 0           , 0
-0.09691153 , -0.0815790445, -9.796125   , 0.000281120127, -0.000241966452, -0.000316475285, 0.009630165 , -0.009433037, -5.74656369E-05, 919.0471    , 32.77207    , 815.5029    , 3.28        , 3           , 255         , 0           , 0
-0.0961844549, -0.0798150748, -9.794954   , -0.000218658388, -6.664288E-05, -0.00101322588, 0.009628074 , -0.009433603, -6.760403E-05, 919.0471    , 32.77207    , 815.5023    , 3.29        , 3           , 255         , 0           , 0
-0.101713419, -0.0898836  , -9.800089   , 0.000475016132, -0.000146650069, -0.000481750438, 0.00963287  , -0.009435023, -7.243553E-05, 919.0471    , 32.77207    , 815.5017    , 3.3         , 3           , 255         , 0           , 0
-0.09444864 , -0.08621391 , -9.800695   , 0.000275165366, -8.047676E-05, -0.000297016522, 0.009626563 , -0.009435787, -7.53276254E-05, 919.0471    , 32.77207    , 815.5173    , 3.31        , 3           , 255         , 0           , 0
-0.101256266, -0.1010596  , -9.797549   , -0.000269588025, -0.000509797, 0.0001453667, 0.009623853 , -0.0094409  , -7.39230745E-05, 919.0471    , 32.77207    , 815.5168    , 3.32        , 3           , 255         , 0           , 0
-0.09578473 , -0.09256903 , -9.79336548 , -0.000434112852, 2.93720223E-06, 0.0004428469, 0.00961947  , -0.009440913, -6.949445E-05, 919.067261  , 32.7713928  , 815.5163    , 3.33        , 3           , 255         , 0           , 0
-0.08560306 , -0.0994466245, -9.788834   , 0.0003247769, 0.0002278091, -0.000351873721, 0.009622752 , -0.0094386  , -7.299116E-05, 919.067261  , 32.7713928  , 815.5158    , 3.34        , 3           , 255         , 0           , 0
-0.08422103 , -0.0954401344, -9.793028   , 0.000537544431, 0.000276954583, -0.0004943681, 0.009628174 , -0.009435783, -7.790805E-05, 919.067261  , 32.7713928  , 815.5153    , 3.35        , 3           , 255         , 0           , 0
-0.0853163  , -0.09126433 , -9.79926    , 0.000251135381, 0.000165336081, 0.000240776659, 0.00963066053, -0.009434153, -7.548443E-05, 919.067261  , 32.7713928  , 815.514832  , 3.36        , 3           , 255         , 0           , 0
-0.0911614  , -0.103820242, -9.797358   , -0.000429584878, 9.617742E-05, 0.00016066042, 0.009626351 , -0.009433207, -7.386861E-05, 919.067261  , 32.7713928  , 815.514343  , 3.37        , 3           , 255         , 0           , 0
-0.0822767243, -0.1010087  , -9.804527   , -0.000136113085, -0.000488516, 0.000222534465, 0.00962497  , -0.009438113, -7.169036E-05, 919.067261  , 32.7713928  , 815.513855  , 3.38        , 3           , 255         , 0           , 0
-0.07575081 , -0.09083792 , -9.79460049 , -0.000256114348, -0.000303812383, 0.000175964989, 0.009622392 , -0.009441169, -6.996E-05  , 919.067261  , 32.7713928  , 815.513367  , 3.39        , 3           , 255         , 0           , 0
-0.09375881 , -0.0935678  , -9.78607    , 0.000588345458, 0.0003968161, -0.0005827539, 0.009628332 , -0.009437144, -7.574919E-05, 919.067261  , 32.7713928  , 815.5129    , 3.4         , 3           , 255         , 0           , 0
-0.102258816, -0.09758699 , -9.796462   , -0.000220910646, 2.71160243E-05, -0.000472648651, 0.00962826  , -0.009430883, -8.049267E-05, 919.067261  , 32.7713928  , 815.498169  , 3.41        , 3           , 255         , 0           , 0
-0.106055617, -0.100299038, -9.79891    , -0.000110489316, 0.000207219724, 0.000279271015, 0.009627128 , -0.009428838, -7.768009E-05, 919.067261  , 32.7713928  , 815.497559  , 3.42        , 3           , 255         , 0           , 0
-0.09300654 , -0.09917255 , -9.798552   , -0.000171164807, 0.000296013721, 0.000220263173, 0.009625396 , -0.0094259  , -7.544901E-05, 919.0502    , 32.7697639  , 815.497     , 3.43        , 3           , 255         , 0           , 0
-0.0939106047, -0.09936499 , -9.795855   , 0.0004246869, -2.04034732E-05, 0.000328862923, 0.009629611 , -0.009426136, -7.216244E-05, 919.0502    , 32.7697639  , 815.49646   , 3.44        , 3           , 255         , 0           , 0
-0.0910790041, -0.09280883 , -9.792189   , 0.000115629111, 0.000174925386, -0.0004102446, 0.009630805 , -0.0094243465, -7.62479249E-05, 919.0502    , 32.7697639  , 815.4959    , 3.45        , 3           , 255         , 0           , 0
-0.08849465 , -0.08487569 , -9.798086   , -0.000166135433, -0.000434104761, 0.000667659449, 0.009629081 , -0.009428752, -6.96133138E-05, 919.0502    , 32.7697639  , 815.495361  , 3.46        , 3           , 255         , 0           , 0
-0.0934453756, -0.0902817  , -9.801597   , -0.0003051741, 3.19319952E-05, 0.0005815125, 0.009625975 , -0.009428488, -6.379527E-05, 919.0502    , 32.7697639  , 815.4948    , 3.47        , 3           , 255         , 0           , 0
-0.094725   , -0.09266373 , -9.800819   , 8.158112E-05, -0.0002616278, -2.99167732E-05, 0.009626795 , -0.009431101, -6.411962E-05, 919.0502    , 32.7697639  , 815.494263  , 3.48        , 3           , 255         , 0           , 0
-0.08082374 , -0.0927045643, -9.801821   , 0.000302004 , -0.000178522809, -0.000156581838, 0.009629829 , -0.009432872, -6.570259E-05, 919.0502    , 32.7697639  , 815.4937    , 3.49        , 3           , 255         , 0           , 0
-0.08414157 , -0.09375365 , -9.790665   , 0.00027206933, -0.000164777011, 8.53112142E-05, 0.009632542 , -0.009434529, -6.48653659E-05, 919.0502    , 32.7697639  , 815.493164  , 3.5         , 3           , 255         , 0           , 0
-0.07927579 , -0.09489494 , -9.785049   , -0.0005834577, 2.75189814E-06, 0.0008277445, 0.009626622 , -0.009435244, -5.65878036E-05, 919.0502    , 32.7697639  , 815.506042  , 3.51        , 3           , 255         , 0           , 0
-0.0837378651, -0.090181306, -9.792164   , -0.00010013103, -0.000174740067, -0.000119243581, 0.009625633 , -0.00943698 , -5.779703E-05, 919.0502    , 32.7697639  , 815.505554  , 3.52        , 3           , 255         , 0           , 0
-0.08807756 , -0.08713316 , -9.802701   , -0.000218286761, 0.000126741535, -0.0003419861, 0.00962348  , -0.009435683, -6.1204606E-05, 919.045     , 32.77051    , 815.505066  , 3.53        , 3           , 255         , 0           , 0
-0.0955266654, -0.104179755, -9.796251   , -0.000214007683, 0.000518301153, -0.000660829362, 0.0096214   , -0.009430435, -6.776285E-05, 919.045     , 32.77051    , 815.5046    , 3.54        , 3           , 255         , 0           , 0
-0.100403294, -0.0959473848, -9.797504   , 0.000106044696, -0.000166940124, -0.000557486841, 0.009622514 , -0.009432051, -7.335363E-05, 919.045     , 32.77051    , 815.5041    , 3.55        , 3           , 255         , 0           , 0
-0.09792393 , -0.08812888 , -9.79324    , -0.000322514272, 5.799839E-05, -0.0009421566, 0.009619377 , -0.009431382, -8.276935E-05, 919.045     , 32.77051    , 815.5036    , 3.56        , 3           , 255         , 0           , 0
-0.08886979 , -0.0973541  , -9.786554   , -0.000529582, 0.000251681835, 0.00011931581, 0.009614071 , -0.009428876, -8.155203E-05, 919.045     , 32.77051    , 815.5031    , 3.57        , 3           , 255         , 0           , 0
-0.08703033 , -0.09454611 , -9.786367   , -0.000331195537, 4.69669176E-05, -0.000425664155, 0.009610799 , -0.009428366, -8.58040439E-05, 919.045     , 32.77051    , 815.5026    , 3.58        , 3           , 255         , 0           , 0
-0.0904566348, -0.09729647 , -9.796863   , 0.000123776292, -0.000249626319, 0.000173832042, 0.00961202  , -0.009430879, -8.40897555E-05, 919.045     , 32.77051    , 815.502136  , 3.59        , 3           , 255         , 0           , 0
-0.104521468, -0.08899322 , -9.800452   , 0.0006763089, -0.000151750835, -0.0005141838, 0.009618831 , -0.009432345, -8.924604E-05, 919.045     , 32.77051    , 815.501648  , 3.6         , 3           , 255         , 0           , 0
-0.09609473 , -0.09123926 , -9.798229   , 0.000106751191, -0.000552175334, 0.000113296308, 0.009619193 , -0.009436401, -8.81596643E-05, 919.045     , 32.77051    , 815.5205    , 3.61        , 3           , 255         , 0           , 0
-0.09137286 , -0.0873706341, -9.797341   , 0.0003942074, -0.0005003129, -0.000685140549, 0.009623202 , -0.00944133848, -9.505902E-05, 919.045     , 32.77051    , 815.520142  , 3.62        , 3           , 255         , 0           , 0
-0.09219189 , -0.09907614 , -9.799835   , 0.000405651284, -0.00011244604, -0.000255023275, 0.009627282 , -0.009442437, -9.76199954E-05, 919.027161  , 32.77241    , 815.519836  , 3.63        , 3           , 255         , 0           , 0
-0.09388272 , -0.09801658 , -9.791858   , -1.28223328E-05, 0.000289313029, -9.320796E-05, 0.00962716248, -0.009439536, -9.85242E-05, 919.027161  , 32.77241    , 815.519531  , 3.64        , 3           , 255         , 0           , 0
-0.08766491 , -0.09848352 , -9.788102   , -0.00060563616, 0.0006689876, -0.000147886778, 0.009621117 , -0.009432831, -9.993864E-05, 919.027161  , 32.77241    , 815.5192    , 3.65        , 3           , 255         , 0           , 0
-0.0942195  , -0.09387412 , -9.799559   , -0.000102817168, 9.843582E-05, 0.000741794 , 0.009620019 , -0.009431918, -9.251142E-05, 919.027161  , 32.77241    , 815.5189    , 3.66        , 3           , 255         , 0           , 0
-0.09699468 , -0.08573101 , -9.792884   , 0.000130313536, 5.883019E-06, 0.0004943446, 0.009621276 , -0.009431906, -8.756755E-05, 919.027161  , 32.77241    , 815.5186    , 3.67        , 3           , 255         , 0           , 0
-0.0998778939, -0.08680952 , -9.79392    , -0.000248024153, -0.000501579838, 0.00101612345, 0.0096187   , -0.009437019, -7.745482E-05, 919.027161  , 32.77241    , 815.5183    , 3.68        , 3           , 255         , 0           , 0
-0.096884124, -0.09777025 , -9.79536152 , 0.0007745279, 0.000126176223, 0.0007794985, 0.009626372 , -0.0094358325, -6.96479E-05, 919.027161  , 32.77241    , 815.518     , 3.69        , 3           , 255         , 0           , 0
-0.0963649  , -0.0915653855, -9.802317   , -5.79653133E-05, 0.000237284636, 0.0008607291, 0.009625711 , -0.009433542, -6.1018E-05 , 919.027161  , 32.77241    , 815.5177    , 3.7         , 3           , 255         , 0           , 0
-0.09043349 , -0.0983992  , -9.802736   , 0.000150777923, 0.000271492521, 5.182473E-05, 0.009625183 , -0.00943419151, -6.045448E-05, 919.027161  , 32.77241    , 815.5599    , 3.71        , 3           , 255         , 0           , 0
-0.0883074254, -0.09730706 , -9.799693   , 0.000121220975, 0.000463613833, 0.000247596239, 0.009626373 , -0.00942958 , -5.79339576E-05, 919.027161  , 32.77241    , 815.5598    , 3.72        , 3           , 255         , 0           , 0
-0.09415944 , -0.09668084 , -9.790776   , -8.18845E-06, 1.36999151E-05, 0.000765046861, 0.009626218 , -0.009429516, -5.0282375E-05, 919.0381    , 32.7682037  , 815.559753  , 3.73        , 3           , 255         , 0           , 0
-0.09729211 , -0.09186025 , -9.786428   , 0.000378608558, -0.000223102441, -0.0002861168, 0.009630029 , -0.00943172 , -5.31649421E-05, 919.0381    , 32.7682037  , 815.5597    , 3.74        , 3           , 255         , 0           , 0
-0.09018881 , -0.08476089 , -9.791616   , 0.000227855751, -0.000199747432, -0.000219174908, 0.00963232853, -0.009433696, -5.53758655E-05, 919.0381    , 32.7682037  , 815.559631  , 3.75        , 3           , 255         , 0           , 0
-0.09522701 , -0.0958996639, -9.808963   , 0.000192802749, -3.894398E-06, 0.0005955757, 0.00963420048, -0.009433792, -4.9420647E-05, 919.0381    , 32.7682037  , 815.5596    , 3.76        , 3           , 255         , 0           , 0
-0.087942645, -0.09803052 , -9.8177     , 0.000149369385, -0.0003992658, -0.000182353426, 0.009635711 , -0.009437767, -5.12826E-05, 919.0381    , 32.7682037  , 815.5595    , 3.77        , 3           , 255         , 0           , 0
-0.095548436, -0.09707928 , -9.79631    , 0.0001952418, 6.077638E-05, -5.731034E-05, 0.00963767  , -0.009437151, -5.18498164E-05, 919.0381    , 32.7682037  , 815.559448  , 3.78        , 3           , 255         , 0           , 0
-0.09204598 , -0.08968526 , -9.784283   , 6.51743E-05 , 0.000512583 , 0.000152830762, 0.009638306 , -0.00943204 , -5.027215E-05, 919.0381    , 32.7682037  , 815.5594    , 3.79        , 3           , 255         , 0           , 0
-0.0962973461, -0.09303819 , -9.782737   , 0.0005358795, 0.000259466615, -0.000457487971, 0.00964370649, -0.009429402, -5.482189E-05, 919.0381    , 32.7682037  , 815.5593    , 3.8         , 3           , 255         , 0           , 0
-0.09309964 , -0.09866823 , -9.791006   , -7.222759E-05, 4.81199822E-05, 0.0002902301, 0.009642835 , -0.00942946 , -5.191387E-05, 919.0381    , 32.7682037  , 815.5802    , 3.81        , 3           , 255         , 0           , 0
-0.09571704 , -0.0991779  , -9.797207   , 1.77040638E-05, 2.91863689E-05, -0.0003798005, 0.009643047 , -0.009429132, -5.570896E-05, 919.0381    , 32.7682037  , 815.5803    , 3.82        , 3           , 255         , 0           , 0
-0.08973433 , -0.0966086462, -9.805336   , -0.0003312479, 0.000828448334, -0.0005099584, 0.009639781 , -0.0094208  , -6.07285219E-05, 919.0688    , 32.7726135  , 815.580444  , 3.83        , 3           , 255         , 0           , 0
-0.09393881 , -0.09948678 , -9.799776   , -0.000365127664, 0.0004367078, -0.0007555927, 0.009636202 , -0.00941635948, -6.824215E-05, 919.0688    , 32.7726135  , 815.580566  , 3.84        , 3           , 255         , 0           , 0
-0.0915061  , -0.09316004 , -9.784552   , -0.0005552814, -0.00019918321, -0.000148040708, 0.009630662 , -0.009418338, -6.974172E-05, 919.0688    , 32.7726135  , 815.5807    , 3.85        , 3           , 255         , 0           , 0
-0.08934641 , -0.08242925 , -9.803858   , 8.93934339E-05, -0.000184597913, -0.000169820676, 0.009631573 , -0.009420167, -7.145765E-05, 919.0688    , 32.7726135  , 815.5808    , 3.86        , 3           , 255         , 0           , 0
-0.09603136 , -0.09204729 , -9.80282    , 0.000356781326, -0.00039723076, 0.000339767255, 0.00963511  , -0.009424172, -6.809834E-05, 919.0688    , 32.7726135  , 815.580933  , 3.87        , 3           , 255         , 0           , 0
-0.09282559 , -0.09099012 , -9.791604   , 0.000283196743, 6.57754863E-05, 0.00012881482, 0.0096379295, -0.009423526, -6.680388E-05, 919.0688    , 32.7726135  , 815.581055  , 3.88        , 3           , 255         , 0           , 0
-0.09456354 , -0.09853001 , -9.804194   , 0.000181191921, -0.000143785262, -0.000785346143, 0.009639815 , -0.00942488853, -7.4671E-05 , 919.0688    , 32.7726135  , 815.5812    , 3.89        , 3           , 255         , 0           , 0
-0.09153722 , -0.08573822 , -9.79587    , -0.000315439916, -0.000158480718, -0.000501384435, 0.009636708 , -0.009426425, -7.969998E-05, 919.0688    , 32.7726135  , 815.5813    , 3.9         , 3           , 255         , 0           , 0
-0.09925419 , -0.08200548 , -9.788913   , 6.550999E-05, -4.7834852E-05, 0.0006401865, 0.009636324 , -0.00942774 , -7.329367E-05, 919.0688    , 32.7726135  , 815.555237  , 3.91        , 3           , 255         , 0           , 0
-0.0988992  , -0.0878249854, -9.79671    , 0.000377937045, 6.710547E-05, -0.000256021944, 0.009640127 , -0.009427045, -7.584735E-05, 919.0688    , 32.7726135  , 815.5552    , 3.92        , 3           , 255         , 0           , 0
-0.08570161 , -0.088091746, -9.79667    , 0.000186137564, -0.000261248817, -0.000240258523, 0.00964201149, -0.009429634, -7.827506E-05, 919.0186    , 32.77051    , 815.5551    , 3.93        , 3           , 255         , 0           , 0
-0.0980474353, -0.09386006 , -9.799085   , -0.000155980524, 0.000143236641, 0.000164495214, 0.009640437 , -0.009428218, -7.661634E-05, 919.0186    , 32.77051    , 815.555054  , 3.94        , 3           , 255         , 0           , 0
-0.08881135 , -0.09940277 , -9.79336    , -0.0004375502, 0.0005234829, -0.000111293957, 0.009636071 , -0.009422973, -7.767881E-05, 919.0186    , 32.77051    , 815.555     , 3.95        , 3           , 255         , 0           , 0
-0.09098052 , -0.0987221152, -9.790975   , -0.00013237074, 0.00064274366, -0.000384421728, 0.009634783 , -0.009416508, -8.146099E-05, 919.0186    , 32.77051    , 815.554932  , 3.96        , 3           , 255         , 0           , 0
-0.08712578 , -0.09562169 , -9.787578   , -3.384886E-05, 0.000138632953, -0.0003064584, 0.009634473 , -0.009415092, -8.451214E-05, 919.0186    , 32.77051    , 815.5549    , 3.97        , 3           , 255         , 0           , 0
-0.09136933 , -0.09625774 , -9.804977   , 6.5137574E-05, 0.0002746633, -0.000143080237, 0.009635137 , -0.009412332, -8.591643E-05, 919.0186    , 32.77051    , 815.5548    , 3.98        , 3           , 255         , 0           , 0
-0.0883883238, -0.0836473852, -9.807505   , 0.000362872146, 0.000308270275, -0.0005931158, 0.009638822 , -0.009409194, -9.181772E-05, 919.0186    , 32.77051    , 815.554749  , 3.99        , 3           , 255         , 0           , 0
-0.08899324 , -0.09318706 , -9.80572    , -0.000384061364, 4.862956E-05, -0.0008917349, 0.009635064 , -0.009408621, -0.000100730133, 919.0186    , 32.77051    , 815.554749  , 4           , 3           , 0           , 9.437237    , 400
-0.09067516 , -0.0932500139, -9.794327   , 0.00014757365, -0.000193310741, -0.0006084994, 0.009632949 , -0.009409659, -0.000106799249, 919.0186    , 32.77051    , 815.6039    , 4.01        , 3           , 1           , 0           , 0
-0.08890982 , -0.08858681 , -9.801252   , 0.0003161615, -5.086801E-05, 0.000383419072, 0.009636074 , -0.009410204, -0.000102970065, 919.0186    , 32.77051    , 815.6042    , 4.02        , 3           , 2           , 0           , 0
-0.09801751 , -0.08275349 , -9.777509   , 0.0002420598, 0.000219031 , -0.0003084556, 0.009638526 , -0.009407984, -0.000106033425, 919.037048  , 32.77241    , 815.6045    , 4.03        , 3           , 3           , 0           , 0
-0.08941582 , -0.09567634 , -9.789095   , 0.000282167981, 0.0001557092, 0.000452133536, 0.009641305 , -0.009406471, -0.000101497208, 919.037048  , 32.77241    , 815.6048    , 4.04        , 3           , 4           , 0           , 0
-0.0981192961, -0.09499311 , -9.790745   , 0.0004927547, -8.534566E-05, -0.000152618784, 0.009646245 , -0.009407308, -0.000103031583, 919.037048  , 32.77241    , 815.6051    , 4.05        , 3           , 5           , 0           , 0
-0.105227545, -0.09495588 , -9.793848   , -0.000130173576, 0.000194759778, 0.000173291468, 0.00964492653, -0.009405377, -0.000101279926, 919.037048  , 32.77241    , 815.6054    , 4.06        , 3           , 6           , 0           , 0
-0.109060742, -0.0936392248, -9.80281    , -0.000269711076, 0.0001894524, -0.000210706974, 0.00964225  , -0.009403463, -0.000103368671, 919.037048  , 32.77241    , 815.6057    , 4.07        , 3           , 7           , 0           , 0
-0.0965912342, -0.08806707 , -9.795509   , -0.000212276878, -0.000156683454, -9.333922E-05, 0.009640137 , -0.009405021, -0.000104317143, 919.037048  , 32.77241    , 815.606     , 4.08        , 3           , 8           , 5           , 5
-0.0945576653, -0.09061717 , -9.792919   , 7.110229E-05, 4.4725035E-05, -0.000612912059, 0.009640905 , -0.009404514, -0.00011044179, 919.037048  , 32.77241    , 815.6063    , 4.09        , 3           , 9           , 5           , 0.1
-0.10066855 , -0.0949213654, -9.799359   , 0.00016212053, 0.000265761279, 0.000137304334, 0.00964251347, -0.00940187 , -0.000109043162, 919.037048  , 32.77241    , 815.6066    , 4.1         , 3           , 10          , 0.1         , 0.1
-0.102197252, -0.09716715 , -9.801572   , -0.000175722846, 0.000232845778, 0.000294589961, 0.009636038 , -0.0094082  , -0.00010603077, 919.037048  , 32.77241    , 815.6221    , 4.11        , 3           , 11          , 0.00710050343, 0.0071005
-0.08024689 , -0.09130847 , -9.793791   , 0.000208830577, 0.000175529873, 0.000493807835, 0.009638079 , -0.009406493, -0.0001010759, 919.037048  , 32.77241    , 815.622437  , 4.12        , 3           , 12          , 0.174648076 , 0
