Acc X       , Acc Y       , Acc Z       , Gyro X      , Gyro Y      , Gyro Z      , Euler X     , Euler Y     , Euler Z     , Pres X      , Pres Y      , Pres Z      , Time        , Status      , LowRate X   , LowRate Y   , LowRate Z    
-0.1640277  , 0.08761946  , 9.787927    , 0           , 0           , 0           , -3.132641   , -0.0167559274, -1.49214315 , 918.7389    , 31.3148937  , 818.387146  , 0           , 2           , 0           , 5.01323175  , 0
-0.171872929, 0.0850817859, 9.801603    , 0.0006487365, -0.000168535276, -0.000532169535, -3.13263464 , -0.0167546086, -1.49213791 , 918.7389    , 31.3148937  , 818.387146  , 0.01        , 7           , 1           , 0           , 0
-0.1681201  , 0.09030801  , 9.801735    , 0.000436556234, -0.0001617508, 0.0003247871, -3.13263    , -0.016752962, -1.49214113 , 918.7389    , 31.3148937  , 818.387146  , 0.02        , 7           , 2           , 0           , 0
-0.171841159, 0.08700025  , 9.799749    , 0.000194994369, 0.000530232035, 0.0008485302, -3.1326282  , -0.0167581849, -1.49214959 , 918.7241    , 30.8875561  , 818.387146  , 0.03        , 7           , 3           , 0           , 0
-0.169863135, 0.09002148  , 9.795866    , 0.000379489444, -0.0006481564, 0.00017924032, -3.13262439 , -0.01675169 , -1.4921515  , 918.7241    , 30.8875561  , 818.387146  , 0.04        , 7           , 4           , 0           , 0
-0.171264976, 0.08919075  , 9.79258     , 0.0007001821, -0.0005047895, -0.000459292554, -3.13261747 , -0.0167466812, -1.49214673 , 918.7241    , 30.8875561  , 818.387146  , 0.05        , 7           , 5           , 0           , 0
-0.159990072, 0.094171524 , 9.797764    , -1.5046302E-05, 0.000378513883, -5.02380426E-05, -3.13261747 , -0.0167504717, -1.49214625 , 918.7241    , 30.8875561  , 818.387146  , 0.06        , 7           , 6           , 0           , 0
-0.159108549, 0.08755086  , 9.799811    , -0.000152550143, 0.000178787566, -0.000132226472, -3.13261914 , -0.016752271, -1.492145   , 918.7241    , 30.8875561  , 818.387146  , 0.07        , 7           , 7           , 0           , 0
-0.162636355, 0.0871912539, 9.801325    , -1.04644278E-05, -0.000153764035, 2.604963E-05, -3.13261914 , -0.0167507324, -1.49214518 , 918.7241    , 30.8875561  , 818.387146  , 0.08        , 7           , 8           , 5           , 5
-0.15106225 , 0.08373003  , 9.790715    , 7.98662659E-05, -0.000131803827, -0.000242232651, -3.13261843 , -0.0167494342, -1.49214268 , 918.7241    , 30.8875561  , 818.387146  , 0.09        , 7           , 9           , 5           , 0.1
-0.1555937  , 0.08235004  , 9.79962349  , 0.000231799524, -0.000132332352, -0.0003021306, -3.132616   , -0.0167481378, -1.4921397  , 918.7241    , 30.8875561  , 818.387146  , 0.1         , 7           , 10          , 0.1         , 0.1
-0.162401408, 0.08245917  , 9.797803    , 0.000325632456, -9.655676E-05, 0.0005949174, -3.13261366 , -0.0167471524, -1.49214566 , 918.7241    , 30.8875561  , 818.5221    , 0.11        , 7           , 11          , 0.0109544508, 0.0109544508
-0.158055469, 0.0946923   , 9.798449    , -0.000173139444, 1.31675624E-05, 0.000286362134, -3.13261533 , -0.0167472586, -1.49214852 , 918.7241    , 30.8875561  , 818.5221    , 0.12        , 7           , 12          , 0.0346410163, 0
-0.159863368, 0.0905488   , 9.788225    , -0.000322654785, -2.69796E-05, -0.0003371577, -3.13261843 , -0.01674702 , -1.49214518 , 918.7135    , 30.9262257  , 818.5221    , 0.13        , 7           , 13          , 0           , 0
-0.165455714, 0.08292596  , 9.795488    , 0.000379981182, -0.000223688781, -0.0004721868, -3.13261485 , -0.016744826, -1.49214041 , 918.7135    , 30.9262257  , 818.5221    , 0.14        , 7           , 14          , -0.000304637651, 0.000494206266
-0.168863833, 0.08588536  , 9.800873    , 0.000183030177, 0.000508675643, -0.0004145903, -3.132613   , -0.01674995 , -1.49213624 , 918.7135    , 30.9262257  , 818.522156  , 0.15        , 7           , 15          , 0           , 0.000240614187
-0.164668277, 0.07996657  , 9.797709    , 0.000761064934, 0.0004098866, 0.000595422753, -3.13260531 , -0.0167539939, -1.4921422  , 918.7135    , 30.9262257  , 818.5222    , 0.16        , 7           , 16          , 0           , 1.401298E-45
-0.153249338, 0.08530196  , 9.79353     , 0.000357312034, -8.366912E-05, 0.000586108945, -3.13260174 , -0.0167531054, -1.49214816 , 918.7135    , 30.9262257  , 818.5223    , 0.17        , 7           , 20          , 0           , 0
-0.15963909 , 0.09755282  , 9.78993     , 0.0003003155, -0.000223045266, 7.308532E-05, -3.13259864 , -0.01675087 , -1.49214888 , 918.7135    , 30.9262257  , 818.522339  , 0.18        , 7           , 21          , 0           , 0
-0.1573017  , 0.0861716941, 9.793597    , 0.0005782073, 0.000236380321, 0.000463144039, -3.132593   , -0.0167531911, -1.49215353 , 918.7135    , 30.9262257  , 818.5224    , 0.19        , 7           , 22          , 0           , 0
-0.152755067, 0.0924439058, 9.791685    , -0.000490253267, 0.000154794776, 0.0005386266, -3.13259768 , -0.01675469 , -1.49215889 , 918.7135    , 30.9262257  , 818.522461  , 0.2         , 7           , 40          , 0           , 0
-0.146396711, 0.08960835  , 9.799263    , -0.000277419778, -0.000165928854, -0.0005920485, -3.132601   , -0.0167396888, -1.49215293 , 918.7135    , 30.9262257  , 818.570068  , 0.21        , 7           , 41          , 0           , 0
-0.150776669, 0.09474273  , 9.795364    , 0.0004092801, -0.00039894873, -0.0002990227, -3.132597   , -0.0167357251, -1.49215    , 918.7135    , 30.9262257  , 818.5701    , 0.22        , 7           , 42          , 1           , 0
-0.150330335, 0.0906366557, 9.794741    , 0.000443861471, 0.000155536749, 2.63785041E-05, -3.13259244 , -0.0167372786, -1.49215043 , 918.6846    , 30.9492931  , 818.5702    , 0.23        , 7           , 255         , 0           , 0
-0.150367692, 0.09531908  , 9.795476    , 3.337211E-05, 8.851639E-06, -2.07176781E-05, -3.1325922  , -0.01673737 , -1.49215019 , 918.6846    , 30.9492931  , 818.570251  , 0.24        , 7           , 255         , 0           , 0
-0.150159732, 0.09960835  , 9.79764     , 4.654276E-05, -5.599021E-05, -0.00040200213, -3.13259172 , -0.0167368464, -1.49214613 , 918.6846    , 30.9492931  , 818.5703    , 0.25        , 7           , 255         , 0           , 0
-0.164248541, 0.07973212  , 9.794512    , 4.64055047E-05, 0.000304140325, -0.000146986567, -3.13259149 , -0.0167399  , -1.49214482 , 918.6846    , 30.9492931  , 818.5704    , 0.26        , 7           , 255         , 0           , 0
-0.155983612, 0.09059908  , 9.801222    , 0.0003227693, 0.000198108784, 0.000451683532, -3.13258815 , -0.01674184 , -1.49214935 , 918.6846    , 30.9492931  , 818.570435  , 0.27        , 7           , 255         , 0           , 0
-0.153710589, 0.09791218  , 9.789581    , 0.0001085337, -0.000309121184, 0.0001470131, -3.132587   , -0.0167387351, -1.49215078 , 918.6846    , 30.9492931  , 818.5705    , 0.28        , 7           , 255         , 0           , 0
-0.157709017, 0.09027623  , 9.794964    , 0.000396225019, -0.000113677408, 0.0008770805, -3.132583   , -0.01673752 , -1.49215961 , 918.6846    , 30.9492931  , 818.570557  , 0.29        , 7           , 255         , 0           , 0
-0.165617347, 0.07736537  , 9.796815    , -0.000300186948, -0.000193383486, -0.0005446123, -3.132586   , -0.0167356357, -1.49215412 , 918.6846    , 30.9492931  , 818.5706    , 0.3         , 7           , 255         , 0           , 0
-0.1728268  , 0.0846772   , 9.799153    , -1.09206885E-05, -0.0004784906, 9.397729E-06, -3.13257837 , -0.0167010631, -1.49215436 , 918.6846    , 30.9492931  , 818.674255  , 0.31        , 7           , 255         , 0           , 0
-0.175132841, 0.0838771   , 9.798542    , -0.000235964311, 0.000236619613, -0.000133845635, -3.13258076 , -0.016703438, -1.492153   , 918.6846    , 30.9492931  , 818.6743    , 0.32        , 7           , 255         , 0           , 0
-0.176455349, 0.08328111  , 9.789793    , 7.668183E-05, 0.0002631172, 0.000677458 , -3.13258    , -0.0167060066, -1.49215984 , 918.7561    , 30.9669323  , 818.6744    , 0.33        , 7           , 255         , 0           , 0
-0.17366603 , 0.08281818  , 9.790175    , -7.152802E-05, -0.000221959112, 0.000715301954, -3.13258052 , -0.0167037267, -1.492167   , 918.7561    , 30.9669323  , 818.674438  , 0.34        , 7           , 255         , 0           , 0
-0.17298235 , 0.0766190141, 9.794973    , 0.000470761879, 7.621449E-05, 0.000199035378, -3.13257575 , -0.0167044662, -1.492169   , 918.7561    , 30.9669323  , 818.6745    , 0.35        , 7           , 255         , 0           , 0
-0.183451325, 0.07664997  , 9.79336548  , 0.0001655549, -0.000295001519, 0.00017448423, -3.132574   , -0.0167015  , -1.49217081 , 918.7561    , 30.9669323  , 818.674561  , 0.36        , 7           , 255         , 0           , 0
-0.174246565, 0.07966524  , 9.79541     , 1.31532433E-05, -0.000395064824, 0.000260654837, -3.13257384 , -0.0166975316, -1.49217343 , 918.7561    , 30.9669323  , 818.6746    , 0.37        , 7           , 255         , 0           , 0
-0.175419018, 0.08529787  , 9.80334     , 0.000130768443, 0.000213707332, -9.53718E-06, -3.13257265 , -0.016699668, -1.49217319 , 918.7561    , 30.9669323  , 818.6747    , 0.38        , 7           , 255         , 0           , 0
-0.179463908, 0.0811418742, 9.798028    , -3.070454E-06, 0.000346477958, 0.0005031058, -3.13257265 , -0.0167030878, -1.49217832 , 918.7561    , 30.9669323  , 818.674744  , 0.39        , 7           , 255         , 0           , 0
-0.176393226, 0.08115752  , 9.792       , 7.172603E-05, 0.000243081013, 0.0005702846, -3.1325717  , -0.0167054646, -1.49218392 , 918.7561    , 30.9669323  , 818.6748    , 0.4         , 7           , 255         , 0           , 0
-0.162166938, 0.08568259  , 9.802974    , 7.216526E-05, 7.27016E-05 , 1.03259663E-05, -3.132592   , -0.0167444162, -1.49218369 , 918.7561    , 30.9669323  , 818.5625    , 0.41        , 7           , 255         , 0           , 0
-0.15930815 , 0.08843579  , 9.794407    , 8.01229762E-05, 0.000156226219, -0.0005453414, -3.13259125 , -0.0167460311, -1.4921782  , 918.7561    , 30.9669323  , 818.562561  , 0.42        , 7           , 255         , 0           , 0
-0.159646556, 0.07912992  , 9.791247    , 0.000124164188, 5.24080242E-05, -0.00033231714, -3.13259    , -0.0167465843, -1.492175   , 918.680359  , 30.97799    , 818.5626    , 0.43        , 7           , 255         , 0           , 0
-0.1605728  , 0.0879521   , 9.794055    , -0.000481514435, 0.000111719011, -0.000198088761, -3.132595   , -0.0167477168, -1.492173   , 918.680359  , 30.97799    , 818.5627    , 0.44        , 7           , 255         , 0           , 0
-0.158967987, 0.09246327  , 9.797368    , -0.000360994367, 5.22122718E-05, -0.00015259246, -3.13259864 , -0.0167482533, -1.49217141 , 918.680359  , 30.97799    , 818.562744  , 0.45        , 7           , 255         , 0           , 0
-0.160747483, 0.08299731  , 9.790199    , 0.000440064265, -0.000314762641, 0.000523177267, -3.132594   , -0.0167450588, -1.49217665 , 918.680359  , 30.97799    , 818.5628    , 0.46        , 7           , 255         , 0           , 0
-0.164404958, 0.09748305  , 9.79445648  , 0.0003469822, -0.000258240849, 0.0004132336, -3.13259053 , -0.01674244 , -1.49218082 , 918.680359  , 30.97799    , 818.562866  , 0.47        , 7           , 255         , 0           , 0
-0.146747068, 0.09192561  , 9.793267    , 8.129689E-06, 0.000210706436, -0.0004415698, -3.13259053 , -0.0167445876, -1.49217653 , 918.680359  , 30.97799    , 818.5629    , 0.48        , 7           , 255         , 0           , 0
-0.153786421, 0.07950266  , 9.793315    , 0.0002452497, 0.000140445365, 0.00114037667, -3.132588   , -0.0167458877, -1.492188   , 918.680359  , 30.97799    , 818.563     , 0.49        , 7           , 255         , 0           , 0
-0.160695285, 0.08251991  , 9.7962      , 0.00028803217, 9.47378E-05 , 0.000161187709, -3.132585   , -0.0167468227, -1.49218953 , 918.680359  , 30.97799    , 818.5631    , 0.5         , 7           , 255         , 0           , 0
-0.165711433, 0.08953394  , 9.790932    , 0.0004756456, -9.864679E-05, 0.000240468755, -3.13258433 , -0.0167287644, -1.492192   , 918.680359  , 30.97799    , 818.6359    , 0.51        , 7           , 255         , 0           , 0
-0.162958115, 0.08448058  , 9.790988    , -0.0001878071, 0.000147727551, -0.000145680824, -3.13258624 , -0.0167302582, -1.4921906  , 918.680359  , 30.97799    , 818.636047  , 0.52        , 7           , 255         , 0           , 0
-0.165459841, 0.0871313   , 9.80207348  , -0.0002529218, -8.397779E-05, 0.000767727965, -3.13258862 , -0.0167293474, -1.49219835 , 918.7024    , 30.9847736  , 818.636169  , 0.53        , 7           , 255         , 0           , 0
-0.173758432, 0.09870659  , 9.80067     , -0.000292134151, 9.658281E-06, 0.00037081528, -3.13259149 , -0.01672941 , -1.49220192 , 918.7024    , 30.9847736  , 818.6363    , 0.54        , 7           , 255         , 0           , 0
-0.161987513, 0.0800584   , 9.799395    , 0.000404786057, 0.000570547651, 0.000222921066, -3.13258743 , -0.0167350955, -1.49220431 , 918.7024    , 30.9847736  , 818.6364    , 0.55        , 7           , 255         , 0           , 0
-0.1626284  , 0.0721687451, 9.794417    , 0.0002789696, 0.000385403167, -0.000346864923, -3.13258481 , -0.01673898 , -1.49220085 , 918.7024    , 30.9847736  , 818.636536  , 0.56        , 7           , 255         , 0           , 0
-0.171445   , 0.09212643  , 9.810518    , -0.000181588024, 0.000479414361, -0.000171777734, -3.13258672 , -0.0167437866, -1.49219906 , 918.7024    , 30.9847736  , 818.636658  , 0.57        , 7           , 255         , 0           , 0
-0.157029957, 0.09574702  , 9.792391    , -9.25766362E-05, 0.0001624971, -0.0001006837, -3.13258743 , -0.0167454183, -1.49219811 , 918.7024    , 30.9847736  , 818.6368    , 0.58        , 7           , 255         , 0           , 0
-0.159671515, 0.0844148248, 9.79711151  , -0.000130482658, -0.000164496072, 0.000403292943, -3.13258886 , -0.01674374 , -1.492202   , 918.7024    , 30.9847736  , 818.6369    , 0.59        , 7           , 255         , 0           , 0
-0.165686756, 0.08033393  , 9.79933     , 0.00026257534, -0.00041914577, 0.000908022863, -3.132586   , -0.0167394672, -1.49221122 , 918.7024    , 30.9847736  , 818.637     , 0.6         , 7           , 255         , 0           , 0
-0.1571453  , 0.09511846  , 9.790735    , 8.370684E-05, 0.000132877089, -5.58108732E-05, -3.13258982 , -0.0167425238, -1.49221063 , 918.7024    , 30.9847736  , 818.651367  , 0.61        , 7           , 255         , 0           , 0
-0.151798934, 0.08870564  , 9.801876    , -0.000182562042, 7.807603E-05, -0.000175021036, -3.13259149 , -0.016743321, -1.49220884 , 918.7024    , 30.9847736  , 818.6515    , 0.62        , 7           , 255         , 0           , 0
-0.16199401 , 0.09046911  , 9.79856     , 0.0003878998, 0.000254296756, -1.97437039E-05, -3.13258767 , -0.0167458653, -1.49220872 , 918.7144    , 30.9914913  , 818.6516    , 0.63        , 7           , 255         , 0           , 0
-0.160213917, 0.09086467  , 9.796867    , -2.46411364E-05, 0.000274545921, 8.67184E-05 , -3.132588   , -0.0167486  , -1.49220967 , 918.7144    , 30.9914913  , 818.651733  , 0.64        , 7           , 255         , 0           , 0
-0.153228521, 0.0866378546, 9.794665    , 8.920269E-05, -0.000254964456, 0.0004152769, -3.132587   , -0.0167460162, -1.49221385 , 918.7144    , 30.9914913  , 818.651855  , 0.65        , 7           , 255         , 0           , 0
-0.147030026, 0.08986905  , 9.798764    , 0.0003596755, -0.0003572786, -0.0001636642, -3.13258338 , -0.0167424567, -1.49221218 , 918.7144    , 30.9914913  , 818.652     , 0.66        , 7           , 255         , 0           , 0
-0.156016558, 0.09494068  , 9.796158    , 0.000106403269, 0.000118438795, -0.000374408031, -3.13258243 , -0.0167436749, -1.49220848 , 918.7144    , 30.9914913  , 818.6521    , 0.67        , 7           , 255         , 0           , 0
-0.16045031 , 0.09275255  , 9.791799    , -0.00059778057, -4.10976354E-05, 0.000239354311, -3.13258839 , -0.0167432427, -1.492211   , 918.7144    , 30.9914913  , 818.6522    , 0.68        , 7           , 255         , 0           , 0
-0.160316229, 0.07818472  , 9.798402    , -0.000514662068, 7.353735E-05, 0.000158541734, -3.13259339 , -0.0167439636, -1.49221253 , 918.7144    , 30.9914913  , 818.652344  , 0.69        , 7           , 255         , 0           , 0
-0.154465228, 0.08490126  , 9.79788     , -0.00107668992, 0.0005317597, -0.000246877084, -3.13260436 , -0.0167493038, -1.49221015 , 918.7144    , 30.9914913  , 818.652466  , 0.7         , 7           , 255         , 0           , 0
-0.165029928, 0.0786569044, 9.801573    , -0.0007269813, -5.0630013E-05, -0.000238937428, -3.132609   , -0.0167276058, -1.49220765 , 918.7144    , 30.9914913  , 818.6462    , 0.71        , 7           , 255         , 0           , 0
-0.159734309, 0.07985258  , 9.801004    , 3.81690043E-05, 0.0001982213, 0.0002962303, -3.13260841 , -0.0167295616, -1.49221063 , 918.7144    , 30.9914913  , 818.646362  , 0.72        , 7           , 255         , 0           , 0
-0.1558586  , 0.09054786  , 9.799141    , 2.43445975E-05, -0.000134042435, 0.0003334614, -3.13260818 , -0.01672819 , -1.492214   , 918.7269    , 30.9971886  , 818.646545  , 0.73        , 7           , 255         , 0           , 0
-0.163237169, 0.09438396  , 9.792608    , -0.000512906641, -0.000932711235, 0.000178242408, -3.13261318 , -0.0167188477, -1.49221563 , 918.7269    , 30.9971886  , 818.6467    , 0.74        , 7           , 255         , 0           , 0
-0.167677432, 0.09705354  , 9.793981    , -0.000536971551, -0.000358371763, 6.863086E-05, -3.13261843 , -0.0167152584, -1.49221623 , 918.7269    , 30.9971886  , 818.6469    , 0.75        , 7           , 255         , 0           , 0
-0.165930822, 0.0880441442, 9.792155    , -0.00034263893, 6.226386E-05, 0.0003796963, -3.132622   , -0.01671585 , -1.49222    , 918.7269    , 30.9971886  , 818.6471    , 0.76        , 7           , 255         , 0           , 0
-0.1645406  , 0.08535458  , 9.79012     , 0.0003083396, 0.000212481187, -0.0006128911, -3.132619   , -0.0167180281, -1.492214   , 918.7269    , 30.9971886  , 818.6473    , 0.77        , 7           , 255         , 0           , 0
-0.16619727 , 0.08128594  , 9.788463    , 0.000123471065, -0.000279753818, -0.000209018675, -3.13261771 , -0.01671525 , -1.49221182 , 918.7269    , 30.9971886  , 818.647461  , 0.78        , 7           , 255         , 0           , 0
-0.176652879, 0.08972243  , 9.79371     , 0.000101079859, 0.00046806637, -8.308834E-05, -3.13261676 , -0.0167199355, -1.492211   , 918.7269    , 30.9971886  , 818.647644  , 0.79        , 7           , 255         , 0           , 0
-0.180202886, 0.08771223  , 9.793472    , 0.000235521089, 0.0005173288, -8.319759E-05, -3.13261437 , -0.0167251173, -1.49221015 , 918.7269    , 30.9971886  , 818.6478    , 0.8         , 7           , 255         , 0           , 0
-0.169517592, 0.08373215  , 9.799215    , -0.000234271429, 0.000265543058, -0.0003844573, -3.13261867 , -0.0167358723, -1.49220622 , 918.7269    , 30.9971886  , 818.6271    , 0.81        , 7           , 255         , 0           , 0
-0.17211321 , 0.07629437  , 9.808163    , 0.000361480459, 0.000221188937, -0.0002592468, -3.132615   , -0.0167381074, -1.49220371 , 918.7269    , 30.9971886  , 818.6272    , 0.82        , 7           , 255         , 0           , 0
-0.16986163 , 0.08546795  , 9.795691    , -0.000620738138, -0.000277632556, -0.000769777631, -3.13262153 , -0.0167354  , -1.49219584 , 918.674255  , 30.9958324  , 818.6274    , 0.83        , 7           , 255         , 0           , 0
-0.1653578  , 0.08418525  , 9.79772     , -0.000133533409, 9.902351E-05, -0.000288662821, -3.132623   , -0.016736418, -1.492193   , 918.674255  , 30.9958324  , 818.627563  , 0.84        , 7           , 255         , 0           , 0
-0.173741251, 0.07672702  , 9.796294    , 0.000468130631, -0.000161213917, 0.000275563274, -3.13261819 , -0.01673478 , -1.49219584 , 918.674255  , 30.9958324  , 818.627747  , 0.85        , 7           , 255         , 0           , 0
-0.170143083, 0.08822246  , 9.802628    , 0.000112557012, -3.18127E-05, -0.000293721765, -3.132617   , -0.01673449 , -1.49219286 , 918.674255  , 30.9958324  , 818.6279    , 0.86        , 7           , 255         , 0           , 0
-0.172498181, 0.0873050839, 9.804712    , -0.000273507932, -0.000141091092, 0.0005088751, -3.13261962 , -0.0167330336, -1.49219787 , 918.674255  , 30.9958324  , 818.6281    , 0.87        , 7           , 255         , 0           , 0
-0.175008386, 0.07905116  , 9.795412    , -8.03053554E-05, -8.82430759E-05, 0.000526271644, -3.13262033 , -0.0167321023, -1.49220312 , 918.674255  , 30.9958324  , 818.6283    , 0.88        , 7           , 255         , 0           , 0
-0.172389165, 0.0870446339, 9.796127    , -1.37862226E-05, -0.000439521915, 0.00028465857, -3.13262057 , -0.0167276841, -1.492206   , 918.674255  , 30.9958324  , 818.6285    , 0.89        , 7           , 255         , 0           , 0
-0.163456813, 0.098245576 , 9.794661    , -0.0004530759, -4.41058364E-05, -0.000362207938, -3.132625   , -0.0167272761, -1.4922024  , 918.674255  , 30.9958324  , 818.628662  , 0.9         , 7           , 255         , 0           , 0
-0.1675577  , 0.09797563  , 9.797457    , -0.000393095019, 0.000229604368, -3.29571776E-05, -3.13263655 , -0.0167439114, -1.49220181 , 918.674255  , 30.9958324  , 818.673     , 0.91        , 7           , 255         , 0           , 0
-0.169145465, 0.09025395  , 9.800491    , -1.35658192E-05, -1.31439883E-05, -0.000705823535, -3.13263679 , -0.01674384 , -1.49219477 , 918.674255  , 30.9958324  , 818.6732    , 0.92        , 7           , 255         , 0           , 0
-0.158126637, 0.08933829  , 9.798809    , -0.000456465641, -9.203554E-05, -0.0007844523, -3.13264132 , -0.0167429931, -1.4921869  , 918.6796    , 31.0007858  , 818.673462  , 0.93        , 7           , 255         , 0           , 0
-0.158168435, 0.09290713  , 9.790029    , -0.0004437613, -0.000281068758, 0.0004954834, -3.13264585 , -0.0167401358, -1.49219179 , 918.6796    , 31.0007858  , 818.6737    , 0.94        , 7           , 255         , 0           , 0
-0.16412273 , 0.09024995  , 9.787064    , -8.45398754E-05, 7.725955E-05, -0.000422248675, -3.13264656 , -0.0167409461, -1.49218762 , 918.6796    , 31.0007858  , 818.67395   , 0.95        , 7           , 255         , 0           , 0
-0.15121536 , 0.086414434 , 9.804453    , -0.000251052261, 0.000129018154, -0.0005455838, -3.13264918 , -0.0167422853, -1.49218214 , 918.6796    , 31.0007858  , 818.6742    , 0.96        , 7           , 255         , 0           , 0
-0.148889929, 0.07340594  , 9.795464    , -0.0003050287, -0.000144264253, -0.000116502619, -3.13265228 , -0.016740853, -1.49218082 , 918.6796    , 31.0007858  , 818.674438  , 0.97        , 7           , 255         , 0           , 0
-0.158887938, 0.0842061   , 9.790718    , -0.000391722075, 7.987075E-05, -0.000453530054, -3.13265634 , -0.016741693, -1.49217629 , 918.6796    , 31.0007858  , 818.6747    , 0.98        , 7           , 255         , 0           , 0
-0.166676909, 0.0968342647, 9.79264     , -0.0001415587, 0.0004915244, 0.00010868485, -3.13265777 , -0.0167466  , -1.49217737 , 918.6796    , 31.0007858  , 818.6749    , 0.99        , 7           , 255         , 0           , 0
-0.154983044, 0.0903771743, 9.792374    , -0.00023122679, 0.000118486292, 0.000333356 , -3.13266    , -0.01674775 , -1.49218071 , 918.6796    , 31.0007858  , 818.6752    , 1           , 7           , 0           , 6.01323652  , 100
-0.153261736, 0.08570796  , 9.803638    , -0.0004543622, 0.000486916979, -6.020935E-05, -3.13266015 , -0.0167410243, -1.49218023 , 918.6796    , 31.0007858  , 818.705566  , 1.01        , 7           , 1           , 0           , 0
-0.161979645, 0.0936128646, 9.797396    , 0.0003599763, 0.00025729998, -0.00038219057, -3.13265657 , -0.0167436283, -1.49217641 , 918.6796    , 31.0007858  , 818.7059    , 1.02        , 7           , 2           , 0           , 0
-0.161295637, 0.0907924846, 9.7953825   , 0.000332284 , -0.000152661058, 0.000196664871, -3.13265324 , -0.016742086, -1.49217832 , 918.7209    , 31.0051937  , 818.7062    , 1.03        , 7           , 3           , 0           , 0
-0.165012   , 0.0846935958, 9.794822    , 0.000470259343, -0.00023480918, -0.000529097335, -3.13264871 , -0.0167397857, -1.49217308 , 918.7209    , 31.0051937  , 818.7065    , 1.04        , 7           , 4           , 0           , 0
-0.164916545, 0.0901542   , 9.796784    , 0.000104359337, -0.0001976944, -8.42025038E-05, -3.13264775 , -0.0167378169, -1.49217224 , 918.7209    , 31.0051937  , 818.7068    , 1.05        , 7           , 5           , 0           , 0
-0.174147218, 0.09104712  , 9.792442    , -0.00016283826, 5.9513608E-05, -0.0005082578, -3.13264942 , -0.0167384557, -1.49216723 , 918.7209    , 31.0051937  , 818.7071    , 1.06        , 7           , 6           , 0           , 0
-0.169503376, 0.08347322  , 9.789869    , -0.000455183384, 0.0004235928, -0.000166835656, -3.132654   , -0.0167427063, -1.49216557 , 918.7209    , 31.0051937  , 818.7074    , 1.07        , 7           , 7           , 0           , 0
-0.161608309, 0.08313156  , 9.787879    , -0.000188233971, -0.000115780887, 0.00056736  , -3.13265586 , -0.0167414956, -1.49217117 , 918.7209    , 31.0051937  , 818.7077    , 1.08        , 7           , 8           , 5           , 5
-0.1674135  , 0.08609065  , 9.801111    , 0.000300721469, 0.000244457216, 0.000572375662, -3.13265276 , -0.01674389 , -1.49217689 , 918.7209    , 31.0051937  , 818.708     , 1.09        , 7           , 9           , 5           , 0.1
-0.169089481, 0.07628124  , 9.79816     , -0.000208685815, 0.000155477319, 0.000429982843, -3.13265467 , -0.0167454053, -1.49218118 , 918.7209    , 31.0051937  , 818.7083    , 1.1         , 7           , 10          , 0.1         , 0.1
-0.167571351, 0.0879007056, 9.797715    , -7.13550253E-06, 2.96403887E-05, 0.000696104835, -3.13265753 , -0.01674777 , -1.49218822 , 918.7209    , 31.0051937  , 818.6906    , 1.11        , 7           , 11          , 0.009485794 , 0.009485795
-0.177784353, 0.08546696  , 9.80147     , 8.435415E-05, 0.0006001437, -0.0006340058, -3.13265681 , -0.0167538263, -1.49218178 , 918.7209    , 31.0051937  , 818.6909    , 1.12        , 7           , 12          , 0.0346428268, 0
-0.179613173, 0.08145808  , 9.797862    , 0.000263346941, 0.000113423506, 0.000160058364, -3.13265419 , -0.0167549457, -1.49218345 , 918.7327    , 31.0019379  , 818.6912    , 1.13        , 7           , 13          , 0           , 0
-0.180512756, 0.07949406  , 9.794535    , 0.0003120799, -0.000259890279, 8.007024E-05, -3.13265085 , -0.01675234 , -1.49218428 , 918.7327    , 31.0019379  , 818.6915    , 1.14        , 7           , 14          , -0.0003046213, 0.0004942138
-0.177310511, 0.0835803   , 9.797322    , 0.000348730478, 0.0002912747, 0.0009957408, -3.13264728 , -0.0167551637, -1.49219429 , 918.7327    , 31.0019379  , 818.691833  , 1.15        , 7           , 15          , 0           , 0.00024061439
-0.1765203  , 0.08678468  , 9.794204    , -0.0002382198, -0.000103570346, 0.000541658548, -3.13264966 , -0.0167540833, -1.49219978 , 918.7327    , 31.0019379  , 818.692139  , 1.16        , 7           , 16          , 0           , 1.401298E-45
-0.16842255 , 0.0765599   , 9.789778    , -0.000223986688, 0.000299687323, 0.000214030748, -3.13265181 , -0.0167570617, -1.49220181 , 918.7327    , 31.0019379  , 818.692444  , 1.17        , 7           , 20          , 0           , 0
-0.158729225, 0.08093004  , 9.801729    , 0.000460199837, 0.000250580837, -0.000222440387, -3.13264728 , -0.0167595837, -1.49219954 , 918.7327    , 31.0019379  , 818.692749  , 1.18        , 7           , 21          , 0           , 0
-0.1635913  , 0.09453567  , 9.799781    , 0.0009781369, 0.000339172431, 0.0005113882, -3.13263726 , -0.016762929, -1.49220467 , 918.7327    , 31.0019379  , 818.693054  , 1.19        , 7           , 22          , 0           , 0
-0.157950327, 0.0823418349, 9.793722    , 0.0003746556, -8.413047E-05, -0.0002185108, -3.13263369 , -0.01676211 , -1.49220252 , 918.7327    , 31.0019379  , 818.693359  , 1.2         , 7           , 40          , 0           , 0
-0.14875564 , 0.07977302  , 9.79072     , -0.000208346581, -4.4228218E-05, -0.000641218852, -3.13264465 , -0.016777236, -1.492196   , 918.7327    , 31.0019379  , 818.6652    , 1.21        , 7           , 41          , 0           , 0
-0.14945057 , 0.0886626244, 9.796891    , 5.71930723E-05, 0.000427157618, -0.0004912288, -3.132644   , -0.016781548, -1.49219108 , 918.7327    , 31.0019379  , 818.665466  , 1.22        , 7           , 42          , 1           , 0
-0.152900428, 0.08763109  , 9.799739    , 0.0002364171, 0.0008066202, 0.000108516571, -3.13264155 , -0.016789604, -1.49219227 , 918.7059    , 31.0050583  , 818.6657    , 1.23        , 7           , 255         , 0           , 0
-0.150713056, 0.08788239  , 9.804882    , -0.0006526147, 0.0005559408, 4.78114234E-05, -3.13264823 , -0.0167951584, -1.49219286 , 918.7059    , 31.0050583  , 818.665955  , 1.24        , 7           , 255         , 0           , 0
-0.14596951 , 0.0978613645, 9.808086    , 0.0001278928, 0.000337837555, 5.26356453E-05, -3.1326468  , -0.01679853 , -1.49219346 , 918.7059    , 31.0050583  , 818.6662    , 1.25        , 7           , 255         , 0           , 0
-0.151235789, 0.08160621  , 9.810408    , 0.000507973833, -0.000265995332, -0.00071011117, -3.132642   , -0.0167959351, -1.49218631 , 918.7059    , 31.0050583  , 818.666443  , 1.26        , 7           , 255         , 0           , 0
-0.149069622, 0.08408167  , 9.792291    , 0.000432997826, -0.000481539115, 0.00048908894, -3.1326375  , -0.0167910773, -1.49219131 , 918.7059    , 31.0050583  , 818.6667    , 1.27        , 7           , 255         , 0           , 0
-0.154776692, 0.09418218  , 9.786269    , 0.000183170909, 0.000315385172, -0.000153570567, -3.13263559 , -0.0167942457, -1.49218965 , 918.7059    , 31.0050583  , 818.666931  , 1.28        , 7           , 255         , 0           , 0
-0.162139729, 0.08474101  , 9.791246    , 0.0005070042, 0.0001788885, -6.6782E-05 , -3.13263059 , -0.0167960376, -1.492189   , 918.7059    , 31.0050583  , 818.6672    , 1.29        , 7           , 255         , 0           , 0
-0.164787531, 0.0841511562, 9.787779    , -0.000121312973, 0.00100757077, 0.0005675857, -3.13263178 , -0.0168060642, -1.49219477 , 918.7059    , 31.0050583  , 818.6674    , 1.3         , 7           , 255         , 0           , 0
-0.173007563, 0.0893177763, 9.802023    , -0.000111953268, 0.000359401922, 0.000184089236, -3.13263416 , -0.0167827867, -1.49219656 , 918.7059    , 31.0050583  , 818.67      , 1.31        , 7           , 255         , 0           , 0
-0.172677085, 0.0915378556, 9.815796    , 7.037884E-05, 9.780377E-05, -0.000452853739, -3.13263369 , -0.0167838056, -1.492192   , 918.7059    , 31.0050583  , 818.6702    , 1.32        , 7           , 255         , 0           , 0
-0.173384443, 0.08231954  , 9.806265    , 6.44173E-05 , -0.000399023062, 0.00034374863, -3.132633   , -0.0167797823, -1.49219549 , 918.6886    , 31.0063477  , 818.6705    , 1.33        , 7           , 255         , 0           , 0
-0.176101878, 0.08125849  , 9.797091    , 0.000157226576, -0.0003781632, 0.00012699471, -3.1326313  , -0.01677599 , -1.49219668 , 918.6886    , 31.0063477  , 818.6707    , 1.34        , 7           , 255         , 0           , 0
-0.166796029, 0.08222038  , 9.79456     , 0.000228900739, -0.00060544326, -0.000140292279, -3.132629   , -0.0167699512, -1.49219537 , 918.6886    , 31.0063477  , 818.670959  , 1.35        , 7           , 255         , 0           , 0
-0.172313571, 0.077381745 , 9.794954    , -0.000355844968, 0.000258423621, 8.062899E-05, -3.13263249 , -0.0167725272, -1.49219608 , 918.6886    , 31.0063477  , 818.6712    , 1.36        , 7           , 255         , 0           , 0
-0.176646546, 0.08620783  , 9.803197    , -0.0003527369, 0.000204984972, 0.000372207054, -3.132636   , -0.0167745426, -1.49219978 , 918.6886    , 31.0063477  , 818.671448  , 1.37        , 7           , 255         , 0           , 0
-0.170398369, 0.08989023  , 9.804917    , 0.000215397609, -0.000155716552, 0.000189178449, -3.132634   , -0.0167729687, -1.49220169 , 918.6886    , 31.0063477  , 818.6717    , 1.38        , 7           , 255         , 0           , 0
-0.158576921, 0.08369299  , 9.796141    , -2.597968E-05, 0.0001407137, -0.000233117637, -3.13263416 , -0.0167743973, -1.49219954 , 918.6886    , 31.0063477  , 818.671936  , 1.39        , 7           , 255         , 0           , 0
-0.164764151, 0.080022186 , 9.788996    , -0.000390368, 0.000285096874, 0.000368798123, -3.132638   , -0.0167772155, -1.49220324 , 918.6886    , 31.0063477  , 818.6722    , 1.4         , 7           , 255         , 0           , 0
-0.166031569, 0.09015038  , 9.789354    , 0.000175291789, -0.000166631886, 0.000354935561, -3.13264275 , -0.0167868976, -1.49220669 , 918.6886    , 31.0063477  , 818.692261  , 1.41        , 7           , 255         , 0           , 0
-0.167637035, 0.09188543  , 9.794378    , -0.000196978071, 0.000178001879, 0.00019750814, -3.13264465 , -0.01678866 , -1.4922086  , 918.6886    , 31.0063477  , 818.6926    , 1.42        , 7           , 255         , 0           , 0
-0.162164271, 0.08789137  , 9.804445    , 0.000355665456, 7.287157E-05, -0.0004894946, -3.132641   , -0.0167894326, -1.49220371 , 918.6989    , 31.0087223  , 818.693     , 1.43        , 7           , 255         , 0           , 0
-0.161321491, 0.0900049   , 9.807366    , 0.000734185567, -0.00019721032, 0.0003027638, -3.13263369 , -0.016787434, -1.49220681 , 918.6989    , 31.0087223  , 818.693359  , 1.44        , 7           , 255         , 0           , 0
-0.153225347, 0.0848699659, 9.795648    , 0.0005619326, 9.657594E-05, 4.84537159E-05, -3.1326282  , -0.0167883951, -1.49220729 , 918.6989    , 31.0087223  , 818.6937    , 1.45        , 7           , 255         , 0           , 0
-0.15104337 , 0.07479514  , 9.796809    , 0.000285591028, 0.000314698846, -0.0002836848, -3.13262534 , -0.01679157 , -1.49220443 , 918.6989    , 31.0087223  , 818.6941    , 1.46        , 7           , 255         , 0           , 0
-0.1574964  , 0.0821497   , 9.79686     , 1.85941462E-06, 0.0003167832, 0.0006067256, -3.132625   , -0.01679468 , -1.49221051 , 918.6989    , 31.0087223  , 818.694458  , 1.47        , 7           , 255         , 0           , 0
-0.168927312, 0.09367717  , 9.799105    , 0.000482465461, 0.000268729345, -0.000227721321, -3.13262033 , -0.016797388, -1.49220836 , 918.6989    , 31.0087223  , 818.6948    , 1.48        , 7           , 255         , 0           , 0
-0.157079279, 0.0946849   , 9.802347    , 0.000400708057, -2.51552556E-05, 0.00012407641, -3.13261628 , -0.0167971253, -1.49220955 , 918.6989    , 31.0087223  , 818.6952    , 1.49        , 7           , 255         , 0           , 0
-0.160324216, 0.09142352  , 9.804987    , 0.0002981676, -0.000183720287, 0.000177938666, -3.13261342 , -0.016795272, -1.49221134 , 918.6989    , 31.0087223  , 818.695557  , 1.5         , 7           , 255         , 0           , 0
-0.1647706  , 0.0974191055, 9.789403    , 0.000241796311, -6.822392E-05, -3.27203452E-05, -3.13261032 , -0.01678672 , -1.4922111  , 918.6989    , 31.0087223  , 818.702637  , 1.51        , 7           , 255         , 0           , 0
-0.172233954, 0.0888760462, 9.791559    , -1.9851228E-05, 9.259826E-05, 9.71099944E-05, -3.13261056 , -0.0167876389, -1.49221218 , 918.6989    , 31.0087223  , 818.703064  , 1.52        , 7           , 255         , 0           , 0
-0.154324353, 0.080318734 , 9.793913    , -0.000106126361, 0.000283289468, -0.0003143141, -3.13261151 , -0.016790498, -1.49220908 , 918.7726    , 31.00818    , 818.7035    , 1.53        , 7           , 255         , 0           , 0
-0.156704262, 0.08124614  , 9.79381     , -0.000284534384, 0.000108765147, -0.000779798836, -3.13261461 , -0.0167916585, -1.49220133 , 918.7726    , 31.00818    , 818.7039    , 1.54        , 7           , 255         , 0           , 0
-0.173755676, 0.0854563   , 9.79949     , -0.000151015265, -1.15197327E-05, -0.00024656867, -3.132616   , -0.0167915653, -1.49219871 , 918.7726    , 31.00818    , 818.704346  , 1.55        , 7           , 255         , 0           , 0
-0.16186972 , 0.08207581  , 9.794752    , 0.0003255952, -1.11956324E-05, -0.000322634529, -3.132613   , -0.0167914815, -1.49219561 , 918.7726    , 31.00818    , 818.7048    , 1.56        , 7           , 255         , 0           , 0
-0.161173388, 0.08705382  , 9.814141    , 8.461512E-05, 3.29727773E-05, 6.29837159E-05, -3.132612   , -0.0167918056, -1.49219632 , 918.7726    , 31.00818    , 818.7052    , 1.57        , 7           , 255         , 0           , 0
-0.166616246, 0.09558521  , 9.794401    , -3.53809155E-05, 3.62685532E-05, -1.94496533E-05, -3.13261247 , -0.01679217 , -1.49219608 , 918.7726    , 31.00818    , 818.7056    , 1.58        , 7           , 255         , 0           , 0
-0.168712765, 0.0815701857, 9.793561    , 0.000525621348, 9.94117E-06 , -0.000400721619, -3.13260722 , -0.0167923048, -1.492192   , 918.7726    , 31.00818    , 818.706055  , 1.59        , 7           , 255         , 0           , 0
-0.161008388, 0.08875763  , 9.790918    , 0.00094010937, 6.996258E-05, -0.000416356284, -3.132598   , -0.0167930424, -1.49218786 , 918.7726    , 31.00818    , 818.7065    , 1.6         , 7           , 255         , 0           , 0
-0.1659904  , 0.08514882  , 9.790106    , 0.0008935349, 0.000486819539, 0.000301370776, -3.13259149 , -0.0167969819, -1.49219084 , 918.7726    , 31.00818    , 818.633     , 1.61        , 7           , 255         , 0           , 0
-0.171540856, 0.074323535 , 9.791193    , 0.0009142421, 0.000496311 , 0.0008336563, -3.13258219 , -0.01680187 , -1.49219918 , 918.7726    , 31.00818    , 818.633057  , 1.62        , 7           , 255         , 0           , 0
-0.1668748  , 0.08776369  , 9.801262    , 0.00021931887, 0.000236001913, 0.000436015864, -3.1325798  , -0.0168041922, -1.49220359 , 918.716248  , 31.0104866  , 818.6331    , 1.63        , 7           , 255         , 0           , 0
-0.165959835, 0.09128868  , 9.796026    , -0.000189951388, 0.000317260739, 0.000220448157, -3.13258171 , -0.0168073438, -1.49220586 , 918.716248  , 31.0104866  , 818.6332    , 1.64        , 7           , 255         , 0           , 0
-0.17154789 , 0.08365959  , 9.797493    , 0.000422835961, 0.000130108674, -0.000149881467, -3.13257766 , -0.0168086588, -1.49220431 , 918.716248  , 31.0104866  , 818.63324   , 1.65        , 7           , 255         , 0           , 0
-0.172924727, 0.08760114  , 9.80516     , 7.27937E-05 , 0.000540566165, -9.35411954E-05, -3.132577   , -0.016814068, -1.49220347 , 918.716248  , 31.0104866  , 818.6333    , 1.66        , 7           , 255         , 0           , 0
-0.162896529, 0.08302891  , 9.800629    , -0.0001949693, 7.241999E-05, -0.0008952874, -3.13257885 , -0.0168148745, -1.49219441 , 918.716248  , 31.0104866  , 818.633362  , 1.67        , 7           , 255         , 0           , 0
-0.169364944, 0.0803658143, 9.80023     , 0.000113359391, 0.000114661991, 0.0007733364, -3.13257766 , -0.0168159511, -1.49220228 , 918.716248  , 31.0104866  , 818.6334    , 1.68        , 7           , 255         , 0           , 0
-0.168366209, 0.0768964738, 9.797602    , 0.000101883095, 0.0003181334, 0.0006885992, -3.13257647 , -0.016819071, -1.4922092  , 918.716248  , 31.0104866  , 818.6335    , 1.69        , 7           , 255         , 0           , 0
-0.165477008, 0.08958012  , 9.795539    , 1.42690842E-05, 0.000124234473, -0.000337410223, -3.13257647 , -0.0168203432, -1.49220574 , 918.716248  , 31.0104866  , 818.633545  , 1.7         , 7           , 255         , 0           , 0
-0.172745764, 0.0832568258, 9.794077    , 6.42668456E-05, 0.000298429979, -0.0004930953, -3.13258481 , -0.0168302786, -1.49220061 , 918.716248  , 31.0104866  , 818.6285    , 1.71        , 7           , 255         , 0           , 0
-0.175503492, 0.08318832  , 9.798876    , -0.0004972061, 0.000511496037, -2.617955E-05, -3.13258982 , -0.0168353934, -1.49220037 , 918.716248  , 31.0104866  , 818.62854   , 1.72        , 7           , 255         , 0           , 0
-0.165080011, 0.08757063  , 9.805419    , -7.422504E-05, -0.000319864834, 0.000113826231, -3.13259053 , -0.0168321859, -1.49220145 , 918.706848  , 31.0098763  , 818.6286    , 1.73        , 7           , 255         , 0           , 0
-0.157491922, 0.08326327  , 9.806395    , -0.000279630127, -8.29841E-05, 0.000208519152, -3.13259315 , -0.0168313384, -1.49220347 , 918.706848  , 31.0098763  , 818.628662  , 1.74        , 7           , 255         , 0           , 0
-0.164295271, 0.08070906  , 9.798343    , 0.00018920307, -9.648013E-05, 0.000306371134, -3.13259125 , -0.0168303456, -1.49220657 , 918.706848  , 31.0098763  , 818.6287    , 1.75        , 7           , 255         , 0           , 0
-0.162327349, 0.08626853  , 9.79833     , -0.000241016911, -7.073485E-05, 0.000154612047, -3.13259363 , -0.0168296248, -1.49220812 , 918.706848  , 31.0098763  , 818.6288    , 1.76        , 7           , 255         , 0           , 0
-0.161425322, 0.08733599  , 9.794968    , 0.0001303609, -0.000178830989, 5.963564E-06, -3.13259244 , -0.0168278348, -1.49220812 , 918.706848  , 31.0098763  , 818.628845  , 1.77        , 7           , 255         , 0           , 0
-0.154878736, 0.08182044  , 9.795496    , -0.0002941721, 7.29749445E-07, -0.000187257334, -3.1325953  , -0.016827859, -1.49220622 , 918.706848  , 31.0098763  , 818.6289    , 1.78        , 7           , 255         , 0           , 0
-0.156269059, 0.08737409  , 9.805509    , -6.4435706E-05, -2.19553476E-06, 0.000103525337, -3.132596   , -0.0168278273, -1.49220717 , 918.706848  , 31.0098763  , 818.628967  , 1.79        , 7           , 255         , 0           , 0
-0.156605244, 0.08337776  , 9.796638    , -0.000158580777, 0.000552356767, -0.0003257566, -3.13259768 , -0.0168333836, -1.492204   , 918.706848  , 31.0098763  , 818.629     , 1.8         , 7           , 255         , 0           , 0
-0.152834922, 0.0907603   , 9.796698    , -0.000264272676, 0.00013972813, 6.34514E-05 , -3.13260722 , -0.01683059 , -1.49220443 , 918.706848  , 31.0098763  , 818.6354    , 1.81        , 7           , 255         , 0           , 0
-0.1545297  , 0.09388568  , 9.803436    , 0.00012723812, 0.00014175463, 5.048394E-06, -3.13260579 , -0.016832009, -1.49220455 , 918.706848  , 31.0098763  , 818.6355    , 1.82        , 7           , 255         , 0           , 0
-0.15842934 , 0.08441616  , 9.788282    , 0.000159891424, 0.000326864 , -0.00028178058, -3.13260436 , -0.0168353021, -1.49220181 , 918.709     , 31.0131321  , 818.6356    , 1.83        , 7           , 255         , 0           , 0
-0.153277576, 0.08716829  , 9.78994751  , 8.27340555E-05, 0.000532997248, 0.000370228139, -3.13260341 , -0.0168405958, -1.4922055  , 918.709     , 31.0131321  , 818.635742  , 1.84        , 7           , 255         , 0           , 0
-0.161984831, 0.089999266 , 9.809727    , 0.00026512926, 0.00027901103, -0.00070824346, -3.13260078 , -0.0168434512, -1.49219847 , 918.709     , 31.0131321  , 818.635864  , 1.85        , 7           , 255         , 0           , 0
-0.162491083, 0.0957068   , 9.80894     , 0.0002329984, -0.000566818053, -0.000585901, -3.13259864 , -0.0168378372, -1.49219263 , 918.709     , 31.0131321  , 818.636     , 1.86        , 7           , 255         , 0           , 0
-0.156225264, 0.0882551447, 9.793283    , 1.62384531E-05, -0.000145128986, -0.00053145556, -3.13259864 , -0.0168364327, -1.49218726 , 918.709     , 31.0131321  , 818.6361    , 1.87        , 7           , 255         , 0           , 0
-0.155313775, 0.08128768  , 9.79235649  , -5.98063343E-06, 0.000238511071, -0.000179189316, -3.13259864 , -0.0168388337, -1.49218559 , 918.709     , 31.0131321  , 818.6362    , 1.88        , 7           , 255         , 0           , 0
-0.1676378  , 0.09145872  , 9.794006    , 7.742891E-05, 0.000196187175, 5.72636054E-05, -3.132598   , -0.0168407913, -1.49218607 , 918.709     , 31.0131321  , 818.636353  , 1.89        , 7           , 255         , 0           , 0
-0.16460745 , 0.0976483747, 9.795294    , -0.000319236831, 0.0002635839, 0.000416134542, -3.132601   , -0.01684339 , -1.49219024 , 918.709     , 31.0131321  , 818.6365    , 1.9         , 7           , 255         , 0           , 0
-0.1615544  , 0.0884524   , 9.803108    , -0.000224967109, 0.000459810719, 0.000112264883, -3.13259935 , -0.0168353412, -1.49219143 , 918.709     , 31.0131321  , 818.639343  , 1.91        , 7           , 255         , 0           , 0
-0.16591385 , 0.08791806  , 9.799011    , 0.000339050515, -0.000110426743, -0.000585657661, -3.132596   , -0.0168342888, -1.49218571 , 918.709     , 31.0131321  , 818.639465  , 1.92        , 7           , 255         , 0           , 0
-0.175610319, 0.08153052  , 9.800489    , 0.00058001047, -5.01703471E-06, 0.0002228592, -3.13259    , -0.01683422 , -1.492188   , 918.7219    , 31.0108929  , 818.6396    , 1.93        , 7           , 255         , 0           , 0
-0.166742891, 0.07821187  , 9.800331    , 0.000355624041, -8.48724158E-05, -0.0002934465, -3.13258672 , -0.0168333966, -1.49218512 , 918.7219    , 31.0108929  , 818.6397    , 1.94        , 7           , 255         , 0           , 0
-0.173859313, 0.07989122  , 9.794202    , 0.000578095263, -0.000227780431, -0.000119298566, -3.132581   , -0.0168311279, -1.49218392 , 918.7219    , 31.0108929  , 818.6399    , 1.95        , 7           , 255         , 0           , 0
-0.17289573 , 0.08112101  , 9.7932      , 0.0004961407, 0.000493268948, 0.0006010498, -3.13257575 , -0.0168360043, -1.49219    , 918.7219    , 31.0108929  , 818.6401    , 1.96        , 7           , 255         , 0           , 0
-0.174502954, 0.08363795  , 9.797649    , -4.52158856E-05, -0.000217343273, 0.000232164457, -3.13257623 , -0.01683381 , -1.49219227 , 918.7219    , 31.0108929  , 818.640259  , 1.97        , 7           , 255         , 0           , 0
-0.1770438  , 0.07701861  , 9.806337    , 0.000710398948, 0.000144033344, 3.251646E-05, -3.132569   , -0.0168352481, -1.49219251 , 918.7219    , 31.0108929  , 818.640442  , 1.98        , 7           , 255         , 0           , 0
-0.182362959, 0.08907253  , 9.799667    , 0.000217037013, -0.000286864873, 0.000128756976, -3.132567   , -0.0168323684, -1.49219382 , 918.7219    , 31.0108929  , 818.6406    , 1.99        , 7           , 255         , 0           , 0
-0.182461336, 0.08554682  , 9.796855    , 0.000166543454, -5.313533E-05, -5.42926427E-05, -3.13256526 , -0.0168318432, -1.49219334 , 918.7219    , 31.0108929  , 818.6408    , 2           , 7           , 0           , 7.01323652  , 200
-0.1688574  , 0.07941379  , 9.802363    , 0.00104848947, -0.000508178666, -0.000148146879, -3.13256383 , -0.0168415569, -1.49219167 , 918.7219    , 31.0108929  , 818.627747  , 2.01        , 7           , 1           , 0           , 0
-0.161359146, 0.0848558843, 9.798753    , 0.000220407121, -0.0004457863, -0.000190519073, -3.13256168 , -0.01683712 , -1.49218965 , 918.7219    , 31.0108929  , 818.6278    , 2.02        , 7           , 2           , 0           , 0
-0.175885469, 0.08771442  , 9.803049    , 0.000277128944, -0.000169646577, -0.00022667044, -3.13255882 , -0.0168354437, -1.4921875  , 918.6707    , 31.0111656  , 818.6279    , 2.03        , 7           , 3           , 0           , 0
-0.169701666, 0.08846846  , 9.800768    , 5.50806E-05 , 7.73691E-05 , 2.38156645E-05, -3.13255835 , -0.0168362167, -1.49218774 , 918.6707    , 31.0111656  , 818.628052  , 2.04        , 7           , 4           , 0           , 0
-0.1671459  , 0.0937557444, 9.797893    , -0.0001730991, 0.000146315491, -0.000334845041, -3.13256    , -0.0168377087, -1.49218428 , 918.6707    , 31.0111656  , 818.6282    , 2.05        , 7           , 5           , 0           , 0
-0.172079772, 0.0870743245, 9.808519    , 0.000228794219, -5.2161573E-05, -0.0002757141, -3.13255787 , -0.0168372132, -1.49218154 , 918.6707    , 31.0111656  , 818.6283    , 2.06        , 7           , 6           , 0           , 0
-0.160507   , 0.0881478861, 9.798162    , 2.55021732E-05, 0.000351071649, -0.000474272732, -3.13255763 , -0.0168407653, -1.49217677 , 918.6707    , 31.0111656  , 818.6284    , 2.07        , 7           , 7           , 0           , 0
-0.163161919, 0.09323127  , 9.792772    , -0.000229311816, 0.000181460113, -0.0002644847, -3.13256    , -0.0168426055, -1.49217415 , 918.6707    , 31.0111656  , 818.62854   , 2.08        , 7           , 8           , 5           , 5
-0.16830045 , 0.09439082  , 9.804679    , -0.0003080035, -0.000153346336, -0.0003378606, -3.132563   , -0.0168411  , -1.49217081 , 918.6707    , 31.0111656  , 818.628662  , 2.09        , 7           , 9           , 5           , 0.1
-0.159742743, 0.0890572   , 9.799185    , -0.000557369145, 9.64393257E-05, 0.000259326742, -3.1325686  , -0.0168420412, -1.49217331 , 918.6707    , 31.0111656  , 818.6288    , 2.1         , 7           , 10          , 0.1         , 0.1
-0.154801637, 0.08702327  , 9.805038    , 0.000825975 , -9.110785E-05, -4.80228337E-05, -3.13256025 , -0.016843807, -1.49217272 , 918.6707    , 31.0111656  , 818.6804    , 2.11        , 7           , 11          , 0.008567422 , 0.00856742449
-0.155451939, 0.09435918  , 9.798886    , 0.000905534 , 0.00010891509, -0.000593722332, -3.13255143 , -0.0168449488, -1.49216676 , 918.6707    , 31.0111656  , 818.680847  , 2.12        , 7           , 12          , 0.03464815  , 0
-0.155078128, 0.08874644  , 9.798744    , 0.0007582842, -2.58174259E-06, 0.0001395102, -3.1325438  , -0.0168449134, -1.49216831 , 918.724548  , 31.0135384  , 818.6813    , 2.13        , 7           , 13          , 0           , 0
-0.157960683, 0.08162609  , 9.789409    , 0.0004819992, -0.000286192662, 0.000427115563, -3.1325388  , -0.0168420114, -1.49217248 , 918.724548  , 31.0135384  , 818.6817    , 2.14        , 7           , 14          , -0.0003045446, 0.000494210166
-0.160017878, 0.090909265 , 9.793466    , 0.000151138753, -6.38896E-05, 0.00153676188, -3.13253713 , -0.0168412328, -1.49218774 , 918.724548  , 31.0135384  , 818.6821    , 2.15        , 7           , 15          , 0           , 0.000240615715
-0.157359228, 0.0934196   , 9.794132    , -0.0005349909, -4.92131221E-05, 0.0002545025, -3.13254237 , -0.0168407168, -1.49219036 , 918.724548  , 31.0135384  , 818.682556  , 2.16        , 7           , 16          , 0           , 1.401298E-45
-0.163580686, 0.09151393  , 9.796021    , -0.000671721646, -0.000156409631, -0.000202191179, -3.132549   , -0.016839169, -1.49218833 , 918.724548  , 31.0135384  , 818.683     , 2.17        , 7           , 20          , 0           , 0
-0.165978566, 0.0942085162, 9.804004    , 0.000184862234, 9.003689E-05, -0.0006714122, -3.13254738 , -0.01684013 , -1.49218166 , 918.724548  , 31.0135384  , 818.6834    , 2.18        , 7           , 21          , 0           , 0
-0.158759817, 0.09741871  , 9.792194    , 0.0002149244, 0.000165671168, 0.0003270445, -3.13254523 , -0.01684176 , -1.492185   , 918.724548  , 31.0135384  , 818.683838  , 2.19        , 7           , 22          , 0           , 0
-0.1736368  , 0.0844255462, 9.794769    , 0.0001459539, 2.29600118E-05, -4.425581E-05, -3.1325438  , -0.01684199 , -1.49218452 , 918.724548  , 31.0135384  , 818.684265  , 2.2         , 7           , 40          , 0           , 0
-0.1650563  , 0.09777782  , 9.786674    , 0.000344709173, 0.000151103537, -0.000142166769, -3.13253713 , -0.0168342087, -1.49218309 , 918.724548  , 31.0135384  , 818.661743  , 2.21        , 7           , 41          , 0           , 0
-0.161343411, 0.0921233445, 9.798861    , 0.000451124622, 6.376661E-05, -0.000341453328, -3.1325326  , -0.0168348756, -1.49217987 , 918.724548  , 31.0135384  , 818.662048  , 2.22        , 7           , 42          , 1           , 0
-0.158478349, 0.093426995 , 9.807644    , 0.000362581923, -1.17374E-05, -0.000308036659, -3.132529   , -0.016834788, -1.49217677 , 918.691     , 31.0127258  , 818.662354  , 2.23        , 7           , 255         , 0           , 0
-0.161609143, 0.0811493   , 9.802257    , 0.000287637551, -0.000125247549, -0.0007138572, -3.1325264  , -0.0168336015, -1.49216962 , 918.691     , 31.0127258  , 818.662659  , 2.24        , 7           , 255         , 0           , 0
-0.1623934  , 0.08663036  , 9.794225    , -0.000167943363, -0.00013586515, -0.000917734462, -3.132528   , -0.0168323256, -1.49216044 , 918.691     , 31.0127258  , 818.662964  , 2.25        , 7           , 255         , 0           , 0
-0.157238916, 0.082040824 , 9.795725    , -0.000208349782, 0.000213575317, 0.000136061266, -3.13253021 , -0.0168344472, -1.49216175 , 918.691     , 31.0127258  , 818.663269  , 2.26        , 7           , 255         , 0           , 0
-0.15584971 , 0.08719313  , 9.794637    , -2.74388E-06, 0.000195355969, -6.679367E-05, -3.13253021 , -0.0168364067, -1.492161   , 918.691     , 31.0127258  , 818.6636    , 2.27        , 7           , 255         , 0           , 0
-0.158560708, 0.09266945  , 9.796736    , 9.921531E-05, -0.000119193108, 1.65854144E-05, -3.13252926 , -0.0168352146, -1.49216127 , 918.691     , 31.0127258  , 818.6639    , 2.28        , 7           , 255         , 0           , 0
-0.154385522, 0.08837127  , 9.800655    , 0.0002612135, 0.0001167212, -0.000429040781, -3.13252664 , -0.0168364178, -1.4921571  , 918.691     , 31.0127258  , 818.6642    , 2.29        , 7           , 255         , 0           , 0
-0.151883528, 0.07977969  , 9.803717    , 6.018771E-05, -8.924672E-05, -0.000320062041, -3.13252616 , -0.0168355554, -1.49215376 , 918.691     , 31.0127258  , 818.6645    , 2.3         , 7           , 255         , 0           , 0
-0.155447215, 0.0947664753, 9.808401    , 0.000166491911, -0.000311491021, 0.0005802826, -3.13252568 , -0.0168211777, -1.49215972 , 918.691     , 31.0127258  , 818.687744  , 2.31        , 7           , 255         , 0           , 0
-0.155738756, 0.0957222   , 9.795881    , 0.0005452853, 9.441457E-05, 0.000686762738, -3.1325202  , -0.01682206 , -1.49216652 , 918.691     , 31.0127258  , 818.688232  , 2.32        , 7           , 255         , 0           , 0
-0.156660929, 0.0795872   , 9.796016    , 0.00026727916, -0.0001742683, 0.00075947016, -3.13251734 , -0.01682025 , -1.49217415 , 918.7009    , 31.0153713  , 818.6887    , 2.33        , 7           , 255         , 0           , 0
-0.1682181  , 0.08127957  , 9.790586    , 0.000418643554, 0.0005125109, 0.000616961042, -3.132513   , -0.0168253183, -1.49218047 , 918.7009    , 31.0153713  , 818.6892    , 2.34        , 7           , 255         , 0           , 0
-0.166759491, 0.085456565 , 9.802389    , 0.000179828829, 0.0005155648, -1.57958275E-05, -3.13251114 , -0.0168304741, -1.49218023 , 918.7009    , 31.0153713  , 818.6897    , 2.35        , 7           , 255         , 0           , 0
-0.163940534, 0.086544916 , 9.807513    , 0.000219833819, 0.000640008133, 0.000274710648, -3.132509   , -0.01683685 , -1.49218309 , 918.7009    , 31.0153713  , 818.6902    , 2.36        , 7           , 255         , 0           , 0
-0.151421115, 0.0796123   , 9.795222    , 0.000106176 , 8.499797E-05, 0.000495165645, -3.1325078  , -0.0168376528, -1.492188   , 918.7009    , 31.0153713  , 818.6907    , 2.37        , 7           , 255         , 0           , 0
-0.170755148, 0.0853382   , 9.795134    , 0.0004760525, -0.000100544945, -0.000268411357, -3.132503   , -0.0168366712, -1.49218524 , 918.7009    , 31.0153713  , 818.691162  , 2.38        , 7           , 255         , 0           , 0
-0.169952467, 0.08468311  , 9.78887     , 0.000327064947, -8.741295E-05, 3.21705738E-05, -3.1325     , -0.0168357957, -1.49218559 , 918.7009    , 31.0153713  , 818.69165   , 2.39        , 7           , 255         , 0           , 0
-0.161719218, 0.08826172  , 9.796549    , 0.00012988715, 0.000402561738, -5.155083E-05, -3.1324985  , -0.0168398265, -1.49218524 , 918.7009    , 31.0153713  , 818.692139  , 2.4         , 7           , 255         , 0           , 0
-0.164091915, 0.08814244  , 9.799175    , -0.000208842277, 0.000542464 , 0.000251096615, -3.13250566 , -0.0168401226, -1.49218762 , 918.7009    , 31.0153713  , 818.699     , 2.41        , 7           , 255         , 0           , 0
-0.174336538, 0.09211159  , 9.798762    , -4.0606712E-05, 0.0002358196, 7.14792259E-05, -3.13250613 , -0.0168424752, -1.49218822 , 918.7009    , 31.0153713  , 818.6995    , 2.42        , 7           , 255         , 0           , 0
-0.164061114, 0.0907120556, 9.797043    , 0.000443651981, -0.000408142747, -0.000133932655, -3.1325016  , -0.0168384071, -1.4921869  , 918.7095    , 31.0163879  , 818.7001    , 2.43        , 7           , 255         , 0           , 0
-0.161374062, 0.08826896  , 9.793297    , 0.000517335 , -0.000266005, 0.000243217874, -3.13249636 , -0.0168357249, -1.49218941 , 918.7095    , 31.0163879  , 818.7006    , 2.44        , 7           , 255         , 0           , 0
-0.162963361, 0.08740223  , 9.789377    , 0.0003829826, -0.000240900641, 0.000294331985, -3.13249254 , -0.0168332923, -1.49219239 , 918.7095    , 31.0163879  , 818.7012    , 2.45        , 7           , 255         , 0           , 0
-0.167748243, 0.0891934261, 9.801582    , 0.000338998478, -0.000149092055, -0.000600913656, -3.1324892  , -0.0168318525, -1.49218643 , 918.7095    , 31.0163879  , 818.7017    , 2.46        , 7           , 255         , 0           , 0
-0.163567424, 0.101034343 , 9.803046    , 1.66705E-05 , 0.000110498571, -6.1611514E-05, -3.1324892  , -0.0168329645, -1.49218571 , 918.7095    , 31.0163879  , 818.7023    , 2.47        , 7           , 255         , 0           , 0
-0.162680745, 0.09178682  , 9.799197    , -9.80823243E-05, -0.0006179678, 0.000388259068, -3.13249016 , -0.0168267488, -1.49218953 , 918.7095    , 31.0163879  , 818.7028    , 2.48        , 7           , 255         , 0           , 0
-0.1673446  , 0.08254654  , 9.798279    , -0.000221961353, -0.000378416065, 0.000680208 , -3.132492   , -0.0168229062, -1.49219632 , 918.7095    , 31.0163879  , 818.703369  , 2.49        , 7           , 255         , 0           , 0
-0.161216915, 0.08924402  , 9.789359    , -0.000193801068, -1.44121586E-05, 0.000746635371, -3.132494   , -0.0168226939, -1.49220383 , 918.7095    , 31.0163879  , 818.7039    , 2.5         , 7           , 255         , 0           , 0
-0.162924051, 0.08389129  , 9.797155    , -0.000590633, 0.000721745135, 0.000709004235, -3.132498   , -0.0168298353, -1.4922111  , 918.7095    , 31.0163879  , 818.6978    , 2.51        , 7           , 255         , 0           , 0
-0.158437967, 0.08524886  , 9.807515    , -0.000163835881, 0.000365941727, -0.000105130355, -3.13249969 , -0.0168335028, -1.49220991 , 918.7095    , 31.0163879  , 818.698364  , 2.52        , 7           , 255         , 0           , 0
-0.161363453, 0.08437906  , 9.804456    , -0.000549695455, 0.000422881276, -0.0005906998, -3.13250542 , -0.0168377869, -1.49220407 , 918.6894    , 31.0157776  , 818.6989    , 2.53        , 7           , 255         , 0           , 0
-0.161506668, 0.09018733  , 9.800156    , 0.0001120791, -6.83130638E-05, 0.00047981285, -3.13250422 , -0.0168370567, -1.49220884 , 918.6894    , 31.0157776  , 818.699463  , 2.54        , 7           , 255         , 0           , 0
-0.166759729, 0.08775817  , 9.795167    , -5.58969041E-05, 8.77247658E-07, 0.0007131171, -3.1325047  , -0.0168370046, -1.492216   , 918.6894    , 31.0157776  , 818.7       , 2.55        , 7           , 255         , 0           , 0
-0.162840217, 0.073587    , 9.79169     , 0.000352146773, 9.041047E-05, 7.10277527E-06, -3.13250113 , -0.016837908, -1.492216   , 918.6894    , 31.0157776  , 818.700562  , 2.56        , 7           , 255         , 0           , 0
-0.16071558 , 0.0872248262, 9.803846    , -0.000409440341, 0.000239852467, 0.00027391722, -3.13250518 , -0.016840281, -1.49221885 , 918.6894    , 31.0157776  , 818.7011    , 2.57        , 7           , 255         , 0           , 0
-0.169726565, 0.08265816  , 9.797208    , -0.00011612571, 0.000277696352, -6.484684E-05, -3.13250637 , -0.0168430638, -1.49221814 , 918.6894    , 31.0157776  , 818.70166   , 2.58        , 7           , 255         , 0           , 0
-0.167003348, 0.07765441  , 9.800145    , 0.000445508165, 0.000234143634, -0.000197843139, -3.13250184 , -0.0168454219, -1.49221623 , 918.6894    , 31.0157776  , 818.7022    , 2.59        , 7           , 255         , 0           , 0
-0.177637309, 0.08223293  , 9.792711    , 0.0008168974, -0.000199565518, 0.000292129931, -3.13249373 , -0.0168434028, -1.49221909 , 918.6894    , 31.0157776  , 818.702759  , 2.6         , 7           , 255         , 0           , 0
-0.1629576  , 0.08527909  , 9.791343    , 0.0001436909, 0.000103421742, 0.0002562177, -3.13250113 , -0.016844226, -1.49222159 , 918.6894    , 31.0157776  , 818.7239    , 2.61        , 7           , 255         , 0           , 0
-0.1601315  , 0.07753297  , 9.790298    , -0.000478765956, -0.000220789923, -0.0002926352, -3.13250613 , -0.016842043, -1.49221861 , 918.6894    , 31.0157776  , 818.724548  , 2.62        , 7           , 255         , 0           , 0
-0.171455145, 0.08510913  , 9.797663    , 0.000342931162, 0.00013816345, -0.000600692, -3.13250279 , -0.016843481, -1.49221265 , 918.6991    , 31.0186958  , 818.7252    , 2.63        , 7           , 255         , 0           , 0
-0.1777223  , 0.09653302  , 9.798408    , 0.00020581836, 0.000310547883, -0.0002145015, -3.13250065 , -0.0168466028, -1.49221063 , 918.6991    , 31.0186958  , 818.7259    , 2.64        , 7           , 255         , 0           , 0
-0.166788548, 0.09501594  , 9.7998085   , 0.000481254916, -0.000239547691, -7.87961762E-05, -3.13249588 , -0.0168442167, -1.49220991 , 918.6991    , 31.0186958  , 818.726563  , 2.65        , 7           , 255         , 0           , 0
-0.1608502  , 0.0939918756, 9.80321     , -0.0002167756, -6.043818E-05, 1.580824E-05, -3.132498   , -0.0168436114, -1.49221    , 918.6991    , 31.0186958  , 818.727234  , 2.66        , 7           , 255         , 0           , 0
-0.160958692, 0.09959793  , 9.797871    , 6.191831E-05, 1.9586354E-05, 0.00017777257, -3.13249731 , -0.01684379 , -1.4922117  , 918.6991    , 31.0186958  , 818.7279    , 2.67        , 7           , 255         , 0           , 0
-0.153987259, 0.08956999  , 9.796532    , -7.92905048E-05, 0.000505918229, 0.000401421246, -3.132498   , -0.01684881 , -1.49221587 , 918.6991    , 31.0186958  , 818.7286    , 2.68        , 7           , 255         , 0           , 0
-0.161212534, 0.0924201   , 9.799213    , 0.000120946788, 0.000453680346, -0.000310331874, -3.132497   , -0.0168533735, -1.49221277 , 918.6991    , 31.0186958  , 818.729248  , 2.69        , 7           , 255         , 0           , 0
-0.1605316  , 0.09744334  , 9.797327    , -0.000136086775, 0.0001305344, 0.000152897846, -3.13249826 , -0.0168546662, -1.4922142  , 918.6991    , 31.0186958  , 818.7299    , 2.7         , 7           , 255         , 0           , 0
-0.156849667, 0.0926542059, 9.804647    , 0.000332778873, 0.000283512869, 5.880797E-05, -3.13249135 , -0.0168550536, -1.49221492 , 918.6991    , 31.0186958  , 818.7342    , 2.71        , 7           , 255         , 0           , 0
-0.155777931, 0.0896109   , 9.794009    , -2.84932321E-05, -3.434022E-05, 0.000167289443, -3.13249159 , -0.0168546941, -1.49221659 , 918.6991    , 31.0186958  , 818.7349    , 2.72        , 7           , 255         , 0           , 0
-0.16460225 , 0.08777507  , 9.78815651  , 0.000234717474, -0.0001832541, 0.000194990382, -3.1324892  , -0.0168528445, -1.49221861 , 918.7301    , 31.017746   , 818.735657  , 2.73        , 7           , 255         , 0           , 0
-0.159284621, 0.08508705  , 9.79583     , 0.0006345783, -0.000151029089, -3.96605465E-05, -3.13248277 , -0.0168513376, -1.49221826 , 918.7301    , 31.017746   , 818.7364    , 2.74        , 7           , 255         , 0           , 0
-0.1510174  , 0.09671126  , 9.796076    , 0.000363157218, 0.000300735934, 0.000234464955, -3.13247919 , -0.0168543234, -1.49222052 , 918.7301    , 31.017746   , 818.7371    , 2.75        , 7           , 255         , 0           , 0
-0.158543423, 0.09876499  , 9.797269    , 0.000204153839, 0.0003061772, -0.000416531228, -3.132477   , -0.0168574248, -1.49221647 , 918.7301    , 31.017746   , 818.737854  , 2.76        , 7           , 255         , 0           , 0
-0.163507   , 0.0953767449, 9.788894    , 0.00037264626, 0.000422764 , -0.000404913153, -3.13247347 , -0.0168616865, -1.4922123  , 918.7301    , 31.017746   , 818.7386    , 2.77        , 7           , 255         , 0           , 0
-0.16266273 , 0.0880340561, 9.798315    , -0.000360776437, 0.000132123823, -0.0007070841, -3.13247728 , -0.0168630742, -1.49220526 , 918.7301    , 31.017746   , 818.7393    , 2.78        , 7           , 255         , 0           , 0
-0.170510262, 0.0869893   , 9.796736    , -0.0004484182, 0.0002314797, -0.000277672079, -3.13248181 , -0.0168654136, -1.49220252 , 918.7301    , 31.017746   , 818.740051  , 2.79        , 7           , 255         , 0           , 0
-0.1756257  , 0.0876727551, 9.787793    , -0.000665232, -8.0667E-05 , 6.957534E-05, -3.13248825 , -0.0168645978, -1.49220324 , 918.7301    , 31.017746   , 818.7408    , 2.8         , 7           , 255         , 0           , 0
-0.176235244, 0.07964466  , 9.79549     , -0.000522019342, -0.000156095368, 2.36826017E-05, -3.1324904  , -0.0168566089, -1.49220335 , 918.7301    , 31.017746   , 818.7003    , 2.81        , 7           , 255         , 0           , 0
-0.166375071, 0.08744756  , 9.792806    , -0.000396551477, 0.00013300305, 7.961324E-06, -3.13249445 , -0.016857937, -1.49220335 , 918.7301    , 31.017746   , 818.7008    , 2.82        , 7           , 255         , 0           , 0
-0.168012068, 0.08698521  , 9.79974     , -0.0003088866, -0.000186959049, -0.000458516763, -3.13249755 , -0.0168561116, -1.49219871 , 918.740967  , 31.0161171  , 818.7013    , 2.83        , 7           , 255         , 0           , 0
-0.178395361, 0.07951858  , 9.801404    , 0.0001678233, -5.89818228E-05, 1.61206117E-07, -3.13249588 , -0.01685552 , -1.49219871 , 918.740967  , 31.0161171  , 818.7018    , 2.84        , 7           , 255         , 0           , 0
-0.168601677, 0.0847108   , 9.79392052  , -7.272366E-05, -3.5403762E-05, -0.000148294988, -3.1324966  , -0.01685518 , -1.49219728 , 918.740967  , 31.0161171  , 818.7023    , 2.85        , 7           , 255         , 0           , 0
-0.163563833, 0.09246304  , 9.795485    , 0.000149391766, -0.000118808006, -0.000103515005, -3.13249516 , -0.0168540012, -1.4921962  , 918.740967  , 31.0161171  , 818.702759  , 2.86        , 7           , 255         , 0           , 0
-0.1724221  , 0.08787708  , 9.797987    , 0.000387731736, -8.819741E-05, -0.000121321122, -3.13249135 , -0.0168531314, -1.49219513 , 918.740967  , 31.0161171  , 818.703247  , 2.87        , 7           , 255         , 0           , 0
-0.160628051, 0.0849307   , 9.816328    , -0.000164938247, 0.000156167254, 0.000116058567, -3.132493   , -0.0168546811, -1.49219632 , 918.740967  , 31.0161171  , 818.703735  , 2.88        , 7           , 255         , 0           , 0
-0.157337084, 0.0854852051, 9.801735    , 0.000153608562, 5.898357E-06, -3.490738E-05, -3.13249135 , -0.0168547444, -1.492196   , 918.740967  , 31.0161171  , 818.7042    , 2.89        , 7           , 255         , 0           , 0
-0.164765477, 0.08169814  , 9.796284    , 0.000203897769, 0.000393511844, -0.000271235418, -3.13248944 , -0.0168587063, -1.49219322 , 918.740967  , 31.0161171  , 818.7047    , 2.9         , 7           , 255         , 0           , 0
-0.167609543, 0.08648942  , 9.797061    , 0.000210211423, -0.000214491127, 0.0004901298, -3.1324935  , -0.016860256, -1.49219811 , 918.740967  , 31.0161171  , 818.653748  , 2.91        , 7           , 255         , 0           , 0
-0.153970286, 0.09119048  , 9.80369     , -0.000129339373, -0.000486682169, 0.000606235932, -3.13249469 , -0.0168553349, -1.49220419 , 918.740967  , 31.0161171  , 818.653931  , 2.92        , 7           , 255         , 0           , 0
-0.165619731, 0.08212662  , 9.804201    , -0.0003889553, 0.0002942271, -0.000196876936, -3.1324985  , -0.0168582965, -1.49220228 , 918.713135  , 31.016592   , 818.6541    , 2.93        , 7           , 255         , 0           , 0
-0.161591738, 0.08560969  , 9.802546    , -4.55752E-05, 0.0002602457, -2.10195285E-05, -3.132499   , -0.0168609  , -1.49220216 , 918.713135  , 31.016592   , 818.6543    , 2.94        , 7           , 255         , 0           , 0
-0.155675039, 0.0756855756, 9.795634    , -0.000120015233, -0.000287772767, 0.0001513794, -3.13250017 , -0.01685801 , -1.49220359 , 918.713135  , 31.016592   , 818.6545    , 2.95        , 7           , 255         , 0           , 0
-0.165564865, 0.0822735   , 9.796342    , 0.00028837836, -0.0005110795, 0.0004558458, -3.13249731 , -0.0168528557, -1.49220812 , 918.713135  , 31.016592   , 818.654663  , 2.96        , 7           , 255         , 0           , 0
-0.1726856  , 0.08635862  , 9.80393     , -0.0006789099, -0.000421663455, -0.000299599982, -3.132504   , -0.0168486685, -1.49220514 , 918.713135  , 31.016592   , 818.654846  , 2.97        , 7           , 255         , 0           , 0
-0.167568684, 0.0860589445, 9.798472    , 9.47064545E-05, -1.41168421E-05, -0.000101616126, -3.132503   , -0.0168485362, -1.49220419 , 918.713135  , 31.016592   , 818.655     , 2.98        , 7           , 255         , 0           , 0
-0.167112932, 0.08497081  , 9.79466     , 0.0009819298, -7.478753E-05, -0.0001248937, -3.13249326 , -0.0168477986, -1.49220288 , 918.713135  , 31.016592   , 818.6552    , 2.99        , 7           , 255         , 0           , 0
-0.167033747, 0.0842420757, 9.796498    , 0.000176487258, -0.000306223053, 0.000603699067, -3.13249135 , -0.0168446824, -1.492209   , 918.713135  , 31.016592   , 818.6554    , 3           , 7           , 0           , 8.013237    , 300
-0.170214683, 0.08292458  , 9.802821    , -3.94370581E-05, 0.000151554123, 7.433863E-05, -3.13249874 , -0.0168450139, -1.49220943 , 918.713135  , 31.016592   , 818.6503    , 3.01        , 7           , 1           , 0           , 0
-0.168202758, 0.0794640556, 9.796491    , 0.000411883666, -1.66733225E-05, 0.000415107643, -3.13249445 , -0.0168448091, -1.49221373 , 918.713135  , 31.016592   , 818.6505    , 3.02        , 7           , 2           , 0           , 0
-0.1656965  , 0.08353818  , 9.795935    , 2.19884969E-05, 0.000438234827, 4.287518E-05, -3.13249421 , -0.0168491844, -1.4922142  , 918.6821    , 31.0184231  , 818.6507    , 3.03        , 7           , 3           , 0           , 0
