Acc X       , Acc Y       , Acc Z       , Gyro X      , Gyro Y      , Gyro Z      , Euler X     , Euler Y     , Euler Z     , Pres X      , Pres Y      , Pres Z      , Time        , Status      , LowRate X   , LowRate Y   , LowRate Z    
-0.129992351, 0.1307294   , -9.787608   , 0           , 0           , 0           , -0.01335583 , -0.0132793551, 0           , 922.8089    , 32.99846    , 781.7725    , 0           , 2           , 0           , 5.48323154  , 0
-0.123630144, 0.119736657 , -9.779495   , -0.000168077589, 0.0002359506, 0.0007150599, -0.01335746 , -0.0132768294, 7.11890061E-06, 922.8089    , 32.99846    , 781.7725    , 0.01        , 3           , 1           , 0           , 0
-0.127229854, 0.12544553  , -9.790995   , 0.000693490263, 0.000136730217, 0.00075678085, -0.0133506255, -0.0132753626, 1.46682542E-05, 922.8089    , 32.99846    , 781.7725    , 0.02        , 3           , 2           , 0           , 0
-0.131024614, 0.13209632  , -9.790991   , -7.121125E-07, 0.000383241859, 4.9759914E-05, -0.0133506395, -0.0132715236, 1.51146805E-05, 922.749268  , 32.5603371  , 781.7725    , 0.03        , 3           , 3           , 0           , 0
-0.123367049, 0.128815144 , -9.791815   , 0.000181401381, 0.000205854914, 0.0002801425, -0.0133488625, -0.0132694272, 1.788855E-05, 922.749268  , 32.5603371  , 781.7725    , 0.04        , 3           , 4           , 0           , 0
-0.126399219, 0.133348033 , -9.791985   , -8.532393E-05, -0.00020058165, 0.00013898834, -0.0133497333, -0.0132714156, 1.930518E-05, 922.749268  , 32.5603371  , 781.7725    , 0.05        , 3           , 5           , 0           , 0
-0.124103233, 0.131313965 , -9.795952   , -7.57122762E-05, 0.0001389255, -0.0001717036, -0.0133504691, -0.0132700494, 1.75696441E-05, 922.749268  , 32.5603371  , 781.7725    , 0.06        , 3           , 6           , 0           , 0
-0.129690021, 0.135647073 , -9.799422   , 0.000415639865, 0.000165072721, 0.0002511582, -0.0133463452, -0.0132683655, 2.005913E-05, 922.749268  , 32.5603371  , 781.7725    , 0.07        , 3           , 7           , 0           , 0
-0.125233933, 0.138033777 , -9.801025   , -8.704048E-05, 0.000329014263, -0.00020023527, -0.01334719 , -0.0132651022, 1.80129136E-05, 922.749268  , 32.5603371  , 781.7725    , 0.08        , 3           , 8           , 5           , 5
-0.125647932, 0.1318716   , -9.796616   , 0.000705254963, 4.48187639E-05, -0.00019079147, -0.0133401128, -0.0132646784, 1.60990749E-05, 922.749268  , 32.5603371  , 781.7725    , 0.09        , 3           , 9           , 5           , 0.1
-0.126070529, 0.12666443  , -9.795529   , 0.000282973517, 0.000605292444, -0.0003433094, -0.0133372378, -0.0132586751, 1.25853394E-05, 922.749268  , 32.5603371  , 781.7725    , 0.1         , 3           , 10          , 0.1         , 0.1
-0.129737616, 0.130307376 , -9.797035   , 3.397331E-05, 0.000332968 , 5.55380175E-05, -0.013335159, -0.0132406913, 1.30731969E-05, 922.749268  , 32.5603371  , 782.3064    , 0.11        , 3           , 11          , 0.0109544508, 0.0109544508
-0.132056072, 0.1321404   , -9.794683   , -0.0006183427, 0.000451825152, 0.0005704996, -0.0133414185, -0.013236098, 1.87177684E-05, 922.749268  , 32.5603371  , 782.3064    , 0.12        , 3           , 12          , 0.174642488 , 0
-0.124362327, 0.140321732 , -9.801451   , -0.000107544067, -0.000231845916, 0.000403675484, -0.0133425472, -0.013238362, 2.27853561E-05, 922.745361  , 32.6013145  , 782.3064    , 0.13        , 3           , 13          , 0           , 0
-0.127398923, 0.138084248 , -9.781994   , 0.000119480508, -0.000342667132, 5.90103664E-05, -0.01334136 , -0.0132417819, 2.34211566E-05, 922.745361  , 32.6013145  , 782.3064    , 0.14        , 3           , 14          , -0.0005166964, -0.000369076763
-0.127147332, 0.138702512 , -9.792919   , 0.0006871095, -0.000318545062, 0.00022412643, -0.0133345211, -0.0132449362, 2.57048523E-05, 922.745361  , 32.6013145  , 782.3064    , 0.15        , 3           , 15          , 0           , 2.30374371E-05
-0.130472988, 0.132993892 , -9.793276   , 0.000350700633, -0.0005564062, 0.0001950299, -0.01333104 , -0.0132504739, 2.77292747E-05, 922.745361  , 32.6013145  , 782.3064    , 0.16        , 3           , 16          , 0           , 1.401298E-45
-0.125335366, 0.131633282 , -9.798047   , -0.000671341841, -0.000244099443, 0.000363881147, -0.0133378021, -0.0132528674, 3.140054E-05, 922.745361  , 32.6013145  , 782.3064    , 0.17        , 3           , 20          , 0           , 0
-0.131925613, 0.132957771 , -9.794405   , -0.000436751463, 0.00012493963, 0.0005612579, -0.0133422436, -0.01325154 , 3.69962945E-05, 922.745361  , 32.6013145  , 782.306458  , 0.18        , 3           , 21          , 0           , 0
-0.133716017, 0.1292663   , -9.78993    , -0.000576612249, -2.56655621E-05, 1.78644677E-05, -0.0133480113, -0.0132517945, 3.71783572E-05, 922.745361  , 32.6013145  , 782.3065    , 0.19        , 3           , 22          , 0           , 0
-0.129572034, 0.127933264 , -9.790613   , -0.000122940226, -0.000153817673, 0.000134381989, -0.0133492593, -0.0132533163, 3.854268E-05, 922.745361  , 32.6013145  , 782.3066    , 0.2         , 3           , 40          , 0           , 0
-0.1310533  , 0.121365428 , -9.79694    , -0.00033180567, -2.42753886E-05, 0.000466159 , -0.01336313 , -0.0132514462, 4.33464229E-05, 922.745361  , 32.6013145  , 782.323853  , 0.21        , 3           , 41          , 0           , 0
-0.130928382, 0.122280478 , -9.798889   , -0.0002698893, -3.05494759E-05, 0.000100676727, -0.0133658415, -0.0132517386, 4.43572462E-05, 922.745361  , 32.6013145  , 782.3239    , 0.22        , 3           , 42          , 0           , 0
-0.129328147, 0.122710429 , -9.790606   , -0.000540099, -0.000175414432, -0.0004384695, -0.0133711845, -0.0132535528, 3.999612E-05, 922.7837    , 32.6222076  , 782.324     , 0.23        , 3           , 255         , 0           , 0
-0.139076665, 0.134767517 , -9.791948   , -0.0003016882, -0.0003513408, -0.0004710783, -0.01337414 , -0.0132571273, 3.533244E-05, 922.7837    , 32.6222076  , 782.324036  , 0.24        , 3           , 255         , 0           , 0
-0.138195008, 0.133922726 , -9.796375   , -0.000298890576, -0.000283528061, -0.0005120193, -0.0133770593, -0.0132600311, 3.02503067E-05, 922.7837    , 32.6222076  , 782.3241    , 0.25        , 3           , 255         , 0           , 0
-0.129916579, 0.139387161 , -9.792669   , -6.73553441E-05, -0.0002841195, -0.0006738981, -0.0133776451, -0.013262962, 2.35495136E-05, 922.7837    , 32.6222076  , 782.324158  , 0.26        , 3           , 255         , 0           , 0
-0.126054078, 0.137464151 , -9.786997   , -0.000251523044, 0.0002121016, -1.74416928E-05, -0.0133801587, -0.0132608442, 2.3346729E-05, 922.7837    , 32.6222076  , 782.3242    , 0.27        , 3           , 255         , 0           , 0
-0.128953323, 0.127202049 , -9.796116   , -0.0007792184, 1.19017495E-05, 0.000250597164, -0.0133879837, -0.01326069 , 2.58510445E-05, 922.7837    , 32.6222076  , 782.3243    , 0.28        , 3           , 255         , 0           , 0
-0.124384716, 0.129012018 , -9.797423   , -0.000221016817, -0.000359622063, -0.000148512889, -0.0133901732, -0.0132643068, 2.44141065E-05, 922.7837    , 32.6222076  , 782.324341  , 0.29        , 3           , 255         , 0           , 0
-0.125775278, 0.13056846  , -9.795726   , -0.0007597961, -2.43732939E-06, -0.000436919858, -0.0133977123, -0.0132643906, 2.00453524E-05, 922.7837    , 32.6222076  , 782.3244    , 0.3         , 3           , 255         , 0           , 0
-0.133841544, 0.130244419 , -9.795428   , 7.896434E-05, -0.000201699062, -0.00037944183, -0.0133929644, -0.0132681057, 1.622619E-05, 922.7837    , 32.6222076  , 782.2148    , 0.31        , 3           , 255         , 0           , 0
-0.133444831, 0.130773    , -9.807821   , 0.000414453243, -8.130146E-05, 0.000194748631, -0.0133888461, -0.0132688927, 1.81845189E-05, 922.7837    , 32.6222076  , 782.214844  , 0.32        , 3           , 255         , 0           , 0
-0.132122353, 0.140956566 , -9.797417   , 0.000243576244, 0.0004791621, 0.000310740143, -0.0133864526, -0.0132640619, 2.12276955E-05, 922.750549  , 32.6388969  , 782.2149    , 0.33        , 3           , 255         , 0           , 0
-0.136122391, 0.135641992 , -9.799814   , -0.0007072907, 5.335838E-05, 0.00014045932, -0.0133935427, -0.01326351 , 2.262511E-05, 922.750549  , 32.6388969  , 782.214966  , 0.34        , 3           , 255         , 0           , 0
-0.130752563, 0.142300531 , -9.799499   , -0.0003598258, -0.000186342717, 2.92108361E-05, -0.0133971442, -0.0132653695, 2.29421657E-05, 922.750549  , 32.6388969  , 782.215     , 0.35        , 3           , 255         , 0           , 0
-0.121293724, 0.135160357 , -9.79416752 , -3.36369267E-05, -0.00027571086, 0.000363153784, -0.0133975279, -0.0132680759, 2.66105562E-05, 922.750549  , 32.6388969  , 782.2151    , 0.36        , 3           , 255         , 0           , 0
-0.1338794  , 0.131861478 , -9.79542351 , 0.0006243854, 0.000266343617, 0.000154971232, -0.0133913057, -0.0132653909, 2.81245448E-05, 922.750549  , 32.6388969  , 782.215149  , 0.37        , 3           , 255         , 0           , 0
-0.126509458, 0.1358526   , -9.798556   , 5.40170877E-05, 7.11377652E-05, -0.0002017651, -0.0133907394, -0.0132647073, 2.60974266E-05, 922.750549  , 32.6388969  , 782.2152    , 0.38        , 3           , 255         , 0           , 0
-0.122632444, 0.132762581 , -9.79474449 , -0.0004906459, 0.0002074138, -0.000307049719, -0.0133956047, -0.0132626733, 2.29992311E-05, 922.750549  , 32.6388969  , 782.2153    , 0.39        , 3           , 255         , 0           , 0
-0.13441442 , 0.1285502   , -9.794371   , -0.000320004474, -0.000315135549, -0.00050909305, -0.0133987367, -0.0132658938, 1.79506551E-05, 922.750549  , 32.6388969  , 782.215332  , 0.4         , 3           , 255         , 0           , 0
-0.139815614, 0.130096644 , -9.798442   , -0.000197683054, 9.96687741E-05, -0.0005809285, -0.0134092262, -0.0132663855, 1.22421279E-05, 922.750549  , 32.6388969  , 782.235962  , 0.41        , 3           , 255         , 0           , 0
-0.128439575, 0.1199939   , -9.815139   , -0.000253166363, -3.389857E-05, 0.000213089268, -0.0134117845, -0.0132666966, 1.43775114E-05, 922.750549  , 32.6388969  , 782.236     , 0.42        , 3           , 255         , 0           , 0
-0.119554162, 0.121644534 , -9.792101   , 0.00027135713, -0.0003718984, -2.78474981E-05, -0.01340907 , -0.0132704191, 1.41489245E-05, 922.72876   , 32.6524658  , 782.2361    , 0.43        , 3           , 255         , 0           , 0
-0.126788586, 0.128332689 , -9.784932   , -0.000237460539, 0.000390554924, -0.000459438, -0.0134113822, -0.0132665755, 9.502299E-06, 922.72876   , 32.6524658  , 782.236145  , 0.44        , 3           , 255         , 0           , 0
-0.129517123, 0.130721137 , -9.790477   , -0.000714024238, 6.577777E-05, -0.000199166447, -0.0134184957, -0.013265945, 7.501867E-06, 922.72876   , 32.6524658  , 782.2362    , 0.45        , 3           , 255         , 0           , 0
-0.120778896, 0.132211372 , -9.796961   , 1.143082E-05, -5.34570427E-05, -0.00105209509, -0.0134182414, -0.013266623, -3.01163072E-06, 922.72876   , 32.6524658  , 782.236267  , 0.46        , 3           , 255         , 0           , 0
-0.122984394, 0.133329481 , -9.816741   , 0.000345605 , -0.000176825211, 0.000117451134, -0.0134148011, -0.013268373, -1.81343012E-06, 922.72876   , 32.6524658  , 782.2363    , 0.47        , 3           , 255         , 0           , 0
-0.1332407  , 0.11981611  , -9.794801   , -0.000353210839, 3.235886E-05, 0.0008410057, -0.0134184435, -0.0132679371, 6.592045E-06, 922.72876   , 32.6524658  , 782.23645   , 0.48        , 3           , 255         , 0           , 0
-0.12450695 , 0.123202823 , -9.810293   , -0.00061145256, 0.000129614433, 0.000676230062, -0.013424647, -0.0132665513, 1.33367666E-05, 922.72876   , 32.6524658  , 782.2366    , 0.49        , 3           , 255         , 0           , 0
-0.130164176, 0.125756517 , -9.789909   , -0.000404816237, 0.0002842611, 0.000686664949, -0.0134287849, -0.0132636167, 2.01650673E-05, 922.72876   , 32.6524658  , 782.2367    , 0.5         , 3           , 255         , 0           , 0
-0.130059481, 0.128568143 , -9.79219    , -0.000329764618, 0.000202286377, -0.0003130869, -0.0134196  , -0.0132555263, 1.68422E-05 , 922.72876   , 32.6524658  , 782.289368  , 0.51        , 3           , 255         , 0           , 0
-0.123605669, 0.1209316   , -9.799486   , 0.00023350041, 0.000159809628, -0.0009655041, -0.0134171369, -0.01325406 , 7.1659847E-06, 922.72876   , 32.6524658  , 782.2895    , 0.52        , 3           , 255         , 0           , 0
-0.118446492, 0.128510892 , -9.786459   , 0.000438629941, 0.0005881812, -0.00056192 , -0.0134126777, -0.0132482527, 1.46803859E-06, 922.794861  , 32.6607437  , 782.2896    , 0.53        , 3           , 255         , 0           , 0
-0.12841554 , 0.128429934 , -9.79641151 , 0.000363868981, 0.000164920129, -0.0007255512, -0.0134089421, -0.0132467011, -5.8094015E-06, 922.794861  , 32.6607437  , 782.289734  , 0.54        , 3           , 255         , 0           , 0
-0.12775974 , 0.131473258 , -9.793768   , -4.70224768E-05, -0.0005158965, 0.000125229039, -0.0134094292, -0.0132518429, -4.48796436E-06, 922.794861  , 32.6607437  , 782.289856  , 0.55        , 3           , 255         , 0           , 0
-0.123837933, 0.139132246 , -9.792536   , -0.000143162441, 8.2171784E-05, 0.000314366829, -0.0134109017, -0.0132509787, -1.355397E-06, 922.794861  , 32.6607437  , 782.29      , 0.56        , 3           , 255         , 0           , 0
-0.128840446, 0.1473397   , -9.799604   , 0.000176580157, 6.00739149E-05, 0.000199221249, -0.0134091629, -0.0132503519, 6.286979E-07, 922.794861  , 32.6607437  , 782.2901    , 0.57        , 3           , 255         , 0           , 0
-0.1299419  , 0.141455337 , -9.795024   , 1.4977064E-05, 0.000782218063, -0.0008699069, -0.0134088965, -0.0132426489, -8.17502951E-06, 922.794861  , 32.6607437  , 782.2902    , 0.58        , 3           , 255         , 0           , 0
-0.133240059, 0.127377838 , -9.793224   , 0.000211913633, 0.0005060494, -0.0001348388, -0.0134067591, -0.0132376067, -9.59123554E-06, 922.794861  , 32.6607437  , 782.290344  , 0.59        , 3           , 255         , 0           , 0
-0.120928392, 0.131880045 , -9.789808   , -1.42956851E-05, 0.000138550386, -0.0005020451, -0.0134068355, -0.0132362889, -1.46301245E-05, 922.794861  , 32.6607437  , 782.290466  , 0.6         , 3           , 255         , 0           , 0
-0.130678192, 0.128627867 , -9.794324   , 0.0007290776, 8.949914E-05, -4.78980764E-05, -0.01340334 , -0.0132247731, -1.5070781E-05, 922.794861  , 32.6607437  , 782.2221    , 0.61        , 3           , 255         , 0           , 0
-0.132632256, 0.119860671 , -9.789266   , 1.93028245E-05, 0.000443849131, -0.0001516577, -0.013403127, -0.0132203549, -1.6646818E-05, 922.794861  , 32.6607437  , 782.2222    , 0.62        , 3           , 255         , 0           , 0
-0.124824762, 0.124881521 , -9.795684   , -0.000325617555, -0.0004056449, 0.00051152776, -0.0134064518, -0.0132243428, -1.14773065E-05, 922.7911    , 32.6652222  , 782.222351  , 0.63        , 3           , 255         , 0           , 0
-0.13170968 , 0.121574238 , -9.79926    , -0.0002449379, 5.56269079E-05, -0.000234826613, -0.0134088686, -0.0132238185, -1.38329578E-05, 922.7911    , 32.6652222  , 782.2225    , 0.64        , 3           , 255         , 0           , 0
-0.134344429, 0.1262846   , -9.804056   , 0.0005816459, -0.00030304442, -0.000383003353, -0.0134030022, -0.0132268993, -1.76222675E-05, 922.7911    , 32.6652222  , 782.2226    , 0.65        , 3           , 255         , 0           , 0
-0.128691971, 0.127143    , -9.803196   , 0.0004164074, -0.0005514099, -6.152742E-05, -0.0133988308, -0.0132324211, -1.81636387E-05, 922.7911    , 32.6652222  , 782.2227    , 0.66        , 3           , 255         , 0           , 0
-0.125932053, 0.132858083 , -9.806127   , -4.294119E-05, -8.725835E-05, -2.96191647E-05, -0.0133992564, -0.0132332975, -1.8448125E-05, 922.7911    , 32.6652222  , 782.222839  , 0.67        , 3           , 255         , 0           , 0
-0.119382694, 0.135297775 , -9.78804    , 0.000106874679, -0.000157305942, -1.16861484E-05, -0.0133981872, -0.0132348724, -1.85439076E-05, 922.7911    , 32.6652222  , 782.222961  , 0.68        , 3           , 255         , 0           , 0
-0.112652972, 0.133779585 , -9.78793    , 0.0001695116, 0.000389835855, 0.000494627166, -0.0133965574, -0.0132309077, -1.36499966E-05, 922.7911    , 32.6652222  , 782.2231    , 0.69        , 3           , 255         , 0           , 0
-0.12345501 , 0.130424723 , -9.797051   , -0.0008454068, -3.71911447E-05, 0.0007735646, -0.0134051144, -0.01323118 , -5.909562E-06, 922.7911    , 32.6652222  , 782.2232    , 0.7         , 3           , 255         , 0           , 0
-0.1321987  , 0.12418     , -9.80113    , -0.000462486816, -0.0004110583, 0.0004864938, -0.013401011, -0.0132267168, -1.105955E-06, 922.7911    , 32.6652222  , 782.1787    , 0.71        , 3           , 255         , 0           , 0
-0.133577377, 0.131409273 , -9.80116749 , -0.000179295719, -0.0002188618, -0.000812508457, -0.0134026948, -0.0132290116, -9.201494E-06, 922.7911    , 32.6652222  , 782.178833  , 0.72        , 3           , 255         , 0           , 0
-0.135802969, 0.134359866 , -9.79112148 , -0.000139072479, -0.000176788191, 1.60922609E-05, -0.0134040881, -0.0132307773, -9.016879E-06, 922.776062  , 32.669426   , 782.178955  , 0.73        , 3           , 255         , 0           , 0
-0.13589634 , 0.133205563 , -9.799021   , 0.0007770187, -0.000487817451, 0.000447589962, -0.0133963777, -0.0132355969, -4.47573848E-06, 922.776062  , 32.669426   , 782.1791    , 0.74        , 3           , 255         , 0           , 0
-0.132237762, 0.129944116 , -9.79337    , 0.0004347767, -0.000384772662, 0.0007396727, -0.0133921281, -0.0132393427, 2.972322E-06, 922.776062  , 32.669426   , 782.1792    , 0.75        , 3           , 255         , 0           , 0
-0.12876682 , 0.142137855 , -9.800804   , 7.918576E-05, 0.000101281388, 3.77357537E-06, -0.0133913364, -0.0132383294, 2.99649469E-06, 922.776062  , 32.669426   , 782.1793    , 0.76        , 3           , 255         , 0           , 0
-0.132851958, 0.124330342 , -9.802187   , -4.15149261E-05, 0.000329229952, -7.84821E-05, -0.0133917416, -0.0132350484, 2.16760327E-06, 922.776062  , 32.669426   , 782.179443  , 0.77        , 3           , 255         , 0           , 0
-0.134218663, 0.130041733 , -9.805163   , -0.000356512552, 0.0005596582, -0.0003689924, -0.0133952582, -0.0132295014, -1.59716888E-06, 922.776062  , 32.669426   , 782.179565  , 0.78        , 3           , 255         , 0           , 0
-0.1372689  , 0.123635374 , -9.791957   , -0.000109671208, 9.008084E-05, -0.000379589532, -0.0133963041, -0.0132286511, -5.4050256E-06, 922.776062  , 32.669426   , 782.1797    , 0.79        , 3           , 255         , 0           , 0
-0.134212539, 0.1300948   , -9.795149   , -0.0003352443, 0.000240228037, -0.000384492974, -0.0133996056, -0.0132263005, -9.282046E-06, 922.776062  , 32.669426   , 782.1798    , 0.8         , 3           , 255         , 0           , 0
-0.125374213, 0.131374568 , -9.798773   , -4.93475236E-05, 0.000362466031, -0.000151646324, -0.0133978995, -0.0132322423, -1.087586E-05, 922.776062  , 32.669426   , 782.1643    , 0.81        , 3           , 255         , 0           , 0
-0.12532562 , 0.129097968 , -9.794541   , -0.0002303156, 0.000293499848, 2.30048845E-05, -0.0134002073, -0.013229304, -1.06851485E-05, 922.776062  , 32.669426   , 782.1644    , 0.82        , 3           , 255         , 0           , 0
-0.130950481, 0.139342979 , -9.789824   , -0.000420907221, -0.000175618217, -0.000679864548, -0.0134043256, -0.0132311517, -1.74600646E-05, 922.7469    , 32.6722755  , 782.164551  , 0.83        , 3           , 255         , 0           , 0
-0.128444836, 0.138156757 , -9.799067   , -3.490661E-05, 0.0005598435, -0.000439617637, -0.0134046171, -0.0132256122, -2.193116E-05, 922.7469    , 32.6722755  , 782.1647    , 0.84        , 3           , 255         , 0           , 0
-0.125969559, 0.127828181 , -9.792071   , 1.5468162E-05, 9.899959E-07, -0.0001379485, -0.0134044439, -0.0132256206, -2.33107439E-05, 922.7469    , 32.6722755  , 782.1648    , 0.85        , 3           , 255         , 0           , 0
-0.138986081, 0.12547937  , -9.794514   , -0.00019011565, 0.000173990353, -0.000128216168, -0.0134063279, -0.0132238977, -2.46161926E-05, 922.7469    , 32.6722755  , 782.1649    , 0.86        , 3           , 255         , 0           , 0
-0.131257772, 0.128351539 , -9.795735   , -0.0005172645, -7.797801E-05, -0.000214136322, -0.0134114716, -0.013224707, -2.674703E-05, 922.7469    , 32.6722755  , 782.165039  , 0.87        , 3           , 255         , 0           , 0
-0.130308226, 0.132122919 , -9.794447   , 7.968693E-05, 3.59641563E-05, -0.0002791192, -0.0134106372, -0.0132243847, -2.954298E-05, 922.7469    , 32.6722755  , 782.165161  , 0.88        , 3           , 255         , 0           , 0
-0.121738151, 0.139859363 , -9.792669   , 0.000162736716, 0.00010876442, 0.000306438 , -0.0134090511, -0.013223256, -2.64932569E-05, 922.7469    , 32.6722755  , 782.1653    , 0.89        , 3           , 255         , 0           , 0
-0.126459435, 0.142302483 , -9.807295   , -0.000194075925, 0.0003849856, -0.000726519851, -0.0134108951, -0.0132195046, -3.38098871E-05, 922.7469    , 32.6722755  , 782.1654    , 0.9         , 3           , 255         , 0           , 0
-0.125425458, 0.1310945   , -9.789464   , -1.919188E-05, 0.000195269837, 0.000367022731, -0.0134166144, -0.0132146105, -3.00935517E-05, 922.7469    , 32.6722755  , 782.186462  , 0.91        , 3           , 255         , 0           , 0
-0.125585824, 0.140113354 , -9.800147   , -0.0001339115, -4.14214737E-05, -0.000705840939, -0.0134178586, -0.01321512 , -3.714621E-05, 922.7469    , 32.6722755  , 782.1866    , 0.92        , 3           , 255         , 0           , 0
-0.130155638, 0.13806805  , -9.784309   , 0.000145007216, 3.69656482E-05, -0.000454282068, -0.01341635 , -0.0132148117, -4.169386E-05, 922.7487    , 32.6766853  , 782.1867    , 0.93        , 3           , 255         , 0           , 0
-0.133982971, 0.130309775 , -9.799998   , -0.000648019661, 8.23822338E-05, 0.000365284068, -0.0134228785, -0.013213939, -3.80521778E-05, 922.7487    , 32.6766853  , 782.1869    , 0.94        , 3           , 255         , 0           , 0
-0.127534688, 0.135668367 , -9.799762   , -0.0002522478, 0.0002477332, -6.66024353E-05, -0.0134253912, -0.013211471, -3.875145E-05, 922.7487    , 32.6766853  , 782.1871    , 0.95        , 3           , 255         , 0           , 0
-0.135385841, 0.128834769 , -9.788756   , 0.000362793333, 0.0005726094, 0.000101626443, -0.0134217776, -0.0132057313, -3.78120822E-05, 922.7487    , 32.6766853  , 782.187256  , 0.96        , 3           , 255         , 0           , 0
-0.133590668, 0.126632079 , -9.792315   , 7.932889E-05, 0.000115090777, -0.000168965184, -0.0134209609, -0.0132046025, -3.95171519E-05, 922.7487    , 32.6766853  , 782.187439  , 0.97        , 3           , 255         , 0           , 0
-0.135064915, 0.130595952 , -9.786449   , 6.50089642E-05, -0.000354311051, 0.0005784808, -0.0134203872, -0.013208067, -3.368495E-05, 922.7487    , 32.6766853  , 782.1876    , 0.98        , 3           , 255         , 0           , 0
-0.133433059, 0.134685934 , -9.794844   , 0.000144524965, -0.0004199895, -4.004307E-05, -0.0134189362, -0.0132122729, -3.402901E-05, 922.7487    , 32.6766853  , 782.1878    , 0.99        , 3           , 255         , 0           , 0
-0.134309843, 0.123725332 , -9.798023   , -0.0006787822, -0.0001421727, 0.00046117793, -0.0134257851, -0.0132136326, -2.939827E-05, 922.7487    , 32.6766853  , 782.188     , 1           , 3           , 0           , 6.48323631  , 100
-0.133541733, 0.12793605  , -9.802383   , -0.000484502234, 0.000326080044, 5.96173122E-05, -0.0134321181, -0.0132164434, -2.88263564E-05, 922.7487    , 32.6766853  , 782.2033    , 1.01        , 3           , 1           , 0           , 0
-0.127761349, 0.131846264 , -9.794362   , -0.00061517983, 0.000416251569, 0.000653036346, -0.0134383533, -0.0132121965, -2.23521056E-05, 922.7487    , 32.6766853  , 782.2035    , 1.02        , 3           , 2           , 0           , 0
-0.117538288, 0.138916492 , -9.793239   , 0.000191419618, 0.000399863726, 0.000100507808, -0.0134364525, -0.0132081835, -2.1400785E-05, 922.754761  , 32.6755333  , 782.2037    , 1.03        , 3           , 3           , 0           , 0
-0.130897135, 0.135424629 , -9.791486   , -0.000341441541, -0.000441960176, 4.71424428E-05, -0.0134398723, -0.0132125961, -2.08699876E-05, 922.754761  , 32.6755333  , 782.203857  , 1.04        , 3           , 4           , 0           , 0
-0.133184344, 0.132283181 , -9.792397   , -0.000274784921, 0.000177923386, -0.0006381699, -0.0134425368, -0.0132109039, -2.72754187E-05, 922.754761  , 32.6755333  , 782.204041  , 1.05        , 3           , 5           , 0           , 0
-0.139865234, 0.130218774 , -9.803457   , -0.000400180637, -2.22159433E-05, -0.00104341889, -0.0134464  , -0.0132112643, -3.770632E-05, 922.754761  , 32.6755333  , 782.2042    , 1.06        , 3           , 6           , 0           , 0
-0.125666112, 0.127727792 , -9.797181   , -0.000730411557, 0.000337045058, 0.000111428904, -0.0134537183, -0.0132078789, -3.663741E-05, 922.754761  , 32.6755333  , 782.2044    , 1.07        , 3           , 7           , 0           , 0
-0.125774592, 0.12872839  , -9.795767   , -0.000117387215, 0.000461620832, -0.0003324409, -0.013454847, -0.01320331 , -4.002382E-05, 922.754761  , 32.6755333  , 782.2046    , 1.08        , 3           , 8           , 5           , 5
-0.129440591, 0.122525319 , -9.791014   , 0.000128113752, -0.000118896831, 0.000269990123, -0.0134536009, -0.0132044619, -3.73080074E-05, 922.754761  , 32.6755333  , 782.2048    , 1.09        , 3           , 9           , 5           , 0.1
-0.131791428, 0.130780458 , -9.793128   , -0.000338978658, -0.000430807879, -0.0003733061, -0.0134569425, -0.0132088186, -4.0983E-05 , 922.754761  , 32.6755333  , 782.204956  , 1.1         , 3           , 10          , 0.1         , 0.1
-0.129482418, 0.128939554 , -9.791781   , -0.000609171, -3.63938161E-05, -0.0005595013, -0.013460299, -0.0132095506, -4.66081037E-05, 922.754761  , 32.6755333  , 782.2114    , 1.11        , 3           , 11          , 0.009431891 , 0.009431891
-0.126875222, 0.123655722 , -9.805772   , 0.000140401389, -0.000279560918, -1.650431E-05, -0.0134588927, -0.0132123493, -4.67355167E-05, 922.754761  , 32.6755333  , 782.2117    , 1.12        , 3           , 12          , 0.174642846 , 0
-0.127377421, 0.129529566 , -9.797359   , -0.000136813789, 0.000289306656, 0.0007812395, -0.0134603642, -0.01320935 , -3.896227E-05, 922.7837    , 32.6785851  , 782.2119    , 1.13        , 3           , 13          , 0           , 0
-0.131649837, 0.131028265 , -9.79597    , -0.000367756176, 0.0002026791, 0.000458764669, -0.0134641016, -0.0132072624, -3.440204E-05, 922.7837    , 32.6785851  , 782.212158  , 1.14        , 3           , 14          , -0.000516701, -0.0003690793
-0.130546838, 0.1216778   , -9.795027   , 9.070322E-05, -0.00019642472, -0.000382378639, -0.0134631451, -0.0132092787, -3.819928E-05, 922.7837    , 32.6785851  , 782.2124    , 1.15        , 3           , 15          , 0           , 2.30374626E-05
-0.136837676, 0.1311577   , -9.789156   , 0.000231708516, 0.000371075468, -0.0004658261, -0.0134607656, -0.0132056316, -4.2907348E-05, 922.7837    , 32.6785851  , 782.212646  , 1.16        , 3           , 16          , 0           , 1.401298E-45
-0.131245971, 0.128115863 , -9.798523   , 0.000243564544, 0.000455969421, -0.0008715872, -0.0134582147, -0.0132011911, -5.1684332E-05, 922.7837    , 32.6785851  , 782.2129    , 1.17        , 3           , 20          , 0           , 0
-0.130137786, 0.126304656 , -9.794182   , 0.000487991027, 0.0002751636, -0.0006137532, -0.0134532545, -0.013198521, -5.78587278E-05, 922.7837    , 32.6785851  , 782.213135  , 1.18        , 3           , 21          , 0           , 0
-0.137743786, 0.1308318   , -9.802366   , 0.000185230281, 0.0004491533, 0.000217086141, -0.0134514319, -0.013194   , -5.57483436E-05, 922.7837    , 32.6785851  , 782.2134    , 1.19        , 3           , 22          , 0           , 0
-0.13467595 , 0.1226053   , -9.795924   , -0.0006107029, 0.0006940778, 0.000153741013, -0.0134575563, -0.01318704 , -5.43043643E-05, 922.7837    , 32.6785851  , 782.2136    , 1.2         , 3           , 40          , 0           , 0
-0.130391672, 0.1270396   , -9.79901    , 8.22045E-05 , 0.000213016086, -0.000881556247, -0.0134459864, -0.0131902993, -6.328857E-05, 922.7837    , 32.6785851  , 782.189331  , 1.21        , 3           , 41          , 0           , 0
-0.1325276  , 0.131047025 , -9.805166   , 0.000111827918, 0.000219924274, -0.000540769252, -0.0134447962, -0.0131881721, -6.872567E-05, 922.7837    , 32.6785851  , 782.1895    , 1.22        , 3           , 42          , 0           , 0
-0.128657743, 0.1266888   , -9.781885   , -0.000315161131, 0.000361138023, -8.284065E-05, -0.0134479376, -0.0131845735, -6.960261E-05, 922.7331    , 32.6788559  , 782.1897    , 1.23        , 3           , 255         , 0           , 0
-0.124120377, 0.137850463 , -9.801753   , -0.000850659562, -5.65717637E-05, -0.0001622204, -0.013456421, -0.01318516 , -7.121717E-05, 922.7331    , 32.6788559  , 782.1899    , 1.24        , 3           , 255         , 0           , 0
-0.130468458, 0.126022249 , -9.792639   , -0.000252463971, -9.178839E-05, 0.00023763733, -0.0134589775, -0.0131860441, -6.88284854E-05, 922.7331    , 32.6788559  , 782.190063  , 1.25        , 3           , 255         , 0           , 0
-0.131830186, 0.139923379 , -9.792179   , 0.000169941108, 3.86123138E-05, 0.0003502939, -0.0134573253, -0.013185611, -6.53308452E-05, 922.7331    , 32.6788559  , 782.190247  , 1.26        , 3           , 255         , 0           , 0
-0.123382375, 0.134999663 , -9.789424   , 0.000299718173, -0.0003855355, 0.000264320319, -0.0134543609, -0.01318943 , -6.263584E-05, 922.7331    , 32.6788559  , 782.1904    , 1.27        , 3           , 255         , 0           , 0
-0.119811952, 0.133029491 , -9.796666   , 0.0001111186, 4.26023034E-05, 0.000309956056, -0.0134532917, -0.0131889628, -5.9542097E-05, 922.7331    , 32.6788559  , 782.1906    , 1.28        , 3           , 255         , 0           , 0
-0.127760276, 0.124694392 , -9.787631   , -0.000250191777, 9.412237E-06, 0.000228345147, -0.0134558231, -0.013188838, -5.72599929E-05, 922.7331    , 32.6788559  , 782.1908    , 1.29        , 3           , 255         , 0           , 0
-0.132628545, 0.130538717 , -9.793442   , -0.000153400411, -0.000233964209, 0.0006075099, -0.0134574389, -0.0131910956, -5.11535764E-05, 922.7331    , 32.6788559  , 782.191     , 1.3         , 3           , 255         , 0           , 0
-0.131537125, 0.124431267 , -9.796635   , -0.000461637916, 0.000113976042, 0.000694791263, -0.0134604489, -0.0131871738, -4.42435557E-05, 922.7331    , 32.6788559  , 782.2211    , 1.31        , 3           , 255         , 0           , 0
-0.123527884, 0.131389573 , -9.796288   , -0.000183569617, -8.872597E-05, -0.000154196779, -0.013462265, -0.0131880818, -4.577353E-05, 922.7331    , 32.6788559  , 782.221436  , 1.32        , 3           , 255         , 0           , 0
-0.126444668, 0.134393051 , -9.802684   , 0.00014007953, 4.531999E-05, -0.0003178276, -0.0134608224, -0.0131876711, -4.89578233E-05, 922.7581    , 32.6837425  , 782.221741  , 1.33        , 3           , 255         , 0           , 0
-0.1253347  , 0.128529757 , -9.798314   , 0.000104116945, 0.0001265551, -0.000358129764, -0.0134597337, -0.0131864538, -5.25560463E-05, 922.7581    , 32.6837425  , 782.222046  , 1.34        , 3           , 255         , 0           , 0
-0.12928085 , 0.125316471 , -9.801116   , 0.0006416618, -0.000357678131, -0.00058865553, -0.0134532405, -0.01319011 , -5.83942965E-05, 922.7581    , 32.6837425  , 782.222351  , 1.35        , 3           , 255         , 0           , 0
-0.125029176, 0.125420123 , -9.795572   , -0.000161835167, 0.0005676089, 0.000221075185, -0.013454888, -0.013184404, -5.625996E-05, 922.7581    , 32.6837425  , 782.222656  , 1.36        , 3           , 255         , 0           , 0
-0.117090918, 0.129734442 , -9.801844   , -0.0005266207, 0.000394857547, -0.000104833554, -0.01346014 , -0.013180472, -5.736139E-05, 922.7581    , 32.6837425  , 782.222961  , 1.37        , 3           , 255         , 0           , 0
-0.123152338, 0.12980473  , -9.802553   , 0.0002621347, 1.62119977E-05, 0.00104878529, -0.0134576578, -0.0131801683, -4.68760081E-05, 922.7581    , 32.6837425  , 782.223267  , 1.38        , 3           , 255         , 0           , 0
-0.12726596 , 0.132075265 , -9.796946   , -1.03855855E-05, 0.000203727861, 0.000126341256, -0.0134577788, -0.0131781157, -4.564005E-05, 922.7581    , 32.6837425  , 782.2236    , 1.39        , 3           , 255         , 0           , 0
-0.128979057, 0.127916828 , -9.791357   , 5.438691E-06, -0.0003534089, -0.000470833, -0.0134576634, -0.0131817115, -5.030067E-05, 922.7581    , 32.6837425  , 782.2239    , 1.4         , 3           , 255         , 0           , 0
-0.120392837, 0.130283043 , -9.799028   , -0.000324264, 0.000204987751, -0.000940845057, -0.0134547167, -0.0131726367, -5.98163242E-05, 922.7581    , 32.6837425  , 782.2249    , 1.41        , 3           , 255         , 0           , 0
-0.130386338, 0.132399648 , -9.810984   , -0.0005766502, 3.45558219E-05, -0.000465786754, -0.0134604219, -0.0131723536, -6.447871E-05, 922.7581    , 32.6837425  , 782.2252    , 1.42        , 3           , 255         , 0           , 0
-0.131424725, 0.134150788 , -9.78706551 , -0.000507576333, 0.0002800373, 0.000202490482, -0.0134655237, -0.0131695271, -6.249155E-05, 922.733     , 32.6804848  , 782.2255    , 1.43        , 3           , 255         , 0           , 0
-0.133573577, 0.132783532 , -9.791856   , -6.131764E-05, 0.000137949159, 0.000403915852, -0.0134661905, -0.0131680937, -5.847109E-05, 922.733     , 32.6804848  , 782.2258    , 1.44        , 3           , 255         , 0           , 0
-0.136379525, 0.123508587 , -9.793131   , -0.000161876786, 0.0007651119, 0.00047596317, -0.0134678707, -0.0131603787, -5.38146232E-05, 922.733     , 32.6804848  , 782.2262    , 1.45        , 3           , 255         , 0           , 0
-0.133776575, 0.130626753 , -9.791636   , 0.00030309413, 0.0003839045, -0.000106341817, -0.0134648243, -0.0131565547, -5.4929722E-05, 922.733     , 32.6804848  , 782.226563  , 1.46        , 3           , 255         , 0           , 0
-0.13257575 , 0.13440606  , -9.793973   , 0.000252671423, 4.59343137E-05, -0.000381195045, -0.0134622492, -0.0131561467, -5.874774E-05, 922.733     , 32.6804848  , 782.2269    , 1.47        , 3           , 255         , 0           , 0
-0.132510111, 0.134506524 , -9.797484   , -0.000355138152, 0.00010800414, 7.394238E-05, -0.01346581 , -0.0131550562, -5.80228625E-05, 922.733     , 32.6804848  , 782.2273    , 1.48        , 3           , 255         , 0           , 0
-0.133494332, 0.134672046 , -9.797073   , -0.000122675963, 5.316778E-05, 3.616525E-05, -0.0134670408, -0.01315452 , -5.76683851E-05, 922.733     , 32.6804848  , 782.227661  , 1.49        , 3           , 255         , 0           , 0
-0.132235214, 0.138342917 , -9.783356   , -0.000284530572, 0.0004305569, -0.000269037671, -0.01346985 , -0.0131502515, -6.041666E-05, 922.733     , 32.6804848  , 782.228     , 1.5         , 3           , 255         , 0           , 0
-0.123075567, 0.129507989 , -9.7941     , -0.000367018, 0.000309247669, 0.000531460857, -0.0134752039, -0.0131538063, -5.512265E-05, 922.733     , 32.6804848  , 782.2552    , 1.51        , 3           , 255         , 0           , 0
-0.127231911, 0.139212891 , -9.796968   , -0.00049661845, 0.00026413225, 0.0001210685, -0.0134801846, -0.0131511493, -5.394759E-05, 922.733     , 32.6804848  , 782.2557    , 1.52        , 3           , 255         , 0           , 0
-0.1265557  , 0.135265812 , -9.80233    , -0.0007214458, 0.00027157506, 0.000149430445, -0.01348742 , -0.013148413, -5.24899624E-05, 922.7467    , 32.68252    , 782.256165  , 1.53        , 3           , 255         , 0           , 0
-0.13136892 , 0.13094981  , -9.80266    , -0.000229800469, 0.0002086189, 0.0004363646, -0.0134897735, -0.0131462691, -4.81545721E-05, 922.7467    , 32.68252    , 782.256653  , 1.54        , 3           , 255         , 0           , 0
-0.132088408, 0.127414152 , -9.801068   , -0.0005826104, -8.162504E-05, 0.000178278671, -0.0134956231, -0.0131470617, -4.63608121E-05, 922.7467    , 32.68252    , 782.257141  , 1.55        , 3           , 255         , 0           , 0
-0.126166746, 0.127115652 , -9.78924751 , -0.0005918484, -0.000228492427, -0.00072656566, -0.0135014458, -0.0131494431, -5.35954277E-05, 922.7467    , 32.68252    , 782.2576    , 1.56        , 3           , 255         , 0           , 0
-0.1288105  , 0.128637955 , -9.798249   , -0.0007035193, -8.842058E-05, 0.00043196755, -0.0135085369, -0.0131502682, -4.9263952E-05, 922.7467    , 32.68252    , 782.2581    , 1.57        , 3           , 255         , 0           , 0
-0.133192211, 0.131528139 , -9.795705   , -0.000902446569, 0.000274820661, -0.000376228651, -0.01351751 , -0.013147573, -5.3063246E-05, 922.7467    , 32.68252    , 782.2586    , 1.58        , 3           , 255         , 0           , 0
-0.124435708, 0.126013815 , -9.803542   , -0.0003594905, 5.40248875E-05, -3.26731242E-05, -0.0135211013, -0.0131470356, -5.339726E-05, 922.7467    , 32.68252    , 782.2591    , 1.59        , 3           , 255         , 0           , 0
-0.128356054, 0.122144    , -9.803522   , 3.21463449E-06, 0.000390491419, 0.000668731 , -0.0135211563, -0.01314304 , -4.676296E-05, 922.7467    , 32.68252    , 782.2596    , 1.6         , 3           , 255         , 0           , 0
-0.133715943, 0.122688733 , -9.791039   , 0.00028546  , 0.0004064106, 0.000122661382, -0.0135136116, -0.0131375929, -4.565317E-05, 922.7467    , 32.68252    , 782.269043  , 1.61        , 3           , 255         , 0           , 0
-0.132417247, 0.124067008 , -9.791802   , 0.000366173743, 8.21454742E-05, 0.000395788 , -0.0135100018, -0.0131367166, -4.17065057E-05, 922.7467    , 32.68252    , 782.2696    , 1.62        , 3           , 255         , 0           , 0
-0.129119784, 0.123264685 , -9.788931   , -0.000145847735, 9.632556E-05, 0.0004028048, -0.0135115124, -0.0131357  , -3.7691585E-05, 922.728638  , 32.6808243  , 782.270142  , 1.63        , 3           , 255         , 0           , 0
-0.115948573, 0.1304554   , -9.790753   , 0.000195428671, 0.0003389048, -0.000435946829, -0.0135095  , -0.0131323691, -4.20967153E-05, 922.728638  , 32.6808243  , 782.2707    , 1.64        , 3           , 255         , 0           , 0
-0.125421733, 0.130011052 , -9.795672   , -0.00024666544, -7.192837E-05, 0.0002048533, -0.013511993, -0.01313306 , -4.00385361E-05, 922.728638  , 32.6808243  , 782.27124   , 1.65        , 3           , 255         , 0           , 0
-0.125333562, 0.137054682 , -9.803907   , 2.50677112E-06, -6.57775963E-05, -0.000181321055, -0.0135119436, -0.0131337419, -4.18428172E-05, 922.728638  , 32.6808243  , 782.2718    , 1.66        , 3           , 255         , 0           , 0
-0.132186025, 0.145183653 , -9.792354   , -0.000120766112, -0.000141022581, 0.0005202939, -0.0135132214, -0.013135083, -3.66209752E-05, 922.728638  , 32.6808243  , 782.272339  , 1.67        , 3           , 255         , 0           , 0
-0.133408546, 0.13854818  , -9.784244   , 0.000163180055, 0.000354757765, 0.0005227143, -0.0135116577, -0.0131314639, -3.14419267E-05, 922.728638  , 32.6808243  , 782.2729    , 1.68        , 3           , 255         , 0           , 0
-0.122612596, 0.13462472  , -9.778854   , 1.50129781E-05, 0.0003313948, 0.000206054232, -0.0135115357, -0.0131281223, -2.94262118E-05, 922.728638  , 32.6808243  , 782.273438  , 1.69        , 3           , 255         , 0           , 0
-0.129041329, 0.133106336 , -9.793093   , 3.50525079E-05, 0.000233138955, 0.000215324078, -0.0135112125, -0.0131257614, -2.73045425E-05, 922.728638  , 32.6808243  , 782.274     , 1.7         , 3           , 255         , 0           , 0
-0.129991561, 0.130113348 , -9.8020525  , -0.000339666265, 0.000271662982, -4.77487956E-05, -0.0135134123, -0.013120993, -2.78343523E-05, 922.728638  , 32.6808243  , 782.3019    , 1.71        , 3           , 255         , 0           , 0
-0.139475822, 0.121933028 , -9.805279   , -0.000517982466, 0.000103374361, 0.000226957316, -0.01351862 , -0.0131199295, -2.55788145E-05, 922.728638  , 32.6808243  , 782.3026    , 1.72        , 3           , 255         , 0           , 0
-0.13485238 , 0.123207591 , -9.799528   , 5.57654421E-05, -0.000114361756, 0.000205657881, -0.0135180894, -0.0131210452, -2.35068364E-05, 922.731567  , 32.6827927  , 782.303345  , 1.73        , 3           , 255         , 0           , 0
-0.135440782, 0.129500315 , -9.795835   , -0.000462642231, 0.000264706032, 8.413925E-05, -0.0135227265, -0.0131183881, -2.27012588E-05, 922.731567  , 32.6827927  , 782.3041    , 1.74        , 3           , 255         , 0           , 0
-0.1323236  , 0.119960167 , -9.792219   , 9.85580846E-05, 0.000267186144, 0.000256858 , -0.0135217747, -0.0131156826, -2.01688854E-05, 922.731567  , 32.6827927  , 782.3048    , 1.75        , 3           , 255         , 0           , 0
-0.1319367  , 0.113569215 , -9.802249   , 0.000400740653, 1.60116761E-05, 0.000350021728, -0.0135178119, -0.013115475, -1.66709287E-05, 922.731567  , 32.6827927  , 782.305542  , 1.76        , 3           , 255         , 0           , 0
-0.13139233 , 0.12867111  , -9.797482   , 0.000164962839, -8.089063E-05, 0.000672866 , -0.013516251, -0.0131161921, -9.93154E-06, 922.731567  , 32.6827927  , 782.3063    , 1.77        , 3           , 255         , 0           , 0
-0.1328575  , 0.136821225 , -9.802274   , 0.000186889985, 0.000771500636, -0.0002388377, -0.0135143511, -0.0131085105, -1.24241114E-05, 922.731567  , 32.6827927  , 782.307     , 1.78        , 3           , 255         , 0           , 0
-0.130403727, 0.131753415 , -9.795545   , -0.00033470965, 0.0004967965, -0.0001313164, -0.01351768 , -0.0131035615, -1.3804377E-05, 922.731567  , 32.6827927  , 782.307739  , 1.79        , 3           , 255         , 0           , 0
-0.1298365  , 0.130259246 , -9.791925   , -0.000340955565, -0.000103230443, -0.0004064249, -0.0135210361, -0.0131046493, -1.78545433E-05, 922.731567  , 32.6827927  , 782.3085    , 1.8         , 3           , 255         , 0           , 0
-0.1385875  , 0.131511316 , -9.790136   , -0.00044307037, 0.0004880313, -3.575303E-05, -0.0135144293, -0.013107799, -1.84226628E-05, 922.731567  , 32.6827927  , 782.329834  , 1.81        , 3           , 255         , 0           , 0
-0.132433817, 0.141639858 , -9.795464   , -0.0003132879, -0.000197360816, 0.0005280738, -0.01351763 , -0.0131097  , -1.31154011E-05, 922.731567  , 32.6827927  , 782.3307    , 1.82        , 3           , 255         , 0           , 0
-0.125077248, 0.136837885 , -9.798      , 3.46729648E-05, -0.000218246074, 0.000426366663, -0.01351734 , -0.0131118242, -8.822362E-06, 922.7716    , 32.683876   , 782.331543  , 1.83        , 3           , 255         , 0           , 0
-0.128424466, 0.133396044 , -9.806695   , -4.130858E-05, 0.000392480346, -6.991426E-06, -0.0135177532, -0.0131079014, -8.945322E-06, 922.7716    , 32.683876   , 782.3324    , 1.84        , 3           , 255         , 0           , 0
-0.1270779  , 0.14139843  , -9.801981   , -3.95833631E-05, -5.345643E-05, -0.000115093673, -0.0135181341, -0.0131084509, -1.00889974E-05, 922.7716    , 32.683876   , 782.333252  , 1.85        , 3           , 255         , 0           , 0
-0.134734258, 0.142876223 , -9.800973   , 0.0003111405, -6.774283E-05, -0.0009868513, -0.0135148931, -0.013109263, -1.99480455E-05, 922.7716    , 32.683876   , 782.3341    , 1.86        , 3           , 255         , 0           , 0
-0.141306281, 0.136320278 , -9.806358   , 0.0004269653, 0.000203162024, 0.000299778942, -0.013510664, -0.0131071908, -1.69778032E-05, 922.7716    , 32.683876   , 782.334961  , 1.87        , 3           , 255         , 0           , 0
-0.135351375, 0.138761684 , -9.780597   , -0.000140456657, -3.093743E-05, 0.0001731462, -0.0135120908, -0.0131074777, -1.52422062E-05, 922.7716    , 32.683876   , 782.3358    , 1.88        , 3           , 255         , 0           , 0
-0.125828221, 0.12833634  , -9.794969   , 4.945259E-05, 1.0295189E-05, -0.0001883404, -0.0135115711, -0.0131074  , -1.71269439E-05, 922.7716    , 32.683876   , 782.3367    , 1.89        , 3           , 255         , 0           , 0
-0.122796319, 0.115681395 , -9.803846   , 0.000441496872, 0.0002045176, -0.000461504766, -0.0135070961, -0.0131054176, -2.17694687E-05, 922.7716    , 32.683876   , 782.3375    , 1.9         , 3           , 255         , 0           , 0
-0.1292992  , 0.124371193 , -9.79365    , -0.0003842042, 0.000613078359, -0.000180946052, -0.0135150673, -0.013104381, -2.36072556E-05, 922.7716    , 32.683876   , 782.3093    , 1.91        , 3           , 255         , 0           , 0
-0.131168336, 0.124710277 , -9.805311   , 0.000163019373, 0.000240496243, -4.07150656E-05, -0.0135134328, -0.013101981, -2.40469E-05, 922.7716    , 32.683876   , 782.31      , 1.92        , 3           , 255         , 0           , 0
-0.129708663, 0.12550728  , -9.78613949 , -0.000264327566, 0.0002820106, -0.000214717773, -0.013516047, -0.0130991908, -2.62321228E-05, 922.750549  , 32.6862526  , 782.310669  , 1.93        , 3           , 255         , 0           , 0
-0.138112634, 0.128137335 , -9.794121   , -0.0006030238, -8.659749E-05, -1.26061977E-05, -0.0135220755, -0.0131000588, -2.63464717E-05, 922.750549  , 32.6862526  , 782.31134   , 1.94        , 3           , 255         , 0           , 0
-0.127604842, 0.129944474 , -9.791524   , -0.0008797514, 0.000313068565, 0.000241574759, -0.0135309026, -0.0130968941, -2.39731489E-05, 922.750549  , 32.6862526  , 782.312     , 1.95        , 3           , 255         , 0           , 0
-0.130495086, 0.131972358 , -9.802401   , 0.000465676 , -0.000210930972, -0.000971323461, -0.01352612 , -0.0130991358, -3.3657554E-05, 922.750549  , 32.6862526  , 782.3127    , 1.96        , 3           , 255         , 0           , 0
-0.127763376, 0.129005179 , -9.795669   , 0.000316789781, 1.908312E-05, -0.000350836868, -0.0135229072, -0.0130989924, -3.71683927E-05, 922.750549  , 32.6862526  , 782.3134    , 1.97        , 3           , 255         , 0           , 0
-0.125579685, 0.128627911 , -9.792126   , 2.32324237E-05, 0.000107235333, 0.00015140789, -0.0135226948, -0.0130979  , -3.56688579E-05, 922.750549  , 32.6862526  , 782.314148  , 1.98        , 3           , 255         , 0           , 0
-0.122267738, 0.130616218 , -9.790439   , -0.000194774591, 9.932273E-05, -0.000381831982, -0.0135245929, -0.0130969584, -3.95005E-05, 922.750549  , 32.6862526  , 782.3149    , 1.99        , 3           , 255         , 0           , 0
-0.121833228, 0.129718751 , -9.787766   , -0.000200471666, -0.000174434419, 9.872904E-05, -0.0135266092, -0.0130986879, -3.84896448E-05, 922.750549  , 32.6862526  , 782.3156    , 2           , 3           , 0           , 7.48323631  , 200
-0.124701217, 0.131093189 , -9.79727    , 9.69099347E-05, 0.000193149535, 3.60326048E-05, -0.0135158105, -0.0130969444, -3.82842372E-05, 922.750549  , 32.6862526  , 782.3146    , 2.01        , 3           , 1           , 0           , 0
-0.13003777 , 0.140080243 , -9.803984   , -0.0004192603, 4.75185225E-05, -0.000474149245, -0.0135199409, -0.0130965337, -4.303202E-05, 922.750549  , 32.6862526  , 782.315247  , 2.02        , 3           , 2           , 0           , 0
-0.126049832, 0.13569276  , -9.793113   , -0.000263180875, 7.457414E-05, 0.000422826153, -0.0135226287, -0.0130957318, -3.88139524E-05, 922.7342    , 32.6854362  , 782.316     , 2.03        , 3           , 3           , 0           , 0
-0.1323757  , 0.13519302  , -9.7881     , -6.629905E-05, -2.31952581E-05, 0.000236899723, -0.0135233225, -0.0130959312, -3.64419066E-05, 922.7342    , 32.6854362  , 782.3167    , 2.04        , 3           , 4           , 0           , 0
-0.121355131, 0.148489982 , -9.786614   , 8.253721E-05, 3.84985469E-05, -0.000108128952, -0.0135224834, -0.0130955614, -3.75283562E-05, 922.7342    , 32.6854362  , 782.317444  , 2.05        , 3           , 5           , 0           , 0
-0.125529721, 0.143330142 , -9.791928   , 7.92921637E-05, -0.000236986147, -5.50537479E-05, -0.0135216834, -0.0130979382, -3.80468446E-05, 922.7342    , 32.6854362  , 782.3182    , 2.06        , 3           , 6           , 0           , 0
-0.135552853, 0.133086726 , -9.795436   , 2.14820029E-05, 0.000120963639, -8.57442E-05, -0.0135214571, -0.01309674 , -3.8920607E-05, 922.7342    , 32.6854362  , 782.3189    , 2.07        , 3           , 7           , 0           , 0
-0.133710653, 0.138400719 , -9.793702   , 0.00019592559, 7.57480448E-05, -0.0007787267, -0.0135193961, -0.0130960876, -4.671788E-05, 922.7342    , 32.6854362  , 782.319641  , 2.08        , 3           , 8           , 5           , 5
-0.132867426, 0.1387487   , -9.790896   , 0.000188711769, -7.64398137E-05, 5.914263E-05, -0.0135175148, -0.0130968429, -4.61161362E-05, 922.7342    , 32.6854362  , 782.3204    , 2.09        , 3           , 9           , 5           , 0.1
-0.126985148, 0.1263164   , -9.789601   , 6.810101E-05, 4.011893E-05, 0.000691806 , -0.0135169253, -0.0130963484, -3.92037036E-05, 922.7342    , 32.6854362  , 782.3211    , 2.1         , 3           , 10          , 0.1         , 0.1
-0.131215483, 0.116328143 , -9.788217   , 0.000249640027, -6.674841E-05, 0.000720216136, -0.0135255028, -0.0130984653, -3.18489547E-05, 922.7342    , 32.6854362  , 782.339233  , 2.11        , 3           , 11          , 0.008428718 , 0.008428716
-0.12293563 , 0.126879826 , -9.790575   , -0.000488066871, -0.0003914258, 0.000340724015, -0.0135304285, -0.0131023349, -2.838888E-05, 922.7342    , 32.6854362  , 782.3401    , 2.12        , 3           , 12          , 0.174643889 , 0
-0.123717472, 0.128568336 , -9.798281   , -0.0005801954, -5.933107E-07, -2.13474432E-05, -0.0135362251, -0.0131023442, -2.8602266E-05, 922.7173    , 32.6839447  , 782.340942  , 2.13        , 3           , 13          , 0           , 0
-0.127842933, 0.1299572   , -9.797617   , 7.45330763E-05, -0.000189609942, -5.73531943E-05, -0.0135354735, -0.0131042479, -2.9150111E-05, 922.7173    , 32.6839447  , 782.3418    , 2.14        , 3           , 14          , -0.000516748, -0.000369047048
-0.12849398 , 0.123740271 , -9.776297   , -0.000269840879, -8.709612E-05, -0.0006155472, -0.0135380924, -0.0131052006, -3.52936077E-05, 922.7173    , 32.6839447  , 782.342651  , 2.15        , 3           , 15          , 0           , 2.30385212E-05
-0.121180736, 0.119073607 , -9.781305   , 0.000150225242, 0.0009583044, 0.000395544863, -0.0135366395, -0.013095567, -3.14680146E-05, 922.7173    , 32.6839447  , 782.3435    , 2.16        , 3           , 16          , 0           , 1.401298E-45
-0.124606453, 0.12620759  , -9.789848   , 0.000220622867, 6.52950839E-05, -0.000286279421, -0.013534396, -0.0130949514, -3.433955E-05, 922.7173    , 32.6839447  , 782.34436   , 2.17        , 3           , 20          , 0           , 0
-0.121508941, 0.129542083 , -9.791967   , -4.86252247E-05, 0.000285539048, 0.000103023485, -0.0135348942, -0.0130920829, -3.3348E-05 , 922.7173    , 32.6839447  , 782.3452    , 2.18        , 3           , 21          , 0           , 0
-0.120311245, 0.1332312   , -9.795587   , -0.000397742959, -0.0002855357, -0.000614977151, -0.0135387909, -0.01309502 , -3.94589442E-05, 922.7173    , 32.6839447  , 782.346069  , 2.19        , 3           , 22          , 0           , 0
-0.129780471, 0.139159143 , -9.790273   , 0.0003060603, 0.000440914067, -0.000324140885, -0.0135356868, -0.0130906561, -4.27599443E-05, 922.7173    , 32.6839447  , 782.3469    , 2.2         , 3           , 40          , 0           , 0
-0.128676727, 0.137219116 , -9.795279   , 0.000298270083, -0.000132606277, 0.0004109182, -0.0135170463, -0.0130825136, -3.88384979E-05, 922.7173    , 32.6839447  , 782.3837    , 2.21        , 3           , 41          , 0           , 0
-0.128960952, 0.131259173 , -9.798504   , 9.09256341E-05, 4.03646263E-05, -4.72350948E-05, -0.0135161318, -0.0130821168, -3.93162773E-05, 922.7173    , 32.6839447  , 782.3848    , 2.22        , 3           , 42          , 0           , 0
-0.124814734, 0.136525467 , -9.782078   , -8.84119654E-05, 0.0004022856, -0.0005368922, -0.0135169448, -0.01307817 , -4.47394123E-05, 922.775635  , 32.6846924  , 782.3859    , 2.23        , 3           , 255         , 0           , 0
-0.13064754 , 0.137066528 , -9.80304    , -0.000166161743, 0.000235060026, 3.45987937E-05, -0.0135186119, -0.0130758137, -4.44252E-05, 922.775635  , 32.6846924  , 782.387     , 2.24        , 3           , 255         , 0           , 0
-0.12711598 , 0.1281698   , -9.804628   , -0.00033666665, -0.00020231909, 0.000323723973, -0.0135220205, -0.0130777936, -4.1160707E-05, 922.775635  , 32.6846924  , 782.3881    , 2.25        , 3           , 255         , 0           , 0
-0.120456323, 0.137278482 , -9.793422   , 0.0002004563, 0.000234882056, -0.000349953247, -0.01351997 , -0.0130754923, -4.46919E-05, 922.775635  , 32.6846924  , 782.3892    , 2.26        , 3           , 255         , 0           , 0
-0.130707934, 0.121040605 , -9.792631   , 1.20365294E-05, 0.000456818321, -0.0005100227, -0.0135197816, -0.0130709931, -4.985373E-05, 922.775635  , 32.6846924  , 782.3903    , 2.27        , 3           , 255         , 0           , 0
-0.128720149, 0.118110254 , -9.786064   , 0.0003549319, 0.000372006616, 0.00016471956, -0.0135162547, -0.01306725 , -4.82568648E-05, 922.775635  , 32.6846924  , 782.3914    , 2.28        , 3           , 255         , 0           , 0
-0.123987235, 0.131217316 , -9.794149   , -0.000361140876, -2.22805247E-05, 0.0006705629, -0.013519953, -0.0130673833, -4.154842E-05, 922.775635  , 32.6846924  , 782.3925    , 2.29        , 3           , 255         , 0           , 0
-0.128869087, 0.125630274 , -9.79991    , -4.0380517E-05, 7.0091337E-06, 3.5451616E-05, -0.0135203619, -0.0130673079, -4.119486E-05, 922.775635  , 32.6846924  , 782.3936    , 2.3         , 3           , 255         , 0           , 0
-0.133127034, 0.12927188  , -9.792292   , 0.000205143471, -0.00069349166, 0.000148233608, -0.0135141034, -0.013072582, -3.96740761E-05, 922.775635  , 32.6846924  , 782.3498    , 2.31        , 3           , 255         , 0           , 0
-0.123342194, 0.126949161 , -9.797133   , 0.0009654362, 2.601993E-05, 1.67907037E-05, -0.0135044493, -0.0130723212, -3.950969E-05, 922.775635  , 32.6846924  , 782.3506    , 2.32        , 3           , 255         , 0           , 0
-0.119459167, 0.12327794  , -9.790982   , 0.000225343014, -0.000327938818, -0.0003838031, -0.013502147, -0.0130756507, -4.33033165E-05, 922.735     , 32.6858444  , 782.3514    , 2.33        , 3           , 255         , 0           , 0
-0.1294431  , 0.130740076 , -9.7906065  , -0.000653312949, -0.000493886531, -0.000973242044, -0.0135085536, -0.01308072 , -5.2968735E-05, 922.735     , 32.6858444  , 782.3522    , 2.34        , 3           , 255         , 0           , 0
-0.1309059  , 0.127315015 , -9.7889     , -0.0006683722, -0.0005270907, 3.923592E-05, -0.0135152405, -0.0130859846, -5.25051619E-05, 922.735     , 32.6858444  , 782.352966  , 2.35        , 3           , 255         , 0           , 0
-0.129073232, 0.13163133  , -9.798744   , -0.0002790987, 1.27592648E-05, -0.000329689967, -0.01351799 , -0.0130859017, -5.58036882E-05, 922.735     , 32.6858444  , 782.35376   , 2.36        , 3           , 255         , 0           , 0
-0.118571982, 0.132146    , -9.791486   , -0.00047036953, 0.000634483 , 0.000564623333, -0.0135227665, -0.0130794793, -5.02433941E-05, 922.735     , 32.6858444  , 782.354553  , 2.37        , 3           , 255         , 0           , 0
-0.12138243 , 0.124122359 , -9.786831   , -0.000252866361, 0.0004428302, 0.000152561872, -0.0135253146, -0.01307503 , -4.87777143E-05, 922.735     , 32.6858444  , 782.355347  , 2.38        , 3           , 255         , 0           , 0
-0.1338308  , 0.133598268 , -9.790497   , -0.0002496104, 0.0002188702, 0.000233193292, -0.0135278413, -0.0130728111, -4.64754521E-05, 922.735     , 32.6858444  , 782.35614   , 2.39        , 3           , 255         , 0           , 0
-0.138929412, 0.139225677 , -9.799298   , -0.000688596454, -0.000120504759, 0.000489312864, -0.01353479 , -0.01307395 , -4.156618E-05, 922.735     , 32.6858444  , 782.356934  , 2.4         , 3           , 255         , 0           , 0
-0.128056273, 0.135424733 , -9.807788   , 0.000309386465, 1.22234633E-05, 0.0006464276, -0.0135260178, -0.01307296 , -3.51791023E-05, 922.735     , 32.6858444  , 782.3705    , 2.41        , 3           , 255         , 0           , 0
-0.131887361, 0.136075824 , -9.800959   , -0.000200855022, 3.71696369E-05, -0.0005077769, -0.0135279605, -0.0130726583, -4.02617261E-05, 922.735     , 32.6858444  , 782.3714    , 2.42        , 3           , 255         , 0           , 0
-0.125770673, 0.134968072 , -9.793097   , 4.276674E-05, 7.815077E-06, -0.000304868241, -0.0135274939, -0.0130726211, -4.33113746E-05, 922.810242  , 32.6868629  , 782.3723    , 2.43        , 3           , 255         , 0           , 0
-0.127435   , 0.129066572 , -9.798177   , -0.000208294427, 1.07093074E-05, 0.0007348354, -0.0135296732, -0.0130724153, -3.59646947E-05, 922.810242  , 32.6868629  , 782.3732    , 2.44        , 3           , 255         , 0           , 0
-0.123010516, 0.131472185 , -9.782465   , -0.0003685254, 1.87973783E-05, 0.000765469042, -0.0135334572, -0.0130721238, -2.831278E-05, 922.810242  , 32.6868629  , 782.374146  , 2.45        , 3           , 255         , 0           , 0
-0.129791826, 0.1325568   , -9.788484   , -0.000321983243, -6.95019844E-05, -0.000128264379, -0.01353666 , -0.0130728371, -2.95859682E-05, 922.810242  , 32.6868629  , 782.375061  , 2.46        , 3           , 255         , 0           , 0
-0.132137775, 0.1324811   , -9.797602   , -9.459269E-05, 2.96748476E-05, -4.879623E-05, -0.0135376006, -0.0130725475, -3.00779229E-05, 922.810242  , 32.6868629  , 782.376     , 2.47        , 3           , 255         , 0           , 0
-0.117828049, 0.130824536 , -9.79907    , -4.19723219E-05, 9.16053541E-05, -0.0005945766, -0.0135379424, -0.0130717121, -3.60359081E-05, 922.810242  , 32.6868629  , 782.3769    , 2.48        , 3           , 255         , 0           , 0
-0.120337285, 0.136098966 , -9.798106   , 5.03427E-05 , -0.000126524828, -0.0005901655, -0.0135373622, -0.0130730569, -4.192025E-05, 922.810242  , 32.6868629  , 782.3778    , 2.49        , 3           , 255         , 0           , 0
-0.122699022, 0.120548405 , -9.793711   , 0.000252763915, -0.000352842326, 0.000235116924, -0.0135348644, -0.0130765522, -3.95213829E-05, 922.810242  , 32.6868629  , 782.3787    , 2.5         , 3           , 255         , 0           , 0
-0.121983983, 0.1201488   , -9.797782   , 0.000908305054, -8.00374E-05, -8.39517E-05, -0.013524645, -0.0130733708, -4.036478E-05, 922.810242  , 32.6868629  , 782.2886    , 2.51        , 3           , 255         , 0           , 0
-0.130515248, 0.129168034 , -9.803522   , 0.0004923309, 0.000338744838, -0.000326769339, -0.0135196783, -0.0130700273, -4.36781665E-05, 922.810242  , 32.6868629  , 782.2889    , 2.52        , 3           , 255         , 0           , 0
-0.136283472, 0.127333581 , -9.79121    , 0.000124200131, 0.0003431481, 0.000157923714, -0.0135184573, -0.0130665749, -4.214536E-05, 922.769531  , 32.6827927  , 782.2892    , 2.53        , 3           , 255         , 0           , 0
-0.128769487, 0.122261547 , -9.797798   , -9.95268347E-05, 9.919715E-05, -0.000130133078, -0.0135194371, -0.0130656  , -4.34600661E-05, 922.769531  , 32.6827927  , 782.289551  , 2.54        , 3           , 255         , 0           , 0
-0.123420335, 0.130575538 , -9.798036   , -0.00015971309, -0.0003752964, -0.0001122875, -0.0135210194, -0.013069368, -4.45321421E-05, 922.769531  , 32.6827927  , 782.2899    , 2.55        , 3           , 255         , 0           , 0
-0.132432014, 0.135841176 , -9.795735   , -1.21940975E-05, -0.000230245292, 0.000205640448, -0.0135211684, -0.0130716432, -4.24446735E-05, 922.769531  , 32.6827927  , 782.2903    , 2.56        , 3           , 255         , 0           , 0
-0.13108173 , 0.134138718 , -9.798716   , -0.000115891744, 2.46526033E-05, 0.000587175658, -0.0135224033, -0.0130713172, -3.657644E-05, 922.769531  , 32.6827927  , 782.290649  , 2.57        , 3           , 255         , 0           , 0
-0.124230407, 0.1277227   , -9.802908   , 0.0005810977, -0.000123956648, 0.000552912 , -0.0135166645, -0.0130724814, -3.103073E-05, 922.769531  , 32.6827927  , 782.291     , 2.58        , 3           , 255         , 0           , 0
-0.139264539, 0.123989783 , -9.802153   , 0.0003265817, -0.000104394654, 0.0009209592, -0.01351352 , -0.0130734025, -2.1807311E-05, 922.769531  , 32.6827927  , 782.2914    , 2.59        , 3           , 255         , 0           , 0
-0.13613227 , 0.135114223 , -9.796377   , 0.0002391712, -0.000164148281, 0.000472445332, -0.01351119 , -0.0130749792, -1.70608273E-05, 922.769531  , 32.6827927  , 782.291748  , 2.6         , 3           , 255         , 0           , 0
-0.135037988, 0.13905637  , -9.79667    , 0.000611993368, 5.93435252E-05, -0.000210003651, -0.0134989545, -0.0130781224, -1.9248444E-05, 922.769531  , 32.6827927  , 782.2672    , 2.61        , 3           , 255         , 0           , 0
-0.12974976 , 0.136879325 , -9.793287   , 0.000211086182, -5.2709278E-05, -0.000175686029, -0.0134968217, -0.0130786719, -2.09981354E-05, 922.769531  , 32.6827927  , 782.2674    , 2.62        , 3           , 255         , 0           , 0
-0.127365544, 0.128903612 , -9.800184   , -0.00071600615, -0.000381170743, 0.000257242849, -0.0135040171, -0.01308245 , -1.83743177E-05, 922.7551    , 32.6860466  , 782.2676    , 2.63        , 3           , 255         , 0           , 0
-0.124078318, 0.128704682 , -9.801364   , -0.0005941895, 7.873459E-05, 0.000226434873, -0.013509986, -0.0130816307, -1.61206754E-05, 922.7551    , 32.6860466  , 782.267761  , 2.64        , 3           , 255         , 0           , 0
-0.122032918, 0.129892513 , -9.80839    , -0.000400620629, 0.0003676081, 0.000439604657, -0.0135140494, -0.0130778952, -1.17744376E-05, 922.7551    , 32.6860466  , 782.267944  , 2.65        , 3           , 255         , 0           , 0
-0.130869523, 0.138071328 , -9.794899   , -0.000360725273, 0.00031348152, 0.0001806866, -0.01351768 , -0.0130747361, -1.00099978E-05, 922.7551    , 32.6860466  , 782.2681    , 2.66        , 3           , 255         , 0           , 0
-0.145056933, 0.130834654 , -9.798129   , -0.000599036459, 0.000682545942, -0.000174799541, -0.0135236476, -0.0130679347, -1.18502221E-05, 922.7551    , 32.6860466  , 782.2683    , 2.67        , 3           , 255         , 0           , 0
-0.131806821, 0.129086852 , -9.792129   , -0.000459076371, 0.000352172065, 0.000307313167, -0.013528279, -0.0130643733, -8.824809E-06, 922.7551    , 32.6860466  , 782.2685    , 2.68        , 3           , 255         , 0           , 0
-0.1327303  , 0.129786983 , -9.789616   , -0.000731175067, 0.000217772453, -0.0002804268, -0.0135355508, -0.013062234, -1.16584615E-05, 922.7551    , 32.6860466  , 782.2687    , 2.69        , 3           , 255         , 0           , 0
-0.124916576, 0.127295926 , -9.794806   , -0.0005403252, -0.0001474639, 0.000350342627, -0.0135410009, -0.0130636618, -8.135178E-06, 922.7551    , 32.6860466  , 782.26886   , 2.7         , 3           , 255         , 0           , 0
-0.126330987, 0.1217591   , -9.796467   , -0.000228826946, 0.000103688595, 0.000281682966, -0.0135424249, -0.0130662834, -5.3442327E-06, 922.7551    , 32.6860466  , 782.267     , 2.71        , 3           , 255         , 0           , 0
-0.1330293  , 0.12300618  , -9.79143    , 0.000322125939, 0.0007423791, -0.000220272326, -0.0135391755, -0.01305889 , -7.647408E-06, 922.7551    , 32.6860466  , 782.2672    , 2.72        , 3           , 255         , 0           , 0
-0.124277055, 0.12078426  , -9.800413   , -0.000170302344, 0.000115314353, -0.000261801149, -0.0135408426, -0.0130577711, -1.02809545E-05, 922.769958  , 32.6886253  , 782.2674    , 2.73        , 3           , 255         , 0           , 0
-0.120832168, 0.130871385 , -9.796184   , -0.000125232909, 0.000126676314, -0.0005511239, -0.0135420235, -0.01305658 , -1.58091752E-05, 922.769958  , 32.6886253  , 782.2676    , 2.74        , 3           , 255         , 0           , 0
-0.129571214, 0.12544018  , -9.798236   , 0.000449080224, 0.000478966977, 0.000475062785, -0.0135375941, -0.01305173 , -1.11235495E-05, 922.769958  , 32.6886253  , 782.267761  , 2.75        , 3           , 255         , 0           , 0
-0.1326369  , 0.119901836 , -9.79114151 , 0.000269278768, -0.000181385491, -0.000179950934, -0.0135348774, -0.0130535662, -1.28984484E-05, 922.769958  , 32.6886253  , 782.267944  , 2.76        , 3           , 255         , 0           , 0
-0.124876283, 0.133552343 , -9.799995   , -0.000311763026, 0.000220273228, 1.54221871E-05, -0.0135379974, -0.0130513618, -1.27740459E-05, 922.769958  , 32.6886253  , 782.2681    , 2.77        , 3           , 255         , 0           , 0
-0.125776723, 0.129730985 , -9.803978   , -0.000297647726, 0.000279959233, -0.0004313526, -0.0135409161, -0.0130486218, -1.71253378E-05, 922.769958  , 32.6886253  , 782.2684    , 2.78        , 3           , 255         , 0           , 0
-0.1309633  , 0.121368051 , -9.798129   , -0.000657751865, 0.000262615475, -2.866823E-05, -0.0135474913, -0.0130459992, -1.74475863E-05, 922.769958  , 32.6886253  , 782.2686    , 2.79        , 3           , 255         , 0           , 0
-0.133846983, 0.124359086 , -9.798655   , 0.000224024756, 0.000192493622, -0.000117533622, -0.0135452356, -0.0130440909, -1.86489578E-05, 922.769958  , 32.6886253  , 782.26886   , 2.8         , 3           , 255         , 0           , 0
-0.127515823, 0.139439985 , -9.798992   , 7.32051E-05 , 0.000419433782, -5.45309449E-05, -0.0135322483, -0.0130403964, -1.94107561E-05, 922.769958  , 32.6886253  , 782.246643  , 2.81        , 3           , 255         , 0           , 0
-0.134554327, 0.121943809 , -9.799475   , 5.83537039E-05, -0.000136241637, 0.0009311833, -0.0135317864, -0.0130416322, -1.008078E-05, 922.769958  , 32.6886253  , 782.2467    , 2.82        , 3           , 255         , 0           , 0
-0.1364645  , 0.117832005 , -9.79842    , 0.000111702713, 3.69504269E-05, 0.0004651303, -0.01353073 , -0.0130411992, -5.43462E-06, 922.7735    , 32.6853027  , 782.246765  , 2.83        , 3           , 255         , 0           , 0
-0.133394182, 0.125447392 , -9.803279   , -6.691925E-05, -3.39746475E-06, -0.00029187437, -0.0135313617, -0.0130412737, -8.352818E-06, 922.7735    , 32.6853027  , 782.2468    , 2.84        , 3           , 255         , 0           , 0
-0.133229032, 0.124838814 , -9.796722   , -3.50701157E-07, -0.000161256612, -0.000707256433, -0.0135312723, -0.0130429808, -1.54033423E-05, 922.7735    , 32.6853027  , 782.2469    , 2.85        , 3           , 255         , 0           , 0
-0.126508072, 0.133900478 , -9.798338   , 0.000154815178, -0.000345906621, 0.0002492834, -0.013529758, -0.0130464053, -1.286378E-05, 922.7735    , 32.6853027  , 782.246948  , 2.86        , 3           , 255         , 0           , 0
-0.1255752  , 0.125279546 , -9.790889   , 2.84758862E-05, -0.000107642845, -0.000440216361, -0.0135294162, -0.0130475415, -1.72512428E-05, 922.7735    , 32.6853027  , 782.247     , 2.87        , 3           , 255         , 0           , 0
-0.123161808, 0.124297023 , -9.799814   , -7.582741E-05, 0.000127069768, 0.000163828343, -0.0135301938, -0.01304625 , -1.56302031E-05, 922.7735    , 32.6853027  , 782.247131  , 2.88        , 3           , 255         , 0           , 0
-0.128645375, 0.12806654  , -9.791693   , 0.000229745841, 0.00048504665, 0.0008003118, -0.0135280015, -0.0130412932, -7.692963E-06, 922.7735    , 32.6853027  , 782.247253  , 2.89        , 3           , 255         , 0           , 0
-0.121837914, 0.130537748 , -9.797056   , 0.000225865311, 5.473729E-05, 0.0005674971, -0.0135258147, -0.0130406683, -2.02557317E-06, 922.7735    , 32.6853027  , 782.2474    , 2.9         , 3           , 255         , 0           , 0
-0.124186039, 0.132844776 , -9.799108   , -0.000215060951, -9.953222E-05, 0.00101056765, -0.013519492, -0.01304357 , 7.980964E-06, 922.7735    , 32.6853027  , 782.2231    , 2.91        , 3           , 255         , 0           , 0
-0.11759232 , 0.1303839   , -9.801544   , 0.000295439037, -0.0002649039, 0.0003651388, -0.0135165844, -0.01304617 , 1.1668043E-05, 922.7735    , 32.6853027  , 782.223     , 2.92        , 3           , 255         , 0           , 0
-0.126111582, 0.138129324 , -9.80264    , 4.861367E-05, -4.69523075E-05, 0.000329275965, -0.0135161411, -0.0130465943, 1.49670477E-05, 922.759338  , 32.6878128  , 782.222961  , 2.93        , 3           , 255         , 0           , 0
-0.1253412  , 0.135818928 , -9.799692   , -0.0002963852, -0.00042897262, 0.000122641024, -0.0135191232, -0.0130508682, 1.62514061E-05, 922.759338  , 32.6878128  , 782.2229    , 2.94        , 3           , 255         , 0           , 0
-0.142663941, 0.136584967 , -9.791566   , -0.000228694058, -6.282909E-05, -0.0004375558, -0.0135213509, -0.0130515555, 1.18844628E-05, 922.759338  , 32.6878128  , 782.222839  , 2.95        , 3           , 255         , 0           , 0
-0.139029309, 0.1321018   , -9.788295   , 9.170672E-05, -1.22968631E-05, -4.08379856E-05, -0.013520428, -0.013051684, 1.147776E-05, 922.759338  , 32.6878128  , 782.2228    , 2.96        , 3           , 255         , 0           , 0
-0.134542286, 0.126838744 , -9.79376    , -0.0002498511, 0.000283913861, 0.000330451119, -0.0135229705, -0.0130488006, 1.47437795E-05, 922.759338  , 32.6878128  , 782.2227    , 2.97        , 3           , 255         , 0           , 0
-0.124693915, 0.12446966  , -9.802988   , -0.0003062531, 0.000335929828, 0.000328797469, -0.0135260746, -0.0130453967, 1.79862145E-05, 922.759338  , 32.6878128  , 782.222656  , 2.98        , 3           , 255         , 0           , 0
-0.126921311, 0.126790032 , -9.793779   , -0.0004076517, -0.000222954055, -0.000182752658, -0.0135301268, -0.0130476523, 1.61889147E-05, 922.759338  , 32.6878128  , 782.2226    , 2.99        , 3           , 255         , 0           , 0
-0.125803977, 0.124410987 , -9.793361   , -0.000229623984, 0.000265871 , -0.000505224336, -0.0135323573, -0.0130450614, 1.11008476E-05, 922.759338  , 32.6878128  , 782.222534  , 3           , 3           , 0           , 8.483236    , 300
-0.1346803  , 0.128966168 , -9.789055   , 2.31093145E-05, 0.000125176972, -0.000443541183, -0.01352942 , -0.013045189, 6.61406648E-06, 922.759338  , 32.6878128  , 782.221436  , 3.01        , 3           , 1           , 0           , 0
-0.1319929  , 0.134398326 , -9.798825   , 3.875018E-05, 4.93676926E-05, 0.0006262573, -0.0135291144, -0.01304461 , 1.28697611E-05, 922.759338  , 32.6878128  , 782.2214    , 3.02        , 3           , 2           , 0           , 0
-0.129333824, 0.1278038   , -9.79955    , 1.21734338E-05, 0.000155741582, 0.000119248289, -0.0135290073, -0.0130430367, 1.404113E-05, 922.7486    , 32.6865234  , 782.2213    , 3.03        , 3           , 3           , 0           , 0
-0.1254611  , 0.124011382 , -9.797599   , 0.000203991425, 0.000146140577, -0.000194262029, -0.0135269407, -0.0130416024, 1.20787972E-05, 922.7486    , 32.6865234  , 782.221252  , 3.04        , 3           , 4           , 0           , 0
-0.130561873, 0.123307273 , -9.80083752 , 0.0002086075, 0.000331887568, -0.000421915669, -0.0135248  , -0.01303834 , 7.814876E-06, 922.7486    , 32.6865234  , 782.2212    , 3.05        , 3           , 5           , 0           , 0
-0.134551957, 0.13437216  , -9.796366   , 0.000307526439, 0.000108850509, -0.00059495 , -0.0135216461, -0.0130373351, 1.85085514E-06, 922.7486    , 32.6865234  , 782.2211    , 3.06        , 3           , 6           , 0           , 0
-0.131061271, 0.1254786   , -9.7994585  , -0.0005696862, 0.00034162  , -5.681275E-05, -0.0135273347, -0.0130339256, 1.2365449E-06, 922.7486    , 32.6865234  , 782.221069  , 3.07        , 3           , 7           , 0           , 0
-0.134988829, 0.133156076 , -9.792836   , -0.000460389419, 0.0002212081, -5.05865755E-05, -0.0135319317, -0.0130317211, 7.007633E-07, 922.7486    , 32.6865234  , 782.221069  , 3.08        , 3           , 8           , 5           , 5
-0.129121661, 0.137308031 , -9.802318   , 4.66088823E-05, 0.0003973487, 8.660773E-05, -0.0135314772, -0.0130277369, 1.51304744E-06, 922.7486    , 32.6865234  , 782.221069  , 3.09        , 3           , 9           , 5           , 0.1
-0.11767932 , 0.135098159 , -9.79832    , -0.0002020637, 3.32622731E-05, -0.0003397159, -0.0135334525, -0.013027451, -1.88850413E-06, 922.7486    , 32.6865234  , 782.221069  , 3.1         , 3           , 10          , 0.1         , 0.1
-0.126915932, 0.140904039 , -9.796686   , -0.000596385333, -0.000151028216, -0.0005104198, -0.0135360733, -0.0130323572, -7.014771E-06, 922.7486    , 32.6865234  , 782.235168  , 3.11        , 3           , 11          , 0.00767881051, 0.00767880725
-0.132614568, 0.134688735 , -9.787061   , 0.000111900095, -0.000310673378, -0.0004914159, -0.0135348914, -0.0130355274, -1.18867174E-05, 922.7486    , 32.6865234  , 782.2352    , 3.12        , 3           , 12          , 0.174645633 , 0
-0.129443347, 0.138023868 , -9.789438   , -0.0001565087, 0.00013380454, -0.000422841229, -0.0135364011, -0.0130342469, -1.61331154E-05, 922.7347    , 32.6857071  , 782.2353    , 3.13        , 3           , 13          , 0           , 0
-0.126426175, 0.135972485 , -9.802439   , -0.000307300943, -0.000224715623, -0.0006858882, -0.013539386, -0.0130365873, -2.296136E-05, 922.7347    , 32.6857071  , 782.235352  , 3.14        , 3           , 14          , -0.0005169723, -0.000369036454
-0.134702012, 0.11926464  , -9.807062   , -0.0004176619, -0.000467625272, -0.000256134022, -0.0135435266, -0.0130412988, -2.54593E-05, 922.7347    , 32.6857071  , 782.2354    , 3.15        , 3           , 15          , 0           , 2.30416117E-05
-0.1315027  , 0.132739142 , -9.796302   , -0.00020959205, -0.0005600732, 3.98731136E-05, -0.0135456286, -0.0130468905, -2.49847235E-05, 922.7347    , 32.6857071  , 782.2355    , 3.16        , 3           , 16          , 0           , 1.401298E-45
-0.132694   , 0.131311387 , -9.789705   , -8.495408E-06, 0.000153882313, 6.59804646E-05, -0.0135457227, -0.0130453445, -2.43457816E-05, 922.7347    , 32.6857071  , 782.235535  , 3.17        , 3           , 20          , 0           , 0
-0.132534549, 0.1257627   , -9.793842   , -0.000177728245, -0.0005922064, -0.000841502333, -0.01354739 , -0.0130513785, -3.268032E-05, 922.7347    , 32.6857071  , 782.2356    , 3.18        , 3           , 21          , 0           , 0
-0.140021309, 0.13701205  , -9.790214   , -0.000296935556, -9.4257266E-05, 0.00019668942, -0.013550384, -0.013052295, -3.070072E-05, 922.7347    , 32.6857071  , 782.235657  , 3.19        , 3           , 22          , 0           , 0
-0.121525906, 0.138661146 , -9.797262   , -0.000328163733, 0.00023044282, 0.0002221603, -0.0135536948, -0.0130499611, -2.851041E-05, 922.7347    , 32.6857071  , 782.2357    , 3.2         , 3           , 40          , 0           , 0
-0.127700448, 0.129683971 , -9.800183   , -0.000601709355, -6.064921E-05, -0.000270250515, -0.0135610346, -0.0130559793, -3.11868753E-05, 922.7347    , 32.6857071  , 782.2678    , 3.21        , 3           , 41          , 0           , 0
-0.131832674, 0.139439866 , -9.800803   , -0.000166993472, 0.000340697356, -0.0001087898, -0.01356269 , -0.0130525874, -3.232095E-05, 922.7347    , 32.6857071  , 782.2681    , 3.22        , 3           , 42          , 0           , 0
-0.134504616, 0.1310747   , -9.792823   , -0.000308608, 0.000240450128, -0.0001701999, -0.0135657517, -0.0130502069, -3.40555E-05, 922.7907    , 32.6908646  , 782.268433  , 3.23        , 3           , 255         , 0           , 0
-0.125774354, 0.129898772 , -9.795466   , -0.00027740217, -1.93046872E-05, -0.000190934748, -0.0135685019, -0.0130504258, -3.596216E-05, 922.7907    , 32.6908646  , 782.268738  , 3.24        , 3           , 255         , 0           , 0
-0.1299822  , 0.135753781 , -9.797284   , -0.000386114116, 0.000166926591, -0.000418463227, -0.0135723092, -0.0130488146, -4.01693E-05, 922.7907    , 32.6908646  , 782.269043  , 3.25        , 3           , 255         , 0           , 0
-0.123441361, 0.127140224 , -9.79962349 , -0.00031135726, 0.000161237287, -0.0003465223, -0.013575376, -0.0130472491, -4.36563168E-05, 922.7907    , 32.6908646  , 782.269348  , 3.26        , 3           , 255         , 0           , 0
-0.128085852, 0.126817971 , -9.798681   , -0.000367989938, -2.818997E-05, 0.0006799325, -0.0135791451, -0.0130474363, -3.685337E-05, 922.7907    , 32.6908646  , 782.269653  , 3.27        , 3           , 255         , 0           , 0
-0.136079431, 0.135695368 , -9.789929   , 4.99970338E-05, 7.86383462E-05, 0.0006649164, -0.0135787325, -0.01304656 , -3.02150856E-05, 922.7907    , 32.6908646  , 782.269958  , 3.28        , 3           , 255         , 0           , 0
-0.131276444, 0.142401055 , -9.785803   , -0.0009112938, -2.61325331E-05, 0.0003859801, -0.0135878958, -0.0130467694, -2.63518614E-05, 922.7907    , 32.6908646  , 782.270264  , 3.29        , 3           , 255         , 0           , 0
-0.1290279  , 0.13314794  , -9.795175   , -0.0003335363, 0.000415876246, 0.000228753575, -0.0135912606, -0.01304258 , -2.41209182E-05, 922.7907    , 32.6908646  , 782.270569  , 3.3         , 3           , 255         , 0           , 0
-0.131641462, 0.1257442   , -9.793491   , -0.0008263814, 0.000147331448, 0.000565214141, -0.0135998689, -0.01304421 , -1.84854525E-05, 922.7907    , 32.6908646  , 782.218262  , 3.31        , 3           , 255         , 0           , 0
-0.121956006, 0.131397963 , -9.799562   , -0.00032677222, 5.23125927E-05, 4.04845E-05 , -0.0136031406, -0.0130436812, -1.8087736E-05, 922.7907    , 32.6908646  , 782.218262  , 3.32        , 3           , 255         , 0           , 0
-0.127358228, 0.126686245 , -9.797606   , -0.000649172347, 5.90602E-05 , 0.000497606234, -0.0136096971, -0.0130430236, -1.3119864E-05, 922.7416    , 32.6871338  , 782.218262  , 3.33        , 3           , 255         , 0           , 0
-0.123163104, 0.125489861 , -9.79260349 , 0.000102673715, 0.0001730468, -8.520999E-05, -0.01360866 , -0.0130413054, -1.399549E-05, 922.7416    , 32.6871338  , 782.218262  , 3.34        , 3           , 255         , 0           , 0
-0.122264743, 0.13085261  , -9.796719   , -0.000228026533, 0.0006669072, 0.000208339377, -0.0136109656, -0.0130346082, -1.20029235E-05, 922.7416    , 32.6871338  , 782.218262  , 3.35        , 3           , 255         , 0           , 0
-0.1185262  , 0.126320332 , -9.796534   , -0.000491892, 0.000518533343, 0.0005592824, -0.0136159565, -0.0130293481, -6.48087462E-06, 922.7416    , 32.6871338  , 782.218262  , 3.36        , 3           , 255         , 0           , 0
-0.135752887, 0.130704418 , -9.794046   , -0.000196391076, -0.0004824278, -6.197355E-05, -0.0136179132, -0.01303418 , -7.03489877E-06, 922.7416    , 32.6871338  , 782.218262  , 3.37        , 3           , 255         , 0           , 0
-0.123936236, 0.120686308 , -9.797907   , 0.000317087 , -0.000200656912, -0.000128488944, -0.0136147272, -0.0130362026, -8.29242254E-06, 922.7416    , 32.6871338  , 782.218262  , 3.38        , 3           , 255         , 0           , 0
-0.12841928 , 0.131204233 , -9.789921   , 0.000104210631, 0.000169391322, -0.000643868756, -0.0136136012, -0.013034597, -1.47539567E-05, 922.7416    , 32.6871338  , 782.218262  , 3.39        , 3           , 255         , 0           , 0
-0.122647837, 0.128019184 , -9.801796   , 0.0003055801, 0.000396913383, -0.000376881537, -0.0136104962, -0.01303068 , -1.85766748E-05, 922.7416    , 32.6871338  , 782.218262  , 3.4         , 3           , 255         , 0           , 0
-0.125707   , 0.128198013 , -9.791067   , -0.0001639619, 0.000137665 , -0.000131791792, -0.0136031285, -0.0130258622, -2.003039E-05, 922.7416    , 32.6871338  , 782.243     , 3.41        , 3           , 255         , 0           , 0
-0.129539877, 0.135669708 , -9.783777   , -0.0002057089, -0.000269084179, 0.000228657882, -0.0136052156, -0.013028522, -1.77072834E-05, 922.7416    , 32.6871338  , 782.2431    , 3.42        , 3           , 255         , 0           , 0
-0.13121134 , 0.133522436 , -9.806148   , -0.000715803355, 0.00025051483, 0.0006418857, -0.0136124566, -0.0130259283, -1.132273E-05, 922.7487    , 32.6869965  , 782.2433    , 3.43        , 3           , 255         , 0           , 0
-0.127033189, 0.125359535 , -9.794173   , -0.000345959153, 0.000109794579, 0.00104601111, -0.0136160515, -0.01302469 , -8.77904142E-07, 922.7487    , 32.6869965  , 782.243469  , 3.44        , 3           , 255         , 0           , 0
-0.125307158, 0.129060909 , -9.794597   , -0.000122184982, 0.000496472348, -2.204938E-05, -0.0136172706, -0.0130197285, -1.16599824E-06, 922.7487    , 32.6869965  , 782.243652  , 3.45        , 3           , 255         , 0           , 0
-0.123186372, 0.133759648 , -9.800593   , 0.000261787936, 1.16597221E-05, -0.000144071979, -0.0136146331, -0.0130196307, -2.60825163E-06, 922.7487    , 32.6869965  , 782.243835  , 3.46        , 3           , 255         , 0           , 0
-0.121125661, 0.130660787 , -9.802167   , 0.0001039014, -6.62472739E-05, 0.000335054385, -0.0136136375, -0.0130202472, 7.51197149E-07, 922.7487    , 32.6869965  , 782.244     , 3.47        , 3           , 255         , 0           , 0
-0.126868755, 0.121813275 , -9.795946   , 4.08663764E-05, 0.000499166956, 0.0001376396, -0.0136132454, -0.0130152376, 2.05959782E-06, 922.7487    , 32.6869965  , 782.2442    , 3.48        , 3           , 255         , 0           , 0
-0.1371519  , 0.1321938   , -9.795786   , -0.000482585165, 0.00035198644, 0.000235893938, -0.0136181023, -0.0130116865, 4.37054268E-06, 922.7487    , 32.6869965  , 782.2444    , 3.49        , 3           , 255         , 0           , 0
-0.129873559, 0.134360254 , -9.806226   , -0.0006211919, 6.51303853E-05, 0.0006322659, -0.0136243962, -0.0130109489, 1.06841126E-05, 922.7487    , 32.6869965  , 782.244568  , 3.5         , 3           , 255         , 0           , 0
-0.1350759  , 0.137533367 , -9.797231   , -0.000282075838, 0.000391753681, -0.000357499957, -0.0136227887, -0.0130072422, 6.998878E-06, 922.7487    , 32.6869965  , 782.255554  , 3.51        , 3           , 255         , 0           , 0
-0.126766026, 0.131742924 , -9.797783   , -9.7879034E-05, -0.000131956331, -0.00100812223, -0.0136236371, -0.0130086979, -3.06402717E-06, 922.7487    , 32.6869965  , 782.2558    , 3.52        , 3           , 255         , 0           , 0
-0.122043774, 0.131765053 , -9.797404   , -6.723957E-05, 2.03057134E-05, -0.000465778256, -0.013624249, -0.0130085582, -7.724425E-06, 922.764343  , 32.6861153  , 782.256042  , 3.53        , 3           , 255         , 0           , 0
-0.129595473, 0.125837833 , -9.792939   , -0.0003557757, 0.000123233185, -0.000299656822, -0.0136277666, -0.013007367, -1.07376836E-05, 922.764343  , 32.6861153  , 782.2563    , 3.54        , 3           , 255         , 0           , 0
-0.134551674, 0.1275926   , -9.789895   , 0.000215577078, -0.000110051449, -0.0005768693, -0.013625537, -0.0130085461, -1.64911835E-05, 922.764343  , 32.6861153  , 782.256531  , 3.55        , 3           , 255         , 0           , 0
-0.12125659 , 0.1377617   , -9.793735   , -0.000145914324, -0.000169641367, -0.0002679114, -0.01362696 , -0.0130102793, -1.914709E-05, 922.764343  , 32.6861153  , 782.2568    , 3.56        , 3           , 255         , 0           , 0
-0.130660966, 0.134665161 , -9.801354   , -0.000256337575, 0.000209144331, -0.0004349703, -0.0136294682, -0.0130082471, -2.35251482E-05, 922.764343  , 32.6861153  , 782.257     , 3.57        , 3           , 255         , 0           , 0
-0.1327594  , 0.132190317 , -9.800982   , 6.949456E-05, -0.000206307712, 0.00062484917, -0.0136288544, -0.0130102243, -1.72487544E-05, 922.764343  , 32.6861153  , 782.257263  , 3.58        , 3           , 255         , 0           , 0
-0.139422059, 0.130187124 , -9.797124   , 0.00022507523, 5.30308753E-05, 0.000200914132, -0.0136266286, -0.0130096665, -1.52469038E-05, 922.764343  , 32.6861153  , 782.2575    , 3.59        , 3           , 255         , 0           , 0
-0.138568252, 0.120099761 , -9.79937649 , -8.419715E-05, 0.000185074561, -0.000168734812, -0.0136274491, -0.0130078383, -1.69594241E-05, 922.764343  , 32.6861153  , 782.257751  , 3.6         , 3           , 255         , 0           , 0
-0.12534    , 0.126100272 , -9.800882   , -0.000103263708, 0.000303387351, -2.8664901E-05, -0.0136246784, -0.0130101629, -1.73368371E-05, 922.764343  , 32.6861153  , 782.2448    , 3.61        , 3           , 255         , 0           , 0
-0.130635172, 0.132914975 , -9.791212   , 0.000161427888, 0.000108990207, 0.000112017777, -0.0136230784, -0.0130090583, -1.62315409E-05, 922.764343  , 32.6861153  , 782.245     , 3.62        , 3           , 255         , 0           , 0
-0.121000506, 0.135052741 , -9.795877   , 0.000183558412, 2.02430238E-05, -0.000213665364, -0.0136212148, -0.0130088869, -1.83708871E-05, 922.761658  , 32.6851654  , 782.2452    , 3.63        , 3           , 255         , 0           , 0
-0.124060534, 0.127871841 , -9.794306   , 0.000108823704, -0.000233547733, 0.0003712227, -0.0136201754, -0.01301117 , -1.46269749E-05, 922.761658  , 32.6851654  , 782.245361  , 3.64        , 3           , 255         , 0           , 0
-0.128836378, 0.125100464 , -9.786755   , -0.000472715532, -9.668633E-05, -0.0001556466, -0.0136248823, -0.0130121578, -1.617022E-05, 922.761658  , 32.6851654  , 782.245544  , 3.65        , 3           , 255         , 0           , 0
-0.12345843 , 0.134180933 , -9.797788   , -0.000102022255, 0.000173538632, 0.000439118972, -0.013625958, -0.013010364, -1.180282E-05, 922.761658  , 32.6851654  , 782.2457    , 3.66        , 3           , 255         , 0           , 0
-0.125827417, 0.123950623 , -9.795404   , 0.0005162863, 0.000125792736, 0.00019303734, -0.01362082 , -0.0130090788, -9.889656E-06, 922.761658  , 32.6851654  , 782.2459    , 3.67        , 3           , 255         , 0           , 0
-0.131177053, 0.119592115 , -9.802202   , 0.0002209295, 0.0005813697, -0.0001792999, -0.0136185884, -0.0130032888, -1.17617728E-05, 922.761658  , 32.6851654  , 782.2461    , 3.68        , 3           , 255         , 0           , 0
-0.13060683 , 0.123688117 , -9.796397   , -7.169793E-05, 0.000387608976, -6.786788E-05, -0.0136192963, -0.0129994228, -1.24932212E-05, 922.761658  , 32.6851654  , 782.2463    , 3.69        , 3           , 255         , 0           , 0
-0.123458624, 0.131691292 , -9.798293   , 0.0003861112, 0.000135413226, 3.33218668E-05, -0.0136154406, -0.012998064, -1.21784515E-05, 922.761658  , 32.6851654  , 782.24646   , 3.7         , 3           , 255         , 0           , 0
-0.128507853, 0.120123826 , -9.797599   , 0.000443774567, 0.000251685327, 0.000319118146, -0.0136026423, -0.0129939  , -9.130797E-06, 922.761658  , 32.6851654  , 782.238831  , 3.71        , 3           , 255         , 0           , 0
-0.124803342, 0.134798512 , -9.800346   , 0.000166077865, -2.71193567E-05, -0.000189674654, -0.0136009566, -0.0129941972, -1.10237816E-05, 922.761658  , 32.6851654  , 782.238953  , 3.72        , 3           , 255         , 0           , 0
-0.128356963, 0.1290459   , -9.780115   , 0.000535674859, 8.714764E-05, -0.000298911764, -0.0135955615, -0.0129933693, -1.4024653E-05, 922.740967  , 32.6885567  , 782.2391    , 3.73        , 3           , 255         , 0           , 0
-0.131876126, 0.129212528 , -9.790065   , 0.000201097515, 0.0002899767, -0.000207616642, -0.0135935256, -0.0129904971, -1.61401622E-05, 922.740967  , 32.6885567  , 782.239258  , 3.74        , 3           , 255         , 0           , 0
-0.136872187, 0.118427694 , -9.790279   , 3.325686E-05, 0.0003744816, 0.000550975848, -0.013593263, -0.0129866777, -1.068149E-05, 922.740967  , 32.6885567  , 782.239441  , 3.75        , 3           , 255         , 0           , 0
-0.123793676, 0.129965976 , -9.791255   , -5.70709235E-05, 5.814084E-05, 0.000290237658, -0.0135938711, -0.0129860574, -7.78711E-06, 922.740967  , 32.6885567  , 782.2396    , 3.76        , 3           , 255         , 0           , 0
-0.131513223, 0.136928827 , -9.799841   , 0.000339929335, 0.000149229687, 0.0003326204, -0.0135905156, -0.01298452 , -4.481298E-06, 922.740967  , 32.6885567  , 782.2398    , 3.77        , 3           , 255         , 0           , 0
-0.137969792, 0.124575064 , -9.79712    , -0.0004213624, -1.45617523E-05, 0.0004164838, -0.0135947829, -0.0129846092, -3.146171E-07, 922.740967  , 32.6885567  , 782.24      , 3.78        , 3           , 255         , 0           , 0
-0.127737373, 0.12795572  , -9.800371   , 0.000359387341, 0.0003385573, -0.000297933759, -0.0135911489, -0.0129812639, -3.33988055E-06, 922.740967  , 32.6885567  , 782.2402    , 3.79        , 3           , 255         , 0           , 0
-0.1248935  , 0.129333377 , -9.800171   , 0.0006608615, -0.000380809652, 0.000116936964, -0.013584557, -0.0129850563, -2.11881388E-06, 922.740967  , 32.6885567  , 782.240356  , 3.8         , 3           , 255         , 0           , 0
-0.122835562, 0.136941835 , -9.793472   , 7.22754339E-05, 0.000100117759, 0.000109765257, -0.0135755138, -0.012987949, -1.14304032E-06, 922.740967  , 32.6885567  , 782.2629    , 3.81        , 3           , 255         , 0           , 0
-0.12710759 , 0.137118414 , -9.79968548 , 0.000400237652, -5.71537239E-05, -3.418992E-05, -0.0135715082, -0.0129885245, -1.47717333E-06, 922.740967  , 32.6885567  , 782.2632    , 3.82        , 3           , 255         , 0           , 0
-0.129777044, 0.13021639  , -9.797965   , -0.000236838532, 1.98181369E-05, -0.000241312344, -0.0135738449, -0.01298836 , -3.89290062E-06, 922.7669    , 32.6887627  , 782.2635    , 3.83        , 3           , 255         , 0           , 0
-0.117239475, 0.141235545 , -9.799795   , -0.000228252728, 0.0003191088, 0.0009037453, -0.0135762449, -0.0129850479, 5.10094151E-06, 922.7669    , 32.6887627  , 782.2638    , 3.84        , 3           , 255         , 0           , 0
-0.118663691, 0.1317361   , -9.791059   , 5.0935545E-05, 0.000424470665, -0.000136489514, -0.0135757178, -0.0129808215, 3.67846678E-06, 922.7669    , 32.6887627  , 782.2641    , 3.85        , 3           , 255         , 0           , 0
-0.122301795, 0.136503547 , -9.78816    , 0.0005610659, 0.000539856439, 6.623966E-05, -0.013570115, -0.0129754152, 4.2675706E-06, 922.7669    , 32.6887627  , 782.2644    , 3.86        , 3           , 255         , 0           , 0
-0.137962461, 0.1273187   , -9.793676   , 6.51816954E-05, 0.000291752629, 0.000365241925, -0.0135695105, -0.012972449, 7.880286E-06, 922.7669    , 32.6887627  , 782.2647    , 3.87        , 3           , 255         , 0           , 0
-0.131066278, 0.136779875 , -9.799528   , -9.567203E-05, 6.331684E-06, 8.58670246E-05, -0.0135704773, -0.0129723744, 8.73807E-06 , 922.7669    , 32.6887627  , 782.265     , 3.88        , 3           , 255         , 0           , 0
-0.119143665, 0.132714987 , -9.797076   , 0.000148467545, -0.0004511437, -6.29171045E-05, -0.0135689862, -0.0129768923, 8.170126E-06, 922.7669    , 32.6887627  , 782.2653    , 3.89        , 3           , 255         , 0           , 0
-0.131167084, 0.127496272 , -9.804322   , -6.690301E-05, -0.000199912087, 0.000275404454, -0.01356969 , -0.0129788537, 1.09512039E-05, 922.7669    , 32.6887627  , 782.2656    , 3.9         , 3           , 255         , 0           , 0
-0.126830757, 0.124841213 , -9.795085   , 0.000433039066, 1.39661424E-05, 0.000185427023, -0.0135665452, -0.0129765542, 1.28185748E-05, 922.7669    , 32.6887627  , 782.2478    , 3.91        , 3           , 255         , 0           , 0
-0.126494765, 0.133666068 , -9.792987   , 1.14407158E-05, -0.000112529495, -7.303963E-05, -0.0135664213, -0.0129776895, 1.210347E-05, 922.7669    , 32.6887627  , 782.248047  , 3.92        , 3           , 255         , 0           , 0
-0.12279211 , 0.142842516 , -9.797437   , -1.84729579E-05, -0.000312369142, 0.000132378424, -0.0135666234, -0.0129807945, 1.34695811E-05, 922.754761  , 32.6867256  , 782.2483    , 3.93        , 3           , 255         , 0           , 0
-0.132941067, 0.138057962 , -9.798258   , -0.000127929379, -0.000323988264, 0.000268932636, -0.0135679385, -0.0129839992, 1.62027845E-05, 922.754761  , 32.6867256  , 782.248535  , 3.94        , 3           , 255         , 0           , 0
-0.134264112, 0.128769338 , -9.8012085  , -0.00014709722, -7.947383E-06, -0.000517832057, -0.013569342, -0.0129841482, 1.10257079E-05, 922.754761  , 32.6867256  , 782.2488    , 3.95        , 3           , 255         , 0           , 0
-0.132844836, 0.12789166  , -9.798687   , 0.0002146055, 0.000125516875, -0.000258708227, -0.0135671617, -0.0129829282, 8.421678E-06, 922.754761  , 32.6867256  , 782.249     , 3.96        , 3           , 255         , 0           , 0
-0.1366016  , 0.1293764   , -9.799251   , 0.0001264388, -0.000777814654, 0.000219104986, -0.0135659268, -0.0129906759, 1.07181795E-05, 922.754761  , 32.6867256  , 782.249268  , 3.97        , 3           , 255         , 0           , 0
-0.1303874  , 0.13006714  , -9.789231   , 0.000376619748, 1.01572368E-06, 0.000163226563, -0.013562182, -0.0129906423, 1.23502568E-05, 922.754761  , 32.6867256  , 782.2495    , 3.98        , 3           , 255         , 0           , 0
-0.129651248, 0.129776865 , -9.792262   , -0.000322368869, 0.000382435828, 0.000619887258, -0.0135654844, -0.0129867354, 1.84970522E-05, 922.754761  , 32.6867256  , 782.249756  , 3.99        , 3           , 255         , 0           , 0
-0.133731991, 0.128183782 , -9.796584   , 0.000445893733, -0.000307021372, 0.000326873 , -0.013561069, -0.01298976 , 2.18073346E-05, 922.754761  , 32.6867256  , 782.25      , 4           , 3           , 0           , 9.483236    , 400
-0.12101911 , 0.136873633 , -9.795576   , 0.000416511553, 0.000251119316, -0.000507708639, -0.0135545349, -0.0129923327, 1.66664286E-05, 922.754761  , 32.6867256  , 782.2515    , 4.01        , 3           , 1           , 0           , 0
-0.119963244, 0.13478072  , -9.78988    , -3.076176E-05, 0.000338310172, -0.000188585429, -0.013554818, -0.0129889753, 1.47347673E-05, 922.754761  , 32.6867256  , 782.2518    , 4.02        , 3           , 2           , 0           , 0
-0.128909156, 0.136170477 , -9.791731   , -0.0002483619, 1.78656774E-05, 7.726017E-05, -0.0135573111, -0.0129887871, 1.55049274E-05, 922.7342    , 32.6893044  , 782.252     , 4.03        , 3           , 3           , 0           , 0
-0.134545475, 0.13804552  , -9.793106   , -0.000125902, 0.000337353733, 3.93136579E-05, -0.013558575, -0.0129854083, 1.5852318E-05, 922.7342    , 32.6893044  , 782.252258  , 4.04        , 3           , 4           , 0           , 0
-0.126478031, 0.138684422 , -9.792865   , 8.58730637E-05, 4.40367148E-06, -0.00104745419, -0.01355758 , -0.0129855089, 5.3775243E-06, 922.7342    , 32.6893044  , 782.2525    , 4.05        , 3           , 5           , 0           , 0
-0.130851537, 0.132999375 , -9.796024   , 0.000188527454, -0.0002605966, -0.000208038036, -0.0135556674, -0.0129881417, 3.33253865E-06, 922.7342    , 32.6893044  , 782.252747  , 4.06        , 3           , 6           , 0           , 0
-0.1285647  , 0.130569533 , -9.788695   , -0.000291483826, 0.000315279554, 0.0002713729, -0.0135586178, -0.0129849529, 6.00344038E-06, 922.7342    , 32.6893044  , 782.253     , 4.07        , 3           , 7           , 0           , 0
-0.127075225, 0.133223236 , -9.79477    , 0.00013493275, 0.000323633139, 0.000553164748, -0.0135573409, -0.012981642, 1.14910226E-05, 922.7342    , 32.6893044  , 782.253235  , 4.08        , 3           , 8           , 5           , 5
-0.129694864, 0.120603584 , -9.796461   , 0.000109780987, 0.000190208579, 9.57404045E-05, -0.013556256, -0.0129797263, 1.24226126E-05, 922.7342    , 32.6893044  , 782.2535    , 4.09        , 3           , 9           , 5           , 0.1
-0.128085688, 0.1310356   , -9.797874   , 3.401385E-05, -5.687872E-05, -0.0009004618, -0.0135557987, -0.0129804164, 3.42599878E-06, 922.7342    , 32.6893044  , 782.2537    , 4.1         , 3           , 10          , 0.1         , 0.1
-0.128911629, 0.1371202   , -9.792564   , 7.867481E-05, 6.024592E-05, -0.0003915398, -0.0135558071, -0.0129804071, -4.864606E-07, 922.7342    , 32.6893044  , 782.2839    , 4.11        , 3           , 11          , 0.007152681 , 0.007152677
-0.131114945, 0.132149741 , -9.78993    , 0.000508999 , 0.0005308017, -9.357688E-05, -0.0135507025, -0.0129751116, -1.494142E-06, 922.7342    , 32.6893044  , 782.2843    , 4.12        , 3           , 12          , 0.174648076 , 0
-0.128522158, 0.131584316 , -9.793879   , 3.071915E-05, 0.0003180978, -2.587464E-05, -0.0135503914, -0.0129719386, -1.79597373E-06, 922.780945  , 32.6887627  , 782.2847    , 4.13        , 3           , 13          , 0           , 0
-0.123702332, 0.128032491 , -9.799768   , 0.0002448216, 0.000136761024, -0.0001527412, -0.0135479243, -0.01297059 , -3.341874E-06, 922.780945  , 32.6887627  , 782.285156  , 4.14        , 3           , 14          , -0.0005171618, -0.000368942623
-0.123146534, 0.134853646 , -9.799329   , 0.00108189438, -0.000333073083, 0.0005802979, -0.0135371806, -0.0129738413, 2.506029E-06, 922.780945  , 32.6887627  , 782.2856    , 4.15        , 3           , 15          , 0           , 2.304536E-05
-0.13591072 , 0.123261347 , -9.799042   , 0.000401414582, -1.29792024E-05, 0.00020944931, -0.0135331936, -0.0129739419, 4.602213E-06, 922.780945  , 32.6887627  , 782.286     , 4.16        , 3           , 16          , 0           , 1.401298E-45
-0.1339689  , 0.128736928 , -9.794576   , 8.398722E-05, 0.000275089056, 0.000601201144, -0.0135324318, -0.0129711144, 1.05768058E-05, 922.780945  , 32.6887627  , 782.286438  , 4.17        , 3           , 20          , 0           , 0
-0.132941052, 0.138373822 , -9.798201   , 0.0004468694, -0.0003221031, 6.540962E-06, -0.0135279642, -0.0129743321, 1.06857888E-05, 922.780945  , 32.6887627  , 782.2869    , 4.18        , 3           , 21          , 0           , 0
-0.134223759, 0.130476043 , -9.799626   , -0.000212204352, 9.738252E-05, 0.000465530058, -0.0135301445, -0.0129732955, 1.532776E-05, 922.780945  , 32.6887627  , 782.2874    , 4.19        , 3           , 22          , 0           , 0
-0.1355708  , 0.13326937  , -9.802664   , 0.0001014905, 0.0002954991, 9.231901E-05, -0.0135291424, -0.0129703283, 1.62109463E-05, 922.780945  , 32.6887627  , 782.2879    , 4.2         , 3           , 40          , 0           , 0
