Acc X       , Acc Y       , Acc Z       , Gyro X      , Gyro Y      , Gyro Z      , Euler X     , Euler Y     , Euler Z     , Pres X      , Pres Y      , Pres Z      , Time        , Status      , LowRate X   , LowRate Y   , LowRate Z    
-0.06896158 , 0.00475839432, 9.789485    , 0           , 0           , 0           , -3.14110661 , -0.00704433769, 0           , 920.8662    , 27.4561749  , 799.233     , 0           , 2           , 0           , 5.44523144  , 0
-0.06695087 , -0.0167599283, 9.803972    , -0.000554077, -0.000878284569, 0.000754061737, -3.141112   , -0.007035638, -7.536369E-06, 920.8662    , 27.4561749  , 799.233     , 0.01        , 3           , 1           , 0           , 0
-0.07250433 , -0.0149715766, 9.790964    , -0.0009654623, -0.000924813561, -9.75545845E-05, -3.14112163 , -0.00702639 , -6.55641725E-06, 920.8662    , 27.4561749  , 799.233     , 0.02        , 3           , 2           , 0           , 0
-0.06379898 , -0.01286677 , 9.80139     , -0.00105367787, -7.938361E-05, -0.000442874356, -3.14113235 , -0.007025599, -2.12729651E-06, 920.8133    , 27.0310783  , 799.233     , 0.03        , 3           , 3           , 0           , 0
-0.06503773 , -0.0117159318, 9.76663     , -0.002073411, -0.000189577, 9.1048656E-05, -3.141153   , -0.00702370331, -3.03696879E-06, 920.8133    , 27.0310783  , 799.233     , 0.04        , 3           , 4           , 0           , 0
-0.07354596 , -0.00907932 , 9.799229    , -0.0009245456, -0.00126281125, -8.85647E-06, -3.14116216 , -0.00701107457, -2.94290521E-06, 920.8133    , 27.0310783  , 799.233     , 0.05        , 3           , 5           , 0           , 0
-0.07140477 , -0.006980844, 9.801049    , -0.00149415759, -0.000627255766, -0.000357324927, -3.14117718 , -0.007004805, 6.329845E-07, 920.8133    , 27.0310783  , 799.233     , 0.06        , 3           , 6           , 0           , 0
-0.0624855869, -0.0223919153, 9.797167    , -0.0009947328, -0.0007129237, 0.000450756634, -3.14118719 , -0.00699767331, -3.87164937E-06, 920.8133    , 27.0310783  , 799.233     , 0.07        , 3           , 7           , 0           , 0
-0.06701909 , -0.0153134018, 9.814231    , -0.0005422833, -0.000439993222, -7.070147E-05, -3.14119244 , -0.006993275, -3.16286241E-06, 920.8133    , 27.0310783  , 799.233     , 0.08        , 3           , 8           , 5           , 5
-0.06210505 , -0.0129813673, 9.79482651  , -0.00135530881, -0.0009740121, -0.000322030275, -3.141206   , -0.006983536, 6.126756E-08, 920.8133    , 27.0310783  , 799.233     , 0.09        , 3           , 9           , 5           , 0.1
-0.06172185 , -0.0117722806, 9.777082    , -0.000960786943, -0.000484753517, -1.40591292E-05, -3.1412158  , -0.006978689, 2.0371516E-07, 920.8133    , 27.0310783  , 799.233     , 0.1         , 3           , 10          , 0.1         , 0.1
-0.06291692 , -0.009013618, 9.790415    , -0.00126938813, -0.000472600339, 9.462453E-05, -3.14129853 , -0.006965821, -2.520106E-07, 920.8133    , 27.0310783  , 799.7087    , 0.11        , 3           , 11          , 0.0109544508, 0.0109544508
-0.07498558 , -0.008086104, 9.803546    , -0.00208763 , -0.0005539246, 0.000199696748, -3.14131951 , -0.00696028071, -2.247399E-06, 920.8133    , 27.0310783  , 799.7087    , 0.12        , 3           , 12          , 0.174642488 , 0
-0.07544602 , -0.0221742447, 9.80283     , -0.00161009445, -0.000126565341, -0.000354460179, -3.14133549 , -0.006959017, 1.2975438E-06, 920.8042    , 27.0739536  , 799.7087    , 0.13        , 3           , 13          , 0           , 0
-0.0648819357, -0.0187773462, 9.783338    , -0.00115978881, 0.000606519636, 0.0007072955, -3.14134717 , -0.00696507934, -5.77692072E-06, 920.8042    , 27.0739536  , 799.7087    , 0.14        , 3           , 14          , 0.00166717148, 0.0022714166
-0.063375555, -0.00279476237, 9.79394     , 0.000395915238, -5.1494455E-05, 0.000659972662, -3.141343   , -0.00696456246, -1.23765121E-05, 920.8042    , 27.0739536  , 799.7087    , 0.15        , 3           , 15          , 0           , 0.0004909643
-0.0595238432, -0.00253198412, 9.803146    , -0.000369827729, -0.000451607862, 0.000324957829, -3.14134669 , -0.00696004555, -1.56249644E-05, 920.8042    , 27.0739536  , 799.7087    , 0.16        , 3           , 16          , 0           , 1.401298E-45
-0.06396426 , 0.00227191532, 9.797297    , -0.000601036, -0.0006729413, 0.0003367499, -3.141353   , -0.006953316, -1.8990826E-05, 920.8042    , 27.0739536  , 799.7087    , 0.17        , 3           , 20          , 0           , 0
-0.06458333 , -0.00321845338, 9.809103    , -0.0007428951, -0.000302847, -0.000191589439, -3.14136028 , -0.006950288, -1.70742169E-05, 920.8042    , 27.0739536  , 799.70874   , 0.18        , 3           , 21          , 0           , 0
-0.06233234 , -0.0106899478, 9.801037    , -0.002183949, -0.00103243231, -0.000142558652, -3.141382   , -0.00693996344, -1.56463411E-05, 920.8042    , 27.0739536  , 799.7088    , 0.19        , 3           , 22          , 0           , 0
-0.0586828478, -0.0138955731, 9.780434    , -0.002107837, -0.0005093161, -0.000121734454, -3.1414032  , -0.006934871, -1.44279766E-05, 920.8042    , 27.0739536  , 799.708862  , 0.2         , 3           , 40          , 0           , 0
-0.0605028346, -0.008680088, 9.774466    , -0.00117409823, -0.000198555877, 0.000220051676, -3.14145327 , -0.006922151, -1.636202E-05, 920.8042    , 27.0739536  , 799.75      , 0.21        , 3           , 41          , 0           , 0
-0.0687265843, 0.0045934096, 9.796143    , -0.00102353678, -0.00042245572, -0.000199572882, -3.14146352 , -0.00691792555, -1.43657244E-05, 920.8042    , 27.0739536  , 799.750061  , 0.22        , 3           , 42          , 0           , 0
-0.05612533 , -0.00326944655, 9.80178     , -0.00101301284, 0.0003502667, -0.000289741671, -3.14147377 , -0.00692142965, -1.14687391E-05, 920.830444  , 27.0993271  , 799.7501    , 0.23        , 3           , 255         , 0           , 0
-0.05489217 , -0.0162481684, 9.787053    , -0.000771011051, 0.000230835984, -0.0005178968, -3.1414814  , -0.00692373747, -6.29004853E-06, 920.830444  , 27.0993271  , 799.7502    , 0.24        , 3           , 255         , 0           , 0
-0.05678628 , -0.00549336243, 9.789662    , -0.00154303585, -6.471854E-05, -0.0005260631, -3.141497   , -0.006923092, -1.02934985E-06, 920.830444  , 27.0993271  , 799.750244  , 0.25        , 3           , 255         , 0           , 0
-0.0608342178, -0.008473607, 9.790855    , -0.00225625 , -0.0005316356, -0.0005338437, -3.14151955 , -0.006917775, 4.309518E-06, 920.830444  , 27.0993271  , 799.7503    , 0.26        , 3           , 255         , 0           , 0
-0.0593830459, -0.00609251764, 9.79933     , -0.00235687476, -0.000567227369, -0.0003926338, -3.14154315 , -0.00691210432, 8.236208E-06, 920.830444  , 27.0993271  , 799.750366  , 0.27        , 3           , 255         , 0           , 0
-0.0644735247, 0.000106466563, 9.801455    , -0.00390559877, -0.0007416117, 0.0006243472, -3.14158225 , -0.006904688, 1.992924E-06, 920.830444  , 27.0993271  , 799.7504    , 0.28        , 3           , 255         , 0           , 0
-0.0562046953, -0.009638329, 9.798645    , -0.0042928136, -0.001785772, 0.0005378689, 3.14156032  , -0.006886831, -3.385951E-06, 920.830444  , 27.0993271  , 799.7505    , 0.29        , 3           , 255         , 0           , 0
-0.05036577 , -0.0193737578, 9.790379    , -0.00296329823, -0.000466421945, 0.0001556399, 3.14153075  , -0.006882167, -4.94254755E-06, 920.830444  , 27.0993271  , 799.750549  , 0.3         , 3           , 255         , 0           , 0
-0.0646401  , -0.0202239919, 9.790692    , -0.0015784523, 1.54057052E-05, 0.00082557986, 3.14148045  , -0.00684493734, -1.29629825E-05, 920.830444  , 27.0993271  , 799.685242  , 0.31        , 3           , 255         , 0           , 0
-0.0670245662, -0.01233839 , 9.805003    , -0.001408312, -0.0002455453, 0.000244281837, 3.14146638  , -0.006842483, -1.540609E-05, 920.830444  , 27.0993271  , 799.6853    , 0.32        , 3           , 255         , 0           , 0
-0.0623138025, -0.02250711 , 9.798967    , -0.000737969531, 6.302027E-05, -1.79719646E-05, 3.141459    , -0.006843113, -1.52262892E-05, 920.8239    , 27.1144562  , 799.685364  , 0.33        , 3           , 255         , 0           , 0
-0.06487922 , -0.0126269432, 9.793032    , -0.00016977964, 0.0005292301, -5.347567E-06, 3.14145732  , -0.006848405, -1.51721015E-05, 920.8239    , 27.1144562  , 799.6854    , 0.34        , 3           , 255         , 0           , 0
-0.0817801058, -0.00371992914, 9.792739    , 5.144661E-05, -5.70446718E-05, -0.0006548866, 3.1414578   , -0.00684783375, -8.623322E-06, 920.8239    , 27.1144562  , 799.6855    , 0.35        , 3           , 255         , 0           , 0
-0.07718321 , -0.0158697  , 9.800469    , -0.000338090234, 3.37811653E-05, -0.0007264134, 3.14145446  , -0.00684817042, -1.35915172E-06, 920.8239    , 27.1144562  , 799.685547  , 0.36        , 3           , 255         , 0           , 0
-0.08083204 , -0.022501478, 9.797046    , -0.0005048149, 0.000500082737, -0.000144957274, 3.14144945  , -0.00685317 , 9.112402E-08, 920.8239    , 27.1144562  , 799.6856    , 0.37        , 3           , 255         , 0           , 0
-0.074217774, -0.0229598954, 9.788221    , 2.262753E-05, -0.000114972237, 0.0002510065, 3.14144969  , -0.00685202051, -2.41910129E-06, 920.8239    , 27.1144562  , 799.685669  , 0.38        , 3           , 255         , 0           , 0
-0.0812934041, -0.0178807937, 9.791669    , -0.0005084921, 7.877359E-06, 0.0001585799, 3.14144444  , -0.00685209967, -4.004885E-06, 920.8239    , 27.1144562  , 799.6857    , 0.39        , 3           , 255         , 0           , 0
-0.0864575654, -0.0285561681, 9.783613    , -0.000301451772, -0.000424494967, 0.000440850563, 3.14144158  , -0.006847855, -8.414024E-06, 920.8239    , 27.1144562  , 799.6858    , 0.4         , 3           , 255         , 0           , 0
-0.07952151 , -0.0190601088, 9.778859    , 8.547143E-05, -0.0007463137, 0.000133321562, 3.14138174  , -0.00686592 , -9.33224146E-06, 920.8239    , 27.1144562  , 799.667664  , 0.41        , 3           , 255         , 0           , 0
-0.08781652 , -0.0225304011, 9.798884    , 0.000208553392, -0.000427363673, 0.000577314233, 3.141384    , -0.006861647, -1.51062677E-05, 920.8239    , 27.1144562  , 799.6677    , 0.42        , 3           , 255         , 0           , 0
-0.0834955  , -0.0281637665, 9.801407    , 6.694265E-05, -5.54122962E-05, -0.000319945335, 3.1413846   , -0.006861092, -1.19069337E-05, 920.789063  , 27.1284313  , 799.6678    , 0.43        , 3           , 255         , 0           , 0
-0.07803151 , -0.0330844447, 9.792686    , 0.00298573822, 0.0008605977, -0.000185410754, 3.1414144   , -0.00686969748, -1.00511788E-05, 920.789063  , 27.1284313  , 799.667847  , 0.44        , 3           , 255         , 0           , 0
-0.0844392  , -0.0194937922, 9.797116    , -0.0010257028, -0.00029329583, 0.000147200131, 3.14140415  , -0.00686676567, -1.15237553E-05, 920.789063  , 27.1284313  , 799.6679    , 0.45        , 3           , 255         , 0           , 0
-0.07696722 , -0.0165612139, 9.767375    , 0.00259216223, 0.000269453041, 0.0003304612, 3.14143014  , -0.00686946 , -1.48279851E-05, 920.789063  , 27.1284313  , 799.667969  , 0.46        , 3           , 255         , 0           , 0
-0.0828040242, 0.004811543 , 9.801102    , 0.000600841246, 0.000250635669, 0.000268225267, 3.141436    , -0.00687196665, -1.75098248E-05, 920.789063  , 27.1284313  , 799.668     , 0.47        , 3           , 255         , 0           , 0
-0.062087357, -0.01974389 , 9.793288    , -0.0002311155, -0.0003501859, -5.340611E-05, 3.141434    , -0.006868465, -1.69763189E-05, 920.789063  , 27.1284313  , 799.6681    , 0.48        , 3           , 255         , 0           , 0
-0.06429131 , -0.0155510288, 9.804785    , 0.000851343037, 0.00102609443, -0.000129054708, 3.1414423   , -0.00687872432, -1.56841834E-05, 920.789063  , 27.1284313  , 799.668152  , 0.49        , 3           , 255         , 0           , 0
-0.06409521 , -0.0196499489, 9.800688    , 0.000369085348, -0.000500615, -0.000517972861, 3.141446    , -0.00687371753, -1.0505215E-05, 920.789063  , 27.1284313  , 799.6682    , 0.5         , 3           , 255         , 0           , 0
-0.05780251 , -0.00503761927, 9.784686    , 0.001558889 , 0.000387710053, -0.000259753055, 3.14139915  , -0.00691080745, -7.47564764E-06, 920.789063  , 27.1284313  , 799.7219    , 0.51        , 3           , 255         , 0           , 0
-0.0589066148, -0.000626082649, 9.789975    , 0.000664935564, -0.000100345351, 0.000242697366, 3.14140582  , -0.00690980442, -9.902805E-06, 920.789063  , 27.1284313  , 799.722046  , 0.52        , 3           , 255         , 0           , 0
-0.0616259463, -0.0053753  , 9.801975    , 0.000262942747, -8.53932E-05, -0.0001286974, 3.14140844  , -0.0069089504, -8.615991E-06, 920.8254    , 27.1346054  , 799.722168  , 0.53        , 3           , 255         , 0           , 0
-0.04787845 , -0.008756427, 9.798348    , 0.0005259082, -0.000601353357, -0.000275791157, 3.14141369  , -0.00690293638, -5.859172E-06, 920.8254    , 27.1346054  , 799.7223    , 0.54        , 3           , 255         , 0           , 0
-0.0508828536, -0.00513928663, 9.80927     , 0.0005630901, -0.000250410754, -0.000361051585, 3.14141917  , -0.006900432, -2.24910718E-06, 920.8254    , 27.1346054  , 799.7224    , 0.55        , 3           , 255         , 0           , 0
-0.05280754 , -0.007937993, 9.80468     , 0.0009519843, 0.000220522517, -0.0001936302, 3.14142871  , -0.00690263743, -3.12443916E-07, 920.8254    , 27.1346054  , 799.722534  , 0.56        , 3           , 255         , 0           , 0
-0.04616695 , -0.00636176 , 9.791808    , 0.00104268466, 0.000644427259, 3.94776E-06 , 3.1414392   , -0.006909081, -3.50890673E-07, 920.8254    , 27.1346054  , 799.722656  , 0.57        , 3           , 255         , 0           , 0
-0.03799512 , -0.003614455, 9.797051    , 0.00124847086, 0.0004577376, -0.000630619645, 3.1414516   , -0.00691365637, 5.955966E-06, 920.8254    , 27.1346054  , 799.7228    , 0.58        , 3           , 255         , 0           , 0
-0.0490188152, -0.009959613, 9.795506    , 0.0006631437, 0.000294587575, -0.000623076339, 3.14145827  , -0.00691660168, 1.21871344E-05, 920.8254    , 27.1346054  , 799.7229    , 0.59        , 3           , 255         , 0           , 0
-0.0434972681, -0.008094724, 9.803745    , 0.0013485275, 0.000178560382, 0.000106307329, 3.14147162  , -0.00691838749, 1.11242853E-05, 920.8254    , 27.1346054  , 799.723     , 0.6         , 3           , 255         , 0           , 0
-0.0493876636, -0.0146633312, 9.795868    , -1.13155693E-07, 0.0002160056, -0.0002938919, 3.1414597   , -0.00687372265, 1.41464207E-05, 920.8254    , 27.1346054  , 799.7019    , 0.61        , 3           , 255         , 0           , 0
-0.05710268 , -0.00554389 , 9.804546    , 0.000333923963, -3.61779239E-05, 0.0007935667, 3.141463    , -0.00687336177, 6.210719E-06, 920.8254    , 27.1346054  , 799.702     , 0.62        , 3           , 255         , 0           , 0
-0.0542281158, -0.009291458, 9.793717    , -0.000346985762, -0.000722232042, 0.00050917943, 3.1414597   , -0.006866142, 1.11798477E-06, 920.8469    , 27.14322    , 799.702148  , 0.63        , 3           , 255         , 0           , 0
-0.0588491037, 0.0006731057, 9.790907    , -0.00023442111, -0.000365810934, 0.0009819072, 3.14145732  , -0.00686248438, -8.701566E-06, 920.8469    , 27.14322    , 799.7023    , 0.64        , 3           , 255         , 0           , 0
-0.0582847074, -0.008747374, 9.807071    , 0.000286389724, 0.000348240137, 0.000417388044, 3.14146018  , -0.00686596753, -1.28749734E-05, 920.8469    , 27.14322    , 799.7024    , 0.65        , 3           , 255         , 0           , 0
-0.06330471 , -0.0144019471, 9.79804     , 0.0002696165, 0.0004267462, 6.72858441E-05, 3.1414628   , -0.006870235, -1.35472692E-05, 920.8469    , 27.14322    , 799.7025    , 0.66        , 3           , 255         , 0           , 0
-0.06607281 , -0.0133306924, 9.791304    , 0.0004338416, 0.000175131019, -0.0005292236, 3.14146733  , -0.00687198527, -8.254822E-06, 920.8469    , 27.14322    , 799.702637  , 0.67        , 3           , 255         , 0           , 0
-0.0652740747, -0.0192355216, 9.797589    , -4.518265E-05, 0.000167470193, -0.000246447715, 3.14146686  , -0.00687366 , -5.790138E-06, 920.8469    , 27.14322    , 799.702759  , 0.68        , 3           , 255         , 0           , 0
-0.0595619567, -0.0139979962, 9.793257    , 0.000361831277, -0.000356457662, -0.000321093423, 3.14147043  , -0.00687009469, -2.57964871E-06, 920.8469    , 27.14322    , 799.7029    , 0.69        , 3           , 255         , 0           , 0
-0.06369575 , -0.0105741145, 9.798421    , -0.000106647378, -0.000215510139, -0.0004850169, 3.14146924  , -0.006867939, 2.270251E-06, 920.8469    , 27.14322    , 799.703     , 0.7         , 3           , 255         , 0           , 0
-0.07658546 , -0.012827049, 9.794658    , -0.00088541786, -0.000186413527, -6.309728E-05, 3.14143372  , -0.00684474176, 3.08359472E-06, 920.8469    , 27.14322    , 799.658     , 0.71        , 3           , 255         , 0           , 0
-0.0795822  , -0.0221139751, 9.798919    , -0.000679588644, -0.000930965645, 0.0008414105, 3.141427    , -0.00683543226, -5.33201E-06, 920.8469    , 27.14322    , 799.658142  , 0.72        , 3           , 255         , 0           , 0
-0.06677458 , -0.03011092 , 9.797775    , -0.0009803099, -0.0006073817, 0.000644067535, 3.14141726  , -0.0068293605, -1.17737036E-05, 920.8125    , 27.1447811  , 799.658264  , 0.73        , 3           , 255         , 0           , 0
-0.06895984 , -0.013829927, 9.788821    , -0.0008750907, -7.941178E-05, 0.0003310775, 3.14140844  , -0.006828567, -1.508462E-05, 920.8125    , 27.1447811  , 799.6584    , 0.74        , 3           , 255         , 0           , 0
-0.06916883 , -0.008769733, 9.79539     , -0.0009475397, -0.000563521753, 0.000608345144, 3.14139915  , -0.00682293437, -2.11691313E-05, 920.8125    , 27.1447811  , 799.6585    , 0.75        , 3           , 255         , 0           , 0
-0.07018858 , -0.0110422969, 9.788514    , 5.21530164E-05, -0.00023103971, -0.000377455784, 3.14139962  , -0.00682062237, -1.73950266E-05, 920.8125    , 27.1447811  , 799.6586    , 0.76        , 3           , 255         , 0           , 0
-0.07252665 , -0.009224428, 9.797981    , -0.000440447475, -0.000357822748, 8.61883163E-05, 3.141395    , -0.00681704376, -1.82576059E-05, 920.8125    , 27.1447811  , 799.658752  , 0.77        , 3           , 255         , 0           , 0
-0.06062614 , -0.019194914, 9.797987    , -0.0009807434, -0.00071737566, -0.000254313, 3.14138532  , -0.00680987071, -1.57159247E-05, 920.8125    , 27.1447811  , 799.6589    , 0.78        , 3           , 255         , 0           , 0
-0.05782733 , -0.015729513, 9.795366    , -0.001148823, -0.000264907256, 0.000486414065, 3.14137387  , -0.006807222, -2.058063E-05, 920.8125    , 27.1447811  , 799.659     , 0.79        , 3           , 255         , 0           , 0
-0.06518374 , -0.008812087, 9.790811    , -0.00233601686, -0.00102785812, -9.729789E-05, 3.14135051  , -0.006796944, -1.961E-05  , 920.8125    , 27.1447811  , 799.6591    , 0.8         , 3           , 255         , 0           , 0
-0.0618703254, -0.0112657826, 9.79232     , -0.003059972, -0.0007267657, 0.000236351567, 3.14127827  , -0.006795616, -2.16919125E-05, 920.8125    , 27.1447811  , 799.667358  , 0.81        , 3           , 255         , 0           , 0
-0.05739057 , -0.008971175, 9.80781     , -0.004269397, -0.00113620644, 0.000227991724, 3.14123559  , -0.006784255, -2.39756046E-05, 920.8125    , 27.1447811  , 799.6675    , 0.82        , 3           , 255         , 0           , 0
-0.0608781166, -0.012552999, 9.794954    , -0.00448131561, -0.0008060356, 8.618727E-05, 3.14119077  , -0.00677619455, -2.48405759E-05, 920.816956  , 27.1495972  , 799.6676    , 0.83        , 3           , 255         , 0           , 0
-0.06582318 , -0.005068987, 9.795965    , -0.0005583408, -0.0009781137, 0.0004916425, 3.14118528  , -0.006766417, -2.97609022E-05, 920.816956  , 27.1495972  , 799.6677    , 0.84        , 3           , 255         , 0           , 0
-0.061076425, -0.0209197216, 9.795996    , -0.004275557, -0.00128759327, 0.000783603755, 3.14114237  , -0.00675354432, -3.76025164E-05, 920.816956  , 27.1495972  , 799.667847  , 0.85        , 3           , 255         , 0           , 0
-0.05710851 , -0.0205942746, 9.784522    , -0.0007991653, -0.000479222857, 9.819935E-05, 3.1411345   , -0.00674875267, -3.85866879E-05, 920.816956  , 27.1495972  , 799.667969  , 0.86        , 3           , 255         , 0           , 0
-0.06474958 , -0.009226176, 9.793427    , -0.00183885847, -8.153822E-05, -0.000196064531, 3.14111614  , -0.0067479373, -3.6626443E-05, 920.816956  , 27.1495972  , 799.6681    , 0.87        , 3           , 255         , 0           , 0
-0.0597074926, -0.0145051032, 9.78692     , -0.001201546, -0.000412362977, 5.12626139E-05, 3.141104    , -0.006743813, -3.714106E-05, 920.816956  , 27.1495972  , 799.6682    , 0.88        , 3           , 255         , 0           , 0
-0.06877327 , -0.00501285959, 9.820742    , -0.0007981199, -0.000138734, -0.00035009507, 3.141096    , -0.00674242433, -3.36408E-05, 920.816956  , 27.1495972  , 799.668335  , 0.89        , 3           , 255         , 0           , 0
-0.07742697 , -0.0145488847, 9.79984     , -0.00267615868, -0.00072564336, 0.000386426167, 3.14106941  , -0.00673517073, -3.75087438E-05, 920.816956  , 27.1495972  , 799.668457  , 0.9         , 3           , 255         , 0           , 0
-0.06786119 , -0.0201268271, 9.796052    , -0.001861049, -0.0007426762, 0.00112745655, 3.14103     , -0.006720667, -4.86475728E-05, 920.816956  , 27.1495972  , 799.669861  , 0.91        , 3           , 255         , 0           , 0
-0.0719350055, -0.0193609782, 9.809999    , -0.00334812468, -0.00121348293, 0.000908542 , 3.14099669  , -0.00670853676, -5.77399842E-05, 920.816956  , 27.1495972  , 799.67      , 0.92        , 3           , 255         , 0           , 0
-0.0716703758, -0.0116030071, 9.798067    , -0.005339283, -0.000848355, 0.0005233632, 3.14094329  , -0.006700056, -6.297887E-05, 920.865662  , 27.15333    , 799.6701    , 0.93        , 3           , 255         , 0           , 0
-0.06815562 , -0.0161322746, 9.805481    , -0.00585577 , -0.0006857242, 0.000420410885, 3.14088464  , -0.00669320254, -6.718762E-05, 920.865662  , 27.15333    , 799.6702    , 0.94        , 3           , 255         , 0           , 0
-0.0619444326, -0.025278369, 9.782462    , -0.00276370067, -0.000458865543, 0.000899123552, 3.14085722  , -0.00668862043, -7.618214E-05, 920.865662  , 27.15333    , 799.670349  , 0.95        , 3           , 255         , 0           , 0
-0.07353507 , -0.0195309464, 9.801827    , -0.0009947021, 0.000344591215, 0.000747311569, 3.14084721  , -0.006692071, -8.3652696E-05, 920.865662  , 27.15333    , 799.670532  , 0.96        , 3           , 255         , 0           , 0
-0.07425067 , -0.0219231062, 9.790137    , -0.00258358 , -0.0005406819, 0.00129120564, 3.14082146  , -0.006686674, -9.656883E-05, 920.865662  , 27.15333    , 799.6707    , 0.97        , 3           , 255         , 0           , 0
-0.08126064 , -0.0176725872, 9.789922    , -0.0017712363, -0.0005053283, 0.0009319579, 3.14080381  , -0.006681629, -0.000105892323, 920.865662  , 27.15333    , 799.6709    , 0.98        , 3           , 255         , 0           , 0
-0.072306104, -0.0160968639, 9.79577351  , -0.00190145476, -0.000924122054, 0.000196856156, 3.14078474  , -0.00667239027, -0.000107868269, 920.865662  , 27.15333    , 799.6711    , 0.99        , 3           , 255         , 0           , 0
-0.0620215647, -0.0271872636, 9.788534    , -0.00118939276, -0.000488516758, -2.72800389E-05, 3.140773    , -0.006667504, -0.000107599437, 920.865662  , 27.15333    , 799.671265  , 1           , 3           , 0           , 6.445236    , 100
-0.0810928941, -0.0231117643, 9.804216    , -0.0008751315, -0.00015984755, 0.00010204775, 3.14073014  , -0.0066795107, -0.000108394146, 920.865662  , 27.15333    , 799.619     , 1.01        , 3           , 1           , 0           , 0
-0.0727631  , -0.0201942176, 9.790658    , -0.0018680183, -0.0006811891, 0.0007181853, 3.14071155  , -0.00667270366, -0.000115581941, 920.865662  , 27.15333    , 799.6191    , 1.02        , 3           , 2           , 0           , 0
-0.07108755 , -0.0265334845, 9.783095    , -0.000735473935, -0.000307520153, 0.000267499418, 3.14070415  , -0.006669633, -0.000118259639, 920.8351    , 27.1560421  , 799.619141  , 1.03        , 3           , 3           , 0           , 0
-0.06852012 , -0.02812845 , 9.791281    , -0.00178595353, -0.00081344496, 0.0006336657, 3.14068651  , -0.00666150358, -0.000124603554, 920.8351    , 27.1560421  , 799.6192    , 1.04        , 3           , 4           , 0           , 0
-0.06057009 , -0.0277659  , 9.781562    , -0.00204301951, -0.0009353289, 0.000657861936, 3.140666    , -0.00665215729, -0.000131190725, 920.8351    , 27.1560421  , 799.619263  , 1.05        , 3           , 5           , 0           , 0
-0.056945242, -0.0169968847, 9.806101    , -0.001589156, 0.000150815351, -0.0002998064, 3.14065     , -0.00665366137, -0.00012819127, 920.8351    , 27.1560421  , 799.6193    , 1.06        , 3           , 6           , 0           , 0
-0.0611710772, -0.0208811723, 9.795308    , -0.0006969706, -0.00010837242, -2.51808087E-05, 3.14064312  , -0.006652578, -0.000127940468, 920.8351    , 27.1560421  , 799.6194    , 1.07        , 3           , 7           , 0           , 0
-0.0616038069, -0.018647423, 9.793587    , -6.932719E-05, 0.000315247336, 3.71197239E-05, 3.1406424   , -0.006655731, -0.000128308675, 920.8351    , 27.1560421  , 799.619446  , 1.08        , 3           , 8           , 5           , 5
-0.05246993 , -0.01985299 , 9.79631     , 0.0005095303, -0.000359557685, 0.0007860904, 3.14064765  , -0.00665214332, -0.000136172952, 920.8351    , 27.1560421  , 799.6195    , 1.09        , 3           , 9           , 5           , 0.1
-0.059592098, -0.02182648 , 9.79474449  , 0.0006483337, 0.000315385871, 0.0005493057, 3.140654    , -0.006655302, -0.000141663026, 920.8351    , 27.1560421  , 799.619568  , 1.1         , 3           , 10          , 0.1         , 0.1
-0.06541777 , -0.01946293 , 9.799578    , 0.000315274578, -7.524504E-05, 0.0009089164, 3.140616    , -0.00665270444, -0.000150477688, 920.8351    , 27.1560421  , 799.6073    , 1.11        , 3           , 11          , 0.009309731 , 0.00930973049
-0.05290786 , -0.0251161568, 9.806242    , -0.000613627257, -0.000385340769, 0.000625098764, 3.14061     , -0.00664885668, -0.000156732436, 920.8351    , 27.1560421  , 799.607361  , 1.12        , 3           , 12          , 0.174642846 , 0
-0.053108044, -0.01184267 , 9.787689    , -0.0005177541, -0.000192392152, 2.72581819E-05, 3.14060473  , -0.006646933, -0.000157006914, 920.857056  , 27.1560421  , 799.6074    , 1.13        , 3           , 13          , 0           , 0
-0.05335002 , -0.0142369242, 9.794672    , -0.000303113484, -0.000357675948, -0.000350228249, 3.14060163  , -0.006643353, -0.000153508168, 920.857056  , 27.1560421  , 799.6075    , 1.14        , 3           , 14          , 0.00166741619, 0.00227143546
-0.05577637 , -0.0120752584, 9.791021    , -0.000209299731, -0.000745927449, -0.000252258615, 3.14059949  , -0.00663589174, -0.000150993, 920.857056  , 27.1560421  , 799.607544  , 1.15        , 3           , 15          , 0           , 0.000490965962
-0.0535214171, -0.0168719757, 9.792547    , -5.58763277E-05, -1.028413E-06, 0.000204333861, 3.140599    , -0.00663588336, -0.000153036337, 920.857056  , 27.1560421  , 799.6076    , 1.16        , 3           , 16          , 0           , 1.401298E-45
-0.0419611447, -0.0218237471, 9.78360748  , 0.000109263 , 4.508556E-05, -0.000433518726, 3.1406      , -0.00663633 , -0.000148700725, 920.857056  , 27.1560421  , 799.607666  , 1.17        , 3           , 20          , 0           , 0
-0.0437030122, -0.00771135231, 9.780706    , 0.00118862186, 0.0003539375, 0.0001382422, 3.140612    , -0.00663987175, -0.00015007965, 920.857056  , 27.1560421  , 799.6077    , 1.18        , 3           , 21          , 0           , 0
-0.0460279956, -0.0207531638, 9.785367    , 0.000309790485, 0.00015635509, 0.000409597065, 3.140615    , -0.00664143777, -0.000154174064, 920.857056  , 27.1560421  , 799.6078    , 1.19        , 3           , 22          , 0           , 0
-0.06264044 , -0.0234804321, 9.802014    , 0.0002825047, -0.000165670412, 0.00023252517, 3.14061785  , -0.00663978327, -0.00015650093, 920.857056  , 27.1560421  , 799.607849  , 1.2         , 3           , 40          , 0           , 0
-0.0612146743, -0.0183249973, 9.808209    , 0.000676678959, -0.000133699737, -0.000147931685, 3.14059925  , -0.006597825, -0.000154855035, 920.857056  , 27.1560421  , 799.574341  , 1.21        , 3           , 41          , 0           , 0
-0.0741584152, -0.0172907151, 9.80571651  , 0.000198412221, -6.608758E-05, -1.559392E-05, 3.14060116  , -0.00659716362, -0.000154699752, 920.857056  , 27.1560421  , 799.5743    , 1.22        , 3           , 42          , 0           , 0
-0.0747638941, -0.027522549, 9.792096    , -0.0009370497, -0.0005565095, 0.000183785392, 3.14059186  , -0.00659160176, -0.000156543116, 920.8091    , 27.1594353  , 799.5742    , 1.23        , 3           , 255         , 0           , 0
-0.07965437 , -0.0298134126, 9.783407    , -0.0007813353, -0.000240337336, -0.0001751034, 3.140584    , -0.006589196, -0.000154794514, 920.8091    , 27.1594353  , 799.574158  , 1.24        , 3           , 255         , 0           , 0
-0.07091712 , -0.0254346244, 9.799616    , -0.000401835772, 9.802636E-05, -0.000269534677, 3.14058     , -0.00659017358, -0.00015209819, 920.8091    , 27.1594353  , 799.5741    , 1.25        , 3           , 255         , 0           , 0
-0.06461303 , -0.0153260054, 9.794975    , -0.000578777865, 0.000209288672, 0.0003778244, 3.14057422  , -0.00659227045, -0.000155874281, 920.8091    , 27.1594353  , 799.574036  , 1.26        , 3           , 255         , 0           , 0
-0.06334945 , -0.02431491 , 9.800788    , 6.250688E-05, 0.000324036926, 0.000897797465, 3.140575    , -0.006595519, -0.000164848941, 920.8091    , 27.1594353  , 799.574     , 1.27        , 3           , 255         , 0           , 0
-0.0742579  , -0.03359889 , 9.80024     , -0.00036033045, 3.77194956E-05, 0.000112176407, 3.14057136  , -0.00659589749, -0.000165970312, 920.8091    , 27.1594353  , 799.574     , 1.28        , 3           , 255         , 0           , 0
-0.07390092 , -0.0377107151, 9.793541    , -6.27076952E-05, 0.000236321939, 0.00012020336, 3.14057064  , -0.00659826165, -0.000167169928, 920.8091    , 27.1594353  , 799.574     , 1.29        , 3           , 255         , 0           , 0
-0.07710468 , -0.02912115 , 9.799866    , 0.0003075311, 0.000168956816, 0.0006965481, 3.14057374  , -0.006599958, -0.000174133675, 920.8091    , 27.1594353  , 799.574     , 1.3         , 3           , 255         , 0           , 0
-0.07244623 , -0.0200222973, 9.806097    , -3.55754746E-05, 0.000507964753, -0.000220425951, 3.140538    , -0.00662026461, -0.000171688822, 920.8091    , 27.1594353  , 799.5935    , 1.31        , 3           , 255         , 0           , 0
-0.06264453 , -0.0152111575, 9.794266    , -5.052262E-05, 0.000147637445, -0.000168576109, 3.1405375   , -0.006621739, -0.0001700015, 920.8091    , 27.1594353  , 799.593567  , 1.32        , 3           , 255         , 0           , 0
-0.05866872 , -0.0138282459, 9.801226    , -0.000102353748, 8.024019E-05, 0.000222601753, 3.14053631  , -0.006622543, -0.000172226661, 920.81134   , 27.1618767  , 799.5936    , 1.33        , 3           , 255         , 0           , 0
-0.0520621352, -0.02152389 , 9.795564    , -0.0008345032, -0.000205358956, 0.000195074826, 3.140528    , -0.006620492, -0.000174179586, 920.81134   , 27.1618767  , 799.5937    , 1.34        , 3           , 255         , 0           , 0
-0.0580117479, -0.0307068639, 9.793367    , -0.00241342 , -0.000541748246, 0.000377496181, 3.140504    , -0.006615078, -0.000177960363, 920.81134   , 27.1618767  , 799.59375   , 1.35        , 3           , 255         , 0           , 0
-0.05099863 , -0.0166422464, 9.790499    , -0.00218113721, -0.0007712601, 0.00187031261, 3.14048219  , -0.006607386, -0.0001966719, 920.81134   , 27.1618767  , 799.5938    , 1.36        , 3           , 255         , 0           , 0
-0.0522170439, -0.0205313433, 9.800749    , -0.000505016767, -2.183416E-05, 0.000730085536, 3.14047718  , -0.006607176, -0.000203972973, 920.81134   , 27.1618767  , 799.5939    , 1.37        , 3           , 255         , 0           , 0
-0.04573955 , -0.01589051 , 9.79764     , -0.0003403041, 0.0007772322, 0.000548415352, 3.14047384  , -0.00661495468, -0.000209448452, 920.81134   , 27.1618767  , 799.593933  , 1.38        , 3           , 255         , 0           , 0
-0.03585541 , -0.00201637624, 9.79818249  , -0.0004532315, 0.0006310139, 0.0002093683, 3.14046931  , -0.00662126625, -0.000211535051, 920.81134   , 27.1618767  , 799.594     , 1.39        , 3           , 255         , 0           , 0
-0.03849523 , -0.01281895 , 9.78111     , -0.00109001889, 0.0006799353, -0.00176098617, 3.14045835  , -0.00662804628, -0.000193917585, 920.81134   , 27.1618767  , 799.594055  , 1.4         , 3           , 255         , 0           , 0
-0.0390959978, -0.0237345826, 9.791865    , -0.0008301925, -9.860611E-06, -0.000141489989, 3.14043427  , -0.006598026, -0.000192399355, 920.81134   , 27.1618767  , 799.6095    , 1.41        , 3           , 255         , 0           , 0
-0.0481283665, -0.0210101176, 9.800404    , -0.000508025871, -0.0005359929, 0.000838017266, 3.14042926  , -0.006592675, -0.0002007857, 920.81134   , 27.1618767  , 799.6096    , 1.42        , 3           , 255         , 0           , 0
-0.0507053733, -0.0195529722, 9.795842    , -0.00201283861, -0.000207806937, 0.000504391 , 3.14040923  , -0.00659060339, -0.000205832039, 920.831848  , 27.1619453  , 799.609741  , 1.43        , 3           , 255         , 0           , 0
-0.0453719571, -0.0147160087, 9.796155    , -0.00137334294, 0.000169370556, 0.0008342561, 3.14039564  , -0.006592307, -0.000214172542, 920.831848  , 27.1619453  , 799.609863  , 1.44        , 3           , 255         , 0           , 0
-0.0518408641, -0.004818242, 9.797734    , -0.0006700922, 0.000415976625, 0.00103746122, 3.140389    , -0.00659648 , -0.000224542135, 920.831848  , 27.1619453  , 799.61      , 1.45        , 3           , 255         , 0           , 0
-0.053845048, -0.0127196629, 9.797705    , 0.0002653338, 0.00056838803, 0.00107988436, 3.14039159  , -0.00660217553, -0.0002353341, 920.831848  , 27.1619453  , 799.6101    , 1.46        , 3           , 255         , 0           , 0
-0.05998968 , -0.02503248 , 9.79879     , 4.11269721E-05, 0.00114984089, -0.000162616867, 3.140392    , -0.00661367271, -0.000233694125, 920.831848  , 27.1619453  , 799.6102    , 1.47        , 3           , 255         , 0           , 0
-0.069287926, -0.0294569042, 9.80380249  , -0.000281383982, 0.0006172301, -0.0005649815, 3.1403892   , -0.0066198376, -0.000228036937, 920.831848  , 27.1619453  , 799.610352  , 1.48        , 3           , 255         , 0           , 0
-0.06655345 , -0.03336065 , 9.796429    , -0.0005952297, 0.000245203264, -0.0007564168, 3.14038324  , -0.00662227953, -0.00022046981, 920.831848  , 27.1619453  , 799.6105    , 1.49        , 3           , 255         , 0           , 0
-0.0820309743, -0.0309487078, 9.79181     , -9.68579E-05, 0.000361768762, -9.164415E-05, 3.14038229  , -0.006625896, -0.000219549, 920.831848  , 27.1619453  , 799.6106    , 1.5         , 3           , 255         , 0           , 0
-0.07295726 , -0.0298863016, 9.785621    , -4.89113154E-05, 0.0001495739, 3.345165E-05, 3.14035988  , -0.0066096005, -0.00021973683, 920.831848  , 27.1619453  , 799.6029    , 1.51        , 3           , 255         , 0           , 0
-0.07781052 , -0.0265183784, 9.808047    , 0.000377270975, -6.072363E-05, 0.000877822051, 3.14036369  , -0.006609005, -0.000228515768, 920.831848  , 27.1619453  , 799.603     , 1.52        , 3           , 255         , 0           , 0
-0.07907052 , -0.0266210139, 9.79458     , -0.000135824783, 7.28599261E-05, 0.000482048374, 3.14036226  , -0.00660973927, -0.000233335333, 920.834045  , 27.1652012  , 799.603149  , 1.53        , 3           , 255         , 0           , 0
-0.0708393455, -0.0297321882, 9.792731    , -0.0005166393, 0.0003795575, -4.666325E-05, 3.14035726  , -0.006613535, -0.000232864011, 920.834045  , 27.1652012  , 799.6033    , 1.54        , 3           , 255         , 0           , 0
-0.07681671 , -0.0294843726, 9.79598     , -0.001223072, 0.000218871981, 0.000138449075, 3.14034486  , -0.00661572441, -0.000234245774, 920.834045  , 27.1652012  , 799.6034    , 1.55        , 3           , 255         , 0           , 0
-0.0847788  , -0.03636091 , 9.792158    , -0.0012337981, -0.000386897, -5.11621474E-05, 3.1403327   , -0.00661185523, -0.000233738989, 920.834045  , 27.1652012  , 799.6035    , 1.56        , 3           , 255         , 0           , 0
-0.0822662562, -0.0262375269, 9.787677    , -0.000580311869, 0.000745450146, 0.0006306368, 3.14032674  , -0.006619317, -0.000240035937, 920.834045  , 27.1652012  , 799.603638  , 1.57        , 3           , 255         , 0           , 0
-0.07482434 , -0.0203784835, 9.806493    , -0.00074695074, 0.000190015417, 0.0005636255, 3.14031935  , -0.00662122434, -0.00024566974, 920.834045  , 27.1652012  , 799.60376   , 1.58        , 3           , 255         , 0           , 0
-0.06308807 , -0.0168116968, 9.795024    , -0.0008507478, -3.065332E-05, 0.000103292521, 3.140311    , -0.00662091933, -0.000246703072, 920.834045  , 27.1652012  , 799.6039    , 1.59        , 3           , 255         , 0           , 0
-0.06221643 , -0.0242625587, 9.7854      , -0.00117148866, 8.478761E-06, -0.000175649649, 3.140299    , -0.00662100175, -0.000244946452, 920.834045  , 27.1652012  , 799.604     , 1.6         , 3           , 255         , 0           , 0
-0.0577539727, -0.02832877 , 9.785251    , 7.34048663E-05, 0.000304023735, -0.000534584, 3.1402626   , -0.00664897962, -0.00023934897, 920.834045  , 27.1652012  , 799.59436   , 1.61        , 3           , 255         , 0           , 0
-0.06278126 , -0.0239281245, 9.820186    , -0.000296375947, 0.0001270452, -0.0005114781, 3.14025974  , -0.00665024342, -0.000234232517, 920.834045  , 27.1652012  , 799.5944    , 1.62        , 3           , 255         , 0           , 0
-0.07243003 , -0.0249838065, 9.79674     , 0.00052960054, -5.513057E-05, 0.000539187167, 3.140265    , -0.006649699, -0.0002396251, 920.8292    , 27.1630974  , 799.5945    , 1.63        , 3           , 255         , 0           , 0
-0.0691788644, -0.022842586, 9.79642     , 0.0002811317, -0.000192303676, 0.0009445807, 3.14026785  , -0.00664779 , -0.0002490734, 920.8292    , 27.1630974  , 799.594543  , 1.64        , 3           , 255         , 0           , 0
-0.0599772446, -0.0267365724, 9.796       , 0.000523474067, -7.10692257E-05, 0.000434360874, 3.140273    , -0.006647085, -0.000253417937, 920.8292    , 27.1630974  , 799.5946    , 1.65        , 3           , 255         , 0           , 0
-0.0622943155, -0.0212123785, 9.784497    , 0.000148653868, 5.02187759E-05, 0.000383923063, 3.14027452  , -0.006647592, -0.0002572565, 920.8292    , 27.1630974  , 799.594666  , 1.66        , 3           , 255         , 0           , 0
-0.0591697879, -0.019833494, 9.792984    , 0.000411555637, -2.77692452E-05, 6.911036E-05, 3.14027882  , -0.006647315, -0.000257947977, 920.8292    , 27.1630974  , 799.5947    , 1.67        , 3           , 255         , 0           , 0
-0.06601251 , -0.03027742 , 9.797735    , 0.000231793965, 0.000120361336, -0.0001659818, 3.140281    , -0.00664851628, -0.0002562866, 920.8292    , 27.1630974  , 799.594849  , 1.68        , 3           , 255         , 0           , 0
-0.0564689338, -0.0247968473, 9.794397    , -7.76280649E-06, -0.000422597048, -3.848737E-05, 3.140281    , -0.00664429041, -0.000255907275, 920.8292    , 27.1630974  , 799.595     , 1.69        , 3           , 255         , 0           , 0
-0.0594102331, -0.0197232589, 9.793486    , -0.0005272572, -0.000446405378, -0.0004431618, 3.14027572  , -0.00663982052, -0.000251481571, 920.8292    , 27.1630974  , 799.5951    , 1.7         , 3           , 255         , 0           , 0
-0.0609561428, -0.025890734, 9.791155    , -0.000378291472, -0.000346810324, 0.000465001562, 3.14024568  , -0.00663042441, -0.000255962717, 920.8292    , 27.1630974  , 799.591736  , 1.71        , 3           , 255         , 0           , 0
-0.06725401 , -0.0238158759, 9.800427    , 8.368213E-05, -0.0005205582, 0.000603726 , 3.14024663  , -0.0066252267, -0.000262006972, 920.8292    , 27.1630974  , 799.5918    , 1.72        , 3           , 255         , 0           , 0
-0.0571997948, -0.0230855737, 9.784758    , 0.0007586506, -0.000114298426, 0.0003333459, 3.14025426  , -0.00662408862, -0.00026534198, 920.8664    , 27.1667614  , 799.591858  , 1.73        , 3           , 255         , 0           , 0
-0.0598922148, -0.02258623 , 9.793517    , 0.000962410239, -1.37970783E-05, -0.00034666888, 3.1402638   , -0.0066239466, -0.000261875481, 920.8664    , 27.1667614  , 799.5919    , 1.74        , 3           , 255         , 0           , 0
-0.0698150545, -0.0184173789, 9.795484    , 9.47236549E-06, -0.000176395988, -0.000115610543, 3.140264    , -0.00662218034, -0.0002607217, 920.8664    , 27.1667614  , 799.592     , 1.75        , 3           , 255         , 0           , 0
-0.06614281 , -0.03172923 , 9.789873    , 0.000391797046, -0.0003682467, 0.000102827558, 3.14026785  , -0.00661849976, -0.000261754845, 920.8664    , 27.1667614  , 799.592041  , 1.76        , 3           , 255         , 0           , 0
-0.0614710934, -0.02186397 , 9.794081    , 0.000110367546, -0.000118396711, 0.000324101653, 3.140269    , -0.00661732 , -0.000264997419, 920.8664    , 27.1667614  , 799.5921    , 1.77        , 3           , 255         , 0           , 0
-0.06091575 , -0.0223260075, 9.793075    , 0.000348745729, 0.000194576569, 0.000146652339, 3.14027238  , -0.006619267, -0.0002664614, 920.8664    , 27.1667614  , 799.592163  , 1.78        , 3           , 255         , 0           , 0
-0.0562589  , -0.018858254, 9.7901535   , 0.000442320132, -6.09324779E-05, 0.0006452701, 3.140277    , -0.00661866646, -0.000272914855, 920.8664    , 27.1667614  , 799.5922    , 1.79        , 3           , 255         , 0           , 0
-0.06564269 , -0.0223229341, 9.79832649  , -9.959005E-05, -0.0003399311, 0.00061461085, 3.140276    , -0.00661527552, -0.000279065425, 920.8664    , 27.1667614  , 799.592346  , 1.8         , 3           , 255         , 0           , 0
-0.07241316 , -0.02669173 , 9.795752    , -2.20321817E-05, -0.0005422954, 0.00061729335, 3.14024854  , -0.006603603, -0.000285064685, 920.8664    , 27.1667614  , 799.5469    , 1.81        , 3           , 255         , 0           , 0
-0.06972606 , -0.025920447, 9.792589    , 5.62353525E-05, -0.0005111783, -0.000244756171, 3.140249    , -0.006598488, -0.000282624, 920.8664    , 27.1667614  , 799.5467    , 1.82        , 3           , 255         , 0           , 0
-0.07508721 , -0.0183511712, 9.805773    , -0.000162341748, 0.0001700006, -0.0003921326, 3.14024734  , -0.0066001825, -0.0002787004, 920.8549    , 27.16839    , 799.5465    , 1.83        , 3           , 255         , 0           , 0
-0.06483748 , -0.010066716, 9.79532051  , 3.294577E-05, -0.000350723276, 0.000336300873, 3.14024758  , -0.00659668 , -0.000282068155, 920.8549    , 27.16839    , 799.5463    , 1.84        , 3           , 255         , 0           , 0
-0.0532286465, -0.0203422736, 9.790068    , -6.5248576E-05, 3.211666E-05, 0.000129412045, 3.140247    , -0.0065970025, -0.000283361849, 920.8549    , 27.16839    , 799.546143  , 1.85        , 3           , 255         , 0           , 0
-0.05145204 , -0.0151101919, 9.795333    , 0.000103279483, -0.0002615  , 6.926485E-05, 3.140248    , -0.00659438875, -0.000284058, 920.8549    , 27.16839    , 799.545959  , 1.86        , 3           , 255         , 0           , 0
-0.0542738736, -0.0246264841, 9.802642    , 0.000269335578, -0.000156051246, 0.000511870661, 3.14025068  , -0.006592835, -0.000289178774, 920.8549    , 27.16839    , 799.5458    , 1.87        , 3           , 255         , 0           , 0
-0.0552502945, -0.025699148, 9.79093552  , 3.647909E-05, -0.00028807018, 0.000821800029, 3.14025116  , -0.006589965, -0.000297400664, 920.8549    , 27.16839    , 799.5456    , 1.88        , 3           , 255         , 0           , 0
-0.0560666844, -0.0204031356, 9.79998     , 2.98029045E-05, -0.000124976737, -0.000167124817, 3.1402514   , -0.00658871327, -0.000295731064, 920.8549    , 27.16839    , 799.5455    , 1.89        , 3           , 255         , 0           , 0
-0.0500346  , -0.0229354  , 9.795909    , 0.000407125219, 0.000362421852, 7.234991E-05, 3.14025569  , -0.00659233844, -0.000296449725, 920.8549    , 27.16839    , 799.545349  , 1.9         , 3           , 255         , 0           , 0
-0.044769723, -0.0216363855, 9.790434    , -0.000951290363, 0.000103880651, -0.000293522375, 3.14022946  , -0.006584078, -0.000293403835, 920.8549    , 27.16839    , 799.517456  , 1.91        , 3           , 255         , 0           , 0
-0.04792327 , -0.0151204374, 9.801679    , -0.0003272954, 0.00021028379, 0.000120471464, 3.14022613  , -0.00658618147, -0.000294605648, 920.8549    , 27.16839    , 799.517151  , 1.92        , 3           , 255         , 0           , 0
-0.0512289181, -0.0141996024, 9.79552     , -0.000179604278, -0.000403881073, 0.000113383168, 3.14022446  , -0.006582144, -0.000295744976, 920.8565    , 27.1687965  , 799.516846  , 1.93        , 3           , 255         , 0           , 0
-0.0573159046, -0.0213883314, 9.790727    , -0.0006784819, -0.000233073486, -0.000458639261, 3.14021754  , -0.00657980749, -0.000291161763, 920.8565    , 27.1687965  , 799.516541  , 1.94        , 3           , 255         , 0           , 0
-0.0623584  , -0.026848603, 9.795206    , -0.000491806655, -0.00016616541, 0.000471124018, 3.14021277  , -0.006578152, -0.000295875332, 920.8565    , 27.1687965  , 799.516235  , 1.95        , 3           , 255         , 0           , 0
-0.06662898 , -0.0326350629, 9.796079    , -0.00113335485, -0.0004972387, 0.0005031917, 3.14020133  , -0.006573188, -0.000300914078, 920.8565    , 27.1687965  , 799.5159    , 1.96        , 3           , 255         , 0           , 0
-0.0637991354, -0.0274363514, 9.791269    , -0.001192165, -0.000246624462, -0.000182856922, 3.14018941  , -0.00657071825, -0.0002990889, 920.8565    , 27.1687965  , 799.5156    , 1.97        , 3           , 255         , 0           , 0
-0.0633712262, -0.0142121036, 9.778662    , -0.000468979939, 0.000326215755, -0.0001574361, 3.14018488  , -0.006573978, -0.000297509978, 920.8565    , 27.1687965  , 799.5153    , 1.98        , 3           , 255         , 0           , 0
-0.05548817 , -0.0228943657, 9.800474    , -0.0009910038, 0.000332519645, 0.000542923459, 3.14017487  , -0.00657731 , -0.000302934466, 920.8565    , 27.1687965  , 799.515     , 1.99        , 3           , 255         , 0           , 0
-0.06496587 , -0.0201203953, 9.794279    , -0.0003504072, -0.000190706458, -4.788331E-05, 3.14017129  , -0.00657540234, -0.000302458357, 920.8565    , 27.1687965  , 799.5147    , 2           , 3           , 0           , 7.445236    , 200
-0.0732389241, -0.02360131 , 9.793085    , -0.0002925141, 0.0006709194, 0.0002941303, 3.140148    , -0.006565273, -0.000305254362, 920.8565    , 27.1687965  , 799.488     , 2.01        , 3           , 1           , 0           , 0
-0.0724699  , -0.0329685844, 9.801796    , -2.958381E-05, -5.94910234E-05, 0.000790430466, 3.14014745  , -0.00656469 , -0.000313159457, 920.8565    , 27.1687965  , 799.487549  , 2.02        , 3           , 2           , 0           , 0
-0.06817466 , -0.0282861553, 9.795664    , -0.0004977373, 0.000158287352, 0.000772379 , 3.14014268  , -0.00656628329, -0.000320880936, 920.811     , 27.1675758  , 799.4871    , 2.03        , 3           , 3           , 0           , 0
-0.06707178 , -0.026402995, 9.775912    , -0.000545670744, 0.00050852634, -0.000238605338, 3.1401372   , -0.006571366, -0.0003184875, 920.811     , 27.1675758  , 799.4867    , 2.04        , 3           , 4           , 0           , 0
-0.06912429 , -0.0243491121, 9.788149    , -7.36264046E-05, 0.000104573322, 0.000121279387, 3.14013648  , -0.00657241326, -0.0003196988, 920.811     , 27.1675758  , 799.486267  , 2.05        , 3           , 5           , 0           , 0
-0.0586383455, -0.0232586972, 9.804364    , -0.00100545213, -0.000326040667, 0.000285346 , 3.14012647  , -0.006569156, -0.000322556967, 920.811     , 27.1675758  , 799.48584   , 2.06        , 3           , 6           , 0           , 0
-0.0630475655, -0.0284062084, 9.801893    , -0.00114120834, -0.0005266371, 0.000431734778, 3.140115    , -0.00656389724, -0.000326882, 920.811     , 27.1675758  , 799.4854    , 2.07        , 3           , 7           , 0           , 0
-0.06441433 , -0.0291953683, 9.805296    , 6.90727029E-06, -0.000383669743, -0.000180187228, 3.140115    , -0.006560058, -0.000325085828, 920.811     , 27.1675758  , 799.485     , 2.08        , 3           , 8           , 5           , 5
-0.0601518676, -0.0325249732, 9.799556    , 6.04544766E-06, -0.000530669466, 0.000147628016, 3.14011526  , -0.00655475352, -0.000326569949, 920.811     , 27.1675758  , 799.484558  , 2.09        , 3           , 9           , 5           , 0.1
-0.07194724 , -0.03052251 , 9.788051    , 0.0009653277, -0.000303168548, -0.000115593633, 3.1401248   , -0.006551721, -0.000325418427, 920.811     , 27.1675758  , 799.484131  , 2.1         , 3           , 10          , 0.1         , 0.1
-0.06569042 , -0.0186932571, 9.787149    , 0.0004811734, -0.0002673599, 0.0007405137, 3.14010024  , -0.006554341, -0.000332634081, 920.811     , 27.1675758  , 799.516846  , 2.11        , 3           , 11          , 0.0082162125, 0.008216208
-0.06499921 , -0.0302686989, 9.794073    , -0.000161029631, -0.000637092046, 0.0007374162, 3.14009857  , -0.006547982, -0.0003400177, 920.811     , 27.1675758  , 799.5166    , 2.12        , 3           , 12          , 0.174643889 , 0
-0.068949   , -0.02873826 , 9.798155    , 0.00106415246, -0.0006291609, 0.000154582318, 3.1401093   , -0.00654169172, -0.0003415729, 920.8307    , 27.171442   , 799.516357  , 2.13        , 3           , 13          , 0           , 0
-0.07315907 , -0.0250181  , 9.79507     , 0.0004387123, -0.000313167227, 0.000189484563, 3.14011359  , -0.00653856341, -0.000343472348, 920.8307    , 27.171442   , 799.5161    , 2.14        , 3           , 14          , 0.00166795915, 0.002271586
-0.0698916242, -0.0246585961, 9.793502    , 0.0003490392, 0.0004013651, 0.00040622917, 3.14011717  , -0.006542583, -0.000347528665, 920.8307    , 27.171442   , 799.515869  , 2.15        , 3           , 15          , 0           , 0.000490969745
-0.06239683 , -0.0306194089, 9.794046    , 0.000255769235, -0.000396291143, 0.000276287785, 3.14011979  , -0.006538624, -0.0003502974, 920.8307    , 27.171442   , 799.5156    , 2.16        , 3           , 16          , 0           , 1.401298E-45
-0.0722526  , -0.0254806187, 9.785702    , 0.0003806895, 0.00032553752, -0.000335221877, 3.14012361  , -0.00654187426, -0.000346940418, 920.8307    , 27.171442   , 799.5154    , 2.17        , 3           , 20          , 0           , 0
-0.0751068443, -0.0294108689, 9.788378    , 0.0002566788, 0.0004122553, -0.0005961899, 3.140126    , -0.006545988, -0.0003409725, 920.8307    , 27.171442   , 799.515137  , 2.18        , 3           , 21          , 0           , 0
-0.06710516 , -0.02121717 , 9.793409    , 0.000648067333, 0.000334660057, -0.0002517699, 3.14013243  , -0.00654933136, -0.00033844987, 920.8307    , 27.171442   , 799.5149    , 2.19        , 3           , 22          , 0           , 0
-0.0568697229, -0.0225559771, 9.798082    , 0.000233149272, -0.000346729532, 0.000164504221, 3.14013481  , -0.006545866, -0.0003401  , 920.8307    , 27.171442   , 799.514648  , 2.2         , 3           , 40          , 0           , 0
-0.0660825148, -0.0269738846, 9.800065    , -0.000210558064, -0.000274932245, 0.0007670352, 3.14010429  , -0.00655222824, -0.000347587978, 920.8307    , 27.171442   , 799.5195    , 2.21        , 3           , 41          , 0           , 0
-0.07260764 , -0.0274994615, 9.799653    , -0.000408256543, 9.070826E-05, 0.000449565938, 3.14010024  , -0.006553142, -0.0003520823, 920.8307    , 27.171442   , 799.5193    , 2.22        , 3           , 42          , 0           , 0
-0.06793885 , -0.02889665 , 9.78566551  , 0.000230629114, -4.481501E-05, -0.000273862359, 3.14010262  , -0.00655268971, -0.000349344336, 920.8339    , 27.1697464  , 799.5191    , 2.23        , 3           , 255         , 0           , 0
-0.0573432073, -0.0153050125, 9.78825     , 1.5474041E-05, 1.63703226E-05, 0.0005790413, 3.14010286  , -0.006552862, -0.000355134485, 920.8339    , 27.1697464  , 799.5189    , 2.24        , 3           , 255         , 0           , 0
-0.0477925949, -0.0142660914, 9.8020525   , 0.000249137753, 0.0003544367, -0.000536497741, 3.14010525  , -0.0065563987, -0.000349764276, 920.8339    , 27.1697464  , 799.518738  , 2.25        , 3           , 255         , 0           , 0
-0.0456018224, -0.0156899747, 9.808287    , 0.0004220052, -6.01355E-05, 0.000405784347, 3.14010954  , -0.00655580359, -0.00035382295, 920.8339    , 27.1697464  , 799.518555  , 2.26        , 3           , 255         , 0           , 0
-0.0463837981, -0.0156550054, 9.800243    , 0.000155984191, -0.000204648357, 0.000132493151, 3.140111    , -0.006553759, -0.000355150929, 920.8339    , 27.1697464  , 799.5184    , 2.27        , 3           , 255         , 0           , 0
-0.0487865  , -0.0240700059, 9.796813    , 0.000264744041, -0.000534813269, 0.000348781177, 3.14011383  , -0.00654841634, -0.000358646619, 920.8339    , 27.1697464  , 799.5182    , 2.28        , 3           , 255         , 0           , 0
-0.0481049269, -0.0119495438, 9.796409    , -0.0003275777, 0.000581210945, -0.000759378832, 3.14011049  , -0.006554218, -0.00035104432, 920.8339    , 27.1697464  , 799.518     , 2.29        , 3           , 255         , 0           , 0
-0.0524237379, -0.0145358294, 9.778298    , -0.0005684416, 0.000467715552, -0.0005946523, 3.14010477  , -0.00655888533, -0.00034509087, 920.8339    , 27.1697464  , 799.5178    , 2.3         , 3           , 255         , 0           , 0
-0.0470588543, -0.0102172941, 9.82138252  , 0.000303879962, -0.000171243446, 0.000121815596, 3.14009762  , -0.00653893 , -0.000346245884, 920.8339    , 27.1697464  , 799.51825   , 2.31        , 3           , 255         , 0           , 0
-0.04300682 , -0.009770113, 9.813885    , -0.000138981966, 0.000363755738, 0.000187140075, 3.14009619  , -0.00654257042, -0.0003481118, 920.8339    , 27.1697464  , 799.518066  , 2.32        , 3           , 255         , 0           , 0
-0.05044936 , -0.019328719, 9.786646    , 0.0003498724, 0.0006411215, -9.953312E-05, 3.14009976  , -0.00654898025, -0.000347106921, 920.844543  , 27.1710358  , 799.5179    , 2.33        , 3           , 255         , 0           , 0
-0.0576248765, -0.0180475861, 9.80168     , 0.0005211452, 0.0003237778, 0.000929494447, 3.140105    , -0.006552233, -0.000356396951, 920.844543  , 27.1710358  , 799.5177    , 2.34        , 3           , 255         , 0           , 0
-0.0699594542, -0.0191298537, 9.789575    , -0.000762469, -0.0003570877, 0.000549153 , 3.14009738  , -0.006548669, -0.000361893763, 920.844543  , 27.1710358  , 799.5175    , 2.35        , 3           , 255         , 0           , 0
-0.0645452  , -0.0297068246, 9.774786    , 0.000640511862, 0.000301090768, 5.447428E-05, 3.14010382  , -0.006551681, -0.000362434017, 920.844543  , 27.1710358  , 799.517334  , 2.36        , 3           , 255         , 0           , 0
-0.0609374419, -0.023249805, 9.799187    , 0.00117472548, 0.0004922708, 4.17390838E-05, 3.14011574  , -0.006556603, -0.000362844061, 920.844543  , 27.1710358  , 799.517151  , 2.37        , 3           , 255         , 0           , 0
-0.0729979947, -0.0268629156, 9.814817    , -0.000210002647, -0.000620006351, -7.387367E-06, 3.14011359  , -0.00655040471, -0.000362779363, 920.844543  , 27.1710358  , 799.517     , 2.38        , 3           , 255         , 0           , 0
-0.06909205 , -0.0343174338, 9.799481    , 0.0005587082, 9.142212E-05, -6.271887E-05, 3.140119    , -0.006551317, -0.000362150837, 920.844543  , 27.1710358  , 799.5169    , 2.39        , 3           , 255         , 0           , 0
-0.08212885 , -0.0399612673, 9.773191    , 0.0012595366, 0.000944279134, 0.0007066462, 3.14013171  , -0.006560769, -0.000369203364, 920.844543  , 27.1710358  , 799.5168    , 2.4         , 3           , 255         , 0           , 0
-0.0755755156, -0.04181968 , 9.784617    , 0.000661120052, 6.855E-05   , 0.0002832334, 3.14012337  , -0.00655717775, -0.000371935777, 920.844543  , 27.1710358  , 799.5035    , 2.41        , 3           , 255         , 0           , 0
-0.07343909 , -0.03053316 , 9.801153    , 0.000209762133, -0.000245693373, 0.000528845 , 3.14012551  , -0.00655472837, -0.0003772278, 920.844543  , 27.1710358  , 799.503235  , 2.42        , 3           , 255         , 0           , 0
-0.08475594 , -0.02951092 , 9.787546    , 0.000225460855, 0.000293761725, 0.000111727626, 3.14012766  , -0.00655766763, -0.000378340716, 920.7909    , 27.171917   , 799.503     , 2.43        , 3           , 255         , 0           , 0
-0.08101554 , -0.0221852474, 9.80559349  , 3.385148E-05, 3.0770665E-05, 0.000451373227, 3.14012814  , -0.006557982, -0.000382854021, 920.7909    , 27.171917   , 799.502747  , 2.44        , 3           , 255         , 0           , 0
-0.0695583  , -0.0130577981, 9.810061    , -0.000243141083, -0.0006292132, 0.000143723679, 3.14012551  , -0.006551692, -0.000384300482, 920.7909    , 27.171917   , 799.5025    , 2.45        , 3           , 255         , 0           , 0
-0.05949809 , -0.0225307979, 9.802585    , -0.000413550879, -0.000442138058, 0.0006019898, 3.14012146  , -0.006547279, -0.0003903268, 920.7909    , 27.171917   , 799.502258  , 2.46        , 3           , 255         , 0           , 0
-0.06622501 , -0.0209061  , 9.796102    , 4.166062E-05, 2.69943848E-05, -0.00065013225, 3.140122    , -0.00654753949, -0.0003838251, 920.7909    , 27.171917   , 799.502     , 2.47        , 3           , 255         , 0           , 0
-0.05699092 , -0.02128429 , 9.794387    , -0.0002621864, -0.0002688826, 0.000117677148, 3.14011931  , -0.00654485263, -0.000385005842, 920.7909    , 27.171917   , 799.5018    , 2.48        , 3           , 255         , 0           , 0
-0.0484358668, -0.0187163  , 9.796713    , -0.000337703736, -0.000139807817, 2.50095036E-06, 3.140116    , -0.00654345471, -0.000385032938, 920.7909    , 27.171917   , 799.5015    , 2.49        , 3           , 255         , 0           , 0
-0.05604618 , -0.0150535675, 9.80168152  , -0.00102124445, -9.1283815E-05, -6.0772E-06 , 3.14010572  , -0.00654254248, -0.0003849735, 920.7909    , 27.171917   , 799.501343  , 2.5         , 3           , 255         , 0           , 0
-0.0459811166, -0.0151847322, 9.797791    , -0.000531479251, -0.000479931827, -4.67436621E-05, 3.14008474  , -0.00654273573, -0.000384410931, 920.7909    , 27.171917   , 799.561646  , 2.51        , 3           , 255         , 0           , 0
-0.0387512036, -0.009157333, 9.798529    , -0.000103274244, 0.000221002148, 0.00015653664, 3.14008379  , -0.006544948, -0.000385973, 920.7909    , 27.171917   , 799.5618    , 2.52        , 3           , 255         , 0           , 0
-0.0416971445, -0.00478838664, 9.788084    , -0.00039932935, 0.000349703245, -9.42536E-05, 3.14007974  , -0.006548444, -0.000385025167, 920.8403    , 27.1738853  , 799.562     , 2.53        , 3           , 255         , 0           , 0
-0.035946086, -0.0156962611, 9.789199    , 0.000189225539, 2.43699178E-05, -8.81314045E-05, 3.14008164  , -0.00654868642, -0.000384143466, 920.8403    , 27.1738853  , 799.5622    , 2.54        , 3           , 255         , 0           , 0
-0.0429517552, -0.0112238983, 9.798293    , 0.000410586828, -0.000331545249, -0.000401360623, 3.1400857   , -0.006545365, -0.000380134879, 920.8403    , 27.1738853  , 799.5624    , 2.55        , 3           , 255         , 0           , 0
-0.0454608239, -0.006193701, 9.79175     , 0.000224318122, 0.000191723 , 0.0003599379, 3.14008784  , -0.006547287, -0.000383731356, 920.8403    , 27.1738853  , 799.562561  , 2.56        , 3           , 255         , 0           , 0
-0.049445536, -0.0158187188, 9.779757    , -0.000233274186, 0.000151741784, 0.0005185197, 3.1400857   , -0.006548813, -0.000388914254, 920.8403    , 27.1738853  , 799.562744  , 2.57        , 3           , 255         , 0           , 0
-0.0397997722, -0.0114371143, 9.7950325   , -0.00033091323, 8.04814044E-05, 0.0006719955, 3.14008236  , -0.006549628, -0.00039563296, 920.8403    , 27.1738853  , 799.5629    , 2.58        , 3           , 255         , 0           , 0
-0.0483084135, -0.0235236771, 9.802332    , 2.4292036E-05, 0.0004953414, 3.77377146E-05, 3.1400826   , -0.006554582, -0.00039600287, 920.8403    , 27.1738853  , 799.5631    , 2.59        , 3           , 255         , 0           , 0
-0.03841008 , -0.0252745636, 9.790857    , 0.00043813535, 0.0006644572, -0.000212046027, 3.140087    , -0.006561223, -0.000393872353, 920.8403    , 27.1738853  , 799.5633    , 2.6         , 3           , 255         , 0           , 0
-0.06030336 , -0.0193119477, 9.800717    , 0.000291964039, 0.0007276328, -0.000420305, 3.14009213  , -0.006518934, -0.0003896726, 920.8403    , 27.1738853  , 799.549     , 2.61        , 3           , 255         , 0           , 0
-0.0732883662, -0.0289528463, 9.809778    , -0.0006360987, 6.830739E-05, -0.000676876167, 3.1400857   , -0.006519607, -0.00038290277, 920.8403    , 27.1738853  , 799.549133  , 2.62        , 3           , 255         , 0           , 0
-0.07539202 , -0.0315052569, 9.785438    , -0.0005529844, 0.000393025344, -0.000715360744, 3.14008021  , -0.00652352534, -0.000375743257, 920.8337    , 27.1730042  , 799.549255  , 2.63        , 3           , 255         , 0           , 0
-0.07632849 , -0.03528788 , 9.789446    , -0.000359197031, -6.731623E-05, -0.000338231766, 3.1400764   , -0.006522847, -0.000372362, 920.8337    , 27.1730042  , 799.5494    , 2.64        , 3           , 255         , 0           , 0
-0.0750776157, -0.0315939374, 9.792311    , 0.00163460174, 0.0008083263, 0.0004238708, 3.14009285  , -0.00653093727, -0.000376588461, 920.8337    , 27.1730042  , 799.5495    , 2.65        , 3           , 255         , 0           , 0
-0.0886311755, -0.0340512767, 9.805719    , -0.0011516558, -0.000446174759, 0.000385545776, 3.14008141  , -0.00652648043, -0.000380450627, 920.8337    , 27.1730042  , 799.5496    , 2.66        , 3           , 255         , 0           , 0
-0.0871253461, -0.042453628, 9.78929     , 0.00168140535, 0.000321088126, 1.8792809E-05, 3.140098    , -0.006529692, -0.000380633777, 920.8337    , 27.1730042  , 799.549744  , 2.67        , 3           , 255         , 0           , 0
-0.0867133  , -0.0321943276, 9.80739     , -0.000160302152, 0.0007880535, 1.00636389E-05, 3.14009666  , -0.006537572, -0.00038072266, 920.8337    , 27.1730042  , 799.549866  , 2.68        , 3           , 255         , 0           , 0
-0.07764103 , -0.0384937152, 9.784277    , 0.000204612035, -0.00015423377, -8.126206E-05, 3.14009857  , -0.00653602835, -0.000379912351, 920.8337    , 27.1730042  , 799.55      , 2.69        , 3           , 255         , 0           , 0
-0.0760490149, -0.0215731747, 9.799619    , 0.00104119675, 0.0005191767, 0.00116448174, 3.140109    , -0.0065412377, -0.000391549373, 920.8337    , 27.1730042  , 799.5501    , 2.7         , 3           , 255         , 0           , 0
-0.06408757 , -0.0292120688, 9.787067    , -0.00101121375, -0.00118432264, 0.0007882793, 3.140069    , -0.006553922, -0.000399252865, 920.8337    , 27.1730042  , 799.546753  , 2.71        , 3           , 255         , 0           , 0
-0.0659420043, -0.027545277, 9.789119    , 0.0002988471, -8.509192E-05, -0.000139285636, 3.14007187  , -0.00655306876, -0.000397861353, 920.8337    , 27.1730042  , 799.5469    , 2.72        , 3           , 255         , 0           , 0
-0.06894405 , -0.0226160977, 9.786165    , 0.000344067 , -0.0006201966, -1.50266278E-05, 3.14007545  , -0.00654686661, -0.00039772052, 920.8178    , 27.1732063  , 799.547     , 2.73        , 3           , 255         , 0           , 0
-0.07346676 , -0.0256226771, 9.790796    , 0.0009956119, 0.00047836313, -0.000114428607, 3.14008546  , -0.00655164756, -0.000396569056, 920.8178    , 27.1732063  , 799.5471    , 2.74        , 3           , 255         , 0           , 0
-0.0578766838, -0.006370486, 9.799585    , -0.000123941689, 0.00064540864, -0.0004579759, 3.140084    , -0.00655809464, -0.000391979556, 920.8178    , 27.1732063  , 799.547241  , 2.75        , 3           , 255         , 0           , 0
-0.0500194244, -0.0159301646, 9.788213    , 2.81631947E-06, -0.000547983334, -3.62606952E-05, 3.140084    , -0.00655261474, -0.000391625246, 920.8178    , 27.1732063  , 799.547363  , 2.76        , 3           , 255         , 0           , 0
-0.060477227, -0.0141436309, 9.791419    , 0.000280341832, 7.88667239E-05, -0.00045945344, 3.140087    , -0.006553396, -0.000387029548, 920.8178    , 27.1732063  , 799.5475    , 2.77        , 3           , 255         , 0           , 0
-0.04958281 , -0.0197491813, 9.783706    , -0.000353039, -1.76299363E-06, -0.000396161166, 3.14008331  , -0.00655337237, -0.000383067963, 920.8178    , 27.1732063  , 799.5476    , 2.78        , 3           , 255         , 0           , 0
-0.0553094968, -0.031026274, 9.796147    , 0.0005474469, 0.000264603877, 2.05821125E-05, 3.1400888   , -0.00655601872, -0.0003832698, 920.8178    , 27.1732063  , 799.5477    , 2.79        , 3           , 255         , 0           , 0
-0.0487567559, -0.0314906426, 9.807573    , -0.000370561727, -0.0001017414, 0.0005565335, 3.14008522  , -0.00655501 , -0.000388836634, 920.8178    , 27.1732063  , 799.547852  , 2.8         , 3           , 255         , 0           , 0
-0.047717642, -0.0303067062, 9.78446     , -4.64522745E-05, 0.000604216941, -0.0002092188, 3.14006615  , -0.006549536, -0.0003866146, 920.8178    , 27.1732063  , 799.566833  , 2.81        , 3           , 255         , 0           , 0
-0.0533174649, -0.0231355689, 9.783728    , 0.0005889863, 7.673423E-05, 0.000420345226, 3.140072    , -0.00655030971, -0.000390816858, 920.8178    , 27.1732063  , 799.5671    , 2.82        , 3           , 255         , 0           , 0
-0.05902599 , -0.0171163734, 9.791464    , 0.000425464241, 4.54543624E-05, 0.0007695122, 3.1400764   , -0.00655077538, -0.000398511242, 920.868469  , 27.17626    , 799.5673    , 2.83        , 3           , 255         , 0           , 0
-0.0601650178, -0.0150082167, 9.804795    , 0.0006287468, 0.000235854648, 0.00038646278, 3.14008284  , -0.00655314 , -0.000402372272, 920.868469  , 27.17626    , 799.567566  , 2.84        , 3           , 255         , 0           , 0
-0.05649692 , -0.0222566761, 9.806089    , 0.0004329246, -5.152193E-05, -2.2289576E-05, 3.14008713  , -0.00655262452, -0.000402150152, 920.868469  , 27.17626    , 799.5678    , 2.85        , 3           , 255         , 0           , 0
-0.0585254021, -0.03347654 , 9.810698    , -0.00034275325, -0.0004427844, 0.0006001527, 3.14008379  , -0.00654820539, -0.000408158347, 920.868469  , 27.17626    , 799.568054  , 2.86        , 3           , 255         , 0           , 0
-0.0652009547, -0.04160536 , 9.793213    , -0.000176680973, 0.000150362728, -1.91164436E-05, 3.140082    , -0.006549709, -0.000407964952, 920.868469  , 27.17626    , 799.5683    , 2.87        , 3           , 255         , 0           , 0
-0.06276117 , -0.0408825837, 9.795272    , -1.44056976E-05, 0.000377394259, 0.000346291577, 3.140082    , -0.00655348832, -0.000411422079, 920.868469  , 27.17626    , 799.568542  , 2.88        , 3           , 255         , 0           , 0
-0.0613973252, -0.0273260809, 9.792898    , -0.000129865017, -0.00035905 , 0.0005127312, 3.14008045  , -0.00654990552, -0.0004165548, 920.868469  , 27.17626    , 799.5688    , 2.89        , 3           , 255         , 0           , 0
-0.056155324, -0.0265410785, 9.793129    , 0.0006431339, -1.88741833E-05, -0.0002520465, 3.140087    , -0.006549713, -0.0004140346, 920.868469  , 27.17626    , 799.569031  , 2.9         , 3           , 255         , 0           , 0
-0.0545418374, -0.0261648335, 9.791713    , 0.0006737532, 0.000576933147, -5.075414E-05, 3.14007     , -0.00654431572, -0.000413362985, 920.868469  , 27.17626    , 799.51416   , 2.91        , 3           , 255         , 0           , 0
-0.04836228 , -0.0205762051, 9.78855     , -0.000146218226, 0.0006328381, -0.000138230709, 3.14006853  , -0.006550642, -0.000411971036, 920.868469  , 27.17626    , 799.514038  , 2.92        , 3           , 255         , 0           , 0
-0.05933445 , -0.0214549862, 9.786235    , -0.00041912985, 0.000150185311, 4.7906884E-05, 3.14006424  , -0.006552145, -0.000412447815, 920.818359  , 27.1789742  , 799.5139    , 2.93        , 3           , 255         , 0           , 0
-0.067899   , -0.0180984568, 9.803675    , 0.0003060447, 8.41121655E-05, 3.00737447E-05, 3.14006734  , -0.00655298634, -0.0004127473, 920.818359  , 27.1789742  , 799.5138    , 2.94        , 3           , 255         , 0           , 0
-0.07077448 , -0.0170840323, 9.806136    , -0.000154829235, 1.05630606E-05, -0.000424479542, 3.14006567  , -0.00655308552, -0.000408502354, 920.818359  , 27.1789742  , 799.5137    , 2.95        , 3           , 255         , 0           , 0
-0.06833549 , -0.0278459378, 9.79836     , -0.000258109183, -0.000159786548, -0.0004338694, 3.14006329  , -0.006551481, -0.000404166116, 920.818359  , 27.1789742  , 799.51355   , 2.96        , 3           , 255         , 0           , 0
-0.05666098 , -0.0222461782, 9.792339    , 1.34006841E-05, -0.0003024363, 0.0007972139, 3.14006329  , -0.006548469, -0.0004121429, 920.818359  , 27.1789742  , 799.5135    , 2.97        , 3           , 255         , 0           , 0
-0.061252892, -0.0232928749, 9.784341    , 0.000715527451, 0.000115322415, 0.000354064 , 3.14007044  , -0.006549627, -0.000415681716, 920.818359  , 27.1789742  , 799.5134    , 2.98        , 3           , 255         , 0           , 0
-0.06319225 , -0.03279739 , 9.795233    , -0.0001470556, 0.0003881231, 0.000178966788, 3.140069    , -0.006553511, -0.00041746546, 920.818359  , 27.1789742  , 799.513367  , 2.99        , 3           , 255         , 0           , 0
-0.067299   , -0.0274669714, 9.804155    , -0.0008191426, -7.467717E-05, -0.000286786933, 3.140061    , -0.00655276 , -0.000414598762, 920.818359  , 27.1789742  , 799.5133    , 3           , 3           , 0           , 8.445236    , 300
-0.0732246637, -0.03407699 , 9.789515    , -0.000236919848, -0.000463689328, 0.000255106017, 3.1400423   , -0.006543634, -0.0004170507, 920.818359  , 27.1789742  , 799.53656   , 3.01        , 3           , 1           , 0           , 0
-0.0646371245, -0.028919667, 9.79792     , 0.00015165424, -7.044803E-05, 0.0005126472, 3.14004374  , -0.00654293736, -0.000422178273, 920.818359  , 27.1789742  , 799.5366    , 3.02        , 3           , 2           , 0           , 0
-0.07681458 , -0.02227696 , 9.798094    , -0.000302302768, -9.770738E-06, -0.0001994673, 3.14004087  , -0.00654283632, -0.000420183758, 920.8039    , 27.17653    , 799.5367    , 3.03        , 3           , 3           , 0           , 0
-0.06855126 , -0.01996083 , 9.787619    , 0.0005483832, 0.000392932678, -0.00017783459, 3.14004636  , -0.006546763, -0.000418399373, 920.8039    , 27.17653    , 799.536743  , 3.04        , 3           , 4           , 0           , 0
-0.06259335 , -0.0266156159, 9.790433    , 0.0006041217, -2.48427968E-05, 0.00018484029, 3.14005232  , -0.006546517, -0.000420248136, 920.8039    , 27.17653    , 799.5368    , 3.05        , 3           , 5           , 0           , 0
-0.07174827 , -0.0315555371, 9.793177    , -0.000123320147, 6.930297E-05, -0.0006955965, 3.14005113  , -0.006547199, -0.000413291185, 920.8039    , 27.17653    , 799.536865  , 3.06        , 3           , 6           , 0           , 0
-0.06412997 , -0.0288148466, 9.792549    , 4.83325E-05 , 0.0008704115, -0.000216727378, 3.1400516   , -0.0065559  , -0.000411110464, 920.8039    , 27.17653    , 799.5369    , 3.07        , 3           , 7           , 0           , 0
-0.06456989 , -0.0298610814, 9.794871    , 0.0005777937, 0.000284809619, 0.0012245347, 3.14005733  , -0.006558766, -0.0004233514, 920.8039    , 27.17653    , 799.537     , 3.08        , 3           , 8           , 5           , 5
-0.0534919724, -0.0310422517, 9.78696251  , -0.0001864396, 0.000881097745, 6.169465E-05, 3.14005542  , -0.006567578, -0.0004239548, 920.8039    , 27.17653    , 799.537048  , 3.09        , 3           , 9           , 5           , 0.1
-0.0520477369, -0.0304946713, 9.792311    , -0.0007825197, 0.0001542985, -0.00012209671, 3.14004779  , -0.0065691187, -0.000422731449, 920.8039    , 27.17653    , 799.5371    , 3.1         , 3           , 10          , 0.1         , 0.1
-0.0564801767, -0.0247871764, 9.789845    , -0.000527128, 0.000166882062, -7.727888E-05, 3.140013    , -0.00657316437, -0.000421763049, 920.8039    , 27.17653    , 799.577454  , 3.11        , 3           , 11          , 0.007455508 , 0.00745550264
-0.05846528 , -0.0199773349, 9.799746    , -0.0008590477, 0.000148671446, 9.113661E-05, 3.1400044   , -0.006574652, -0.000422672019, 920.8039    , 27.17653    , 799.5778    , 3.12        , 3           , 12          , 0.174645633 , 0
-0.0568828471, -0.0244027488, 9.792448    , 4.13769158E-05, 0.0002786275, -1.34022557E-05, 3.14000487  , -0.006577438, -0.000422533572, 920.8266    , 27.1773453  , 799.5782    , 3.13        , 3           , 13          , 0           , 0
-0.0520889536, -0.0213681851, 9.792256    , 7.06427963E-05, 1.69933774E-05, -0.000574049947, 3.14000559  , -0.006577599, -0.0004167928, 920.8266    , 27.1773453  , 799.578552  , 3.14        , 3           , 14          , 0.00166870526, 0.00227181381
-0.0474203564, -0.0184307843, 9.793997    , -0.00063543173, 3.615115E-05, -0.000208434649, 3.13999915  , -0.006577957, -0.0004147079, 920.8266    , 27.1773453  , 799.5789    , 3.15        , 3           , 15          , 0           , 0.0004909749
-0.0526873581, -0.017946817, 9.791391    , -0.000275025028, -0.0002017715, -0.0003103263, 3.13999629  , -0.00657593459, -0.000411607878, 920.8266    , 27.1773453  , 799.5793    , 3.16        , 3           , 16          , 0           , 1.401298E-45
-0.0493073836, -0.0202239454, 9.797305    , -0.0005924236, -0.000286150724, 0.000249194971, 3.13999057  , -0.00657307729, -0.000414104434, 920.8266    , 27.1773453  , 799.579651  , 3.17        , 3           , 20          , 0           , 0
-0.04406826 , -0.0198849756, 9.788765    , -0.0007187554, -0.0002213507, 0.000228889578, 3.13998342  , -0.00657086726, -0.000416396855, 920.8266    , 27.1773453  , 799.58      , 3.18        , 3           , 21          , 0           , 0
-0.03842978 , -0.012211496, 9.792668    , -0.0007666683, -3.7824735E-05, 0.00012777996, 3.13997555  , -0.006570491, -0.00041767527, 920.8266    , 27.1773453  , 799.5804    , 3.19        , 3           , 22          , 0           , 0
-0.0405007154, -0.0193205588, 9.795855    , -0.0009168273, 1.15903094E-05, 0.00043717568, 3.13996649  , -0.006570613, -0.000422046753, 920.8266    , 27.1773453  , 799.58075   , 3.2         , 3           , 40          , 0           , 0
-0.0507968664, -0.02386241 , 9.80321     , 0.000263708178, 0.0007247813, -0.000222351315, 3.13996053  , -0.00654807827, -0.0004197551, 920.8266    , 27.1773453  , 799.583     , 3.21        , 3           , 41          , 0           , 0
