Acc X       , Acc Y       , Acc Z       , Gyro X      , Gyro Y      , Gyro Z      , Euler X     , Euler Y     , Euler Z     , Pres X      , Pres Y      , Pres Z      , Time        , Status      , LowRate X   , LowRate Y   , LowRate Z    
-0.146752581, 0.105076037 , -9.783803   , 0           , 0           , 0           , -0.0107393824, -0.014997554, 0           , 918.1728    , 31.7661781  , 823.492065  , 0           , 2           , 0           , 5.01623154  , 0
-0.145990044, 0.108991429 , -9.7883625  , 4.800022E-05, -1.02347112E-05, 0.000185812576, -0.0107388934, -0.0149976248, 1.85928172E-06, 918.1728    , 31.7661781  , 823.492065  , 0.01        , 3           , 1           , 0           , 0
-0.14392218 , 0.10285522  , -9.795088   , 0.00049393723, 0.00015529347, -0.000144821766, -0.0107339323, -0.0149960872, 3.94343061E-07, 918.1728    , 31.7661781  , 823.492065  , 0.02        , 3           , 2           , 0           , 0
-0.146413982, 0.106142536 , -9.794926   , 0.0005799938, 0.000100532081, -2.60846828E-05, -0.0107281283, -0.0149950869, 1.22700982E-07, 918.1952    , 31.3288     , 823.492065  , 0.03        , 3           , 3           , 0           , 0
-0.1475231  , 0.09900389  , -9.78615    , 0.0001672309, -0.000150866632, -6.564833E-05, -0.0107264463, -0.0149966013, -5.176189E-07, 918.1952    , 31.3288     , 823.492065  , 0.04        , 3           , 4           , 0           , 0
-0.1492661  , 0.09479682  , -9.792676   , 0.0005451732, -0.0003829343, 0.000270467368, -0.0107210362, -0.0150004011, 2.2282145E-06, 918.1952    , 31.3288     , 823.492065  , 0.05        , 3           , 5           , 0           , 0
-0.147746354, 0.105650507 , -9.800127   , 0.000406757143, -4.71273379E-05, -0.000531375641, -0.0107168891, -0.0150009282, -3.0806525E-06, 918.1952    , 31.3288     , 823.492065  , 0.06        , 3           , 6           , 0           , 0
-0.143744081, 0.10286206  , -9.798228   , 0.0006734915, 0.000372466078, -0.0006180062, -0.0107100606, -0.0149972728, -9.300797E-06, 918.1952    , 31.3288     , 823.492065  , 0.07        , 3           , 7           , 0           , 0
-0.149033   , 0.101976477 , -9.794891   , 0.000281195244, -6.588604E-05, -2.822906E-05, -0.0107072452, -0.0149979349, -9.576041E-06, 918.1952    , 31.3288     , 823.492065  , 0.08        , 3           , 8           , 5           , 5
-0.156527609, 0.0977947339, -9.789585   , 0.000110268054, -2.17725756E-07, 0.0001980493, -0.0107061723, -0.0149979154, -7.595455E-06, 918.1952    , 31.3288     , 823.492065  , 0.09        , 3           , 9           , 5           , 0.1
-0.15666993 , 0.0930485   , -9.795355   , -0.000215956039, 0.00017574089, -0.000131726192, -0.0107083116, -0.0149961729, -8.931587E-06, 918.1952    , 31.3288     , 823.492065  , 0.1         , 3           , 10          , 0.1         , 0.1
-0.155001253, 0.111060783 , -9.786421   , -0.000124247308, 0.0001366125, -0.00103425432, -0.0106950058, -0.0150017925, -1.95049815E-05, 918.1952    , 31.3288     , 823.2888    , 0.11        , 3           , 11          , 0.0109544508, 0.0109544508
-0.160282716, 0.10557425  , -9.795915   , -0.0002950891, -1.592384E-05, -0.000351386843, -0.010697904, -0.0150019871, -2.30172591E-05, 918.1952    , 31.3288     , 823.2888    , 0.12        , 3           , 12          , 0.174642488 , 0
-0.150574833, 0.0989693552, -9.779973   , 0.0006093362, 5.89995761E-05, -4.196075E-05, -0.0106918048, -0.0150014013, -2.34431918E-05, 918.1662    , 31.3669968  , 823.2888    , 0.13        , 3           , 13          , 0           , 0
-0.150029585, 0.104737915 , -9.79152    , 0.00054648926, 8.005873E-05, 0.000892143464, -0.0106864749, -0.0150005063, -1.45300482E-05, 918.1662    , 31.3669968  , 823.2888    , 0.14        , 3           , 14          , -0.000299621432, -0.000393581082
-0.15432933 , 0.106039718 , -9.793699   , -0.000100113568, -6.572771E-05, 0.000351654366, -0.0106875282, -0.0150011266, -1.10063711E-05, 918.1662    , 31.3669968  , 823.2888    , 0.15        , 3           , 15          , 0           , -5.0393628E-05
-0.14673534 , 0.09355185  , -9.791756   , 9.563229E-05, -0.000334940356, 0.000145098311, -0.0106865931, -0.01500446 , -9.519545E-06, 918.1662    , 31.3669968  , 823.2888    , 0.16        , 3           , 16          , 0           , 1.401298E-45
-0.142964676, 0.102309048 , -9.79132    , 0.0002706155, 0.000105532235, -0.000464933459, -0.0106838178, -0.015003453, -1.41802911E-05, 918.1662    , 31.3669968  , 823.2888    , 0.17        , 3           , 20          , 0           , 0
-0.147270545, 0.108226672 , -9.787654   , 0.00034669743, 0.000238029141, -0.000303875218, -0.0106803048, -0.0150011051, -1.7244558E-05, 918.1662    , 31.3669968  , 823.2888    , 0.18        , 3           , 21          , 0           , 0
-0.143257543, 0.106708467 , -9.788727   , 0.0002653175, 0.000342888874, 0.0007503616, -0.0106777642, -0.0149976006, -9.77733E-06, 918.1662    , 31.3669968  , 823.2888    , 0.19        , 3           , 22          , 0           , 0
-0.150666162, 0.101603761 , -9.786396   , -0.000193174346, -0.0001534601, -1.430693E-05, -0.010679693, -0.0149991335, -9.904027E-06, 918.1662    , 31.3669968  , 823.2889    , 0.2         , 3           , 40          , 0           , 0
-0.144295856, 0.104454435 , -9.795585   , 0.0002391467, -0.000361666665, -0.000701846031, -0.0106733833, -0.015019414, -1.694138E-05, 918.1662    , 31.3669968  , 823.420044  , 0.21        , 3           , 41          , 0           , 0
-0.151953235, 0.101083614 , -9.795833   , -0.000113811344, -0.0004278582, -0.0009720526, -0.010674376, -0.015023794, -2.66165316E-05, 918.1662    , 31.3669968  , 823.4201    , 0.22        , 3           , 42          , 0           , 0
-0.155854076, 0.09858799  , -9.795216   , -9.983443E-05, 7.394195E-05, -0.0002104036, -0.0106753428, -0.0150230769, -2.872853E-05, 918.18396   , 31.3904686  , 823.420166  , 0.23        , 3           , 255         , 0           , 0
-0.160591632, 0.101108551 , -9.793822   , 0.000440207135, 0.000374842959, 1.70336971E-05, -0.0106709413, -0.01501933 , -2.85982E-05, 918.18396   , 31.3904686  , 823.4202    , 0.24        , 3           , 255         , 0           , 0
-0.152862981, 0.09262772  , -9.79687    , -0.000174201792, 0.000183443961, 0.0003630586, -0.0106727369, -0.0150174554, -2.498708E-05, 918.18396   , 31.3904686  , 823.4203    , 0.25        , 3           , 255         , 0           , 0
-0.1436168  , 0.0977203846, -9.79274    , 0.000191378655, -0.000117175921, -0.000264163857, -0.0106707839, -0.015018655, -2.76163046E-05, 918.18396   , 31.3904686  , 823.420349  , 0.26        , 3           , 255         , 0           , 0
-0.153052256, 0.102961257 , -9.796458   , 0.000188342616, -0.0005765243, 0.00100445386, -0.0106690507, -0.01502431 , -1.75099485E-05, 918.18396   , 31.3904686  , 823.4204    , 0.27        , 3           , 255         , 0           , 0
-0.150381684, 0.09860508  , -9.792145   , 0.000318299659, -0.000157952658, 0.000230488833, -0.0106659047, -0.0150258653, -1.51881241E-05, 918.18396   , 31.3904686  , 823.4205    , 0.28        , 3           , 255         , 0           , 0
-0.145227551, 0.0960968956, -9.790435   , 0.000231768878, 0.000374137424, 0.0009594793, -0.01066373 , -0.0150220236, -5.6329327E-06, 918.18396   , 31.3904686  , 823.420532  , 0.29        , 3           , 255         , 0           , 0
-0.147141457, 0.104139946 , -9.788778   , 0.000189903163, -4.064542E-05, 0.000100135869, -0.010661846, -0.0150224194, -4.62720936E-06, 918.18396   , 31.3904686  , 823.4206    , 0.3         , 3           , 255         , 0           , 0
-0.14719668 , 0.106963657 , -9.788066   , -0.000185216864, 5.0356E-05  , 0.000155666377, -0.0106469858, -0.0150337685, -3.32748255E-06, 918.18396   , 31.3904686  , 823.4111    , 0.31        , 3           , 255         , 0           , 0
-0.15148738 , 0.1008229   , -9.795407   , 0.000273273559, 0.000245271454, -8.009282E-05, -0.0106442422, -0.0150313247, -4.154547E-06, 918.18396   , 31.3904686  , 823.411133  , 0.32        , 3           , 255         , 0           , 0
-0.146166474, 0.103164852 , -9.793074   , 9.989842E-05, 3.55654047E-05, 0.000282999536, -0.0106432848, -0.0150309391, -1.32825255E-06, 918.1228    , 31.4070911  , 823.4112    , 0.33        , 3           , 255         , 0           , 0
-0.139696389, 0.104934655 , -9.792158   , -0.000141445111, 2.92167824E-05, 0.0005128122, -0.0106447767, -0.0150305917, 3.796922E-06, 918.1228    , 31.4070911  , 823.411255  , 0.34        , 3           , 255         , 0           , 0
-0.136235639, 0.101924874 , -9.7913     , 9.99482E-05 , -0.000112156151, 0.0005059933, -0.0106438529, -0.015031659, 8.868962E-06, 918.1228    , 31.4070911  , 823.4113    , 0.35        , 3           , 255         , 0           , 0
-0.136830658, 0.106346667 , -9.790621   , 4.00546123E-05, 0.000278951251, -0.000114359245, -0.0106434356, -0.0150288818, 7.69563849E-06, 918.1228    , 31.4070911  , 823.4114    , 0.36        , 3           , 255         , 0           , 0
-0.1404393  , 0.106196918 , -9.791689   , 0.0005122706, 2.7239148E-05, 0.000346368179, -0.0106383655, -0.0150285764, 1.11565305E-05, 918.1228    , 31.4070911  , 823.411438  , 0.37        , 3           , 255         , 0           , 0
-0.141180456, 0.113066435 , -9.797079   , -0.000290625932, 0.000100460165, 0.000514204 , -0.0106413476, -0.0150275156, 1.62880369E-05, 918.1228    , 31.4070911  , 823.4115    , 0.38        , 3           , 255         , 0           , 0
-0.148386747, 0.11154978  , -9.794985   , 0.000110644032, 0.0002252424, -7.524469E-05, -0.01064023 , -0.0150252711, 1.55115977E-05, 918.1228    , 31.4070911  , 823.41156   , 0.39        , 3           , 255         , 0           , 0
-0.141110331, 0.106067836 , -9.792468   , 0.000538134831, -6.225801E-05, 0.000338656449, -0.0106348982, -0.0150258569, 1.89048842E-05, 918.1228    , 31.4070911  , 823.4116    , 0.4         , 3           , 255         , 0           , 0
-0.136817127, 0.105536044 , -9.785271   , 0.000281101034, -0.000255233783, 0.000127389067, -0.0106389159, -0.015012539, 2.030815E-05, 918.1228    , 31.4070911  , 823.546265  , 0.41        , 3           , 255         , 0           , 0
-0.146966755, 0.09792526  , -9.794383   , -0.000205317279, 0.0006407374, 0.000226424978, -0.0106410012, -0.0150061091, 2.25042841E-05, 918.1228    , 31.4070911  , 823.5463    , 0.42        , 3           , 255         , 0           , 0
-0.1461162  , 0.10237579  , -9.780367   , 0.0005990017, 0.0004608349, -9.902058E-05, -0.010634996, -0.01500151 , 2.14650227E-05, 918.1331    , 31.41937    , 823.5464    , 0.43        , 3           , 255         , 0           , 0
-0.1380128  , 0.101935521 , -9.788341   , 0.0007089255, 8.237298E-05, -0.000131061912, -0.0106278863, -0.0150007037, 2.01456041E-05, 918.1331    , 31.41937    , 823.546448  , 0.44        , 3           , 255         , 0           , 0
-0.15027836 , 0.09772038  , -9.795621   , 5.628352E-05, 0.000161544624, 1.14325667E-05, -0.0106273256, -0.0149990851, 2.02427655E-05, 918.1331    , 31.41937    , 823.5465    , 0.45        , 3           , 255         , 0           , 0
-0.152051121, 0.10462065  , -9.789694   , 0.000394557341, -4.60207229E-06, 0.0002311113, -0.0106234159, -0.0149991065, 2.255445E-05, 918.1331    , 31.41937    , 823.5466    , 0.46        , 3           , 255         , 0           , 0
-0.143405274, 0.105351113 , -9.788563   , 0.0005532759, 0.000251975725, 0.0008237572, -0.0106180068, -0.0149965007, 3.07655137E-05, 918.1331    , 31.41937    , 823.546631  , 0.47        , 3           , 255         , 0           , 0
-0.149028182, 0.108289734 , -9.791849   , 0.0005047061, -0.000154441339, 0.000102627353, -0.010612973, -0.0149980336, 3.1808202E-05, 918.1331    , 31.41937    , 823.5467    , 0.48        , 3           , 255         , 0           , 0
-0.145224288, 0.105307445 , -9.795042   , 0.0003395043, 1.81894866E-05, -0.0006436836, -0.0106094824, -0.01499792 , 2.53692433E-05, 918.1331    , 31.41937    , 823.546753  , 0.49        , 3           , 255         , 0           , 0
-0.1570771  , 0.107520834 , -9.792128   , 0.00052203337, -0.000318124774, 0.00018738996, -0.0106042912, -0.0150010809, 2.727694E-05, 918.1331    , 31.41937    , 823.5468    , 0.5         , 3           , 255         , 0           , 0
-0.153410673, 0.10664694  , -9.790411   , 0.000784769247, -0.000129014661, 0.000564956 , -0.0105948569, -0.015000727, 3.29152863E-05, 918.1331    , 31.41937    , 823.6092    , 0.51        , 3           , 255         , 0           , 0
-0.14588201 , 0.105873011 , -9.79031849 , 0.0003637052, 0.00029772264, -0.0003009189, -0.0105911745, -0.0149977822, 2.98744762E-05, 918.1331    , 31.41937    , 823.6093    , 0.52        , 3           , 255         , 0           , 0
-0.14850764 , 0.109609351 , -9.791588   , 0.000651303562, 1.21805351E-06, -0.000413317437, -0.0105846  , -0.0149978129, 2.574104E-05, 918.1819    , 31.4242554  , 823.609436  , 0.53        , 3           , 255         , 0           , 0
-0.151221186, 0.110721447 , -9.791281   , 0.0003125342, -0.000179858878, 3.31335941E-05, -0.01058148 , -0.0149996076, 2.6091413E-05, 918.1819    , 31.4242554  , 823.609558  , 0.54        , 3           , 255         , 0           , 0
-0.144540936, 0.105648912 , -9.789247   , -0.000494604639, 8.671064E-05, 0.00042306562, -0.010586489, -0.0149986958, 3.03130237E-05, 918.1819    , 31.4242554  , 823.6097    , 0.55        , 3           , 255         , 0           , 0
-0.138000026, 0.100063905 , -9.79102    , 0.000162295662, -0.000244321185, 5.257283E-05, -0.0105848741, -0.0150011331, 3.086463E-05, 918.1819    , 31.4242554  , 823.6098    , 0.56        , 3           , 255         , 0           , 0
-0.144530088, 0.106008604 , -9.792311   , 0.0004119224, 0.000359246333, -0.000261103385, -0.0105807139, -0.014997568, 2.82154924E-05, 918.1819    , 31.4242554  , 823.6099    , 0.57        , 3           , 255         , 0           , 0
-0.151669025, 0.103866316 , -9.79317    , 0.000111704532, -5.10212267E-05, -0.000177942071, -0.0105795711, -0.014998097, 2.644142E-05, 918.1819    , 31.4242554  , 823.610046  , 0.58        , 3           , 255         , 0           , 0
-0.150078043, 0.10515894  , -9.78849    , 0.0007115562, -0.0003812589, -0.0003504415, -0.0105724046, -0.0150019461, 2.29772158E-05, 918.1819    , 31.4242554  , 823.610168  , 0.59        , 3           , 255         , 0           , 0
-0.153771713, 0.103176273 , -9.801733   , 0.0004888332, -0.000237869564, -0.000156837952, -0.0105674928, -0.0150043406, 2.14339325E-05, 918.1819    , 31.4242554  , 823.6103    , 0.6         , 3           , 255         , 0           , 0
-0.143780649, 0.103384338 , -9.790367   , 9.91337147E-05, -4.14883252E-05, -3.56219425E-05, -0.0105736963, -0.0150092663, 2.11901315E-05, 918.1819    , 31.4242554  , 823.5757    , 0.61        , 3           , 255         , 0           , 0
-0.146516025, 0.110368088 , -9.79789    , -0.0004342282, -0.0005882998, 0.000475755834, -0.010578108, -0.0150150992, 2.601006E-05, 918.1819    , 31.4242554  , 823.5758    , 0.62        , 3           , 255         , 0           , 0
-0.147199869, 0.10872899  , -9.796591   , -0.000186407677, -0.000426302344, -0.000182594144, -0.0105799455, -0.0150193786, 2.42291517E-05, 918.1076    , 31.4309711  , 823.5759    , 0.63        , 3           , 255         , 0           , 0
-0.151312485, 0.105963327 , -9.79144    , 0.0009112719, 5.988599E-05, -0.000462161668, -0.0105707636, -0.0150188291, 1.960105E-05, 918.1076    , 31.4309711  , 823.57605   , 0.64        , 3           , 255         , 0           , 0
-0.150057465, 0.100289121 , -9.788519   , 0.000232263745, -4.493748E-05, 0.000367115543, -0.0105684958, -0.01501924 , 2.32770781E-05, 918.1076    , 31.4309711  , 823.5762    , 0.65        , 3           , 255         , 0           , 0
-0.157419592, 0.0945607   , -9.790054   , 6.440791E-05, 0.0004137209, 2.74334234E-05, -0.010567856, -0.0150151011, 2.35076968E-05, 918.1076    , 31.4309711  , 823.5763    , 0.66        , 3           , 255         , 0           , 0
-0.146500409, 0.10093689  , -9.785665   , 0.0001626359, 0.000237444285, -0.000177185138, -0.0105662029, -0.0150127457, 2.17106917E-05, 918.1076    , 31.4309711  , 823.5764    , 0.67        , 3           , 255         , 0           , 0
-0.140013725, 0.0943260342, -9.7945385  , 0.000556481536, -0.000137121213, -0.000553863938, -0.0105605535, -0.0150141753, 1.61863554E-05, 918.1076    , 31.4309711  , 823.576538  , 0.68        , 3           , 255         , 0           , 0
-0.150031462, 0.101562247 , -9.792826   , -0.000400002551, -0.000355887256, 0.000123375343, -0.0105645731, -0.01501772 , 1.745774E-05, 918.1076    , 31.4309711  , 823.57666   , 0.69        , 3           , 255         , 0           , 0
-0.143580467, 0.115186855 , -9.790064   , -0.0007012456, -0.00017243906, -0.00031182816, -0.0105715394, -0.0150194773, 1.43575844E-05, 918.1076    , 31.4309711  , 823.5768    , 0.7         , 3           , 255         , 0           , 0
-0.143532589, 0.1021873   , -9.795499   , -0.000176539528, 6.640851E-05, 0.00034364438, -0.0105734719, -0.0150207141, 1.7788856E-05, 918.1076    , 31.4309711  , 823.654053  , 0.71        , 3           , 255         , 0           , 0
-0.149129868, 0.104639374 , -9.788493   , 0.000331203861, 6.35343E-05 , 3.79896665E-05, -0.0105701648, -0.0150200743, 1.81620471E-05, 918.1076    , 31.4309711  , 823.654236  , 0.72        , 3           , 255         , 0           , 0
-0.151052311, 0.09951874  , -9.785043   , 0.00015605714, -0.000228719757, -8.85355257E-05, -0.01056859 , -0.0150223719, 1.73008411E-05, 918.146545  , 31.4345665  , 823.6544    , 0.73        , 3           , 255         , 0           , 0
-0.1455064  , 0.106833637 , -9.796116   , 0.000155167654, -0.0001311508, -0.000188593724, -0.0105670122, -0.0150237037, 1.54287081E-05, 918.146545  , 31.4345665  , 823.6546    , 0.74        , 3           , 255         , 0           , 0
-0.145478427, 0.111338064 , -9.799061   , 0.0007824251, -7.492807E-05, -0.00012248299, -0.0105591705, -0.0150244646, 1.42117542E-05, 918.146545  , 31.4345665  , 823.6548    , 0.75        , 3           , 255         , 0           , 0
-0.149930075, 0.10534291  , -9.796275   , 0.000243088813, 0.000150659791, 0.000510142068, -0.0105568143, -0.0150229074, 1.92974221E-05, 918.146545  , 31.4345665  , 823.654968  , 0.76        , 3           , 255         , 0           , 0
-0.15794228 , 0.102997705 , -9.789495   , 0.000452075474, -1.15885341E-05, 0.00022050181, -0.0105523271, -0.0150229977, 2.15037271E-05, 918.146545  , 31.4345665  , 823.655151  , 0.77        , 3           , 255         , 0           , 0
-0.156554356, 0.10129489  , -9.792291   , 0.000283113681, -0.000125802442, -0.000212154133, -0.0105494643, -0.0150242783, 1.939539E-05, 918.146545  , 31.4345665  , 823.655334  , 0.78        , 3           , 255         , 0           , 0
-0.15074411 , 0.10825602  , -9.794222   , 0.000147819315, -0.000206776807, 0.000143385114, -0.0105480086, -0.0150263309, 2.08511046E-05, 918.146545  , 31.4345665  , 823.6555    , 0.79        , 3           , 255         , 0           , 0
-0.145213768, 0.0986254439, -9.799479   , 0.000512749364, 4.471626E-05, -0.000158983879, -0.0105428575, -0.0150259  , 1.92565058E-05, 918.146545  , 31.4345665  , 823.6557    , 0.8         , 3           , 255         , 0           , 0
-0.156016156, 0.09906645  , -9.793022   , 0.0006165403, 0.000224355812, -0.000645583146, -0.010538538, -0.0150306756, 1.2806041E-05, 918.146545  , 31.4345665  , 823.666     , 0.81        , 3           , 255         , 0           , 0
-0.145752281, 0.100577995 , -9.791389   , 0.0005666522, 0.0002454192, -0.000163569828, -0.0105328467, -0.0150282374, 1.11444324E-05, 918.146545  , 31.4345665  , 823.6662    , 0.82        , 3           , 255         , 0           , 0
-0.144608825, 0.09384207  , -9.796202   , -3.34369543E-05, 2.4920213E-05, 0.0007352147, -0.0105332918, -0.0150279105, 1.84941873E-05, 918.1771    , 31.4368057  , 823.6664    , 0.83        , 3           , 255         , 0           , 0
-0.159259036, 0.102563977 , -9.795886   , -0.000311938871, 0.0005868985, -0.000152377659, -0.0105363876, -0.015022058, 1.6908527E-05, 918.1771    , 31.4368057  , 823.666565  , 0.84        , 3           , 255         , 0           , 0
-0.147360474, 0.09809502  , -9.795721   , -7.83501E-05, 2.11624138E-05, -0.000316460966, -0.0105371233, -0.01502188 , 1.37415936E-05, 918.1771    , 31.4368057  , 823.666748  , 0.85        , 3           , 255         , 0           , 0
-0.150358677, 0.0962973163, -9.790755   , 0.0003665022, 1.6779697E-05, 5.54816324E-05, -0.010533466, -0.0150217107, 1.42946556E-05, 918.1771    , 31.4368057  , 823.666931  , 0.86        , 3           , 255         , 0           , 0
-0.148170024, 0.105429009 , -9.783552   , 5.3547672E-05, 0.000365259766, -0.000332146, -0.0105328793, -0.01501809 , 1.0934612E-05, 918.1771    , 31.4368057  , 823.6671    , 0.87        , 3           , 255         , 0           , 0
-0.145045564, 0.109552719 , -9.789682   , 0.0003193047, 0.000118138851, -0.000245966017, -0.0105296494, -0.0150169339, 8.462435E-06, 918.1771    , 31.4368057  , 823.6673    , 0.88        , 3           , 255         , 0           , 0
-0.149357155, 0.09652312  , -9.791613   , -0.000276934821, -5.33365237E-05, 0.0005591582, -0.010532503, -0.0150174089, 1.40598131E-05, 918.1771    , 31.4368057  , 823.6675    , 0.89        , 3           , 255         , 0           , 0
-0.1487597  , 0.09752473  , -9.790368   , -0.000419928052, 9.6800446E-05, 0.00093714043, -0.010536843, -0.0150163444, 2.34213239E-05, 918.1771    , 31.4368057  , 823.667664  , 0.9         , 3           , 255         , 0           , 0
-0.144409925, 0.102972664 , -9.789345   , 0.000295605016, 0.0003775137, -0.000514522137, -0.0105232615, -0.0150203183, 1.80777279E-05, 918.1771    , 31.4368057  , 823.6405    , 0.91        , 3           , 255         , 0           , 0
-0.144928485, 0.105309106 , -9.795693   , 0.000179377763, -0.000527504948, 0.000480983435, -0.01052154 , -0.015025543, 2.2943228E-05, 918.1771    , 31.4368057  , 823.6407    , 0.92        , 3           , 255         , 0           , 0
-0.155059323, 0.102085747 , -9.796436   , 0.000508017 , -0.000121242134, -0.000445463927, -0.0105163949, -0.0150268022, 1.8501205E-05, 918.205933  , 31.43857    , 823.640869  , 0.93        , 3           , 255         , 0           , 0
-0.15762718 , 0.1088862   , -9.796361   , -0.0003006868, 6.963161E-05, -0.000227168188, -0.0105193667, -0.01502613 , 1.62221168E-05, 918.205933  , 31.43857    , 823.641052  , 0.94        , 3           , 255         , 0           , 0
-0.147192642, 0.09304081  , -9.796381   , 3.00285756E-05, 7.71106E-06 , 0.000512606231, -0.0105191441, -0.0150259985, 2.13475432E-05, 918.205933  , 31.43857    , 823.641235  , 0.95        , 3           , 255         , 0           , 0
-0.15042299 , 0.105557725 , -9.792613   , -0.000190266175, 0.000231594342, 0.0005206381, -0.010521125, -0.0150236282, 2.652973E-05, 918.205933  , 31.43857    , 823.6414    , 0.96        , 3           , 255         , 0           , 0
-0.143550828, 0.103450462 , -9.795143   , 0.0002528493, 0.000133227935, -0.000288043753, -0.0105185518, -0.0150223263, 2.36351771E-05, 918.205933  , 31.43857    , 823.6416    , 0.97        , 3           , 255         , 0           , 0
-0.149248943, 0.09778957  , -9.792745   , -7.84214353E-05, 1.12199923E-05, 0.0005853418, -0.0105194245, -0.0150221521, 2.94876E-05 , 918.205933  , 31.43857    , 823.6418    , 0.98        , 3           , 255         , 0           , 0
-0.149062753, 0.10399536  , -9.791543   , 5.668246E-05, -0.00018264039, 0.00033030787, -0.0105189076, -0.015023943, 3.281E-05   , 918.205933  , 31.43857    , 823.641968  , 0.99        , 3           , 255         , 0           , 0
-0.148489565, 0.09082747  , -9.78752    , -0.000336727826, 0.0002322249, 0.0006549003, -0.0105223721, -0.0150215523, 3.933478E-05, 918.205933  , 31.43857    , 823.642151  , 1           , 3           , 0           , 6.01623631  , 100
-0.149219483, 0.105711535 , -9.794493   , 0.00012751625, 0.000153509813, 0.0005465779, -0.0105165541, -0.0150251342, 4.471509E-05, 918.205933  , 31.43857    , 823.5881    , 1.01        , 3           , 1           , 0           , 0
-0.151797175, 0.103829905 , -9.784846   , 1.75178866E-05, -0.000434811, 0.000345963083, -0.0105164312, -0.0150294462, 4.82205578E-05, 918.205933  , 31.43857    , 823.588135  , 1.02        , 3           , 2           , 0           , 0
-0.146383643, 0.103438281 , -9.79064    , -0.0002859839, -0.000357487937, 0.0006268567, -0.0105193863, -0.0150329554, 5.452694E-05, 918.101257  , 31.4410114  , 823.5882    , 1.03        , 3           , 3           , 0           , 0
-0.152595893, 0.105163917 , -9.791922   , 0.000239855246, 0.000146070612, 0.000150588516, -0.0105170114, -0.0150314784, 5.601751E-05, 918.101257  , 31.4410114  , 823.588257  , 1.04        , 3           , 4           , 0           , 0
-0.151393622, 0.107681081 , -9.786364   , 7.969522E-05, -3.069744E-05, 0.0006390089, -0.010516311, -0.0150317186, 6.241103E-05, 918.101257  , 31.4410114  , 823.5883    , 1.05        , 3           , 5           , 0           , 0
-0.154259086, 0.106953755 , -9.795202   , -3.975499E-05, -0.000240184658, -0.000207204241, -0.0105166771, -0.015034142, 6.036418E-05, 918.101257  , 31.4410114  , 823.5884    , 1.06        , 3           , 6           , 0           , 0
-0.142060667, 0.105028488 , -9.793602   , 0.000434868678, 0.0001626638, 0.00018025194, -0.0105123548, -0.0150324954, 6.21496656E-05, 918.101257  , 31.4410114  , 823.58844   , 1.07        , 3           , 7           , 0           , 0
-0.152320936, 0.104758725 , -9.793558   , 0.000261412933, -0.000409042463, 0.00020107365, -0.01050977 , -0.0150365643, 6.420346E-05, 918.101257  , 31.4410114  , 823.588562  , 1.08        , 3           , 8           , 5           , 5
-0.147392824, 0.106749371 , -9.792266   , 0.000202204043, -3.45188018E-05, 0.0003185524, -0.0105077978, -0.0150368754, 6.73927061E-05, 918.101257  , 31.4410114  , 823.5887    , 1.09        , 3           , 9           , 5           , 0.1
-0.1512826  , 0.1031454   , -9.794882   , 0.000605294656, -0.000262856018, -8.730093E-05, -0.010501733, -0.0150395129, 6.654729E-05, 918.101257  , 31.4410114  , 823.5888    , 1.1         , 3           , 10          , 0.1         , 0.1
-0.145031124, 0.0952492952, -9.793837   , 0.000497955 , -0.000289843883, -0.000511172053, -0.010503646, -0.015050658, 6.15707249E-05, 918.101257  , 31.4410114  , 823.653137  , 1.11        , 3           , 11          , 0.00913855  , 0.009138548
-0.137487859, 0.102149978 , -9.801554   , 0.00013932967, -0.000115389412, -0.000180951538, -0.0105022248, -0.0150518306, 5.97732651E-05, 918.101257  , 31.4410114  , 823.6534    , 1.12        , 3           , 12          , 0.174642846 , 0
-0.143165752, 0.101281442 , -9.797656   , -0.0003174029, 9.668438E-05, -9.537046E-05, -0.0105053848, -0.0150508732, 5.88093681E-05, 918.1751    , 31.4409447  , 823.6536    , 1.13        , 3           , 13          , 0           , 0
-0.139550909, 0.0981928259, -9.794625   , 0.000202536408, -0.000196478562, -4.75702727E-05, -0.0105033517, -0.0150528429, 5.8354286E-05, 918.1751    , 31.4409447  , 823.6539    , 1.14        , 3           , 14          , -0.000299625419, -0.000393547234
-0.144317463, 0.0937386155, -9.791128   , -0.000170672982, -0.000126151892, 0.0002989808, -0.0105051035, -0.0150540741, 6.135744E-05, 918.1751    , 31.4409447  , 823.6541    , 1.15        , 3           , 15          , 0           , -5.0393206E-05
-0.147928327, 0.101805963 , -9.784154   , -0.000192940672, -0.000129073742, 0.000316570833, -0.0105070816, -0.0150553314, 6.453682E-05, 918.1751    , 31.4409447  , 823.654358  , 1.16        , 3           , 16          , 0           , 1.401298E-45
-0.15286468 , 0.11204841  , -9.786666   , -2.69578013E-05, -1.19875476E-05, 0.0002643626, -0.0105073908, -0.0150554236, 6.718179E-05, 918.1751    , 31.4409447  , 823.6546    , 1.17        , 3           , 20          , 0           , 0
-0.143915236, 0.105378762 , -9.784306   , 0.000198394118, 1.68479164E-05, 0.00068693416, -0.01050551 , -0.0150551824, 7.404959E-05, 918.1751    , 31.4409447  , 823.654846  , 1.18        , 3           , 21          , 0           , 0
-0.140486747, 0.107469186 , -9.795626   , 0.000967043 , 8.104654E-05, 0.000940284634, -0.0104959812, -0.0150542753, 8.344424E-05, 918.1751    , 31.4409447  , 823.6551    , 1.19        , 3           , 22          , 0           , 0
-0.146344855, 0.110606432 , -9.796274   , -0.000428949628, 0.0001841253, 0.000633297139, -0.0105003659, -0.015052367, 8.975809E-05, 918.1751    , 31.4409447  , 823.655334  , 1.2         , 3           , 40          , 0           , 0
-0.150515139, 0.109251916 , -9.799183   , -9.661715E-05, -0.000135092385, 0.0005588949, -0.0105011966, -0.015044217, 9.535812E-05, 918.1751    , 31.4409447  , 823.6347    , 1.21        , 3           , 41          , 0           , 0
-0.148961037, 0.10792695  , -9.787298   , 0.0003481362, 9.042653E-05, 0.000471329549, -0.0104977861, -0.0150432633, 0.000100062076, 918.1751    , 31.4409447  , 823.6349    , 1.22        , 3           , 42          , 0           , 0
-0.148464739, 0.105832614 , -9.789923   , -9.24973E-05, 0.0003564808, 0.000665855536, -0.0104988115, -0.0150396293, 0.000106683437, 918.1894    , 31.44325    , 823.635132  , 1.23        , 3           , 255         , 0           , 0
-0.146169   , 0.104895011 , -9.793795   , -0.000163508317, 9.396355E-05, 0.000392255635, -0.0105005056, -0.0150386486, 0.000110596266, 918.1894    , 31.44325    , 823.6354    , 1.24        , 3           , 255         , 0           , 0
-0.1468693  , 0.101804808 , -9.791886   , -5.11138351E-05, 0.000344010943, -0.00039587717, -0.0105009573, -0.01503525 , 0.000106601226, 918.1894    , 31.44325    , 823.6356    , 1.25        , 3           , 255         , 0           , 0
-0.145749852, 0.107748009 , -9.789164   , 0.000128181171, -0.000103120779, -0.000643546635, -0.010499578, -0.0150363483, 0.000100176381, 918.1894    , 31.44325    , 823.635864  , 1.26        , 3           , 255         , 0           , 0
-0.14997384 , 0.103379026 , -9.799289   , -0.000426871062, -0.000357056881, -0.000290609372, -0.0105038034, -0.01503995 , 9.730768E-05, 918.1894    , 31.44325    , 823.6361    , 1.27        , 3           , 255         , 0           , 0
-0.146860868, 0.103076994 , -9.795767   , -4.71784442E-05, 0.000476791 , 3.05337526E-05, -0.0105042793, -0.0150351785, 9.756294E-05, 918.1894    , 31.44325    , 823.636353  , 1.28        , 3           , 255         , 0           , 0
-0.153385952, 0.102949321 , -9.773509   , 8.907399E-05, 0.000620576029, -0.00016391938, -0.0105033638, -0.01502899 , 9.585851E-05, 918.1894    , 31.44325    , 823.6366    , 1.29        , 3           , 255         , 0           , 0
-0.144658074, 0.106287941 , -9.78387451 , -1.48118124E-06, -0.000272273115, -0.000168036931, -0.0105033536, -0.0150317308, 9.420668E-05, 918.1894    , 31.44325    , 823.636841  , 1.3         , 3           , 255         , 0           , 0
-0.1398139  , 0.103623055 , -9.787274   , 0.0004312587, -0.0002864703, 0.0007625657, -0.0105073014, -0.015037532, 0.000101985148, 918.1894    , 31.44325    , 823.6036    , 1.31        , 3           , 255         , 0           , 0
-0.146007508, 0.09941889  , -9.797096   , -0.00030475104, -0.000102672755, -4.18904528E-06, -0.0105103487, -0.0150385592, 0.00010195405, 918.1894    , 31.44325    , 823.6037    , 1.32        , 3           , 255         , 0           , 0
-0.141633719, 0.104026042 , -9.794013   , 0.000425447244, 0.0002940136, -2.810439E-05, -0.01050609 , -0.0150356218, 0.0001016421, 918.1886    , 31.4441319  , 823.6038    , 1.33        , 3           , 255         , 0           , 0
-0.147357777, 0.106138073 , -9.793233   , 8.163048E-05, -0.000272895, 0.000197865767, -0.0105053047, -0.01503833 , 0.0001036495, 918.1886    , 31.4441319  , 823.603943  , 1.34        , 3           , 255         , 0           , 0
-0.148997813, 0.105842993 , -9.795031   , 0.000315265963, 0.000110859342, 1.75487221E-05, -0.0105021549, -0.01503722 , 0.000103813341, 918.1886    , 31.4441319  , 823.604065  , 1.35        , 3           , 255         , 0           , 0
-0.146376416, 0.110360041 , -9.794044   , -0.000262725865, 0.000364497333, -0.00024103155, -0.0105047449, -0.0150336009, 0.000101364662, 918.1886    , 31.4441319  , 823.6042    , 1.36        , 3           , 255         , 0           , 0
-0.149736911, 0.120514557 , -9.798231   , -0.000291080738, 0.000216078945, 0.000362627354, -0.01050771 , -0.015031402, 0.000104968356, 918.1886    , 31.4441319  , 823.6043    , 1.37        , 3           , 255         , 0           , 0
-0.1495337  , 0.108032271 , -9.793371   , -6.04548841E-05, 0.000208295882, 7.074269E-05, -0.010508324, -0.0150293121, 0.000105653919, 918.1886    , 31.4441319  , 823.604431  , 1.38        , 3           , 255         , 0           , 0
-0.140646666, 0.110602818 , -9.792108   , 0.000168480547, 0.000214036671, 0.000278379943, -0.0105066812, -0.0150271421, 0.000108415312, 918.1886    , 31.4441319  , 823.604553  , 1.39        , 3           , 255         , 0           , 0
-0.14345932 , 0.107982874 , -9.802473   , 4.050962E-05, -4.81969037E-05, 0.0007063816, -0.0105063822, -0.01502755 , 0.000115484421, 918.1886    , 31.4441319  , 823.6047    , 1.4         , 3           , 255         , 0           , 0
-0.148839653, 0.107024148 , -9.790998   , -0.000154606387, 2.20334914E-05, -4.05624523E-05, -0.0105190128, -0.0150227994, 0.0001152431, 918.1886    , 31.4441319  , 823.575562  , 1.41        , 3           , 255         , 0           , 0
-0.145765275, 0.107522294 , -9.78792    , 0.000298123981, 0.000186600315, 0.000230197329, -0.010516068, -0.01502091 , 0.000117525524, 918.1886    , 31.4441319  , 823.575562  , 1.42        , 3           , 255         , 0           , 0
-0.149916887, 0.103473529 , -9.791262   , 0.000418110227, -0.000157284085, 0.000237406784, -0.0105119217, -0.0150224576, 0.000119916214, 918.159363  , 31.4447422  , 823.575562  , 1.43        , 3           , 255         , 0           , 0
-0.1605884  , 0.09856284  , -9.78543    , 0.00056332536, -0.000160601572, -0.00016037235, -0.0105062658, -0.01502408 , 0.000118329321, 918.159363  , 31.4447422  , 823.575562  , 1.44        , 3           , 255         , 0           , 0
-0.148772568, 0.104636148 , -9.786822   , 0.000348575762, -0.000172996486, -9.807287E-05, -0.010502765, -0.01502582 , 0.000117366719, 918.159363  , 31.4447422  , 823.575562  , 1.45        , 3           , 255         , 0           , 0
-0.139451891, 0.104765177 , -9.791025   , 0.0005150044, 0.000591828 , -7.07160943E-05, -0.0104976026, -0.0150199085, 0.0001165974, 918.159363  , 31.4447422  , 823.575562  , 1.46        , 3           , 255         , 0           , 0
-0.1500313  , 0.1021381   , -9.792659   , 0.0004504941, 0.00020912342, 0.0003495079, -0.0104931509, -0.0150177851, 0.000120070639, 918.159363  , 31.4447422  , 823.575562  , 1.47        , 3           , 255         , 0           , 0
-0.149076924, 0.107965186 , -9.796587   , 0.000722730358, -0.000376838085, -9.57178054E-05, -0.0104859089, -0.0150215616, 0.000119152945, 918.159363  , 31.4447422  , 823.575562  , 1.48        , 3           , 255         , 0           , 0
-0.1378398  , 0.101280466 , -9.78615    , 5.55052829E-05, -0.0005492632, 3.254024E-05, -0.01048536 , -0.01502705 , 0.000119535958, 918.159363  , 31.4447422  , 823.575562  , 1.49        , 3           , 255         , 0           , 0
-0.14321962 , 0.101762846 , -9.796802   , 0.000417634554, -0.0005604265, 0.000197269314, -0.0104812151, -0.0150326332, 0.000121567464, 918.159363  , 31.4447422  , 823.575562  , 1.5         , 3           , 255         , 0           , 0
-0.14017275 , 0.100933447 , -9.790047   , -0.00032164788, -0.0006494501, 0.000178103481, -0.0104877036, -0.0150397951, 0.000123465463, 918.159363  , 31.4447422  , 823.5798    , 1.51        , 3           , 255         , 0           , 0
-0.143673286, 0.105729163 , -9.791645   , 0.00024966427, -0.0004546707, 0.000208664 , -0.0104852375, -0.0150443194, 0.000125599836, 918.159363  , 31.4447422  , 823.579834  , 1.52        , 3           , 255         , 0           , 0
-0.151194215, 0.101739861 , -9.789442   , 0.000285166083, -0.00018416578, -9.50838E-05, -0.0104823736, -0.0150461718, 0.00012466828, 918.2345    , 31.44576    , 823.5799    , 1.53        , 3           , 255         , 0           , 0
-0.14540343 , 0.104356453 , -9.784954   , 7.88924954E-05, -0.00047583686, 0.000244556519, -0.0104816211, -0.0150509039, 0.0001271638, 918.2345    , 31.44576    , 823.579956  , 1.54        , 3           , 255         , 0           , 0
-0.15012072 , 0.10220933  , -9.791227   , 0.000319386163, -0.000447081518, 0.0001488629, -0.0104784509, -0.0150553584, 0.00012869935, 918.2345    , 31.44576    , 823.58      , 1.55        , 3           , 255         , 0           , 0
-0.1596462  , 0.101055883 , -9.794867   , 9.789916E-05, -0.0006536064, 0.0002935851, -0.0104775177, -0.0150618618, 0.000131703782, 918.2345    , 31.44576    , 823.5801    , 1.56        , 3           , 255         , 0           , 0
-0.140415236, 0.0986857   , -9.790775   , 0.000206327852, -0.000237205648, 0.001002945 , -0.0104756057, -0.0150641277, 0.000141758428, 918.2345    , 31.44576    , 823.580139  , 1.57        , 3           , 255         , 0           , 0
-0.148546934, 0.0999678448, -9.794116   , 0.000452908571, -0.000242638052, -0.000184910168, -0.0104710488, -0.0150665771, 0.00013993468, 918.2345    , 31.44576    , 823.5802    , 1.58        , 3           , 255         , 0           , 0
-0.15119271 , 0.107310139 , -9.795394   , 0.000198032649, -0.0002510755, -0.000200447015, -0.010469038, -0.0150691066, 0.000137956435, 918.2345    , 31.44576    , 823.580261  , 1.59        , 3           , 255         , 0           , 0
-0.140411675, 0.104386866 , -9.788348   , 0.0004353068, -0.000185603916, -0.000401514641, -0.0104646254, -0.0150710046, 0.0001339606, 918.2345    , 31.44576    , 823.5803    , 1.6         , 3           , 255         , 0           , 0
-0.155635267, 0.105636433 , -9.78817749 , -9.725147E-05, -0.000399687153, -0.0009047054, -0.0104655363, -0.01507415 , 0.000124956161, 918.2345    , 31.44576    , 823.5033    , 1.61        , 3           , 255         , 0           , 0
-0.149098709, 0.106614128 , -9.790589   , 1.7763552E-05, -0.0001698918, -0.000183787823, -0.01046533 , -0.0150758671, 0.000123135978, 918.2345    , 31.44576    , 823.5029    , 1.62        , 3           , 255         , 0           , 0
-0.151614815, 0.100135587 , -9.786918   , -0.000134814793, 5.941704E-05, -9.911384E-05, -0.0104666622, -0.0150752841, 0.0001221386, 918.194641  , 31.4477272  , 823.502563  , 1.63        , 3           , 255         , 0           , 0
-0.152457044, 0.107625164 , -9.795484   , 0.000151490734, 0.000155266418, 0.000526057847, -0.010465228, -0.0150736766, 0.0001273831, 918.194641  , 31.4477272  , 823.5022    , 1.64        , 3           , 255         , 0           , 0
-0.156396329, 0.107025817 , -9.795048   , 0.0007252288, -0.000193002226, 5.146194E-06, -0.0104579758, -0.0150756091, 0.000127454739, 918.194641  , 31.4477272  , 823.501831  , 1.65        , 3           , 255         , 0           , 0
-0.140881047, 0.107530572 , -9.789698   , 0.000314391975, -0.0001900596, -0.000149580621, -0.0104548093, -0.015077523, 0.000125978768, 918.194641  , 31.4477272  , 823.501465  , 1.66        , 3           , 255         , 0           , 0
-0.143794015, 0.1027295   , -9.7883625  , -0.000134785078, 2.31788144E-05, 0.000373429852, -0.0104562119, -0.0150772519, 0.000129710766, 918.194641  , 31.4477272  , 823.50116   , 1.67        , 3           , 255         , 0           , 0
-0.154904559, 0.113247558 , -9.792047   , 0.000235633692, -0.000161158561, 0.00052922935, -0.0104539357, -0.01507881 , 0.000135020091, 918.194641  , 31.4477272  , 823.500854  , 1.68        , 3           , 255         , 0           , 0
-0.1424321  , 0.108202554 , -9.80045    , 0.0001388416, 4.86116624E-05, 0.000845135131, -0.0104526738, -0.0150782345, 0.000143466648, 918.194641  , 31.4477272  , 823.500549  , 1.69        , 3           , 255         , 0           , 0
-0.14607875 , 0.100716785 , -9.795607   , -0.0006873143, -0.00015874143, -0.000125614388, -0.0104595274, -0.0150798354, 0.000142227058, 918.194641  , 31.4477272  , 823.500244  , 1.7         , 3           , 255         , 0           , 0
-0.152583152, 0.108234741 , -9.793754   , -2.35956686E-05, 0.000345746143, -0.0008719911, -0.0104684709, -0.0150807342, 0.000133603971, 918.194641  , 31.4477272  , 823.4742    , 1.71        , 3           , 255         , 0           , 0
-0.148884252, 0.107067645 , -9.793989   , 4.295507E-05, -6.394982E-05, 0.000291768345, -0.0104680844, -0.0150813423, 0.000136528455, 918.194641  , 31.4477272  , 823.4737    , 1.72        , 3           , 255         , 0           , 0
-0.150686383, 0.09844642  , -9.787592   , -6.890402E-05, -0.000471498468, 8.954128E-05, -0.0104687894, -0.0150860464, 0.000137473253, 918.1792    , 31.4452171  , 823.4732    , 1.73        , 3           , 255         , 0           , 0
-0.158162117, 0.100151911 , -9.788684   , 0.000239656089, -0.0003098686, 2.66121788E-06, -0.0104663922, -0.0150891459, 0.0001375323, 918.1792    , 31.4452171  , 823.4727    , 1.74        , 3           , 255         , 0           , 0
-0.148946971, 0.1085626   , -9.789024   , -0.0008537595, 0.000108404958, -0.000169139559, -0.0104749054, -0.01508808 , 0.0001358295, 918.1792    , 31.4452171  , 823.4722    , 1.75        , 3           , 255         , 0           , 0
-0.147375345, 0.0966451   , -9.786936   , -0.000154394889, -0.000407106359, -0.0002698669, -0.0104764067, -0.0150921773, 0.00013317338, 918.1792    , 31.4452171  , 823.471741  , 1.76        , 3           , 255         , 0           , 0
-0.153079122, 0.100335062 , -9.785204   , -6.0524093E-05, -0.000243181421, 0.000200974377, -0.0104770437, -0.0150945876, 0.000135208669, 918.1792    , 31.4452171  , 823.471252  , 1.77        , 3           , 255         , 0           , 0
-0.150292665, 0.10057807  , -9.79338551 , 0.000258271553, -0.000366428867, -0.000313037628, -0.0104744155, -0.0150982859, 0.000132116576, 918.1792    , 31.4452171  , 823.4708    , 1.78        , 3           , 255         , 0           , 0
-0.150099188, 0.1016468   , -9.797657   , 0.0003510696, -0.000433939451, -0.000552699959, -0.0104708234, -0.0151026826, 0.000126634841, 918.1792    , 31.4452171  , 823.4704    , 1.79        , 3           , 255         , 0           , 0
-0.150372311, 0.100341007 , -9.795578   , 0.000237444125, 0.000245801639, -0.000528615259, -0.0104683675, -0.01510028 , 0.000121322773, 918.1792    , 31.4452171  , 823.47      , 1.8         , 3           , 255         , 0           , 0
-0.145944268, 0.102534033 , -9.793523   , 0.0002185492, 0.000314232544, 0.000379711448, -0.0104653565, -0.0151058789, 0.000125073813, 918.1792    , 31.4452171  , 823.4644    , 1.81        , 3           , 255         , 0           , 0
-0.14398469 , 0.111503482 , -9.78879    , -9.424848E-05, 0.00013670334, -5.576389E-05, -0.0104662906, -0.0151045183, 0.000124501836, 918.1792    , 31.4452171  , 823.4639    , 1.82        , 3           , 255         , 0           , 0
-0.14256458 , 0.108894542 , -9.793759   , -0.000249158271, 1.806271E-06, 0.00113012292, -0.0104689524, -0.0151043832, 0.00013580326, 918.1955    , 31.4477272  , 823.46344   , 1.83        , 3           , 255         , 0           , 0
-0.136800915, 0.100428462 , -9.787121   , 0.000101699246, 8.0357655E-05, 0.0005652883, -0.01046802 , -0.01510352 , 0.000141447919, 918.1955    , 31.4477272  , 823.462952  , 1.84        , 3           , 255         , 0           , 0
-0.14410539 , 0.10465505  , -9.793689   , 0.00041776424, 0.000176385525, 0.000413347618, -0.0104639074, -0.0151017122, 0.000145563085, 918.1955    , 31.4477272  , 823.462463  , 1.85        , 3           , 255         , 0           , 0
-0.146430552, 0.100195028 , -9.795142   , 0.000247892749, -5.821252E-05, 0.0005292969, -0.0104615074, -0.0151022384, 0.000150862339, 918.1955    , 31.4477272  , 823.462     , 1.86        , 3           , 255         , 0           , 0
-0.1437467  , 0.107360817 , -9.798517   , 0.0002876045, -3.85072781E-07, -1.35444461E-05, -0.0104586305, -0.015102244, 0.000150726933, 918.1955    , 31.4477272  , 823.4615    , 1.87        , 3           , 255         , 0           , 0
-0.153374463, 0.1058117   , -9.790952   , -0.000297979073, 0.000153170724, -0.000744767545, -0.0104614962, -0.01510079 , 0.00014326298, 918.1955    , 31.4477272  , 823.461     , 1.88        , 3           , 255         , 0           , 0
-0.14377819 , 0.10098277  , -9.797321   , 5.83282526E-05, 0.0003869759, 0.000193727246, -0.0104609411, -0.0150969  , 0.000145159822, 918.1955    , 31.4477272  , 823.4605    , 1.89        , 3           , 255         , 0           , 0
-0.1457327  , 0.09844041  , -9.791357   , -0.0003451424, -8.101904E-05, -0.0004005724, -0.0104643339, -0.0150977522, 0.00014116244, 918.1955    , 31.4477272  , 823.46      , 1.9         , 3           , 255         , 0           , 0
-0.148975566, 0.106567062 , -9.785889   , 0.000395019568, -9.681497E-05, 0.0004219415, -0.0104640787, -0.0150911966, 0.000145446917, 918.1955    , 31.4477272  , 823.43634   , 1.91        , 3           , 255         , 0           , 0
-0.146327272, 0.101226725 , -9.790774   , -0.000197938032, 9.462895E-05, 3.62553656E-05, -0.0104660634, -0.0150902467, 0.0001457996, 918.1955    , 31.4477272  , 823.4357    , 1.92        , 3           , 255         , 0           , 0
-0.142830074, 0.105464    , -9.788954   , -0.000126390281, 0.0002459332, 0.0002664332, -0.0104673682, -0.01508776 , 0.000148438281, 918.144836  , 31.446167   , 823.4351    , 1.93        , 3           , 255         , 0           , 0
-0.147745118, 0.108383372 , -9.791629   , -3.891092E-05, 0.000197683039, -0.0004510507, -0.0104676876, -0.0150858294, 0.000143906931, 918.144836  , 31.446167   , 823.4345    , 1.94        , 3           , 255         , 0           , 0
-0.1491315  , 0.108704783 , -9.803516   , 0.000327937945, -5.98317129E-05, -0.000329269184, -0.0104643591, -0.0150864664, 0.000140620381, 918.144836  , 31.446167   , 823.4339    , 1.95        , 3           , 255         , 0           , 0
-0.138203   , 0.102645136 , -9.789974   , -0.0003250805, -3.94052768E-05, -0.000817502558, -0.0104674846, -0.0150869442, 0.00013244919, 918.144836  , 31.446167   , 823.4333    , 1.96        , 3           , 255         , 0           , 0
-0.1453577  , 0.106945261 , -9.796097   , 0.000212903862, -8.407485E-06, -0.000296308775, -0.0104653118, -0.01508706 , 0.000129486885, 918.144836  , 31.446167   , 823.4327    , 1.97        , 3           , 255         , 0           , 0
-0.1458237  , 0.107800677 , -9.796485   , -5.07466029E-06, -8.29605851E-05, 0.000104417079, -0.0104653779, -0.0150878783, 0.00013053976, 918.144836  , 31.446167   , 823.432068  , 1.98        , 3           , 255         , 0           , 0
-0.139781237, 0.100728393 , -9.789602   , -0.000263330148, -6.12313452E-05, -0.000549972465, -0.010467926, -0.015088548, 0.000125046252, 918.144836  , 31.446167   , 823.431458  , 1.99        , 3           , 255         , 0           , 0
-0.148763925, 0.0965993553, -9.792246   , 0.000261822657, -0.00010861599, -1.06731131E-05, -0.0104653081, -0.0150896357, 0.0001249509, 918.144836  , 31.446167   , 823.430847  , 2           , 3           , 0           , 7.01623631  , 200
-0.160445243, 0.106780313 , -9.786249   , -5.76745952E-05, -0.00017063503, 0.0001899026, -0.0104705822, -0.0150856329, 0.000126938263, 918.144836  , 31.446167   , 823.4713    , 2.01        , 3           , 1           , 0           , 0
-0.153869465, 0.107140541 , -9.795462   , -1.0157848E-05, 8.098903E-05, -0.0002438746, -0.0104706464, -0.0150848487, 0.000124490951, 918.144836  , 31.446167   , 823.471     , 2.02        , 3           , 2           , 0           , 0
-0.149038166, 0.101033345 , -9.797159   , -4.87667567E-05, 0.000140471122, 0.0005291954, -0.0104712136, -0.0150833884, 0.000129768378, 918.1679    , 31.44834    , 823.4707    , 2.03        , 3           , 3           , 0           , 0
-0.1575822  , 0.102469228 , -9.794311   , 0.0001204898, -0.0001829442, 5.09114761E-05, -0.0104700178, -0.0150852129, 0.00013029667, 918.1679    , 31.44834    , 823.4704    , 2.04        , 3           , 4           , 0           , 0
-0.141397685, 0.103309    , -9.788869   , 0.0005367147, -4.563105E-05, 0.0009787236, -0.0104647968, -0.0150855677, 0.000140089018, 918.1679    , 31.44834    , 823.4701    , 2.05        , 3           , 5           , 0           , 0
-0.140613049, 0.102727771 , -9.794911   , 0.00016267279, -0.0004149154, 0.00113519758, -0.0104633421, -0.0150895976, 0.000151484783, 918.1679    , 31.44834    , 823.4698    , 2.06        , 3           , 6           , 0           , 0
-0.1520317  , 0.110971928 , -9.795794   , 0.000462645927, -0.000107520813, 0.000230370511, -0.0104587516, -0.0150906481, 0.000153799818, 918.1679    , 31.44834    , 823.4695    , 2.07        , 3           , 7           , 0           , 0
-0.151517287, 0.101448357 , -9.792359   , -0.000311427255, -0.000301154185, -0.0005741175, -0.0104617784, -0.01509372 , 0.000148089952, 918.1679    , 31.44834    , 823.4692    , 2.08        , 3           , 8           , 5           , 5
-0.150565937, 0.100610211 , -9.791136   , -3.444098E-05, -0.0004944175, -0.0009159747, -0.0104619851, -0.015098758, 0.0001389816, 918.1679    , 31.44834    , 823.4689    , 2.09        , 3           , 9           , 5           , 0.1
-0.135832   , 0.108544447 , -9.792291   , 0.0001752688, 0.000113580871, -5.315041E-05, -0.010460224, -0.0150976283, 0.000138438219, 918.1679    , 31.44834    , 823.468567  , 2.1         , 3           , 10          , 0.1         , 0.1
-0.142143816, 0.1036636   , -9.789869   , -6.170137E-05, -0.000299954816, -0.0002669561, -0.0104652047, -0.0151040489, 0.00013586643, 918.1679    , 31.44834    , 823.476868  , 2.11        , 3           , 11          , 0.008004146 , 0.008004145
-0.15178521 , 0.106492639 , -9.78707    , -0.000152569119, -0.000161517324, 0.0005232159, -0.0104668085, -0.0151056089, 0.00014111567, 918.1679    , 31.44834    , 823.4766    , 2.12        , 3           , 12          , 0.174643889 , 0
-0.145621747, 0.108716048 , -9.789812   , -0.000146510516, -0.000187776779, 0.000123815189, -0.0104682921, -0.0151074724, 0.000142373523, 918.161743  , 31.4494247  , 823.4764    , 2.13        , 3           , 13          , 0           , 0
-0.140908   , 0.0988446251, -9.787058   , -0.0001797966, 0.0004603517, -0.000369290763, -0.0104700336, -0.015102908, 0.000138632269, 918.161743  , 31.4494247  , 823.476135  , 2.14        , 3           , 14          , -0.000299532636, -0.000393559079
-0.15775618 , 0.09476651  , -9.790834   , 0.000510110462, 6.479272E-05, -1.44002479E-06, -0.0104649328, -0.01510226 , 0.0001386111, 918.161743  , 31.4494247  , 823.4759    , 2.15        , 3           , 15          , 0           , -5.03947231E-05
-0.14958778 , 0.0933918953, -9.787698   , 0.0006849456, -0.000366974942, 0.0003171743, -0.0104581332, -0.0151058966, 0.000141821336, 918.161743  , 31.4494247  , 823.475647  , 2.16        , 3           , 16          , 0           , 1.401298E-45
-0.15241918 , 0.107515708 , -9.787699   , -0.000155577989, 0.000374146126, -9.591422E-05, -0.0104596717, -0.0151021648, 0.000140823016, 918.161743  , 31.4494247  , 823.4754    , 2.17        , 3           , 20          , 0           , 0
-0.1548256  , 0.108001389 , -9.798617   , -0.000237153465, -0.000161079137, -0.000424762955, -0.01046198 , -0.0151038207, 0.0001365921, 918.161743  , 31.4494247  , 823.475159  , 2.18        , 3           , 21          , 0           , 0
-0.152638137, 0.10468515  , -9.794058   , 0.000284275418, -0.000522208749, 0.000436954026, -0.0104592033, -0.0151089951, 0.000141016411, 918.161743  , 31.4494247  , 823.4749    , 2.19        , 3           , 22          , 0           , 0
-0.147221714, 0.108362749 , -9.79044151 , 0.0005561687, -0.000151554152, 5.57266249E-05, -0.0104536517, -0.0151105048, 0.000141589568, 918.161743  , 31.4494247  , 823.4747    , 2.2         , 3           , 40          , 0           , 0
-0.1552231  , 0.104739584 , -9.794554   , 0.0007355372, 9.329463E-05, -0.0007166731, -0.0104487147, -0.01511387 , 0.000134451 , 918.161743  , 31.4494247  , 823.4903    , 2.21        , 3           , 41          , 0           , 0
-0.150803089, 0.104545213 , -9.788637   , -2.34954932E-05, -0.000347532332, 0.000912345364, -0.0104490891, -0.0151172476, 0.000143611091, 918.161743  , 31.4494247  , 823.4902    , 2.22        , 3           , 42          , 0           , 0
-0.152347475, 0.103133038 , -9.789529   , 0.000284886424, -2.36466876E-05, 8.599149E-05, -0.0104462523, -0.0151174748, 0.0001444735, 918.179749  , 31.44766    , 823.490051  , 2.23        , 3           , 255         , 0           , 0
-0.160379142, 0.10860838  , -9.789274   , -5.31701371E-05, -5.01936E-05, 0.000146658916, -0.0104468064, -0.015117961, 0.000145945392, 918.179749  , 31.44766    , 823.4899    , 2.24        , 3           , 255         , 0           , 0
-0.150672108, 0.106198251 , -9.788004   , 0.00027545818, -0.000178135291, 0.00050867704, -0.010444127, -0.01511969 , 0.000151050961, 918.179749  , 31.44766    , 823.4898    , 2.25        , 3           , 255         , 0           , 0
-0.1450397  , 0.103729405 , -9.795845   , 0.000485729019, -0.000396839285, -0.000451511267, -0.0104392022, -0.0151237054, 0.0001465771, 918.179749  , 31.44766    , 823.4897    , 2.26        , 3           , 255         , 0           , 0
-0.157072589, 0.109521091 , -9.797494   , -2.2401684E-05, -8.866706E-05, 0.000232091043, -0.010439462, -0.0151245678, 0.000148907362, 918.179749  , 31.44766    , 823.489563  , 2.27        , 3           , 255         , 0           , 0
-0.148657367, 0.100967564 , -9.801025   , 0.000321402156, 0.000138821051, -7.027357E-05, -0.0104362369, -0.0151231866, 0.0001481901, 918.179749  , 31.44766    , 823.489441  , 2.28        , 3           , 255         , 0           , 0
-0.14869082 , 0.0981240943, -9.792484   , 0.000218102723, 9.40286E-05 , 0.0006412985, -0.0104341526, -0.01512218 , 0.000154593508, 918.179749  , 31.44766    , 823.4893    , 2.29        , 3           , 255         , 0           , 0
-0.1432643  , 0.109817192 , -9.790913   , 0.000465773424, 0.000123165257, 0.0008319514, -0.01042962 , -0.015120863, 0.000162900455, 918.179749  , 31.44766    , 823.4892    , 2.3         , 3           , 255         , 0           , 0
-0.1458694  , 0.11019142  , -9.784458   , 0.0004044593, 0.000620664563, 0.0006116432, -0.0104312561, -0.0151212187, 0.0001690369, 918.179749  , 31.44766    , 823.480164  , 2.31        , 3           , 255         , 0           , 0
-0.154230714, 0.09825225  , -9.785223   , 4.36288828E-05, 0.0003231603, -0.00027068003, -0.0104307793, -0.0151180141, 0.000166296319, 918.179749  , 31.44766    , 823.48      , 2.32        , 3           , 255         , 0           , 0
-0.153165072, 0.1065137   , -9.788832   , 0.000212127692, -6.35176548E-05, -0.000361937127, -0.0104286028, -0.0151186874, 0.000162683413, 918.1813    , 31.45017    , 823.4798    , 2.33        , 3           , 255         , 0           , 0
-0.155107439, 0.109099984 , -9.799654   , 0.0001645863, 5.44106E-05 , 0.000373711024, -0.010427013, -0.0151181044, 0.00016641499, 918.1813    , 31.45017    , 823.4796    , 2.34        , 3           , 255         , 0           , 0
-0.157516524, 0.103036784 , -9.790204   , -2.20129441E-05, -2.44398834E-05, -0.000294305355, -0.0104271881, -0.0151183791, 0.000163474382, 918.1813    , 31.45017    , 823.479431  , 2.35        , 3           , 255         , 0           , 0
-0.149767071, 0.11058905  , -9.789576   , 0.000159683 , -0.000218459434, -0.0007022302, -0.0104254857, -0.0151206376, 0.0001564746, 918.1813    , 31.45017    , 823.479248  , 2.36        , 3           , 255         , 0           , 0
-0.144634038, 0.111743368 , -9.788248   , 0.0004106636, 0.000235670872, -0.00120985648, -0.0104211969, -0.0151184043, 0.000144351055, 918.1813    , 31.45017    , 823.479065  , 2.37        , 3           , 255         , 0           , 0
-0.146132872, 0.105286121 , -9.79414749 , -0.000145007332, -0.000145854981, -0.000896253565, -0.010422511, -0.0151199568, 0.000135403388, 918.1813    , 31.45017    , 823.4789    , 2.38        , 3           , 255         , 0           , 0
-0.15050593 , 0.09649776  , -9.797667   , -0.000298855273, -0.000236113876, -0.000916651043, -0.0104253609, -0.0151224155, 0.000126261177, 918.1813    , 31.45017    , 823.4787    , 2.39        , 3           , 255         , 0           , 0
-0.147435814, 0.100994371 , -9.795621   , 0.0003875182, -8.77273E-05, -0.000204625379, -0.0104214549, -0.0151233133, 0.000124224 , 918.1813    , 31.45017    , 823.4785    , 2.4         , 3           , 255         , 0           , 0
-0.147089854, 0.106614791 , -9.790037   , 0.000112353795, -0.0003947795, 6.65646949E-05, -0.0104275085, -0.0151327355, 0.000125039252, 918.1813    , 31.45017    , 823.4688    , 2.41        , 3           , 255         , 0           , 0
-0.143169463, 0.105802275 , -9.790846   , 1.0443473E-05, -7.947878E-06, -0.000216444343, -0.0104273707, -0.015132837, 0.000122875543, 918.1813    , 31.45017    , 823.468567  , 2.42        , 3           , 255         , 0           , 0
-0.144125059, 0.100063995 , -9.80245    , 0.000114760755, -1.84659148E-05, 0.000168751561, -0.0104262484, -0.0151330037, 0.000124565049, 918.1699    , 31.45112    , 823.4683    , 2.43        , 3           , 255         , 0           , 0
-0.142090678, 0.110336326 , -9.789782   , -0.00035786588, -2.41200614E-05, 0.000192691441, -0.0104298564, -0.0151332254, 0.000126494546, 918.1699    , 31.45112    , 823.4681    , 2.44        , 3           , 255         , 0           , 0
-0.1513237  , 0.102110818 , -9.789125   , -0.000199360016, -0.000311914482, 0.000117919888, -0.010431868, -0.01513633 , 0.000127706327, 918.1699    , 31.45112    , 823.467834  , 2.45        , 3           , 255         , 0           , 0
-0.146866113, 0.104774937 , -9.790078   , 4.87121E-05 , -0.000239876739, 9.368956E-06, -0.0104313828, -0.0151387276, 0.000127825027, 918.1699    , 31.45112    , 823.4676    , 2.46        , 3           , 255         , 0           , 0
-0.136520982, 0.109213784 , -9.792678   , -5.1281706E-05, 0.00013385684, -0.000448744366, -0.0104318289, -0.0151374368, 0.000123323465, 918.1699    , 31.45112    , 823.467346  , 2.47        , 3           , 255         , 0           , 0
-0.143245026, 0.1098724   , -9.790634   , -2.48730648E-05, -9.371183E-05, 0.000434119 , -0.0104321428, -0.0151383281, 0.00012767459, 918.1699    , 31.45112    , 823.4671    , 2.48        , 3           , 255         , 0           , 0
-0.1420885  , 0.111340366 , -9.781195   , 1.04269129E-05, 7.316467E-05, 0.000964757346, -0.0104321828, -0.0151374973, 0.000137314855, 918.1699    , 31.45112    , 823.466858  , 2.49        , 3           , 255         , 0           , 0
-0.1409019  , 0.110898152 , -9.782499   , 0.000183932716, -0.000177053444, 8.890995E-05, -0.0104303574, -0.0151392566, 0.000138222458, 918.1699    , 31.45112    , 823.4666    , 2.5         , 3           , 255         , 0           , 0
-0.145242959, 0.10798309  , -9.79461    , 2.29093712E-06, -0.00014475864, 0.0002694987, -0.0104430346, -0.0151293641, 0.000141124154, 918.1699    , 31.45112    , 823.4734    , 2.51        , 3           , 255         , 0           , 0
-0.14637056 , 0.109723248 , -9.791779   , -4.675277E-05, -2.44121766E-05, 0.000172439512, -0.0104435282, -0.0151295895, 0.000142851175, 918.1699    , 31.45112    , 823.4732    , 2.52        , 3           , 255         , 0           , 0
-0.145579949, 0.106649652 , -9.788294   , -0.0003610414, -9.384655E-05, -0.000366598746, -0.010447083, -0.0151305664, 0.000139194846, 918.1736    , 31.4487457  , 823.473     , 2.53        , 3           , 255         , 0           , 0
-0.152466863, 0.112076923 , -9.791163   , -0.0001473059, 0.000162686221, 0.0001545444, -0.0104485806, -0.0151289236, 0.00014072335, 918.1736    , 31.4487457  , 823.472839  , 2.54        , 3           , 255         , 0           , 0
-0.143756837, 0.110496223 , -9.787027   , 0.000529615 , 0.000355480617, 0.000384673651, -0.010443341, -0.01512533 , 0.0001445331, 918.1736    , 31.4487457  , 823.472656  , 2.55        , 3           , 255         , 0           , 0
-0.142805547, 0.09934591  , -9.78761    , -9.06024652E-05, 0.0004622243, 0.000116068979, -0.010444263, -0.0151206953, 0.00014564555, 918.1736    , 31.4487457  , 823.4725    , 2.56        , 3           , 255         , 0           , 0
-0.152501553, 0.09877108  , -9.792455   , 0.000314609963, 0.000132559828, 6.675864E-05, -0.0104411282, -0.0151193663, 0.00014629931, 918.1736    , 31.4487457  , 823.4723    , 2.57        , 3           , 255         , 0           , 0
-0.147675663, 0.09759236  , -9.79548    , -8.508802E-05, 0.000298187428, -6.09149647E-05, -0.0104419682, -0.0151163889, 0.000145659011, 918.1736    , 31.4487457  , 823.4721    , 2.58        , 3           , 255         , 0           , 0
-0.147084981, 0.103690885 , -9.7961     , 0.0003615479, -0.000169100618, -0.000245651026, -0.0104383165, -0.0151181053, 0.000143220066, 918.1736    , 31.4487457  , 823.4719    , 2.59        , 3           , 255         , 0           , 0
-0.150368512, 0.09716564  , -9.77953148 , -3.74799129E-07, -0.000360863662, 9.775309E-05, -0.0104383351, -0.015121704, 0.00014423528, 918.1736    , 31.4487457  , 823.471741  , 2.6         , 3           , 255         , 0           , 0
-0.142337561, 0.110268876 , -9.784391   , -6.83416147E-06, -0.000199645176, -9.477197E-05, -0.010443341, -0.0151219713, 0.000143383266, 918.1736    , 31.4487457  , 823.473267  , 2.61        , 3           , 255         , 0           , 0
-0.141161516, 0.112920068 , -9.789426   , -0.0001424198, -0.0003609439, 0.000127774969, -0.0104447845, -0.0151255652, 0.000144698759, 918.1736    , 31.4487457  , 823.473145  , 2.62        , 3           , 255         , 0           , 0
-0.143700317, 0.10930644  , -9.786919   , -0.000231159123, -0.000351976079, 0.000334593584, -0.0104471473, -0.0151290493, 0.00014808157, 918.141663  , 31.4501019  , 823.473     , 2.63        , 3           , 255         , 0           , 0
-0.144660771, 0.109541871 , -9.784407   , -0.000183236087, -0.000250534969, 3.12843877E-05, -0.0104489848, -0.0151315508, 0.000148420586, 918.141663  , 31.4501019  , 823.4729    , 2.64        , 3           , 255         , 0           , 0
-0.134391338, 0.102313183 , -9.7895565  , 0.0003516787, -4.761893E-05, -0.0004013114, -0.0104454057, -0.0151320687, 0.0001444123, 918.141663  , 31.4501019  , 823.4728    , 2.65        , 3           , 255         , 0           , 0
-0.143174216, 0.10595759  , -9.785217   , 0.000255934632, 5.81997738E-05, -0.000391753041, -0.0104427869, -0.0151315276, 0.00014048857, 918.141663  , 31.4501019  , 823.472656  , 2.66        , 3           , 255         , 0           , 0
-0.151320726, 0.109038793 , -9.786715   , 0.000436586619, -4.20926081E-05, -0.000259687455, -0.0104383836, -0.0151319755, 0.000137896 , 918.141663  , 31.4501019  , 823.472534  , 2.67        , 3           , 255         , 0           , 0
-0.144679055, 0.107086375 , -9.792234   , -0.000178204, 2.99530511E-05, 0.000223573923, -0.0104401987, -0.0151316524, 0.0001401287, 918.141663  , 31.4501019  , 823.4724    , 2.68        , 3           , 255         , 0           , 0
-0.137637571, 0.104343213 , -9.801584   , 0.000175672583, 6.75546471E-06, 0.000138840638, -0.0104384627, -0.0151315713, 0.000141516444, 918.141663  , 31.4501019  , 823.4723    , 2.69        , 3           , 255         , 0           , 0
-0.14736113 , 0.105211951 , -9.794759   , 0.0001263423, -0.000421376666, -0.000187616941, -0.0104371719, -0.0151358051, 0.0001396842, 918.141663  , 31.4501019  , 823.472168  , 2.7         , 3           , 255         , 0           , 0
-0.141049862, 0.1076432   , -9.790292   , -0.000133698166, -0.000324029766, 0.000123696678, -0.0104519445, -0.0151261576, 0.000141157943, 918.141663  , 31.4501019  , 823.5177    , 2.71        , 3           , 255         , 0           , 0
-0.146260262, 0.111324921 , -9.784473   , 0.000271853263, -0.000283979636, 5.30104771E-05, -0.0104492353, -0.0151289906, 0.000141717755, 918.141663  , 31.4501019  , 823.5179    , 2.72        , 3           , 255         , 0           , 0
-0.148727074, 0.107209131 , -9.790533   , 0.0004556433, 0.000153296016, -0.000323968125, -0.010444629, -0.0151274931, 0.000138461954, 918.1521    , 31.4499664  , 823.518066  , 2.73        , 3           , 255         , 0           , 0
-0.144621536, 0.102386616 , -9.784811   , -8.66244663E-05, 0.000254793762, -0.000183919983, -0.0104454681, -0.0151249636, 0.000136596063, 918.1521    , 31.4499664  , 823.51825   , 2.74        , 3           , 255         , 0           , 0
-0.146086827, 0.101358041 , -9.791239   , -0.000174727524, 0.000409137632, -0.00109780941, -0.0104470477, -0.01512099 , 0.00012557485, 918.1521    , 31.4499664  , 823.518433  , 2.75        , 3           , 255         , 0           , 0
-0.151731253, 0.106528834 , -9.79532051 , -0.0001667387, 0.000284740643, -4.56086E-05, -0.0104487082, -0.0151181454, 0.000125088991, 918.1521    , 31.4499664  , 823.5186    , 2.76        , 3           , 255         , 0           , 0
-0.14767997 , 0.09977259  , -9.789325   , 0.000365330256, 5.4127886E-05, 0.00040335767, -0.0104451152, -0.0151175624, 0.000129117063, 918.1521    , 31.4499664  , 823.5188    , 2.77        , 3           , 255         , 0           , 0
-0.1388199  , 0.100845277 , -9.791704   , 8.581247E-05, 0.000301409571, 0.0004495367, -0.0104443235, -0.015114502, 0.0001335811, 918.1521    , 31.4499664  , 823.519     , 2.78        , 3           , 255         , 0           , 0
-0.144326836, 0.108220913 , -9.792418   , 0.00050127157, 2.74861231E-05, 0.000517377164, -0.0104393912, -0.0151141733, 0.000138752177, 918.1521    , 31.4499664  , 823.519165  , 2.79        , 3           , 255         , 0           , 0
-0.138993636, 0.105047286 , -9.801116   , -9.73304E-05, -8.350168E-05, 0.000158981653, -0.0104403887, -0.0151149919, 0.000140350778, 918.1521    , 31.4499664  , 823.519348  , 2.8         , 3           , 255         , 0           , 0
-0.143536732, 0.101184942 , -9.804884   , 8.024072E-06, -0.000235385465, 0.000236044652, -0.0104462523, -0.0151103195, 0.000142825156, 918.1521    , 31.4499664  , 823.544067  , 2.81        , 3           , 255         , 0           , 0
-0.1445575  , 0.103563547 , -9.79631    , -4.84501361E-05, 0.000146000966, -0.0006618897, -0.0104466379, -0.015108929, 0.000136190778, 918.1521    , 31.4499664  , 823.5444    , 2.82        , 3           , 255         , 0           , 0
-0.150256246, 0.102734111 , -9.793325   , -0.00019463987, 0.000224605174, -0.0004028353, -0.0104485219, -0.0151067255, 0.000132138812, 918.1364    , 31.4494915  , 823.5447    , 2.83        , 3           , 255         , 0           , 0
-0.145841271, 0.09940137  , -9.797525   , -2.34583567E-05, 0.000162024284, -5.874546E-05, -0.0104487473, -0.0151051125, 0.000131534413, 918.1364    , 31.4494915  , 823.545     , 2.84        , 3           , 255         , 0           , 0
-0.147594377, 0.107582793 , -9.790944   , -0.000113376445, 9.580524E-05, 0.000364683976, -0.0104499357, -0.0151041159, 0.000135171373, 918.1364    , 31.4494915  , 823.545349  , 2.85        , 3           , 255         , 0           , 0
-0.140357226, 0.09652589  , -9.797766   , -0.000154449721, -0.0002860419, 0.0005307361, -0.010451559, -0.01510692 , 0.0001405088, 918.1364    , 31.4494915  , 823.5457    , 2.86        , 3           , 255         , 0           , 0
-0.153411284, 0.104083359 , -9.791104   , -0.000588331954, -3.01410328E-05, -0.000331160263, -0.0104573928, -0.0151072554, 0.00013720023, 918.1364    , 31.4494915  , 823.5461    , 2.87        , 3           , 255         , 0           , 0
-0.144807339, 0.106973186 , -9.79151    , 2.00913055E-05, 8.718035E-05, -0.0005039019, -0.0104571152, -0.0151064368, 0.000132151908, 918.1364    , 31.4494915  , 823.546448  , 2.88        , 3           , 255         , 0           , 0
-0.141737849, 0.1009192   , -9.784022   , 6.15406E-05 , -0.000174156012, 4.74734843E-05, -0.0104565071, -0.0151081728, 0.000132644869, 918.1364    , 31.4494915  , 823.5468    , 2.89        , 3           , 255         , 0           , 0
-0.153585851, 0.110223629 , -9.78546    , 0.0004307882, 8.594873E-05, 6.366828E-05, -0.010452209, -0.0151073067, 0.0001332726, 918.1364    , 31.4494915  , 823.5472    , 2.9         , 3           , 255         , 0           , 0
-0.145164579, 0.105097137 , -9.801007   , 0.0003127882, 0.000125973369, 0.0003197335, -0.0104508959, -0.0151035441, 0.000136483563, 918.1364    , 31.4494915  , 823.5904    , 2.91        , 3           , 255         , 0           , 0
-0.145166785, 0.09960179  , -9.795333   , 0.000763348362, 0.000278064 , 0.0008932365, -0.010443395, -0.015100671, 0.000145387166, 918.1364    , 31.4494915  , 823.591     , 2.92        , 3           , 255         , 0           , 0
-0.145957559, 0.104018494 , -9.783598   , 0.000138303934, -0.000333049829, -0.0002800817, -0.01044197 , -0.0151040321, 0.000142621037, 918.179749  , 31.44895    , 823.5916    , 2.93        , 3           , 255         , 0           , 0
-0.143565625, 0.104060367 , -9.793508   , 0.000113573871, 4.28668282E-05, -0.00046246266, -0.0104407659, -0.0151036521, 0.000137991781, 918.179749  , 31.44895    , 823.5922    , 2.94        , 3           , 255         , 0           , 0
-0.144980818, 0.102503017 , -9.787263   , 0.0006393217, 3.291061E-05, -0.0003804813, -0.0104343146, -0.0151033625, 0.000134183385, 918.179749  , 31.44895    , 823.592834  , 2.95        , 3           , 255         , 0           , 0
-0.147860244, 0.105376318 , -9.793604   , 0.0004482307, 7.008921E-05, -5.46295632E-06, -0.0104298312, -0.0151026612, 0.000134121467, 918.179749  , 31.44895    , 823.593445  , 2.96        , 3           , 255         , 0           , 0
-0.1491422  , 0.10180974  , -9.786455   , 0.000156450464, 0.000209441874, 0.000279565662, -0.0104283076, -0.0151005378, 0.000136895367, 918.179749  , 31.44895    , 823.594055  , 2.97        , 3           , 255         , 0           , 0
-0.151363164, 0.1002361   , -9.790373   , -1.05422805E-05, 1.837057E-05, -0.0003206321, -0.0104283644, -0.0151003879, 0.000133687019, 918.179749  , 31.44895    , 823.594666  , 2.98        , 3           , 255         , 0           , 0
-0.148455   , 0.103183225 , -9.793961   , 0.000255382853, -0.0003825115, 0.0007369225, -0.0104259234, -0.0151041374, 0.0001410964, 918.179749  , 31.44895    , 823.5953    , 2.99        , 3           , 255         , 0           , 0
-0.152310655, 0.09335744  , -9.798895   , 0.00020046586, -3.63140134E-05, 0.000218422 , -0.0104239536, -0.0151044782, 0.000143284487, 918.179749  , 31.44895    , 823.5959    , 3           , 3           , 0           , 8.016236    , 300
-0.1467818  , 0.100416005 , -9.794324   , 0.000365462125, 0.000190026389, 0.000497160247, -0.0104198428, -0.0151015464, 0.000148228442, 918.179749  , 31.44895    , 823.57135   , 3.01        , 3           , 1           , 0           , 0
-0.152364388, 0.104058027 , -9.796216   , 0.000107555068, 0.000283917325, -3.1623058E-06, -0.0104187643, -0.0150987059, 0.000148167237, 918.179749  , 31.44895    , 823.571838  , 3.02        , 3           , 2           , 0           , 0
-0.1481287  , 0.105704166 , -9.781823   , 0.000132176 , 0.0003766854, 0.000234048232, -0.0104174782, -0.0150949154, 0.000150468564, 918.1863    , 31.4515266  , 823.5723    , 3.03        , 3           , 3           , 0           , 0
-0.144591972, 0.105976664 , -9.7948     , -0.000113623362, 0.0003903272, 9.613017E-05, -0.0104186293, -0.015091002, 0.000151389249, 918.1863    , 31.4515266  , 823.5728    , 3.04        , 3           , 4           , 0           , 0
-0.1418857  , 0.0937994   , -9.792436   , -0.0004012192, -0.000122214726, -0.000194410357, -0.0104226125, -0.0150922444, 0.0001494578, 918.1863    , 31.4515266  , 823.5733    , 3.05        , 3           , 5           , 0           , 0
-0.14452526 , 0.1049242   , -9.798074   , 0.00022580169, 8.514276E-05, -0.000425075035, -0.01042029 , -0.0150914378, 0.000145198035, 918.1863    , 31.4515266  , 823.5738    , 3.06        , 3           , 6           , 0           , 0
-0.142015189, 0.107787311 , -9.797293   , 3.60490521E-05, 0.0005241596, 0.0003338209, -0.01041998 , -0.0150861647, 0.000148481748, 918.1863    , 31.4515266  , 823.5743    , 3.07        , 3           , 7           , 0           , 0
-0.156207874, 0.107286453 , -9.786427   , 0.000309358322, 0.0004724014, -0.0005080158, -0.0104168085, -0.0150814932, 0.0001433522, 918.1863    , 31.4515266  , 823.574768  , 3.08        , 3           , 8           , 5           , 5
-0.148258924, 0.110365294 , -9.788595   , 0.000144818638, -2.51986785E-05, -0.000194349821, -0.0104153315, -0.0150817642, 0.000141411263, 918.1863    , 31.4515266  , 823.575256  , 3.09        , 3           , 9           , 5           , 0.1
-0.140927643, 0.114378847 , -9.784796   , 0.000191861633, -0.0002404452, 0.000255748455, -0.0104134521, -0.0150841409, 0.000143993864, 918.1863    , 31.4515266  , 823.575745  , 3.1         , 3           , 10          , 0.1         , 0.1
-0.143846139, 0.109545387 , -9.785708   , 0.0009621219, 3.20084218E-05, 3.844646E-05, -0.0104106162, -0.0150814038, 0.000144477279, 918.1863    , 31.4515266  , 823.5448    , 3.11        , 3           , 11          , 0.00718983635, 0.007189835
-0.1500952  , 0.1015902   , -9.788515   , 0.000100563673, -0.000335780816, -0.0005658102, -0.0104095256, -0.0150848208, 0.000138853924, 918.1863    , 31.4515266  , 823.5451    , 3.12        , 3           , 12          , 0.174645633 , 0
-0.1520973  , 0.089878    , -9.788368   , 0.000430697837, 0.000445789949, -0.0008173622, -0.0104050953, -0.01508045 , 0.000130633634, 918.1238    , 31.4497643  , 823.5454    , 3.13        , 3           , 13          , 0           , 0
-0.141257048, 0.09471586  , -9.7861     , 0.000428959233, 0.000240731883, -0.000148776482, -0.0104007823, -0.0150780566, 0.000129120759, 918.1238    , 31.4497643  , 823.5457    , 3.14        , 3           , 14          , -0.000299288775, -0.000393667462
-0.143154472, 0.09659202  , -9.786369   , 7.6565746E-05, -0.000137658761, -0.000259363354, -0.0103999777, -0.01507946 , 0.000126541359, 918.1238    , 31.4497643  , 823.546     , 3.15        , 3           , 15          , 0           , -5.0399547E-05
-0.145265713, 0.09818131  , -9.782942   , 0.0002549587, 0.00037276  , 0.0002708027, -0.01039747 , -0.0150757041, 0.000129210734, 918.1238    , 31.4497643  , 823.5463    , 3.16        , 3           , 16          , 0           , 1.401298E-45
-0.145443022, 0.103166781 , -9.793671   , -0.000192869222, 0.0006267193, 0.000169603343, -0.0103994235, -0.0150694195, 0.000130841669, 918.1238    , 31.4497643  , 823.546631  , 3.17        , 3           , 20          , 0           , 0
-0.146549165, 0.09720955  , -9.798531   , 0.0003376715, 8.16417451E-05, -5.68634932E-05, -0.0103960373, -0.015068613, 0.000130264511, 918.1238    , 31.4497643  , 823.546936  , 3.18        , 3           , 21          , 0           , 0
-0.146737546, 0.09870057  , -9.791763   , 0.000464901357, -0.000184887467, 4.52647328E-05, -0.0103913955, -0.015070457, 0.000130736415, 918.1238    , 31.4497643  , 823.547241  , 3.19        , 3           , 22          , 0           , 0
-0.1454552  , 0.104146019 , -9.790899   , 0.000727648439, 0.000492531748, -0.000172330678, -0.0103840921, -0.015065548, 0.000128961867, 918.1238    , 31.4497643  , 823.547546  , 3.2         , 3           , 40          , 0           , 0
-0.1543867  , 0.09138358  , -9.789363   , 0.000639723148, 0.0004158774, -0.0001395014, -0.0103719328, -0.01505755 , 0.00012743719, 918.1238    , 31.4497643  , 823.609     , 3.21        , 3           , 41          , 0           , 0
-0.1493374  , 0.09986663  , -9.790565   , 0.000327169255, 0.0004714126, 3.949211E-05, -0.0103686657, -0.0150528355, 0.00012778322, 918.1238    , 31.4497643  , 823.6097    , 3.22        , 3           , 42          , 0           , 0
-0.155774012, 0.105848111 , -9.791633   , 0.000392834016, 0.000143151672, 0.000398714124, -0.0103647951, -0.015051363, 0.000131755674, 918.1729    , 31.4501019  , 823.610352  , 3.23        , 3           , 255         , 0           , 0
-0.153368682, 0.10177733  , -9.781781   , 0.000218765781, 0.0001490204, 0.000530668534, -0.0103626885, -0.015049817, 0.0001370471, 918.1729    , 31.4501019  , 823.611     , 3.24        , 3           , 255         , 0           , 0
-0.144319341, 0.113324143 , -9.788506   , 0.00119073433, 0.000148243649, 0.00106482778, -0.01035094 , -0.0150482235, 0.000147680388, 918.1729    , 31.4501019  , 823.6117    , 3.25        , 3           , 255         , 0           , 0
-0.143474028, 0.100494131 , -9.794666   , 0.00103485025, 0.000426177779, 0.000309805648, -0.0103406366, -0.0150439311, 0.000150734442, 918.1729    , 31.4501019  , 823.612366  , 3.26        , 3           , 255         , 0           , 0
-0.145542532, 0.0986227   , -9.789592   , 2.55729246E-05, 7.831465E-05, 0.00027902142, -0.0103404233, -0.01504312 , 0.000153516681, 918.1729    , 31.4501019  , 823.613037  , 3.27        , 3           , 255         , 0           , 0
-0.148295522, 0.10430751  , -9.789407   , -0.000319606421, 0.000167618331, 0.0008018195, -0.0103437407, -0.0150413606, 0.000161517819, 918.1729    , 31.4501019  , 823.6137    , 3.28        , 3           , 255         , 0           , 0
-0.152231321, 0.108684734 , -9.786694   , -0.0004141321, -0.0002292793, -0.0002132191, -0.01034785 , -0.0150436759, 0.000159409261, 918.1729    , 31.4501019  , 823.6144    , 3.29        , 3           , 255         , 0           , 0
-0.154534772, 0.109108731 , -9.78603649 , -0.000224552321, -9.42809E-05, -0.000452242821, -0.0103500262, -0.015044665, 0.000154896436, 918.1729    , 31.4501019  , 823.6151    , 3.3         , 3           , 255         , 0           , 0
-0.141077712, 0.110403635 , -9.786031   , -1.08457461E-05, -0.000155576417, -0.000467166334, -0.0103547489, -0.0150529221, 0.0001503112, 918.1729    , 31.4501019  , 823.5971    , 3.31        , 3           , 255         , 0           , 0
-0.147357672, 0.112065174 , -9.792162   , -4.80574963E-05, 0.000489190745, 4.928892E-05, -0.010355236, -0.0150480252, 0.000150753447, 918.1729    , 31.4501019  , 823.5977    , 3.32        , 3           , 255         , 0           , 0
-0.146859512, 0.106773391 , -9.794589   , -0.00033407766, 0.000544499955, 3.79357953E-05, -0.0103585813, -0.015042576, 0.000151076427, 918.1363    , 31.44644    , 823.5983    , 3.33        , 3           , 255         , 0           , 0
-0.143674165, 0.0948257446, -9.786372   , -0.000404968072, -1.18892058E-06, -0.000247013668, -0.0103625935, -0.0150426133, 0.000148606341, 918.1363    , 31.44644    , 823.598938  , 3.34        , 3           , 255         , 0           , 0
-0.155084223, 0.107221961 , -9.790572   , -0.0004708245, 0.0003258011, -0.0006829489, -0.0103671988, -0.0150394263, 0.000141742843, 918.1363    , 31.44644    , 823.599548  , 3.35        , 3           , 255         , 0           , 0
-0.152715534, 0.09231564  , -9.789904   , 0.0003622005, -3.49073962E-05, -0.0006045106, -0.0103634857, -0.0150398379, 0.00013570115, 918.1363    , 31.44644    , 823.600159  , 3.36        , 3           , 255         , 0           , 0
-0.142723635, 0.0992997438, -9.792088   , 0.000153838409, -5.87314426E-05, -0.000339026883, -0.0103618959, -0.0150404591, 0.00013231684, 918.1363    , 31.44644    , 823.600769  , 3.37        , 3           , 255         , 0           , 0
-0.1511109  , 0.10544318  , -9.80023    , -0.000196461362, -7.000024E-05, 0.000228202553, -0.0103638954, -0.0150411362, 0.000134606191, 918.1363    , 31.44644    , 823.6014    , 3.38        , 3           , 255         , 0           , 0
-0.138833761, 0.110038541 , -9.788192   , 0.000324898778, -7.949144E-05, 0.00066798547, -0.0103607466, -0.0150418617, 0.000141294513, 918.1363    , 31.44644    , 823.602     , 3.39        , 3           , 255         , 0           , 0
-0.1391414  , 0.112855315 , -9.78432    , -5.78795443E-05, 4.88915248E-05, -0.000213392253, -0.0103612924, -0.0150413942, 0.000139155454, 918.1363    , 31.44644    , 823.6026    , 3.4         , 3           , 255         , 0           , 0
-0.145138651, 0.111931063 , -9.789324   , 0.000103638828, 7.690658E-05, 5.99238265E-05, -0.0103676235, -0.0150377573, 0.000139857366, 918.1363    , 31.44644    , 823.638367  , 3.41        , 3           , 255         , 0           , 0
-0.1470302  , 0.102059267 , -9.78924751 , -7.977043E-05, -0.000351141964, -0.000111789821, -0.010368404, -0.01504128 , 0.000138775838, 918.1363    , 31.44644    , 823.63916   , 3.42        , 3           , 255         , 0           , 0
-0.147384658, 0.120117746 , -9.79417    , 9.90000844E-05, -0.000136078161, 3.867974E-05, -0.01036742 , -0.0150426356, 0.000139176758, 918.1473    , 31.4478645  , 823.64      , 3.43        , 3           , 255         , 0           , 0
-0.146882221, 0.108024381 , -9.78851    , 0.0002958822, -0.000280413369, -0.000859362539, -0.0103643322, -0.0150455292, 0.000130611908, 918.1473    , 31.4478645  , 823.640869  , 3.44        , 3           , 255         , 0           , 0
-0.1400253  , 0.103092574 , -9.782648   , 0.000450469757, 0.000152572233, -0.000472115556, -0.0103597557, -0.0150440522, 0.00012587478, 918.1473    , 31.4478645  , 823.6417    , 3.45        , 3           , 255         , 0           , 0
-0.135210872, 0.106754638 , -9.789472   , 0.000974240538, 0.000203055388, -0.000697519863, -0.0103499079, -0.0150420964, 0.000118878321, 918.1473    , 31.4478645  , 823.6426    , 3.46        , 3           , 255         , 0           , 0
-0.138444379, 0.09948857  , -9.782882   , 0.000288371375, 0.000618255232, 8.064275E-05, -0.0103470366, -0.0150359049, 0.000119620796, 918.1473    , 31.4478645  , 823.643433  , 3.47        , 3           , 255         , 0           , 0
-0.145596981, 0.106220946 , -9.787737   , 6.647539E-05, -0.000110171328, 0.00018689064, -0.0103464006, -0.0150369862, 0.000121501158, 918.1473    , 31.4478645  , 823.6443    , 3.48        , 3           , 255         , 0           , 0
-0.135271132, 0.110010043 , -9.790728   , -4.25671169E-05, 1.59468909E-05, 0.0005173837, -0.0103469044, -0.0150367739, 0.00012667352, 918.1473    , 31.4478645  , 823.645142  , 3.49        , 3           , 255         , 0           , 0
-0.1399789  , 0.09640911  , -9.79513    , 0.0005227858, 0.0003654458, 0.000311493844, -0.0103417216, -0.0150330868, 0.000129750784, 918.1473    , 31.4478645  , 823.646     , 3.5         , 3           , 255         , 0           , 0
-0.141700029, 0.09734605  , -9.799434   , 0.000866832444, 0.000125625636, 0.000503586954, -0.0103444271, -0.0150199952, 0.0001349435, 918.1473    , 31.4478645  , 823.6601    , 3.51        , 3           , 255         , 0           , 0
-0.150944784, 0.102288224 , -9.793715   , -0.000251031859, -6.52287854E-05, -0.000179302748, -0.0103469091, -0.0150206639, 0.000133157155, 918.1473    , 31.4478645  , 823.661     , 3.52        , 3           , 255         , 0           , 0
-0.146713525, 0.103749812 , -9.788687   , -0.0005505646, -0.000152416353, 1.06901389E-05, -0.0103524169, -0.0150221875, 0.000133279842, 918.1561    , 31.4490852  , 823.6619    , 3.53        , 3           , 255         , 0           , 0
-0.144314453, 0.108693376 , -9.787326   , -0.000233643717, -0.000151634507, -5.40734145E-05, -0.0103547452, -0.0150237093, 0.00013275478, 918.1561    , 31.4490852  , 823.662842  , 3.54        , 3           , 255         , 0           , 0
-0.141187549, 0.10083054  , -9.79454    , 0.000548127166, 0.000238358247, 0.000583081739, -0.0103493519, -0.0150212655, 0.000138561125, 918.1561    , 31.4490852  , 823.663757  , 3.55        , 3           , 255         , 0           , 0
-0.154200181, 0.09413055  , -9.796158   , 0.000390650355, 0.000544468639, -9.871741E-05, -0.01034543 , -0.0150158312, 0.000137517593, 918.1561    , 31.4490852  , 823.6647    , 3.56        , 3           , 255         , 0           , 0
-0.16054371 , 0.102269925 , -9.78926849 , 0.000712480862, 7.693042E-05, 5.69124022E-05, -0.0103383139, -0.0150150592, 0.000138078787, 918.1561    , 31.4490852  , 823.6656    , 3.57        , 3           , 255         , 0           , 0
-0.147968665, 0.110647842 , -9.798964   , 0.0006246215, 1.4044228E-05, -0.000102906823, -0.0103320526, -0.0150149278, 0.000137048235, 918.1561    , 31.4490852  , 823.6665    , 3.58        , 3           , 255         , 0           , 0
-0.1522703  , 0.11015413  , -9.787173   , 0.000395729672, -8.962283E-05, 0.000857047853, -0.0103282239, -0.0150157362, 0.000145628277, 918.1561    , 31.4490852  , 823.6674    , 3.59        , 3           , 255         , 0           , 0
-0.149041265, 0.11164806  , -9.789036   , 9.032279E-05, -1.50813139E-05, -9.062934E-05, -0.0103273075, -0.0150158964, 0.000144723512, 918.1561    , 31.4490852  , 823.668335  , 3.6         , 3           , 255         , 0           , 0
-0.147577092, 0.105054423 , -9.79944    , 0.000295125472, -0.00012816157, 0.000549107557, -0.010329105, -0.0150200566, 0.0001502981, 918.1561    , 31.4490852  , 823.6666    , 3.61        , 3           , 255         , 0           , 0
-0.143132687, 0.110984042 , -9.797637   , 0.0007123279, 0.0001865859, 0.000264884147, -0.0103220223, -0.0150181632, 0.000152927765, 918.1561    , 31.4490852  , 823.667542  , 3.62        , 3           , 255         , 0           , 0
-0.150452375, 0.109694444 , -9.78874    , 0.0007359735, -7.90180347E-05, -0.00019621168, -0.0103146331, -0.0150189735, 0.000150973749, 918.1402    , 31.4497643  , 823.668457  , 3.63        , 3           , 255         , 0           , 0
