Acc X       , Acc Y       , Acc Z       , Gyro X      , Gyro Y      , Gyro Z      , Euler X     , Euler Y     , Euler Z     , Pres X      , Pres Y      , Pres Z      , Time        , Status      , LowRate X   , LowRate Y   , LowRate Z    
-0.15844433 , 0.128731862 , -9.785103   , 0           , 0           , 0           , -0.0131551437, -0.0161895882, 0           , 923.6441    , 31.2667942  , 774.2736    , 0           , 2           , 0           , 5.48223162  , 0
-0.151203826, 0.1342429   , -9.795228   , 0.000234199149, -0.000460736075, 0.000133482725, -0.0131526273, -0.0161945727, 1.395457E-06, 923.6441    , 31.2667942  , 774.2736    , 0.01        , 3           , 1           , 0           , 0
-0.16394    , 0.1323973   , -9.789438   , 0.000326206326, 0.000116282317, 0.000650327769, -0.013149472, -0.0161933247, 7.883581E-06, 923.6441    , 31.2667942  , 774.2736    , 0.02        , 3           , 2           , 0           , 0
-0.164628178, 0.126042485 , -9.790714   , 9.317181E-05, 6.342113E-05, 0.000203151052, -0.0131485742, -0.0161926635, 9.906796E-06, 923.636     , 30.8304329  , 774.2736    , 0.03        , 3           , 3           , 0           , 0
-0.160863563, 0.131184265 , -9.785826   , 0.0002213571, 0.000236232212, -0.000158163821, -0.0131463334, -0.01619032 , 8.294057E-06, 923.636     , 30.8304329  , 774.2736    , 0.04        , 3           , 4           , 0           , 0
-0.16387108 , 0.13253209  , -9.791614   , 0.0003733895, -4.10416978E-05, -0.0002364335, -0.0131425606, -0.0161907654, 5.93507E-06 , 923.636     , 30.8304329  , 774.2736    , 0.05        , 3           , 5           , 0           , 0
-0.155807927, 0.136593491 , -9.792517   , 0.0003424845, 0.00022502942, 0.000139759941, -0.0131391585, -0.0161884949, 7.30311558E-06, 923.636     , 30.8304329  , 774.2736    , 0.06        , 3           , 6           , 0           , 0
-0.149997577, 0.1272434   , -9.789708   , 0.000177612732, 0.000309497031, -2.51286165E-05, -0.0131373787, -0.016185401, 7.01115869E-06, 923.636     , 30.8304329  , 774.2736    , 0.07        , 3           , 7           , 0           , 0
-0.1620175  , 0.128638953 , -9.786869   , -3.01812543E-06, 0.000115475443, 0.000257758016, -0.01313745 , -0.0161842126, 9.573614E-06, 923.636     , 30.8304329  , 774.2736    , 0.08        , 3           , 8           , 5           , 5
-0.155209184, 0.124383248 , -9.793044   , -0.000658608158, 0.000256054918, -5.99706036E-05, -0.0131440256, -0.0161816627, 8.940259E-06, 923.636     , 30.8304329  , 774.2736    , 0.09        , 3           , 9           , 5           , 0.1
-0.159111157, 0.122504316 , -9.785234   , -0.000155733986, -0.0003136047, 0.000617726764, -0.0131456833, -0.0161847174, 1.51588829E-05, 923.636     , 30.8304329  , 774.2736    , 0.1         , 3           , 10          , 0.1         , 0.1
-0.158368319, 0.13361676  , -9.783598   , -0.000248378, -0.000682962069, -0.000811891, -0.0131523237, -0.0161922853, 7.19902027E-06, 923.636     , 30.8304329  , 774.3451    , 0.11        , 3           , 11          , 0.0109544508, 0.0109544508
-0.157089636, 0.125575885 , -9.786553   , -6.87689462E-05, -0.0002050128, -0.0005060333, -0.013152929, -0.0161944  , 2.16554349E-06, 923.636     , 30.8304329  , 774.3451    , 0.12        , 3           , 12          , 0.174642488 , 0
-0.157519653, 0.119669057 , -9.78858948 , 7.889187E-05, 5.654758E-06, -0.0001177828, -0.0131521216, -0.0161943585, 9.869531E-07, 923.6149    , 30.86856    , 774.3451    , 0.13        , 3           , 13          , 0           , 0
-0.149246663, 0.133645445 , -9.793135   , 0.0001643624, -0.00010642712, 0.000457670947, -0.0131505523, -0.0161953624, 5.577746E-06, 923.6149    , 30.86856    , 774.3451    , 0.14        , 3           , 14          , -0.000443284662, -0.000304558955
-0.147420615, 0.123070955 , -9.79316    , 0.000116499577, -0.000118915748, 0.000335325254, -0.0131494412, -0.016196508, 8.946709E-06, 923.6149    , 30.86856    , 774.3451    , 0.15        , 3           , 15          , 0           , 2.85415972E-05
-0.14553    , 0.127945423 , -9.794493   , -0.000325416069, -0.00016218095, 0.000656096556, -0.0131528014, -0.0161980428, 1.55291182E-05, 923.6149    , 30.86856    , 774.3451    , 0.16        , 3           , 16          , 0           , 1.401298E-45
-0.158339724, 0.136538744 , -9.79409    , 0.000276765728, 2.6614056E-05, 0.000116837888, -0.0131500522, -0.0161977615, 1.66940154E-05, 923.6149    , 30.86856    , 774.3451    , 0.17        , 3           , 20          , 0           , 0
-0.158326909, 0.1263616   , -9.798199   , 0.000231876154, -0.000144968653, 0.000912570744, -0.0131478813, -0.0161990914, 2.58389555E-05, 923.6149    , 30.86856    , 774.3451    , 0.18        , 3           , 21          , 0           , 0
-0.157469869, 0.128258437 , -9.789519   , 0.000259928755, 0.000450352672, -0.000186145917, -0.0131452521, -0.0161946118, 2.39182573E-05, 923.6149    , 30.86856    , 774.3451    , 0.19        , 3           , 22          , 0           , 0
-0.152432412, 0.129728228 , -9.796739   , -0.000164254656, -0.0004422334, 0.00023700032, -0.0131469341, -0.0161990039, 2.63464553E-05, 923.6149    , 30.86856    , 774.3451    , 0.2         , 3           , 40          , 0           , 0
-0.15124397 , 0.127482086 , -9.797602   , -0.000487171434, -0.000651412643, 0.000208497222, -0.0131505113, -0.0161874928, 2.84956259E-05, 923.6149    , 30.86856    , 774.440552  , 0.21        , 3           , 41          , 0           , 0
-0.160830081, 0.132113919 , -9.794687   , -0.000683667837, -0.000121902005, -6.375443E-05, -0.0131573379, -0.0161887184, 2.78741E-05 , 923.6149    , 30.86856    , 774.4406    , 0.22        , 3           , 42          , 0           , 0
-0.156218082, 0.127043784 , -9.794673   , -0.000106847, 1.18321914E-05, -0.000190772233, -0.0131583745, -0.0161886234, 2.59647768E-05, 923.623535  , 30.89692    , 774.4407    , 0.23        , 3           , 255         , 0           , 0
-0.152119964, 0.1270957   , -9.791097   , -0.000208044279, -0.000156870432, 0.000162317854, -0.01316048 , -0.0161901712, 2.7608623E-05, 923.623535  , 30.89692    , 774.440735  , 0.24        , 3           , 255         , 0           , 0
-0.1636864  , 0.116479717 , -9.79488    , 0.000213409134, -0.000337428617, -0.00040397 , -0.0131582832, -0.0161935985, 2.36132582E-05, 923.623535  , 30.89692    , 774.4408    , 0.25        , 3           , 255         , 0           , 0
-0.16122362 , 0.132917851 , -9.788312   , -8.22451257E-05, 0.000165728852, -0.000182479765, -0.0131590748, -0.016191965, 2.17666184E-05, 923.623535  , 30.89692    , 774.440857  , 0.26        , 3           , 255         , 0           , 0
-0.163151085, 0.139557883 , -9.799924   , 0.0002473978, -2.78655789E-05, -0.000366285647, -0.0131565416, -0.0161922928, 1.81073574E-05, 923.623535  , 30.89692    , 774.4409    , 0.27        , 3           , 255         , 0           , 0
-0.152602032, 0.124771655 , -9.791006   , -8.4055966E-05, -9.23412445E-05, 0.000212007435, -0.0131574161, -0.0161931887, 2.02396168E-05, 923.623535  , 30.89692    , 774.441     , 0.28        , 3           , 255         , 0           , 0
-0.148901135, 0.13183403  , -9.789014   , 0.000522554154, -3.06420552E-05, 7.01640238E-06, -0.0131521933, -0.0161934923, 2.031382E-05, 923.623535  , 30.89692    , 774.44104   , 0.29        , 3           , 255         , 0           , 0
-0.162211269, 0.13722977  , -9.788579   , 0.000408096384, 0.000131992449, 0.000527275843, -0.013148197, -0.0161921028, 2.5569323E-05, 923.623535  , 30.89692    , 774.4411    , 0.3         , 3           , 255         , 0           , 0
-0.166208953, 0.134033948 , -9.782129   , 0.000570072967, -1.6396225E-06, 0.00023009727, -0.0131453229, -0.0161871519, 2.79157048E-05, 923.623535  , 30.89692    , 774.447144  , 0.31        , 3           , 255         , 0           , 0
-0.158418879, 0.131157026 , -9.789438   , 0.0007675154, -0.00014066443, 0.000259049732, -0.01313769 , -0.0161885209, 3.05247377E-05, 923.623535  , 30.89692    , 774.4472    , 0.32        , 3           , 255         , 0           , 0
-0.160833985, 0.133792073 , -9.78844    , -8.91934E-05, -0.000254980056, -0.000231407757, -0.0131385447, -0.0161910988, 2.82441251E-05, 923.6142    , 30.9134045  , 774.447266  , 0.33        , 3           , 255         , 0           , 0
-0.165466815, 0.126579851 , -9.799036   , 3.67205939E-05, 0.000260822766, -2.149816E-05, -0.0131381741, -0.0161884967, 2.79948745E-05, 923.6142    , 30.9134045  , 774.4473    , 0.34        , 3           , 255         , 0           , 0
-0.159552842, 0.120713815 , -9.791295   , -0.0003653561, 0.000481162453, 8.452489E-05, -0.0131418407, -0.0161836743, 2.877691E-05, 923.6142    , 30.9134045  , 774.4474    , 0.35        , 3           , 255         , 0           , 0
-0.163353592, 0.121999979 , -9.794645   , 0.0001733744, 0.0003849496, 0.0004082732, -0.0131401727, -0.01617977 , 3.280914E-05, 923.6142    , 30.9134045  , 774.447449  , 0.36        , 3           , 255         , 0           , 0
-0.16391781 , 0.119740881 , -9.790172   , 2.27938872E-05, 0.0003849869, 0.000539026 , -0.0131400311, -0.0161758531, 3.81489263E-05, 923.6142    , 30.9134045  , 774.4475    , 0.37        , 3           , 255         , 0           , 0
-0.16249831 , 0.126682848 , -9.793729   , -0.000426241138, 0.000320888823, 0.0005921734, -0.0131443888, -0.0161725637, 4.40285839E-05, 923.6142    , 30.9134045  , 774.4476    , 0.38        , 3           , 255         , 0           , 0
-0.157830328, 0.137071565 , -9.790949   , -0.000271865574, 0.00019924737, 7.60013863E-05, -0.01314712 , -0.0161705613, 4.476243E-05, 923.6142    , 30.9134045  , 774.447632  , 0.39        , 3           , 255         , 0           , 0
-0.160335869, 0.125137284 , -9.791471   , 0.000293205929, -0.000146307, -0.000153859728, -0.0131441643, -0.016172044, 4.324303E-05, 923.6142    , 30.9134045  , 774.4477    , 0.4         , 3           , 255         , 0           , 0
-0.160480753, 0.127082229 , -9.797113   , 0.000479424227, -2.78968655E-05, -9.83403952E-05, -0.0131355245, -0.016185442, 4.22012963E-05, 923.6142    , 30.9134045  , 774.471436  , 0.41        , 3           , 255         , 0           , 0
-0.1611265  , 0.143335432 , -9.792341   , 0.000325379951, -0.000395612937, 0.000213074018, -0.0131323067, -0.01618937 , 4.43840472E-05, 923.6142    , 30.9134045  , 774.4715    , 0.42        , 3           , 255         , 0           , 0
-0.155121237, 0.1310952   , -9.793905   , 0.000129929889, 3.083714E-05, -0.0001318734, -0.0131309861, -0.01618908 , 4.30612345E-05, 923.5954    , 30.9211388  , 774.471558  , 0.43        , 3           , 255         , 0           , 0
-0.157560736, 0.142043322 , -9.786295   , 0.000277670653, 0.000373772316, -0.000152261549, -0.0131281847, -0.0161853638, 4.148953E-05, 923.5954    , 30.9211388  , 774.4716    , 0.44        , 3           , 255         , 0           , 0
-0.162269533, 0.1398703   , -9.78913    , -0.000479397771, 4.501833E-05, -5.79920743E-05, -0.0131329689, -0.0161849167, 4.09036766E-05, 923.5954    , 30.9211388  , 774.4717    , 0.45        , 3           , 255         , 0           , 0
-0.15366286 , 0.132894084 , -9.782608   , 0.0003901289, -0.000443208875, -0.0004364557, -0.0131289978, -0.01618941 , 3.65972373E-05, 923.5954    , 30.9211388  , 774.471741  , 0.46        , 3           , 255         , 0           , 0
-0.162776709, 0.13396579  , -9.7923     , 0.000314332632, -0.0005384105, -0.000709918444, -0.0131257409, -0.0161948837, 2.956858E-05, 923.5954    , 30.9211388  , 774.4718    , 0.47        , 3           , 255         , 0           , 0
-0.156065866, 0.125777423 , -9.793467   , -0.000399786863, -0.000125332066, -0.0001923145, -0.0131297065, -0.01619616 , 2.7661843E-05, 923.5954    , 30.9211388  , 774.471863  , 0.48        , 3           , 255         , 0           , 0
-0.150536463, 0.126666784 , -9.789744   , -0.000363929081, 0.000133376641, -0.000122464684, -0.0131333238, -0.0161948428, 2.64196369E-05, 923.5954    , 30.9211388  , 774.4719    , 0.49        , 3           , 255         , 0           , 0
-0.156387165, 0.116048053 , -9.78977    , -0.0002673684, 0.000367342145, -0.000671671354, -0.0131358886, -0.016191259, 1.96545534E-05, 923.5954    , 30.9211388  , 774.472     , 0.5         , 3           , 255         , 0           , 0
-0.165892348, 0.116159223 , -9.784972   , 6.541173E-06, 0.000244594878, 0.000118478667, -0.01314881 , -0.0161853041, 2.10171274E-05, 923.5954    , 30.9211388  , 774.521057  , 0.51        , 3           , 255         , 0           , 0
-0.16234535 , 0.127050921 , -9.7919445  , 0.000228863209, 0.000434864633, 6.919405E-05, -0.0131465336, -0.0161809474, 2.16519056E-05, 923.5954    , 30.9211388  , 774.5211    , 0.52        , 3           , 255         , 0           , 0
-0.154797643, 0.128506258 , -9.791273   , 0.0003146277, 0.0005224311, -0.00013286047, -0.0131433643, -0.0161757413, 2.02545943E-05, 923.6525    , 30.93118    , 774.5212    , 0.53        , 3           , 255         , 0           , 0
-0.159079283, 0.127711475 , -9.786489   , 0.0003416508, 4.321462E-05, 0.000239753761, -0.0131399874, -0.0161752775, 2.26465072E-05, 923.6525    , 30.93118    , 774.5213    , 0.54        , 3           , 255         , 0           , 0
-0.157948673, 0.133753985 , -9.786757   , -9.32781E-05, 4.32292E-05 , 0.0005459116, -0.0131410072, -0.0161747746, 2.81000484E-05, 923.6525    , 30.93118    , 774.5214    , 0.55        , 3           , 255         , 0           , 0
-0.158214957, 0.129169554 , -9.789999   , 0.00018657188, 9.967422E-06, -2.53745056E-05, -0.013139138, -0.0161746778, 2.78449861E-05, 923.6525    , 30.93118    , 774.521545  , 0.56        , 3           , 255         , 0           , 0
-0.154642254, 0.1254137   , -9.79663    , 0.00022438493, 0.00061811303, -0.000273227546, -0.0131368488, -0.016168531, 2.50314552E-05, 923.6525    , 30.93118    , 774.521667  , 0.57        , 3           , 255         , 0           , 0
-0.157665282, 0.128598347 , -9.800853   , 9.669864E-06, 6.09184062E-05, -0.000311493641, -0.0131367017, -0.0161679629, 2.19084523E-05, 923.6525    , 30.93118    , 774.5218    , 0.58        , 3           , 255         , 0           , 0
-0.154507756, 0.137521982 , -9.800284   , 0.000160905736, -0.000183080876, 2.02433512E-06, -0.0131350942, -0.0161697939, 2.19527483E-05, 923.6525    , 30.93118    , 774.5219    , 0.59        , 3           , 255         , 0           , 0
-0.166581064, 0.131801635 , -9.790177   , -0.000205112068, 1.10577093E-06, -0.000272069563, -0.0131370993, -0.01616982 , 1.92318457E-05, 923.6525    , 30.93118    , 774.522034  , 0.6         , 3           , 255         , 0           , 0
-0.1506452  , 0.114735566 , -9.79068    , 7.660451E-05, 0.000272814184, -0.000269237818, -0.01313591 , -0.0161697268, 1.64974172E-05, 923.6525    , 30.93118    , 774.4656    , 0.61        , 3           , 255         , 0           , 0
-0.165008575, 0.124005713 , -9.794563   , 0.000663818733, 0.000199613016, -0.000275798346, -0.0131292269, -0.0161677711, 1.37131656E-05, 923.6525    , 30.93118    , 774.465637  , 0.62        , 3           , 255         , 0           , 0
-0.1656625  , 0.116596937 , -9.789672   , -0.000228663848, 6.74551557E-05, -0.0005179398, -0.0131314294, -0.01616716 , 8.524804E-06, 923.632935  , 30.93681    , 774.4657    , 0.63        , 3           , 255         , 0           , 0
-0.158745721, 0.118812583 , -9.78844    , 1.33030117E-05, -7.1833696E-05, 0.000172681684, -0.0131313242, -0.0161678568, 1.02610893E-05, 923.632935  , 30.93681    , 774.465759  , 0.64        , 3           , 255         , 0           , 0
-0.163870171, 0.126065284 , -9.79237    , -5.739025E-05, -0.000149819447, 0.00053283677, -0.0131319836, -0.0161692835, 1.56092246E-05, 923.632935  , 30.93681    , 774.4658    , 0.65        , 3           , 255         , 0           , 0
-0.155629709, 0.126492426 , -9.797369   , 1.89367856E-05, 0.0005775861, -0.000254294224, -0.0131317535, -0.016163541, 1.2990381E-05, 923.632935  , 30.93681    , 774.465942  , 0.66        , 3           , 255         , 0           , 0
-0.16110608 , 0.130531877 , -9.79381752 , -0.000213142368, 0.000339161139, 0.00010884014, -0.0131339  , -0.0161601361, 1.40342454E-05, 923.632935  , 30.93681    , 774.466064  , 0.67        , 3           , 255         , 0           , 0
-0.162324309, 0.12561813  , -9.7912035  , -5.84815862E-05, -0.000305745838, 0.000299064181, -0.0131345354, -0.0161631536, 1.70651147E-05, 923.632935  , 30.93681    , 774.4662    , 0.68        , 3           , 255         , 0           , 0
-0.157781273, 0.124293983 , -9.795881   , -0.0004417891, 0.000115571675, -0.000263520342, -0.01313891 , -0.0161620341, 1.44146679E-05, 923.632935  , 30.93681    , 774.4663    , 0.69        , 3           , 255         , 0           , 0
-0.1637563  , 0.132248133 , -9.797875   , -0.0008878295, 0.000211265156, -0.000153447982, -0.0131477611, -0.0161599424, 1.2852387E-05, 923.632935  , 30.93681    , 774.466431  , 0.7         , 3           , 255         , 0           , 0
-0.153335482, 0.1330095   , -9.793032   , -0.000178405433, 2.7139904E-06, -0.000397414551, -0.0131351585, -0.0161663536, 8.646233E-06, 923.632935  , 30.93681    , 774.4525    , 0.71        , 3           , 255         , 0           , 0
-0.157503366, 0.137489766 , -9.786435   , 0.00051050185, 1.568388E-05, -0.000342532061, -0.0131299971, -0.0161662418, 5.218788E-06, 923.632935  , 30.93681    , 774.452637  , 0.72        , 3           , 255         , 0           , 0
-0.16071853 , 0.130481482 , -9.787425   , -0.0007508852, 0.00023574369, 0.000132774454, -0.0131375277, -0.016163867, 6.51560549E-06, 923.6577    , 30.9398632  , 774.452759  , 0.73        , 3           , 255         , 0           , 0
-0.154714733, 0.121714488 , -9.796507   , -0.000292771263, 0.0003661473, 0.0006699453, -0.0131405629, -0.01616012 , 1.31670777E-05, 923.6577    , 30.9398632  , 774.4529    , 0.74        , 3           , 255         , 0           , 0
-0.158273086, 0.1257899   , -9.791548   , -7.015234E-05, 0.000160059208, -4.66404927E-05, -0.0131412568, -0.0161585249, 1.2679634E-05, 923.6577    , 30.9398632  , 774.453     , 0.75        , 3           , 255         , 0           , 0
-0.166172773, 0.134977266 , -9.797418   , -0.000382294646, -0.000357432757, -0.000526304, -0.0131449942, -0.0161621664, 7.46345859E-06, 923.6577    , 30.9398632  , 774.4531    , 0.76        , 3           , 255         , 0           , 0
-0.154507324, 0.133009121 , -9.793364   , -0.0005213047, 0.000255196064, -0.0008044094, -0.0131500755, -0.0161597189, -6.14353E-07, 923.6577    , 30.9398632  , 774.453247  , 0.77        , 3           , 255         , 0           , 0
-0.160245508, 0.135711908 , -9.790686   , 7.59198156E-05, 0.000215681546, -0.000558564556, -0.013149227, -0.0161576346, -6.22845846E-06, 923.6577    , 30.9398632  , 774.453369  , 0.78        , 3           , 255         , 0           , 0
-0.165819019, 0.133458644 , -9.782391   , 0.000115390139, -0.000214834989, 0.000807237462, -0.0131482035, -0.0161596779, 1.87231944E-06, 923.6577    , 30.9398632  , 774.4535    , 0.79        , 3           , 255         , 0           , 0
-0.15665774 , 0.12914     , -9.784169   , 9.760729E-05, 0.000307613431, 0.0003819439, -0.01314729 , -0.0161565542, 5.651384E-06, 923.6577    , 30.9398632  , 774.4536    , 0.8         , 3           , 255         , 0           , 0
-0.153142333, 0.124719083 , -9.784001   , -6.69623259E-05, -0.00037352962, -0.0005219792, -0.0131581509, -0.0161624122, 6.46662443E-07, 923.6577    , 30.9398632  , 774.412048  , 0.81        , 3           , 255         , 0           , 0
-0.163143009, 0.135614425 , -9.789806   , 0.000338975282, -0.000433010457, 0.0002428947, -0.0131548  , -0.01616671 , 3.13263627E-06, 923.6577    , 30.9398632  , 774.4121    , 0.82        , 3           , 255         , 0           , 0
-0.15739724 , 0.132047847 , -9.797093   , 0.000407886022, 0.0001614124, 0.0002169358, -0.0131507562, -0.0161650684, 5.280809E-06, 923.610535  , 30.9426441  , 774.4122    , 0.83        , 3           , 255         , 0           , 0
-0.163434178, 0.127043158 , -9.788764   , -0.000267895928, 4.93289554E-05, -0.0004786763, -0.0131533584, -0.0161646381, 4.874655E-07, 923.610535  , 30.9426441  , 774.412231  , 0.84        , 3           , 255         , 0           , 0
-0.156852379, 0.13247326  , -9.787134   , -0.0002874969, 4.498288E-06, 0.0005935278, -0.0131563293, -0.0161645152, 6.422272E-06, 923.610535  , 30.9426441  , 774.4123    , 0.85        , 3           , 255         , 0           , 0
-0.160436392, 0.133651018 , -9.800594   , 0.000316699472, -0.000287546951, 0.0009908341, -0.013153323, -0.01616726 , 1.636864E-05, 923.610535  , 30.9426441  , 774.412354  , 0.86        , 3           , 255         , 0           , 0
-0.156669065, 0.138158724 , -9.794723   , 0.000216696208, -0.000276639883, 0.000452794367, -0.0131512294, -0.0161699634, 2.09330337E-05, 923.610535  , 30.9426441  , 774.4124    , 0.87        , 3           , 255         , 0           , 0
-0.161410242, 0.134176642 , -9.803452   , 0.0002539396, 0.000224087882, -0.0005130777, -0.0131486058, -0.01616779 , 1.57726918E-05, 923.610535  , 30.9426441  , 774.4125    , 0.88        , 3           , 255         , 0           , 0
-0.157471731, 0.12684536  , -9.798051   , 0.000469147955, 0.0002689089, -0.0003856205, -0.0131438542, -0.0161651522, 1.18810676E-05, 923.610535  , 30.9426441  , 774.412537  , 0.89        , 3           , 255         , 0           , 0
-0.164779112, 0.127400652 , -9.79138    , 0.000289346732, 7.38160743E-05, -0.000474586152, -0.0131408833, -0.0161644742, 7.125404E-06, 923.610535  , 30.9426441  , 774.4126    , 0.9         , 3           , 255         , 0           , 0
-0.172825575, 0.128246158 , -9.790392   , -9.057124E-05, -0.000505589647, -0.0008294927, -0.013148305, -0.01617283 , -9.956923E-07, 923.610535  , 30.9426441  , 774.4336    , 0.91        , 3           , 255         , 0           , 0
-0.163204446, 0.129856735 , -9.80063152 , 0.000485424971, 0.000211210208, -0.00022640299, -0.0131434156, -0.01617075 , -3.28753981E-06, 923.610535  , 30.9426441  , 774.4337    , 0.92        , 3           , 255         , 0           , 0
-0.163126782, 0.130098045 , -9.791713   , 0.0007656721, 0.000186099453, 6.489299E-05, -0.0131357685, -0.01616888 , -2.663043E-06, 923.623657  , 30.9469185  , 774.433838  , 0.93        , 3           , 255         , 0           , 0
-0.1555939  , 0.13225621  , -9.789404   , 0.000354324147, 4.36456467E-05, -0.0003241845, -0.0131321726, -0.0161684845, -5.91068374E-06, 923.623657  , 30.9469185  , 774.43396   , 0.94        , 3           , 255         , 0           , 0
-0.163278848, 0.134023875 , -9.784867   , 0.000412308 , 0.0003710512, -8.038421E-05, -0.0131280376, -0.0161647853, -6.763268E-06, 923.623657  , 30.9469185  , 774.4341    , 0.95        , 3           , 255         , 0           , 0
-0.166392609, 0.130403474 , -9.796907   , 0.000404526276, 0.000253342441, -0.000164208, -0.0131239658, -0.0161622763, -8.438622E-06, 923.623657  , 30.9469185  , 774.4342    , 0.96        , 3           , 255         , 0           , 0
-0.161955744, 0.123224318 , -9.792901   , 0.000412835943, -0.0001228562, 0.000260625675, -0.013119881, -0.0161634684, -5.8161927E-06, 923.623657  , 30.9469185  , 774.4343    , 0.97        , 3           , 255         , 0           , 0
-0.162877634, 0.136369467 , -9.795119   , 5.557298E-05, 3.149401E-05, 0.0004274488, -0.0131193949, -0.0161630977, -1.54576082E-06, 923.623657  , 30.9469185  , 774.434448  , 0.98        , 3           , 255         , 0           , 0
-0.161564857, 0.138218716 , -9.790083   , 0.0006444121, 1.378794E-05, -9.029105E-05, -0.0131129352, -0.016162971, -2.45050637E-06, 923.623657  , 30.9469185  , 774.4346    , 0.99        , 3           , 255         , 0           , 0
-0.158402056, 0.126086071 , -9.791027   , 7.32272747E-06, -0.000269085256, 0.000558437547, -0.013112952, -0.0161655881, 3.16926844E-06, 923.623657  , 30.9469185  , 774.4347    , 1           , 3           , 0           , 6.48223639  , 100
-0.164977819, 0.127785712 , -9.788981   , -2.674997E-05, -1.77510665E-05, 0.00131057249, -0.0131202079, -0.0161791071, 1.63872064E-05, 923.623657  , 30.9469185  , 774.437561  , 1.01        , 3           , 1           , 0           , 0
-0.161233142, 0.125347748 , -9.785949   , 0.000554079248, -0.000165852573, 0.000849541044, -0.0131148053, -0.0161806513, 2.49045279E-05, 923.623657  , 30.9469185  , 774.4377    , 1.02        , 3           , 2           , 0           , 0
-0.1590673  , 0.125877708 , -9.789483   , 5.212397E-05, -8.87539645E-05, 0.000200733863, -0.0131143145, -0.0161815118, 2.69235352E-05, 923.5671    , 30.9444084  , 774.4378    , 1.03        , 3           , 3           , 0           , 0
-0.159952968, 0.123769082 , -9.794725   , 0.000190737745, -1.13942369E-05, -0.000236794571, -0.013112369, -0.0161816571, 2.45570482E-05, 923.5671    , 30.9444084  , 774.4379    , 1.04        , 3           , 4           , 0           , 0
-0.160101175, 0.125069141 , -9.794295   , 0.00012109417, 0.000156923255, 0.000125310326, -0.0131111788, -0.016180072, 2.57895972E-05, 923.5671    , 30.9444084  , 774.438049  , 1.05        , 3           , 5           , 0           , 0
-0.157313585, 0.12794961  , -9.801561   , 0.000178914575, -0.000122911908, -5.767849E-05, -0.0131093813, -0.0161813069, 2.52289174E-05, 923.5671    , 30.9444084  , 774.4382    , 1.06        , 3           , 6           , 0           , 0
-0.1608363  , 0.126006275 , -9.798268   , 1.15555013E-05, -1.21848716E-05, -0.000272318925, -0.0131092211, -0.0161814652, 2.25072727E-05, 923.5671    , 30.9444084  , 774.4383    , 1.07        , 3           , 7           , 0           , 0
-0.162571281, 0.1263843   , -9.793226   , 0.000455128029, -0.0001913193, -0.000213218416, -0.0131046334, -0.0161834061, 2.04001135E-05, 923.5671    , 30.9444084  , 774.4384    , 1.08        , 3           , 8           , 5           , 5
-0.163432688, 0.128878787 , -9.795375   , -0.000229620142, -3.104197E-05, -0.000212337764, -0.0131068956, -0.0161837451, 1.8280758E-05, 923.5671    , 30.9444084  , 774.438538  , 1.09        , 3           , 9           , 5           , 0.1
-0.163009763, 0.119316734 , -9.791364   , -0.000200114679, -4.15016839E-05, -0.0006246348, -0.0131087983, -0.0161842424, 1.20397362E-05, 923.5671    , 30.9444084  , 774.43866   , 1.1         , 3           , 10          , 0.1         , 0.1
-0.158312917, 0.116188571 , -9.786756   , -8.42905138E-05, 0.0004376321, -0.0007034399, -0.0131020518, -0.01618739 , 4.826826E-06, 923.5671    , 30.9444084  , 774.5004    , 1.11        , 3           , 11          , 0.009151868 , 0.009151867
-0.146562383, 0.121622324 , -9.784599   , 0.000437695271, -9.5867E-05 , -0.000124114347, -0.013097655, -0.0161883645, 3.59821456E-06, 923.5671    , 30.9444084  , 774.500732  , 1.12        , 3           , 12          , 0.174642846 , 0
-0.157777578, 0.120261393 , -9.787547   , 0.0004713993, 2.24665564E-05, -0.000474241882, -0.0130928662, -0.0161882  , -1.14723423E-06, 923.6511    , 30.9505138  , 774.501038  , 1.13        , 3           , 13          , 0           , 0
-0.15556635 , 0.135460347 , -9.792743   , 3.34745855E-05, 0.000170808577, 7.329986E-05, -0.0130925421, -0.0161864851, -4.36600061E-07, 923.6511    , 30.9505138  , 774.501343  , 1.14        , 3           , 14          , -0.000443276134, -0.000304522837
-0.154590726, 0.131883442 , -9.79723    , 4.497313E-05, 0.000130868691, -0.000501209463, -0.0130920112, -0.016185239, -5.46594265E-06, 923.6511    , 30.9505138  , 774.501648  , 1.15        , 3           , 15          , 0           , 2.854194E-05
-0.15849185 , 0.129836529 , -9.789105   , 0.000263102527, 0.00027369053, -0.000593274948, -0.0130892834, -0.01618258 , -1.14346458E-05, 923.6511    , 30.9505138  , 774.501953  , 1.16        , 3           , 16          , 0           , 1.401298E-45
-0.154996574, 0.135171726 , -9.787877   , 0.000288716139, 0.000137609779, 0.0004600684, -0.0130864708, -0.016181143, -6.851881E-06, 923.6511    , 30.9505138  , 774.502258  , 1.17        , 3           , 20          , 0           , 0
-0.159551278, 0.133158848 , -9.796026   , 0.0006475861, 0.000118360389, 0.000259971217, -0.0130800381, -0.0161799286, -4.267609E-06, 923.6511    , 30.9505138  , 774.502563  , 1.18        , 3           , 21          , 0           , 0
-0.158619672, 0.128199369 , -9.788458   , -0.000161137374, 0.000215007385, 0.0004506699, -0.013081722, -0.0161777176, 2.11052225E-07, 923.6511    , 30.9505138  , 774.502869  , 1.19        , 3           , 22          , 0           , 0
-0.1603556  , 0.118913747 , -9.793007   , 0.000101265876, 0.000190318227, 0.000182746138, -0.0130807385, -0.01617579 , 2.01365924E-06, 923.6511    , 30.9505138  , 774.5032    , 1.2         , 3           , 40          , 0           , 0
-0.162386   , 0.1302074   , -9.80786    , -0.0003190128, -0.000287518225, -0.000327803165, -0.0130802346, -0.01617215 , -1.28571332E-06, 923.6511    , 30.9505138  , 774.4702    , 1.21        , 3           , 41          , 0           , 0
-0.165750533, 0.13465035  , -9.792087   , 0.000309309544, -0.00023190878, 0.000162859622, -0.0130771678, -0.0161744487, 3.73239942E-07, 923.6511    , 30.9505138  , 774.470459  , 1.22        , 3           , 42          , 0           , 0
-0.158520967, 0.1325635   , -9.77784    , 2.2367225E-05, -0.000246720418, -0.000230938924, -0.013076907, -0.0161769446, -1.90392336E-06, 923.688965  , 30.9509888  , 774.4707    , 1.23        , 3           , 255         , 0           , 0
-0.157450438, 0.131286353 , -9.788659   , 0.000446007733, -6.478981E-05, -8.310758E-05, -0.013072433, -0.016177604, -2.72654165E-06, 923.688965  , 30.9509888  , 774.470947  , 1.24        , 3           , 255         , 0           , 0
-0.1582859  , 0.1422101   , -9.786367   , 3.95576644E-05, -2.538826E-05, 0.0003483665, -0.013072093, -0.01617781 , 7.605098E-07, 923.688965  , 30.9509888  , 774.4712    , 1.25        , 3           , 255         , 0           , 0
-0.147839874, 0.131684855 , -9.788328   , 4.62304452E-05, -0.000245304283, 0.000387420383, -0.0130716953, -0.0161802135, 4.666857E-06, 923.688965  , 30.9509888  , 774.471436  , 1.26        , 3           , 255         , 0           , 0
-0.164304525, 0.127222747 , -9.79493    , 0.000475617737, 0.000211301929, 0.0003088381, -0.0130669884, -0.01617806 , 7.727685E-06, 923.688965  , 30.9509888  , 774.4717    , 1.27        , 3           , 255         , 0           , 0
-0.157717034, 0.120756447 , -9.793065   , 0.0002141588, -0.000102121558, -0.000288424169, -0.0130648017, -0.0161791183, 4.85672626E-06, 923.688965  , 30.9509888  , 774.4719    , 1.28        , 3           , 255         , 0           , 0
-0.15575543 , 0.1232581   , -9.788624   , -0.00043152523, -4.988062E-05, 0.0002815232, -0.01306916 , -0.01617958 , 7.67853E-06 , 923.688965  , 30.9509888  , 774.472168  , 1.29        , 3           , 255         , 0           , 0
-0.1672341  , 0.12559469  , -9.799776   , -0.000200051174, 0.00027754085, 0.0008665319, -0.0130713  , -0.0161766931, 1.63077439E-05, 923.688965  , 30.9509888  , 774.4724    , 1.3         , 3           , 255         , 0           , 0
-0.158989668, 0.133604452 , -9.786811   , 0.0003518146, 2.33930186E-05, 0.0003105832, -0.0130733019, -0.01617949 , 1.94990716E-05, 923.688965  , 30.9509888  , 774.404358  , 1.31        , 3           , 255         , 0           , 0
-0.153694123, 0.129913509 , -9.788262   , 1.46036036E-05, 0.00010348676, 0.0004966502, -0.0130732358, -0.01617839 , 2.44521434E-05, 923.688965  , 30.9509888  , 774.404358  , 1.32        , 3           , 255         , 0           , 0
-0.152328789, 0.124277614 , -9.785825   , -0.000124416576, 0.0002289491, 0.000346405344, -0.0130745359, -0.0161760561, 2.78863281E-05, 923.6243    , 30.95282    , 774.404358  , 1.33        , 3           , 255         , 0           , 0
-0.15419066 , 0.1330274   , -9.793085   , -0.000257267064, 0.000131834 , -0.0009025912, -0.013076962, -0.0161748566, 1.88430058E-05, 923.6243    , 30.95282    , 774.404358  , 1.34        , 3           , 255         , 0           , 0
-0.161328644, 0.138167858 , -9.792295   , -0.000258703163, -0.000272032368, -0.00015510786, -0.0130795259, -0.0161775984, 1.7327473E-05, 923.6243    , 30.95282    , 774.404358  , 1.35        , 3           , 255         , 0           , 0
-0.155294061, 0.131139547 , -9.788609   , -0.00030263004, -9.6425385E-05, 0.000394949282, -0.013082616, -0.0161785111, 2.1289663E-05, 923.6243    , 30.95282    , 774.404358  , 1.36        , 3           , 255         , 0           , 0
-0.153694659, 0.1294097   , -9.796085   , -0.000619975035, 0.000220888862, -0.000110987559, -0.0130887944, -0.0161763169, 2.01508556E-05, 923.6243    , 30.95282    , 774.404358  , 1.37        , 3           , 255         , 0           , 0
-0.157648653, 0.14051275  , -9.792059   , -0.0007670622, 0.000253128266, 0.000482989562, -0.013096543, -0.0161737241, 2.4947698E-05, 923.6243    , 30.95282    , 774.404358  , 1.38        , 3           , 255         , 0           , 0
-0.168940008, 0.136445716 , -9.781149   , 0.000317273254, 7.081697E-05, 0.000361605082, -0.0130934305, -0.0161729679, 2.85545484E-05, 923.6243    , 30.95282    , 774.404358  , 1.39        , 3           , 255         , 0           , 0
-0.160503775, 0.1257534   , -9.784092   , -0.000204459851, 7.86926248E-05, 0.000475205161, -0.01309555 , -0.0161721166, 3.32963937E-05, 923.6243    , 30.95282    , 774.404358  , 1.4         , 3           , 255         , 0           , 0
-0.161224008, 0.132690057 , -9.803568   , 6.162774E-05, 0.000163176315, -0.000866025162, -0.01310939 , -0.0161681082, 2.48505858E-05, 923.6243    , 30.95282    , 774.409668  , 1.41        , 3           , 255         , 0           , 0
-0.164717823, 0.138780639 , -9.802226   , 9.615417E-05, 0.0004841683, -0.000143190424, -0.0131084053, -0.0161632877, 2.33551946E-05, 923.6243    , 30.95282    , 774.409668  , 1.42        , 3           , 255         , 0           , 0
-0.156382233, 0.124495387 , -9.79384    , -0.0001886655, 0.000129605134, 0.000472300424, -0.0131103676, -0.01616193 , 2.80613021E-05, 923.580444  , 30.95092    , 774.409668  , 1.43        , 3           , 255         , 0           , 0
-0.1642261  , 0.121626593 , -9.794255   , 0.000123326288, -6.959695E-05, 3.904763E-05, -0.013109142, -0.01616262 , 2.84609068E-05, 923.580444  , 30.95092    , 774.409668  , 1.44        , 3           , 255         , 0           , 0
-0.156574443, 0.127271742 , -9.788391   , -0.000209860591, -6.00465573E-05, 0.00041010158, -0.0131113054, -0.0161631666, 3.25698857E-05, 923.580444  , 30.95092    , 774.409668  , 1.45        , 3           , 255         , 0           , 0
-0.150265858, 0.127844661 , -9.792865   , 0.000101187878, 4.224715E-05, 0.000132269241, -0.0131103154, -0.0161627289, 3.38870668E-05, 923.580444  , 30.95092    , 774.4097    , 1.46        , 3           , 255         , 0           , 0
-0.1519047  , 0.128737718 , -9.793974   , -0.0004134402, -0.000505219563, -0.0003155728, -0.0131143993, -0.0161678214, 3.0797517E-05, 923.580444  , 30.95092    , 774.4098    , 1.47        , 3           , 255         , 0           , 0
-0.160900161, 0.126387388 , -9.793956   , -0.000341525039, -0.000130485365, -0.000126210653, -0.0131177949, -0.016169142, 2.955251E-05, 923.580444  , 30.95092    , 774.409851  , 1.48        , 3           , 255         , 0           , 0
-0.159076855, 0.123064257 , -9.786311   , 0.000138143456, 0.00011042149, -0.000102539881, -0.013116396, -0.0161680523, 2.85126E-05 , 923.580444  , 30.95092    , 774.4099    , 1.49        , 3           , 255         , 0           , 0
-0.156257465, 0.127268612 , -9.7955265  , -3.71567439E-05, -7.919676E-05, -3.45676781E-05, -0.013116762, -0.0161688477, 2.81773046E-05, 923.580444  , 30.95092    , 774.41      , 1.5         , 3           , 255         , 0           , 0
-0.151585445, 0.125369549 , -9.800763   , 0.00020983642, 0.0004800791, 0.0002302884, -0.0131133618, -0.0161636118, 3.03956258E-05, 923.580444  , 30.95092    , 774.4608    , 1.51        , 3           , 255         , 0           , 0
-0.158506319, 0.12451639  , -9.795898   , 0.00025347108, -0.000227010285, -7.950929E-05, -0.0131108137, -0.0161658917, 2.96302769E-05, 923.580444  , 30.95092    , 774.4611    , 1.52        , 3           , 255         , 0           , 0
-0.167430952, 0.128040582 , -9.796278   , 0.0007543218, 2.12670129E-05, 0.000197119327, -0.0131033044, -0.0161656514, 3.15987272E-05, 923.563232  , 30.953907   , 774.4614    , 1.53        , 3           , 255         , 0           , 0
-0.157693654, 0.132848263 , -9.789026   , 0.000235748332, 1.63594959E-05, -7.109968E-05, -0.0131009361, -0.0161655024, 3.088558E-05, 923.563232  , 30.953907   , 774.461731  , 1.54        , 3           , 255         , 0           , 0
-0.160429731, 0.134088635 , -9.805349   , -0.000400141522, -9.358837E-05, 0.0003897891, -0.0131049985, -0.0161663834, 3.47958121E-05, 923.563232  , 30.953907   , 774.462036  , 1.55        , 3           , 255         , 0           , 0
-0.158147424, 0.1379455   , -9.79124451 , -0.000235262152, -0.000178637187, 0.000557605 , -0.0131074423, -0.016168097, 4.039538E-05, 923.563232  , 30.953907   , 774.462341  , 1.56        , 3           , 255         , 0           , 0
-0.148786187, 0.129636109 , -9.795541   , -0.0002572807, 0.00020243114, 0.000286800932, -0.01311006 , -0.0161660351, 4.32369052E-05, 923.563232  , 30.953907   , 774.462646  , 1.57        , 3           , 255         , 0           , 0
-0.152027488, 0.127929762 , -9.798676   , 0.000100312551, -8.77615239E-05, 0.000925644068, -0.0131092072, -0.0161667913, 5.25050345E-05, 923.563232  , 30.953907   , 774.462952  , 1.58        , 3           , 255         , 0           , 0
-0.157994732, 0.124208644 , -9.799541   , 2.56507483E-05, -0.00022887782, 0.00132908742, -0.0131091662, -0.0161689036, 6.582618E-05, 923.563232  , 30.953907   , 774.463257  , 1.59        , 3           , 255         , 0           , 0
-0.144591033, 0.116659664 , -9.792567   , 7.652957E-05, 0.000106262843, -0.0005563087, -0.01310831 , -0.0161679145, 6.02490436E-05, 923.563232  , 30.953907   , 774.463562  , 1.6         , 3           , 255         , 0           , 0
-0.154278547, 0.123008057 , -9.79277    , 0.0004271859, -0.000118911761, 0.000139395852, -0.0131035727, -0.0161638614, 6.165072E-05, 923.563232  , 30.953907   , 774.528259  , 1.61        , 3           , 255         , 0           , 0
-0.164202   , 0.125558376 , -9.798873   , 0.000547755044, -0.000151752058, 0.000444330246, -0.0130981682, -0.0161653161, 6.611399E-05, 923.563232  , 30.953907   , 774.5289    , 1.62        , 3           , 255         , 0           , 0
-0.15616478 , 0.127940387 , -9.787981   , -0.000407311716, 0.000272041361, -0.000519923749, -0.013102157, -0.0161626637, 6.087901E-05, 923.6511    , 30.9534988  , 774.5295    , 1.63        , 3           , 255         , 0           , 0
-0.166011184, 0.123483554 , -9.794191   , -0.000428800238, 0.0002230187, 3.285955E-05, -0.0131064486, -0.01616043 , 6.117839E-05, 923.6511    , 30.9534988  , 774.5301    , 1.64        , 3           , 255         , 0           , 0
-0.160984546, 0.128349453 , -9.790143   , -0.000240805268, 5.266411E-05, 0.000268511474, -0.0131089  , -0.01615987 , 6.385665E-05, 923.6511    , 30.9534988  , 774.5307    , 1.65        , 3           , 255         , 0           , 0
-0.164104491, 0.135216385 , -9.79534149 , 0.0005804558, -0.000271255, -0.0005899545, -0.0131030018, -0.0161626581, 5.79925436E-05, 923.6511    , 30.9534988  , 774.5313    , 1.66        , 3           , 255         , 0           , 0
-0.159195691, 0.131484851 , -9.795343   , -0.000104383857, -0.0006042889, 0.00020752741, -0.01310408 , -0.0161686745, 6.01470419E-05, 923.6511    , 30.9534988  , 774.5319    , 1.67        , 3           , 255         , 0           , 0
-0.160573229, 0.13219139  , -9.796044   , 0.000228011151, -0.000373988383, 0.000273514539, -0.013101846, -0.0161723774, 6.293126E-05, 923.6511    , 30.9534988  , 774.532532  , 1.68        , 3           , 255         , 0           , 0
-0.158774063, 0.13977465  , -9.803818   , -0.0007086668, -0.000125333318, -0.000419183343, -0.0131088644, -0.0161736868, 5.87557624E-05, 923.6511    , 30.9534988  , 774.5332    , 1.69        , 3           , 255         , 0           , 0
-0.163233846, 0.1285891   , -9.79017448 , -0.000353625626, 7.26974249E-05, 6.89223634E-06, -0.0131124007, -0.0161729585, 5.881516E-05, 923.6511    , 30.9534988  , 774.5339    , 1.7         , 3           , 255         , 0           , 0
-0.153152674, 0.130352721 , -9.802272   , -0.000478857517, 0.00043442304, -0.000212867133, -0.0131196491, -0.0161738656, 5.66698E-05 , 923.6511    , 30.9534988  , 774.4956    , 1.71        , 3           , 255         , 0           , 0
-0.15496026 , 0.131047636 , -9.788944   , -4.206918E-05, 6.34756E-05 , -8.949535E-05, -0.0131200552, -0.0161732417, 5.57664971E-05, 923.6511    , 30.9534988  , 774.496033  , 1.72        , 3           , 255         , 0           , 0
-0.162839234, 0.128824756 , -9.795934   , 5.72550343E-05, -7.01212848E-05, -0.000316333957, -0.0131194321, -0.0161739849, 5.26123E-05 , 923.613037  , 30.9524822  , 774.49646   , 1.73        , 3           , 255         , 0           , 0
-0.160328344, 0.129476041 , -9.795195   , 0.000695043 , -0.000269919052, -8.52998637E-05, -0.0131124686, -0.016176695, 5.17947046E-05, 923.613037  , 30.9524822  , 774.4969    , 1.74        , 3           , 255         , 0           , 0
-0.157156274, 0.124953464 , -9.79107    , 0.0007899101, 7.850045E-05, -0.000349231443, -0.0131045133, -0.01617596 , 4.82920368E-05, 923.613037  , 30.9524822  , 774.4973    , 1.75        , 3           , 255         , 0           , 0
-0.149549991, 0.136904448 , -9.78744    , 0.000412229 , 0.000146293387, -0.0001473185, -0.013100367, -0.0161745138, 4.6799647E-05, 923.613037  , 30.9524822  , 774.497742  , 1.76        , 3           , 255         , 0           , 0
-0.153780431, 0.126377434 , -9.786188   , 0.0003654618, -8.02014256E-07, 0.000138971285, -0.0130967349, -0.0161745027, 4.818949E-05, 923.613037  , 30.9524822  , 774.498169  , 1.77        , 3           , 255         , 0           , 0
-0.156906113, 0.128197938 , -9.78705    , 0.000134464266, 4.138885E-06, 4.787735E-05, -0.0130953975, -0.0161744542, 4.866772E-05, 923.613037  , 30.9524822  , 774.4986    , 1.78        , 3           , 255         , 0           , 0
-0.156570345, 0.134212181 , -9.800585   , -0.000134589645, -0.000427480962, -0.0005588391, -0.0130966529, -0.0161788  , 4.313519E-05, 923.613037  , 30.9524822  , 774.499     , 1.79        , 3           , 255         , 0           , 0
-0.159496218, 0.140071467 , -9.79512    , -0.000237567438, -0.0002886887, -0.000382938917, -0.0130989682, -0.0161817353, 3.93435257E-05, 923.613037  , 30.9524822  , 774.499451  , 1.8         , 3           , 255         , 0           , 0
-0.158536285, 0.1355284   , -9.791063   , -0.000422553043, 0.000154790789, 0.000644742162, -0.0131094633, -0.0161755644, 4.587053E-05, 923.613037  , 30.9524822  , 774.506958  , 1.81        , 3           , 255         , 0           , 0
-0.156757221, 0.132784754 , -9.793712   , -3.467349E-05, 0.000105539526, 0.00029877713, -0.0131098572, -0.016174471, 4.88445257E-05, 923.613037  , 30.9524822  , 774.507446  , 1.82        , 3           , 255         , 0           , 0
-0.1503969  , 0.137302846 , -9.791599   , 0.000102885533, -7.477551E-05, 0.0005573148, -0.0131089184, -0.0161751471, 5.442757E-05, 923.618042  , 30.95126    , 774.507935  , 1.83        , 3           , 255         , 0           , 0
-0.1635789  , 0.138280839 , -9.785211   , -0.000307397568, 0.0004667804, -0.000200147144, -0.0131119583, -0.0161705036, 5.23648632E-05, 923.618042  , 30.95126    , 774.5084    , 1.84        , 3           , 255         , 0           , 0
-0.156070024, 0.134625316 , -9.793616   , 0.000403290935, 0.000324749766, 0.0003125216, -0.0131079769, -0.016167216, 5.54475628E-05, 923.618042  , 30.95126    , 774.5089    , 1.85        , 3           , 255         , 0           , 0
-0.161991119, 0.127347618 , -9.791461   , 0.0007644468, 1.28429674E-05, -0.000442363875, -0.0131002618, -0.0161671489, 5.10221653E-05, 923.618042  , 30.95126    , 774.5094    , 1.86        , 3           , 255         , 0           , 0
-0.158087134, 0.12891154  , -9.790985   , 0.0005527069, 7.83202559E-05, -0.000334330165, -0.0130946795, -0.0161664039, 4.76685382E-05, 923.618042  , 30.95126    , 774.5099    , 1.87        , 3           , 255         , 0           , 0
-0.163300559, 0.129214212 , -9.786977   , -0.000634946, 2.483197E-06, -0.000255783438, -0.0131009873, -0.0161664151, 4.51103333E-05, 923.618042  , 30.95126    , 774.5104    , 1.88        , 3           , 255         , 0           , 0
-0.15452081 , 0.123026982 , -9.793032   , -0.0004842049, -0.0005600933, 0.00026185537, -0.013105873, -0.01617198 , 4.78023321E-05, 923.618042  , 30.95126    , 774.510864  , 1.89        , 3           , 255         , 0           , 0
-0.148355082, 0.122485057 , -9.780264   , -0.000150008069, -0.000401471, 9.471866E-05, -0.0131073883, -0.0161759816, 4.880216E-05, 923.618042  , 30.95126    , 774.511353  , 1.9         , 3           , 255         , 0           , 0
-0.152422756, 0.126359418 , -9.785875   , 9.37178E-05 , -0.000129404478, -5.817428E-05, -0.0131138908, -0.016173983, 4.83578224E-05, 923.618042  , 30.95126    , 774.5118    , 1.91        , 3           , 255         , 0           , 0
-0.162993163, 0.127825767 , -9.798221   , -7.482915E-05, 0.0004246141, 4.90257735E-05, -0.0131146461, -0.0161697287, 4.87923971E-05, 923.618042  , 30.95126    , 774.512268  , 1.92        , 3           , 255         , 0           , 0
-0.15930374 , 0.11730995  , -9.781325   , 0.00015624825, 0.0004463276, -5.661813E-05, -0.0131130731, -0.0161652751, 4.81676761E-05, 923.63855   , 30.9559422  , 774.512756  , 1.93        , 3           , 255         , 0           , 0
-0.156796753, 0.119559981 , -9.789427   , -0.0002246027, 5.31679252E-05, 0.000189439859, -0.0131153474, -0.0161647182, 5.00551323E-05, 923.63855   , 30.9559422  , 774.513245  , 1.94        , 3           , 255         , 0           , 0
-0.158744782, 0.129641637 , -9.793714   , 0.000249555567, -0.000210765691, 0.000251367775, -0.0131128952, -0.0161667932, 5.259651E-05, 923.63855   , 30.9559422  , 774.513733  , 1.95        , 3           , 255         , 0           , 0
-0.164941221, 0.131409422 , -9.788584   , 0.0005855567, -0.0006856082, -0.000265868322, -0.0131069971, -0.016173685, 5.002766E-05, 923.63855   , 30.9559422  , 774.5142    , 1.96        , 3           , 255         , 0           , 0
-0.158049136, 0.1281119   , -9.790782   , 0.0002461372, -0.0003081917, -0.000429748063, -0.0131044677, -0.0161768217, 4.577049E-05, 923.63855   , 30.9559422  , 774.5147    , 1.97        , 3           , 255         , 0           , 0
-0.1533744  , 0.141427964 , -9.792291   , -0.000109863526, 0.000160149051, -0.000396193645, -0.0131055014, -0.0161752738, 4.178748E-05, 923.63855   , 30.9559422  , 774.5152    , 1.98        , 3           , 255         , 0           , 0
-0.155522972, 0.142924428 , -9.788938   , 0.000263188151, 0.000215614054, 0.00015740862, -0.0131028956, -0.0161730964, 4.333334E-05, 923.63855   , 30.9559422  , 774.5157    , 1.99        , 3           , 255         , 0           , 0
-0.158954635, 0.133996516 , -9.787609   , 2.08135461E-05, -0.000341637118, 9.457806E-05, -0.0131027047, -0.0161765  , 4.43239151E-05, 923.63855   , 30.9559422  , 774.5162    , 2           , 3           , 0           , 7.48223639  , 200
-0.1552541  , 0.134983346 , -9.786817   , -7.93782237E-05, -0.000356541626, -5.113535E-05, -0.0131076183, -0.0161795747, 4.392607E-05, 923.63855   , 30.9559422  , 774.491638  , 2.01        , 3           , 1           , 0           , 0
-0.152025074, 0.131179243 , -9.797127   , -0.000216089626, -3.88185144E-05, 0.0005254877, -0.0131098647, -0.0161798932, 4.91861429E-05, 923.63855   , 30.9559422  , 774.492     , 2.02        , 3           , 2           , 0           , 0
-0.160375684, 0.132016867 , -9.783819   , -0.000260173838, -0.000350790768, 0.000442136341, -0.0131125357, -0.0161833428, 5.36535736E-05, 923.614136  , 30.9551945  , 774.4924    , 2.03        , 3           , 3           , 0           , 0
-0.160295039, 0.128234535 , -9.796982   , -9.797173E-05, -0.000261068082, 4.73397558E-05, -0.0131135238, -0.0161859468, 5.416122E-05, 923.614136  , 30.9551945  , 774.492737  , 2.04        , 3           , 4           , 0           , 0
-0.153058112, 0.12612021  , -9.787287   , 8.652234E-05, -0.000243844668, 0.0005653985, -0.0131127508, -0.0161883123, 5.98472943E-05, 923.614136  , 30.9551945  , 774.4931    , 2.05        , 3           , 5           , 0           , 0
-0.155093089, 0.13409704  , -9.789515   , 0.0004840326, 0.0003741308, -1.487341E-05, -0.01310791 , -0.01618457 , 5.9649512E-05, 923.614136  , 30.9551945  , 774.493469  , 2.06        , 3           , 6           , 0           , 0
-0.160416737, 0.12783955  , -9.786113   , 0.0003767832, 0.0001339062, -0.00021697364, -0.0131041054, -0.01618326 , 5.74621845E-05, 923.614136  , 30.9551945  , 774.493835  , 2.07        , 3           , 7           , 0           , 0
-0.1598758  , 0.139507    , -9.783322   , 0.00024873708, 7.1491726E-05, 0.0004571339, -0.0131016923, -0.016182486, 6.202424E-05, 923.614136  , 30.9551945  , 774.4942    , 2.08        , 3           , 8           , 5           , 5
-0.168649584, 0.124098517 , -9.778593   , 5.15149732E-05, -4.220131E-05, -5.35560139E-06, -0.0131011764, -0.0161829088, 6.197623E-05, 923.614136  , 30.9551945  , 774.494568  , 2.09        , 3           , 9           , 5           , 0.1
-0.1688747  , 0.130635291 , -9.79335    , 0.000448591541, 0.000123803926, -0.0003851254, -0.0130966287, -0.0161817241, 5.810868E-05, 923.614136  , 30.9551945  , 774.494934  , 2.1         , 3           , 10          , 0.1         , 0.1
-0.156933263, 0.14046587  , -9.795924   , 0.000229845318, -0.000412867172, -0.00037828015, -0.0131020295, -0.0161887333, 5.45054645E-05, 923.614136  , 30.9551945  , 774.502441  , 2.11        , 3           , 11          , 0.008039572 , 0.008039571
-0.1688363  , 0.13546519  , -9.792023   , -9.294512E-05, 3.346539E-05, 0.0002495956, -0.013103   , -0.0161883682, 5.69970944E-05, 923.614136  , 30.9551945  , 774.502869  , 2.12        , 3           , 12          , 0.174643889 , 0
-0.167936713, 0.147534445 , -9.79447    , 0.000541358 , 0.000101982863, 0.000318050646, -0.0130976383, -0.0161873046, 6.01643078E-05, 923.632568  , 30.9553986  , 774.5033    , 2.13        , 3           , 13          , 0           , 0
-0.159994334, 0.147314161 , -9.792334   , 0.000542791036, 8.718252E-05, 0.00018393698, -0.01309224 , -0.0161864124, 6.19922939E-05, 923.632568  , 30.9553986  , 774.5037    , 2.14        , 3           , 14          , -0.000443175551, -0.0003045444
-0.1547132  , 0.147428647 , -9.791437   , 0.0001591359, -0.000572817167, -0.0005100864, -0.0130905677, -0.0161922034, 5.69663134E-05, 923.632568  , 30.9553986  , 774.50415   , 2.15        , 3           , 15          , 0           , 2.85400274E-05
-0.161974669, 0.126868978 , -9.784884   , 0.000553549035, -0.000420045981, 0.0006209621, -0.0130851325, -0.0161963217, 6.323104E-05, 923.632568  , 30.9553986  , 774.5046    , 2.16        , 3           , 16          , 0           , 1.401298E-45
-0.16245243 , 0.129016548 , -9.789802   , 0.0003188995, 8.256233E-06, 0.00126980792, -0.01308215 , -0.0161960721, 7.59283E-05 , 923.632568  , 30.9553986  , 774.505     , 2.17        , 3           , 20          , 0           , 0
-0.160756886, 0.12093208  , -9.789564   , -0.0005263577, 0.000374493771, 6.119594E-05, -0.0130874226, -0.0161923189, 7.649126E-05, 923.632568  , 30.9553986  , 774.505432  , 2.18        , 3           , 21          , 0           , 0
-0.158185333, 0.121650971 , -9.794363   , -0.000231594837, -0.000270719233, -7.725135E-05, -0.0130897257, -0.0161950346, 7.57541638E-05, 923.632568  , 30.9553986  , 774.505859  , 2.19        , 3           , 22          , 0           , 0
-0.157924771, 0.122412726 , -9.794101   , -5.5059616E-05, -4.82975738E-05, -0.000114162773, -0.0130902575, -0.0161955319, 7.461882E-05, 923.632568  , 30.9553986  , 774.5063    , 2.2         , 3           , 40          , 0           , 0
-0.158284441, 0.128257424 , -9.780655   , 8.06382159E-05, 4.08066553E-05, -5.68536925E-05, -0.0131021384, -0.0162004866, 7.425062E-05, 923.632568  , 30.9553986  , 774.4891    , 2.21        , 3           , 41          , 0           , 0
-0.167536348, 0.124618992 , -9.786863   , -0.000135838985, -7.665751E-05, -0.000705543032, -0.0131033817, -0.0162013471, 6.720509E-05, 923.632568  , 30.9553986  , 774.4894    , 2.22        , 3           , 42          , 0           , 0
-0.155167982, 0.119827591 , -9.7922     , 8.494279E-05, 0.0001661437, 4.68900944E-05, -0.01310254 , -0.0161996763, 6.765222E-05, 923.604431  , 30.9552631  , 774.4897    , 2.23        , 3           , 255         , 0           , 0
-0.158200592, 0.121387973 , -9.793062   , 7.211557E-05, -0.000337059959, 0.000445880869, -0.0131018916, -0.0162029918, 7.215528E-05, 923.604431  , 30.9552631  , 774.49      , 2.24        , 3           , 255         , 0           , 0
-0.161976933, 0.130494118 , -9.785175   , -1.27438689E-05, -4.32475354E-05, 0.000152239081, -0.0131020444, -0.0162034035, 7.36833754E-05, 923.604431  , 30.9552631  , 774.4903    , 2.25        , 3           , 255         , 0           , 0
-0.156157523, 0.135438114 , -9.791273   , -0.000594301, 7.468506E-05, 0.00125329907, -0.0131081911, -0.0162024926, 8.620683E-05, 923.604431  , 30.9552631  , 774.4906    , 2.26        , 3           , 255         , 0           , 0
-0.1621861  , 0.14140217  , -9.792713   , -0.000271907833, 0.0002827007, 0.000838508829, -0.0131110447, -0.0161995534, 9.455503E-05, 923.604431  , 30.9552631  , 774.4909    , 2.27        , 3           , 255         , 0           , 0
-0.158722326, 0.144611672 , -9.797082   , -0.0001330782, 0.000356633682, 1.800081E-05, -0.0131123774, -0.0161959846, 9.468827E-05, 923.604431  , 30.9552631  , 774.4912    , 2.28        , 3           , 255         , 0           , 0
-0.158525035, 0.140901953 , -9.800639   , 5.16648579E-05, 0.000225904587, 0.000135983777, -0.0131118828, -0.0161937084, 9.601851E-05, 923.604431  , 30.9552631  , 774.4916    , 2.29        , 3           , 255         , 0           , 0
-0.15763554 , 0.135853752 , -9.795077   , 7.606216E-05, 3.00256652E-05, -0.000244831928, -0.0131110828, -0.0161934383, 9.35662E-05 , 923.604431  , 30.9552631  , 774.491943  , 2.3         , 3           , 255         , 0           , 0
-0.163833365, 0.12779364  , -9.792216   , -5.52262063E-05, -0.000139661075, -0.0001716218, -0.0131205721, -0.01619656 , 9.201344E-05, 923.604431  , 30.9552631  , 774.5127    , 2.31        , 3           , 255         , 0           , 0
-0.152019948, 0.124042511 , -9.788762   , -0.0002371606, 8.026065E-05, -8.750841E-05, -0.0131229283, -0.0161957685, 9.11278039E-05, 923.604431  , 30.9552631  , 774.5132    , 2.32        , 3           , 255         , 0           , 0
-0.152332574, 0.122720107 , -9.78763    , -0.00014163513, -6.688584E-05, 0.0005095736, -0.0131244278, -0.01619637 , 9.623241E-05, 923.622437  , 30.9573669  , 774.5137    , 2.33        , 3           , 255         , 0           , 0
-0.160203785, 0.126975164 , -9.790352   , -4.4634362E-05, 0.000331192947, 0.000638610567, -0.0131249772, -0.0161929764, 0.000102575192, 923.622437  , 30.9573669  , 774.51416   , 2.34        , 3           , 255         , 0           , 0
-0.156274855, 0.122362278 , -9.795889   , 0.000294465019, 0.0001317585, 9.740263E-06, -0.0131220333, -0.0161916576, 0.0001026553, 923.622437  , 30.9573669  , 774.514648  , 2.35        , 3           , 255         , 0           , 0
-0.15138337 , 0.125801727 , -9.79413    , 0.000178766757, -0.000354903168, 0.000601517037, -0.0131203439, -0.0161951259, 0.000108717155, 923.622437  , 30.9573669  , 774.515137  , 2.36        , 3           , 255         , 0           , 0
-0.152607977, 0.129851848 , -9.785013   , 1.3912213E-06, 0.0004179601, 0.000746377162, -0.013120451, -0.01619085 , 0.000116126248, 923.622437  , 30.9573669  , 774.5156    , 2.37        , 3           , 255         , 0           , 0
-0.158139259, 0.137771279 , -9.787973   , -0.000257261621, -0.000140725664, 4.58543254E-05, -0.0131230308, -0.0161922518, 0.000116603267, 923.622437  , 30.9573669  , 774.5161    , 2.38        , 3           , 255         , 0           , 0
-0.164341077, 0.137032717 , -9.792977   , 0.000176041154, 0.000216576955, -0.0003654265, -0.0131212091, -0.0161901321, 0.000112920505, 923.622437  , 30.9573669  , 774.5166    , 2.39        , 3           , 255         , 0           , 0
-0.159364536, 0.139863282 , -9.802052   , -0.000223083363, -0.0002357692, -0.000628273934, -0.01312334 , -0.0161925741, 0.00010666858, 923.622437  , 30.9573669  , 774.5171    , 2.4         , 3           , 255         , 0           , 0
-0.160390422, 0.138644218 , -9.788637   , -0.000118972472, 0.000263047346, 1.849772E-05, -0.013126526, -0.0161866117, 0.000106851316, 923.622437  , 30.9573669  , 774.5108    , 2.41        , 3           , 255         , 0           , 0
-0.162747145, 0.128512263 , -9.788799   , 2.23369279E-05, 1.7908169E-06, 0.0001165155, -0.0131263211, -0.0161865782, 0.000108016247, 923.622437  , 30.9573669  , 774.5112    , 2.42        , 3           , 255         , 0           , 0
-0.152918726, 0.1307389   , -9.782725   , -0.0003568176, -0.000171952823, 0.000382654718, -0.0131299524, -0.016188249, 0.000111865447, 923.5942    , 30.9546528  , 774.511658  , 2.43        , 3           , 255         , 0           , 0
-0.1568348  , 0.13293609  , -9.794992   , 0.0002889866, -0.000158867275, 0.000108482418, -0.0131270792, -0.0161898229, 0.000112971145, 923.5942    , 30.9546528  , 774.5121    , 2.44        , 3           , 255         , 0           , 0
-0.1637652  , 0.134745568 , -9.801048   , 8.312092E-05, 2.24848627E-05, 0.000241781425, -0.0131262867, -0.0161895677, 0.000115386065, 923.5942    , 30.9546528  , 774.5125    , 2.45        , 3           , 255         , 0           , 0
-0.155626923, 0.139682218 , -9.793959   , 0.0002790013, -9.18874E-05, -0.000112807349, -0.0131234787, -0.0161905  , 0.00011427002, 923.5942    , 30.9546528  , 774.512939  , 2.46        , 3           , 255         , 0           , 0
-0.15202783 , 0.125684381 , -9.791675   , 0.00020083478, -0.0002432522, 6.16657E-05 , -0.01312148 , -0.0161929242, 0.000114918621, 923.5942    , 30.9546528  , 774.513367  , 2.47        , 3           , 255         , 0           , 0
-0.1535156  , 0.125479266 , -9.79200649 , -1.00744946E-05, 8.042462E-05, 0.000320984575, -0.0131216329, -0.0161920786, 0.000118117983, 923.5942    , 30.9546528  , 774.5138    , 2.48        , 3           , 255         , 0           , 0
-0.149873391, 0.1257436   , -9.792369   , 4.09674831E-05, -0.0001752837, 0.000249870151, -0.0131212641, -0.0161937978, 0.000120639728, 923.5942    , 30.9546528  , 774.5142    , 2.49        , 3           , 255         , 0           , 0
-0.158271089, 0.128538087 , -9.79026    , -0.000323832763, 0.000150237465, -0.000211502891, -0.0131244687, -0.0161923245, 0.000118504955, 923.5942    , 30.9546528  , 774.5147    , 2.5         , 3           , 255         , 0           , 0
-0.159889251, 0.125469118 , -9.798735   , -0.000126761937, 0.00019131336, 0.000183587035, -0.0131311873, -0.0161862038, 0.0001204035, 923.5942    , 30.9546528  , 774.546448  , 2.51        , 3           , 255         , 0           , 0
-0.156492189, 0.130362809 , -9.799719   , 0.000724138052, 7.798716E-05, 0.0001831459, -0.0131239751, -0.016185401, 0.000122224767, 923.5942    , 30.9546528  , 774.5471    , 2.52        , 3           , 255         , 0           , 0
-0.158381015, 0.128093258 , -9.782159   , 0.000464215846, -9.541225E-05, -0.0007085601, -0.0131192189, -0.016186446, 0.000115151539, 923.5825    , 30.9592648  , 774.5478    , 2.53        , 3           , 255         , 0           , 0
-0.156853959, 0.134646    , -9.794934   , 8.54877E-05 , 0.0003288304, -0.000381048449, -0.0131183024, -0.0161832087, 0.000111297835, 923.5825    , 30.9592648  , 774.548462  , 2.54        , 3           , 255         , 0           , 0
-0.148212716, 0.130382225 , -9.796525   , 0.000285342161, 0.000134582762, 0.000364036066, -0.0131155057, -0.01618182 , 0.000114920622, 923.5825    , 30.9592648  , 774.549133  , 2.55        , 3           , 255         , 0           , 0
-0.151956648, 0.138635248 , -9.798245   , 0.000399644952, 0.000101865924, 0.00121416315, -0.0131117059, -0.0161806382, 0.000127049119, 923.5825    , 30.9592648  , 774.5498    , 2.56        , 3           , 255         , 0           , 0
-0.152358815, 0.131701067 , -9.789172   , -9.643656E-05, 0.000158182229, 0.000327582966, -0.013112722, -0.016179014, 0.000130304281, 923.5825    , 30.9592648  , 774.5505    , 2.57        , 3           , 255         , 0           , 0
-0.157674357, 0.133014888 , -9.788711   , 0.000207329387, -3.72408249E-05, -0.0003410655, -0.0131105948, -0.0161794312, 0.000126898434, 923.5825    , 30.9592648  , 774.551147  , 2.58        , 3           , 255         , 0           , 0
-0.165533409, 0.1346928   , -9.794485   , 7.54401262E-05, -0.000249079458, -0.000294239871, -0.013109793, -0.0161819588, 0.000123988619, 923.5825    , 30.9592648  , 774.5518    , 2.59        , 3           , 255         , 0           , 0
-0.1577073  , 0.140926525 , -9.785627   , -0.000212293555, 4.501347E-05, -0.0002363031, -0.0131118754, -0.01618154 , 0.000121619632, 923.5825    , 30.9592648  , 774.5525    , 2.6         , 3           , 255         , 0           , 0
-0.15410918 , 0.13170214  , -9.790432   , 0.0003253792, 3.25763249E-05, 0.00016481115, -0.0131170135, -0.0161773488, 0.000123398844, 923.5825    , 30.9592648  , 774.5955    , 2.61        , 3           , 255         , 0           , 0
-0.158753231, 0.13186     , -9.796755   , 2.21803784E-05, 0.00020892742, 0.000119022487, -0.01311681 , -0.016175244, 0.000124561688, 923.5825    , 30.9592648  , 774.5965    , 2.62        , 3           , 255         , 0           , 0
-0.160060912, 0.133741051 , -9.79907    , -0.00035280388, 8.32046353E-05, 0.0004191593, -0.0131204072, -0.0161743574, 0.000128742438, 923.616455  , 30.9538383  , 774.5975    , 2.63        , 3           , 255         , 0           , 0
-0.153782159, 0.133659929 , -9.79315948 , -0.00014203359, 0.0001688427, 0.000892738 , -0.0131219709, -0.01617255 , 0.000137647861, 923.616455  , 30.9538383  , 774.59845   , 2.64        , 3           , 255         , 0           , 0
-0.1641762  , 0.1264998   , -9.795787   , 0.0008566044, 3.356606E-05, 0.0005600865, -0.0131134968, -0.0161721427, 0.000143244426, 923.616455  , 30.9538383  , 774.5994    , 2.65        , 3           , 255         , 0           , 0
-0.15867874 , 0.1235013   , -9.790624   , 0.000356785255, 0.0005052847, 0.000143482292, -0.0131099494, -0.01616707 , 0.000144613019, 923.616455  , 30.9538383  , 774.6004    , 2.66        , 3           , 255         , 0           , 0
-0.165269345, 0.12471199  , -9.794654   , 0.000237364453, 0.000556838757, -0.000167880062, -0.0131075494, -0.0161615256, 0.000142861216, 923.616455  , 30.9538383  , 774.6014    , 2.67        , 3           , 255         , 0           , 0
-0.1616745  , 0.12877807  , -9.790957   , 0.000507815334, 7.826093E-05, -0.0003658996, -0.0131024122, -0.0161607955, 0.000139191878, 923.616455  , 30.9538383  , 774.602356  , 2.68        , 3           , 255         , 0           , 0
-0.148144215, 0.130443066 , -9.798884   , 0.000613900251, 0.000467714446, -0.00012854494, -0.0130962525, -0.0161561333, 0.000137845171, 923.616455  , 30.9538383  , 774.603333  , 2.69        , 3           , 255         , 0           , 0
-0.1526942  , 0.134246975 , -9.789055   , -0.000119396747, 0.0005829868, -6.206E-05  , -0.0130974352, -0.0161503144, 0.0001371482, 923.616455  , 30.9538383  , 774.6043    , 2.7         , 3           , 255         , 0           , 0
-0.1608747  , 0.138273016 , -9.7891     , -0.000263285823, 0.0003420046, -0.0008216033, -0.0131024821, -0.0161457956, 0.0001289283, 923.616455  , 30.9538383  , 774.5941    , 2.71        , 3           , 255         , 0           , 0
-0.15656653 , 0.1324649   , -9.791818   , -0.000282227, -0.000149598724, -4.840367E-05, -0.0131052947, -0.0161472969, 0.000128463871, 923.616455  , 30.9538383  , 774.595032  , 2.72        , 3           , 255         , 0           , 0
-0.161658213, 0.140353173 , -9.797419   , 0.0004034519, -0.000245630858, -0.0001329743, -0.01310124 , -0.01614977 , 0.000127166277, 923.5926    , 30.95723    , 774.595947  , 2.73        , 3           , 255         , 0           , 0
-0.153262541, 0.139883012 , -9.799948   , 8.148639E-05, -0.000138308824, 0.000284406036, -0.0131004713, -0.0161511153, 0.000130028508, 923.5926    , 30.95723    , 774.596863  , 2.74        , 3           , 255         , 0           , 0
-0.157194585, 0.131439015 , -9.790405   , -0.0007040313, -4.47148632E-05, 0.000362057617, -0.013107569, -0.0161515139, 0.000133655 , 923.5926    , 30.95723    , 774.5978    , 2.75        , 3           , 255         , 0           , 0
-0.153389   , 0.128229767 , -9.800493   , -0.0003051362, 0.0003071359, 0.000278156047, -0.0131106647, -0.016148407, 0.000136396338, 923.5926    , 30.95723    , 774.5987    , 2.76        , 3           , 255         , 0           , 0
-0.157424748, 0.130776018 , -9.793398   , -0.000177055015, 3.19392129E-05, 1.54530389E-05, -0.0131124379, -0.0161480848, 0.000136546689, 923.5926    , 30.95723    , 774.5996    , 2.77        , 3           , 255         , 0           , 0
-0.153085038, 0.128041148 , -9.790331   , 0.00014114083, 0.000232604769, -0.000201408169, -0.0131109925, -0.0161457844, 0.000134502057, 923.5926    , 30.95723    , 774.6005    , 2.78        , 3           , 255         , 0           , 0
-0.152652383, 0.132642522 , -9.794986   , -0.000419956166, 0.000384113751, 0.000167666381, -0.01311522 , -0.01614192 , 0.000136128408, 923.5926    , 30.95723    , 774.60144   , 2.79        , 3           , 255         , 0           , 0
-0.156349927, 0.125041038 , -9.788191   , -5.809631E-05, 0.000187024169, 0.000420087861, -0.0131158689, -0.0161399972, 0.000140304823, 923.5926    , 30.95723    , 774.602356  , 2.8         , 3           , 255         , 0           , 0
-0.1635493  , 0.125819847 , -9.790439   , 9.417557E-05, 5.0912553E-05, 1.22419115E-05, -0.0131226629, -0.0161360074, 0.00014054538, 923.5926    , 30.95723    , 774.625244  , 2.81        , 3           , 255         , 0           , 0
-0.164318562, 0.126422435 , -9.785698   , 0.000118411059, -0.000387907552, -0.00048412662, -0.0131214028, -0.0161399487, 0.000135754934, 923.5926    , 30.95723    , 774.6263    , 2.82        , 3           , 255         , 0           , 0
-0.168589622, 0.1255391   , -9.791708   , -0.000327214, -0.000107381435, -0.0004037741, -0.0131246094, -0.0161410719, 0.0001317312, 923.5943    , 30.9581127  , 774.6273    , 2.83        , 3           , 255         , 0           , 0
-0.160342336, 0.124582812 , -9.80171    , -0.000424815022, 0.0001119707, 0.000528182252, -0.0131289428, -0.0161398835, 0.000136998424, 923.5943    , 30.9581127  , 774.628357  , 2.84        , 3           , 255         , 0           , 0
-0.160072774, 0.126379937 , -9.790092   , -0.000161975011, 1.3190438E-05, 0.0004188948, -0.0131306294, -0.0161396954, 0.000141185708, 923.5943    , 30.9581127  , 774.6294    , 2.85        , 3           , 255         , 0           , 0
-0.158639222, 0.134852022 , -9.787701   , 1.65123784E-05, -0.000108995446, -8.266437E-05, -0.0131304516, -0.0161407962, 0.000140373362, 923.5943    , 30.9581127  , 774.630432  , 2.86        , 3           , 255         , 0           , 0
-0.163463444, 0.128575951 , -9.79282951 , -0.000390980073, -0.000180491887, -0.0007925942, -0.0131342327, -0.0161427055, 0.000132470959, 923.5943    , 30.9581127  , 774.6315    , 2.87        , 3           , 255         , 0           , 0
-0.1575999  , 0.131751388 , -9.788881   , -0.000174781861, -8.510423E-05, -2.56324529E-05, -0.013135978, -0.01614356 , 0.000132225818, 923.5943    , 30.9581127  , 774.6325    , 2.88        , 3           , 255         , 0           , 0
-0.15542233 , 0.1387347   , -9.794074   , -0.000337616453, 0.000490795355, 0.0002566704, -0.0131393941, -0.0161386188, 0.000134728078, 923.5943    , 30.9581127  , 774.6336    , 2.89        , 3           , 255         , 0           , 0
-0.156128809, 0.139084622 , -9.801597   , -0.000359661324, 0.000124276761, 5.26199219E-05, -0.0131429983, -0.016137369, 0.000135237962, 923.5943    , 30.9581127  , 774.6347    , 2.9         , 3           , 255         , 0           , 0
-0.15508312 , 0.125353023 , -9.794512   , -0.000133710477, -0.000268238859, 0.00039697488, -0.0131473858, -0.0161451288, 0.000139291224, 923.5943    , 30.9581127  , 774.650635  , 2.91        , 3           , 255         , 0           , 0
-0.15486674 , 0.129558176 , -9.796492   , -0.000176236761, -0.000276014, 0.000296293874, -0.0131491963, -0.01614785 , 0.000142290533, 923.5943    , 30.9581127  , 774.6518    , 2.92        , 3           , 255         , 0           , 0
-0.1507396  , 0.127557322 , -9.789055   , 0.000112095382, -2.2942404E-05, 0.0003576628, -0.0131481327, -0.0161480326, 0.000145870246, 923.6537    , 30.9565525  , 774.652954  , 2.93        , 3           , 255         , 0           , 0
-0.158728987, 0.128027573 , -9.795129   , 0.0001863738, -0.000236933789, -3.90330642E-05, -0.0131462635, -0.0161504056, 0.000145511032, 923.6537    , 30.9565525  , 774.6541    , 2.94        , 3           , 255         , 0           , 0
-0.153516278, 0.131314129 , -9.79127    , -0.000135759969, -0.000216058834, -0.000409341126, -0.0131475562, -0.0161526185, 0.00014144594, 923.6537    , 30.9565525  , 774.6553    , 2.95        , 3           , 255         , 0           , 0
-0.1581372  , 0.133050025 , -9.787947   , -0.000334273063, -0.00025457333, -0.000200096649, -0.0131508671, -0.01615519 , 0.000139478434, 923.6537    , 30.9565525  , 774.656433  , 2.96        , 3           , 255         , 0           , 0
-0.151951253, 0.130829349 , -9.789881   , 9.59362951E-05, 0.000284111738, 0.000300534739, -0.0131499553, -0.01615231 , 0.000142446472, 923.6537    , 30.9565525  , 774.6576    , 2.97        , 3           , 255         , 0           , 0
-0.1544675  , 0.133933336 , -9.79966    , -0.000300458836, 0.000444974052, 0.0005523169, -0.0131530492, -0.0161477886, 0.000147911225, 923.6537    , 30.9565525  , 774.658752  , 2.98        , 3           , 255         , 0           , 0
-0.160749555, 0.1315141   , -9.792292   , -0.00019880457, 9.130742E-05, -0.0001964597, -0.0131550049, -0.016146902, 0.000145934566, 923.6537    , 30.9565525  , 774.6599    , 2.99        , 3           , 255         , 0           , 0
-0.16282253 , 0.136298344 , -9.787873   , 0.0006891461, 0.000257489679, 0.000118912445, -0.0131481308, -0.0161443111, 0.000147089857, 923.6537    , 30.9565525  , 774.6611    , 3           , 3           , 0           , 8.482237    , 300
-0.161129445, 0.135998666 , -9.794808   , 0.000198672351, 6.504949E-05, 1.85798744E-05, -0.0131498585, -0.0161397811, 0.000147327 , 923.6537    , 30.9565525  , 774.5899    , 3.01        , 3           , 1           , 0           , 0
-0.156599164, 0.130544588 , -9.797842   , -0.000282467459, 0.0003307376, -0.000485460419, -0.0131526049, -0.0161365382, 0.0001424288, 923.6537    , 30.9565525  , 774.590637  , 3.02        , 3           , 2           , 0           , 0
-0.155822322, 0.134989381 , -9.798633   , 0.00013805693, 0.000220865826, -0.000236548367, -0.0131511865, -0.01613436 , 0.00014003423, 923.604248  , 30.956892   , 774.5914    , 3.03        , 3           , 3           , 0           , 0
-0.161321372, 0.127942324 , -9.791127   , 0.000349635782, 3.12425254E-05, -0.00043486082, -0.0131476205, -0.0161341056, 0.000135681432, 923.604248  , 30.956892   , 774.5921    , 3.04        , 3           , 4           , 0           , 0
-0.158859119, 0.122416139 , -9.796106   , 0.000298772153, 0.0003746022, 0.000896515034, -0.0131447762, -0.0161302425, 0.000144597492, 923.604248  , 30.956892   , 774.592834  , 3.05        , 3           , 5           , 0           , 0
-0.156051069, 0.130723119 , -9.794145   , -0.0001469116, 0.000358709774, 0.00112537423, -0.0131464256, -0.0161265079, 0.000155804286, 923.604248  , 30.956892   , 774.593567  , 3.06        , 3           , 6           , 0           , 0
-0.161756456, 0.129769325 , -9.793872   , -4.07959451E-05, 7.95220258E-05, 6.394564E-05, -0.0131468447, -0.0161257014, 0.0001564333, 923.604248  , 30.956892   , 774.5943    , 3.07        , 3           , 7           , 0           , 0
-0.156685412, 0.13120766  , -9.795015   , -4.219674E-05, 0.000161329925, -9.187279E-06, -0.0131472647, -0.0161240883, 0.000156320209, 923.604248  , 30.956892   , 774.595032  , 3.08        , 3           , 8           , 5           , 5
-0.163304478, 0.138263717 , -9.794519   , -0.000216503744, 4.331878E-05, 0.000235688931, -0.0131494664, -0.0161236245, 0.00015867145, 923.604248  , 30.956892   , 774.595764  , 3.09        , 3           , 9           , 5           , 0.1
-0.1665346  , 0.128632426 , -9.794495   , -0.000185070909, 0.000263236347, 0.000171998239, -0.0131513439, -0.0161209721, 0.000160356853, 923.604248  , 30.956892   , 774.5965    , 3.1         , 3           , 10          , 0.1         , 0.1
-0.170600638, 0.1284574   , -9.792627   , -0.000616133562, 3.92706133E-05, 0.000106710424, -0.013161025, -0.0161232837, 0.0001614753, 923.604248  , 30.956892   , 774.6037    , 3.11        , 3           , 11          , 0.007272518 , 0.007272515
-0.157451347, 0.127794    , -9.789633   , 3.60389822E-05, -1.52376015E-06, -0.000214944317, -0.01316063 , -0.0161233284, 0.000159326009, 923.604248  , 30.956892   , 774.6045    , 3.12        , 3           , 12          , 0.174645633 , 0
-0.159550548, 0.131971642 , -9.78841    , 0.000452787324, -0.000105094048, -6.557364E-05, -0.0131560937, -0.0161243845, 0.0001586841, 923.633545  , 30.9567547  , 774.6053    , 3.13        , 3           , 13          , 0           , 0
-0.1588929  , 0.130328491 , -9.793359   , 7.55804649E-05, -0.000535332831, 0.000455093454, -0.0131554119, -0.0161296781, 0.000163305536, 923.633545  , 30.9567547  , 774.6061    , 3.14        , 3           , 14          , -0.0004429495, -0.000304566172
-0.149589375, 0.131796643 , -9.789216   , -0.0004403702, -0.0005160729, 0.0007695541, -0.013159941, -0.0161347371, 0.000171069114, 923.633545  , 30.9567547  , 774.6069    , 3.15        , 3           , 15          , 0           , 2.8536082E-05
-0.151355237, 0.1458925   , -9.801836   , 0.000213123916, 4.1866122E-05, 0.000632245559, -0.0131579125, -0.0161342341, 0.0001773862, 923.633545  , 30.9567547  , 774.607666  , 3.16        , 3           , 16          , 0           , 1.401298E-45
-0.162024811, 0.141165942 , -9.795186   , 0.0007190875, 9.3097E-05  , 9.649802E-05, -0.0131507367, -0.0161332916, 0.000178338931, 923.633545  , 30.9567547  , 774.608459  , 3.17        , 3           , 20          , 0           , 0
-0.167464018, 0.127203465 , -9.78723049 , 7.81009439E-05, -0.000371443, -0.000378662255, -0.0131498929, -0.0161370542, 0.000174601082, 923.633545  , 30.9567547  , 774.609253  , 3.18        , 3           , 21          , 0           , 0
-0.163130328, 0.130695671 , -9.79305    , -0.000186960882, -0.0007752813, -0.0003242286, -0.0131517127, -0.01614485 , 0.000171460691, 923.633545  , 30.9567547  , 774.610046  , 3.19        , 3           , 22          , 0           , 0
-0.169935837, 0.125825927 , -9.787319   , -0.00033851582, -0.000251975143, -3.91623871E-06, -0.013155099, -0.01614737 , 0.000171454682, 923.633545  , 30.9567547  , 774.61084   , 3.2         , 3           , 40          , 0           , 0
-0.1593546  , 0.123169407 , -9.800915   , -0.000320510269, -0.000211082981, 0.000407181447, -0.0131644774, -0.0161550436, 0.000175653026, 923.633545  , 30.9567547  , 774.5747    , 3.21        , 3           , 41          , 0           , 0
-0.157093719, 0.122343816 , -9.796297   , 0.000419988151, -8.104212E-05, 0.0009223742, -0.013160428, -0.0161557328, 0.000184887613, 923.633545  , 30.9567547  , 774.575256  , 3.22        , 3           , 42          , 0           , 0
-0.155597135, 0.126870632 , -9.791645   , 8.87945353E-05, -0.000768950849, 0.000771114253, -0.0131596662, -0.0161633175, 0.0001927001, 923.603943  , 30.9588585  , 774.5758    , 3.23        , 3           , 255         , 0           , 0
-0.1570661  , 0.127129838 , -9.791808   , -0.000512289931, -0.00028311112, 0.000484634074, -0.0131648676, -0.0161660854, 0.00019758378, 923.603943  , 30.9588585  , 774.576355  , 3.24        , 3           , 255         , 0           , 0
-0.1606467  , 0.130093545 , -9.788524   , 0.0002536099, 2.54593033E-05, 0.000161372678, -0.0131623577, -0.01616581 , 0.0001991942, 923.603943  , 30.9588585  , 774.5769    , 3.25        , 3           , 255         , 0           , 0
-0.144747019, 0.13009952  , -9.79319    , 0.0004517883, 0.00025549336, 0.00056129467, -0.0131579312, -0.0161631852, 0.000204773634, 923.603943  , 30.9588585  , 774.577454  , 3.26        , 3           , 255         , 0           , 0
-0.157761618, 0.127767652 , -9.794852   , -2.32737511E-06, 7.6798824E-05, 0.0006717452, -0.0131580625, -0.0161623284, 0.0002114811, 923.603943  , 30.9588585  , 774.578     , 3.27        , 3           , 255         , 0           , 0
-0.1569322  , 0.1306942   , -9.789664   , -0.0005791285, 1.15427829E-05, 0.0008210694, -0.0131639857, -0.0161621012, 0.000219690424, 923.603943  , 30.9588585  , 774.578552  , 3.28        , 3           , 255         , 0           , 0
-0.155659   , 0.132378235 , -9.785632   , 0.000314773351, -0.000168442843, -7.542648E-05, -0.0131608248, -0.0161637943, 0.000218958332, 923.603943  , 30.9588585  , 774.5791    , 3.29        , 3           , 255         , 0           , 0
-0.159829527, 0.132343128 , -9.788408   , 0.000332760857, 0.0004204173, -0.0007402139, -0.013157378, -0.0161596928, 0.000211500708, 923.603943  , 30.9588585  , 774.5797    , 3.3         , 3           , 255         , 0           , 0
-0.16151686 , 0.1374079   , -9.793374   , -0.000296115759, -0.000163227814, -0.000160245632, -0.013159194, -0.01615797 , 0.000209901627, 923.603943  , 30.9588585  , 774.589539  , 3.31        , 3           , 255         , 0           , 0
-0.1605734  , 0.137431234 , -9.79519749 , -3.00491229E-06, -0.000229597819, 0.000334789453, -0.0131592778, -0.0161602236, 0.000213279811, 923.603943  , 30.9588585  , 774.5902    , 3.32        , 3           , 255         , 0           , 0
-0.153565675, 0.137033969 , -9.780165   , -0.000257702719, -5.89762931E-06, 0.000673132658, -0.0131619638, -0.0161601957, 0.000220012051, 923.594238  , 30.95723    , 774.5909    , 3.33        , 3           , 255         , 0           , 0
-0.158597663, 0.14173907  , -9.792257   , -0.000227617682, -0.0002592172, 0.000206769037, -0.0131642744, -0.0161627587, 0.000222113871, 923.594238  , 30.95723    , 774.591553  , 3.34        , 3           , 255         , 0           , 0
-0.159138739, 0.1330075   , -9.794596   , -0.000889824936, -0.000337560981, 0.000248428172, -0.0131732142, -0.0161660966, 0.00022464263, 923.594238  , 30.95723    , 774.5922    , 3.35        , 3           , 255         , 0           , 0
-0.155191943, 0.1274502   , -9.793058   , -0.000192241161, 0.000327784859, -0.000548805634, -0.0131750451, -0.0161628928, 0.000219111287, 923.594238  , 30.95723    , 774.5929    , 3.36        , 3           , 255         , 0           , 0
-0.151436985, 0.121247575 , -9.794046   , 0.000334311917, 0.000154702226, 5.42225534E-05, -0.0131717119, -0.01616134 , 0.000219633177, 923.594238  , 30.95723    , 774.593567  , 3.37        , 3           , 255         , 0           , 0
-0.156666175, 0.130854085 , -9.794812   , -0.000109154033, -0.000263871363, 0.000146318984, -0.0131728286, -0.0161639582, 0.000221131122, 923.594238  , 30.95723    , 774.594238  , 3.38        , 3           , 255         , 0           , 0
-0.1568529  , 0.130390137 , -9.795239   , 2.87509174E-05, -0.0005162911, 0.00029353713, -0.0131725883, -0.01616908 , 0.00022413455, 923.594238  , 30.95723    , 774.5949    , 3.39        , 3           , 255         , 0           , 0
-0.161051825, 0.12568374  , -9.795276   , 8.74997349E-05, -0.0002617484, -0.00104616012, -0.0131715443, -0.0161718316, 0.00021370723, 923.594238  , 30.95723    , 774.5956    , 3.4         , 3           , 255         , 0           , 0
-0.153920025, 0.122852564 , -9.79816151 , -0.0001008345, 0.000267542084, -0.000158363837, -0.0131780263, -0.01616771 , 0.000212177256, 923.594238  , 30.95723    , 774.616943  , 3.41        , 3           , 255         , 0           , 0
-0.164420754, 0.123550318 , -9.789939   , 0.000365657848, -8.009773E-05, -0.000126944229, -0.01317435 , -0.0161685273, 0.000210918311, 923.594238  , 30.95723    , 774.617737  , 3.42        , 3           , 255         , 0           , 0
-0.161671624, 0.1243906   , -9.790558   , 0.000328804017, 0.000116568117, -3.01259988E-05, -0.0131710563, -0.0161673687, 0.0002106017, 923.592346  , 30.9566879  , 774.6185    , 3.43        , 3           , 255         , 0           , 0
-0.15166685 , 0.132996127 , -9.794764   , -1.58342882E-05, 0.000217830166, 0.00024263341, -0.0131712528, -0.0161651541, 0.0002129994, 923.592346  , 30.9566879  , 774.6193    , 3.44        , 3           , 255         , 0           , 0
-0.156419   , 0.13555041  , -9.791757   , 0.000102304708, -8.86482E-05, 0.000223522788, -0.0131702656, -0.01616601 , 0.000215246328, 923.592346  , 30.9566879  , 774.6201    , 3.45        , 3           , 255         , 0           , 0
-0.140355185, 0.123465896 , -9.792267   , 2.5202753E-05, 0.000147886734, -3.269484E-05, -0.0131700076, -0.0161645375, 0.00021489989, 923.592346  , 30.9566879  , 774.6209    , 3.46        , 3           , 255         , 0           , 0
-0.153324679, 0.136267811 , -9.795627   , 1.12742418E-06, 0.000221599854, -1.73848166E-05, -0.0131699927, -0.0161623228, 0.000214696876, 923.592346  , 30.9566879  , 774.6217    , 3.47        , 3           , 255         , 0           , 0
-0.163397476, 0.124179624 , -9.796983   , -0.000196921552, -0.000213184918, -0.000408684427, -0.0131718973, -0.01616451 , 0.000210638027, 923.592346  , 30.9566879  , 774.6225    , 3.48        , 3           , 255         , 0           , 0
-0.153553069, 0.128709942 , -9.799098   , 0.000146853883, -0.000536880747, 0.000566862465, -0.0131705208, -0.0161698032, 0.000216377477, 923.592346  , 30.9566879  , 774.6233    , 3.49        , 3           , 255         , 0           , 0
-0.155058384, 0.131253809 , -9.798531   , -0.0007157314, 5.978046E-05, -0.0002445177, -0.0131776389, -0.016169237, 0.000213924359, 923.592346  , 30.9566879  , 774.6241    , 3.5         , 3           , 255         , 0           , 0
-0.159876257, 0.127353147 , -9.793139   , -0.000152589666, -0.0005918979, -0.0006081326, -0.0131780468, -0.0161708128, 0.000207904421, 923.592346  , 30.9566879  , 774.6442    , 3.51        , 3           , 255         , 0           , 0
-0.155407459, 0.126458764 , -9.790179   , 0.000124751561, -0.0004326304, 0.000202145849, -0.0131768333, -0.01617511 , 0.000209982943, 923.592346  , 30.9566879  , 774.645142  , 3.52        , 3           , 255         , 0           , 0
-0.163976416, 0.129296258 , -9.782143   , 0.000374706782, 0.000409561762, -0.00016463139, -0.0131730605, -0.0161710363, 0.000208282625, 923.5888    , 30.9599438  , 774.646057  , 3.53        , 3           , 255         , 0           , 0
-0.164041966, 0.13735     , -9.784709   , -4.58375143E-05, 0.000446608872, 0.0002656851, -0.0131735606, -0.0161665361, 0.0002108807, 923.5888    , 30.9599438  , 774.647     , 3.54        , 3           , 255         , 0           , 0
-0.144762412, 0.140761957 , -9.790046   , 0.0001038725, 7.98118E-05 , 0.000179149167, -0.013172552, -0.0161657184, 0.000212661718, 923.5888    , 30.9599438  , 774.6479    , 3.55        , 3           , 255         , 0           , 0
-0.156049818, 0.138377219 , -9.792308   , 4.076498E-05, 0.000361396465, 0.0003615596, -0.0131722009, -0.0161620528, 0.00021622979, 923.5888    , 30.9599438  , 774.6488    , 3.56        , 3           , 255         , 0           , 0
-0.155345231, 0.130687028 , -9.794352   , -0.000264659029, 0.00036927397, 0.0003296947, -0.0131749  , -0.0161583144, 0.000219478126, 923.5888    , 30.9599438  , 774.6497    , 3.57        , 3           , 255         , 0           , 0
-0.150542483, 0.127247959 , -9.792084   , 0.000159042684, -0.000112403941, -0.000105660547, -0.0131732933, -0.0161594544, 0.0002184363, 923.5888    , 30.9599438  , 774.650635  , 3.58        , 3           , 255         , 0           , 0
-0.148347616, 0.129311129 , -9.791121   , 0.000180331524, -0.000163525547, -0.000290771219, -0.0131714428, -0.016161127, 0.0002155501, 923.5888    , 30.9599438  , 774.65155   , 3.59        , 3           , 255         , 0           , 0
-0.152828157, 0.11786215  , -9.793455   , 0.000196108653, -6.345485E-05, 0.000167808408, -0.0131695084, -0.01616174 , 0.000217236564, 923.5888    , 30.9599438  , 774.652466  , 3.6         , 3           , 255         , 0           , 0
-0.160474733, 0.129545659 , -9.801773   , -0.000233012921, 0.0001665336, 3.553396E-05, -0.0131748067, -0.0161537714, 0.000217617824, 923.5888    , 30.9599438  , 774.6735    , 3.61        , 3           , 255         , 0           , 0
-0.161182329, 0.128619656 , -9.794916   , 0.000517151959, -0.0005397985, 0.0007175359, -0.0131697534, -0.0161590744, 0.000224864416, 923.5888    , 30.9599438  , 774.6746    , 3.62        , 3           , 255         , 0           , 0
-0.151799351, 0.133000642 , -9.788205   , 0.0004593508, -0.000417984731, 0.0004067465, -0.0131652271, -0.0161632  , 0.000228987017, 923.6559    , 30.9577045  , 774.6757    , 3.63        , 3           , 255         , 0           , 0
-0.150933355, 0.129870489 , -9.784311   , 3.66321183E-06, 0.000201040617, 0.0007602626, -0.0131653128, -0.01616109 , 0.000236563312, 923.6559    , 30.9577045  , 774.6768    , 3.64        , 3           , 255         , 0           , 0
-0.151827216, 0.134011954 , -9.791788   , 0.0002783657, 0.000392839778, 5.68158466E-05, -0.0131625375, -0.0161571521, 0.000237079788, 923.6559    , 30.9577045  , 774.6779    , 3.65        , 3           , 255         , 0           , 0
-0.155199587, 0.124391004 , -9.796686   , -0.000454035151, 0.000249924662, 0.000426432642, -0.0131671457, -0.0161545966, 0.000241311282, 923.6559    , 30.9577045  , 774.679     , 3.66        , 3           , 255         , 0           , 0
-0.150108889, 0.124509215 , -9.797628   , -0.000347265537, -6.89927838E-05, -0.000148401581, -0.0131705934, -0.0161553062, 0.000239836314, 923.6559    , 30.9577045  , 774.6801    , 3.67        , 3           , 255         , 0           , 0
-0.1626133  , 0.12897113  , -9.79474449 , -0.000114921626, -0.000107783853, 4.1512576E-06, -0.0131717436, -0.0161563829, 0.000239892019, 923.6559    , 30.9577045  , 774.6812    , 3.68        , 3           , 255         , 0           , 0
-0.1638824  , 0.121842027 , -9.79052    , -0.000220354443, -0.000113899849, -0.000126909887, -0.0131739276, -0.01615754 , 0.000238637891, 923.6559    , 30.9577045  , 774.6823    , 3.69        , 3           , 255         , 0           , 0
-0.1520756  , 0.128427356 , -9.787953   , 0.000360748032, -8.21743743E-05, 2.70710625E-05, -0.0131703243, -0.0161583573, 0.000238919427, 923.6559    , 30.9577045  , 774.6834    , 3.7         , 3           , 255         , 0           , 0
-0.155712575, 0.129307956 , -9.79281    , 0.0005347812, 0.000133748166, -7.484318E-05, -0.0131639969, -0.0161533747, 0.000238137742, 923.6559    , 30.9577045  , 774.604736  , 3.71        , 3           , 255         , 0           , 0
-0.157297224, 0.129533485 , -9.794664   , 0.000171673979, -3.578415E-05, 0.0002691654, -0.0131623251, -0.0161536988, 0.000240834182, 923.6559    , 30.9577045  , 774.605347  , 3.72        , 3           , 255         , 0           , 0
-0.161933824, 0.127548173 , -9.798335   , 4.682949E-05, 3.44189757E-05, -9.3708426E-05, -0.01316184 , -0.0161533672, 0.000239892557, 923.6222    , 30.9594021  , 774.605957  , 3.73        , 3           , 255         , 0           , 0
-0.162686989, 0.127988309 , -9.787109   , 0.0005699601, 0.0003587172, -0.000751062646, -0.01315602 , -0.0161498822, 0.000232334554, 923.6222    , 30.9594021  , 774.606567  , 3.74        , 3           , 255         , 0           , 0
-0.16304794 , 0.127769127 , -9.797832   , -0.000171088468, 4.884723E-05, 0.000349835755, -0.0131577868, -0.0161493458, 0.000235826548, 923.6222    , 30.9594021  , 774.6072    , 3.75        , 3           , 255         , 0           , 0
-0.1554164  , 0.133375809 , -9.800123   , 0.000100889272, 0.000399399316, 0.000700581644, -0.0131568909, -0.016145261, 0.000242779963, 923.6222    , 30.9594021  , 774.6078    , 3.76        , 3           , 255         , 0           , 0
-0.159400031, 0.136073932 , -9.794497   , -6.736975E-05, 0.0005020759, 0.00059368473, -0.0131576592, -0.0161401611, 0.000248650875, 923.6222    , 30.9594021  , 774.6084    , 3.77        , 3           , 255         , 0           , 0
-0.1579145  , 0.139126375 , -9.787044   , 8.817468E-05, -0.0001936158, 0.0004231436, -0.0131568452, -0.01614204 , 0.000252907834, 923.6222    , 30.9594021  , 774.609     , 3.78        , 3           , 255         , 0           , 0
-0.15541479 , 0.131107613 , -9.799868   , -0.000143046462, -0.000182355114, 0.00024421612, -0.0131583167, -0.01614383 , 0.000255374034, 923.6222    , 30.9594021  , 774.6096    , 3.79        , 3           , 255         , 0           , 0
-0.159175947, 0.126395375 , -9.7882185  , 0.0001463225, -0.000134758127, 0.0002076282, -0.0131568862, -0.016145153, 0.0002574681, 923.6222    , 30.9594021  , 774.6102    , 3.8         , 3           , 255         , 0           , 0
-0.158897161, 0.134441048 , -9.786847   , -0.0002780608, 0.000349492853, 0.000379470381, -0.0131625989, -0.0161424913, 0.000261263223, 923.6222    , 30.9594021  , 774.5895    , 3.81        , 3           , 255         , 0           , 0
-0.159371927, 0.136623174 , -9.790538   , -0.000380837882, 0.0001945935, 0.000105404673, -0.013166422, -0.0161405336, 0.000262291665, 923.6222    , 30.9594021  , 774.589966  , 3.82        , 3           , 255         , 0           , 0
-0.165401161, 0.1279861   , -9.787252   , -0.000807152654, -9.579974E-05, -0.0006632361, -0.0131743876, -0.0161415748, 0.0002556718, 923.6675    , 30.9585876  , 774.590454  , 3.83        , 3           , 255         , 0           , 0
-0.16092059 , 0.131185263 , -9.786327   , 8.595071E-05, -0.000133301859, 2.49915356E-05, -0.0131735327, -0.0161429048, 0.00025593926, 923.6675    , 30.9585876  , 774.590942  , 3.84        , 3           , 255         , 0           , 0
-0.164749488, 0.127831966 , -9.801896   , 6.24540262E-05, -0.000157905626, 1.62141368E-05, -0.0131729087, -0.0161444824, 0.0002561222, 923.6675    , 30.9585876  , 774.591431  , 3.85        , 3           , 255         , 0           , 0
-0.154697567, 0.132601351 , -9.802729   , 4.729131E-05, -0.000232741033, 0.00051041093, -0.0131725185, -0.0161467418, 0.000261257082, 923.6675    , 30.9585876  , 774.5919    , 3.86        , 3           , 255         , 0           , 0
-0.160776347, 0.135146916 , -9.787454   , 0.000416744064, -1.14585855E-05, 0.000366122957, -0.0131684113, -0.01614681 , 0.000264919916, 923.6675    , 30.9585876  , 774.5924    , 3.87        , 3           , 255         , 0           , 0
-0.163091019, 0.122927211 , -9.79352951 , 0.000417275034, -0.000122674683, 0.00032035858, -0.0131642912, -0.0161479935, 0.0002681397, 923.6675    , 30.9585876  , 774.5929    , 3.88        , 3           , 255         , 0           , 0
-0.146859214, 0.122659482 , -9.791714   , 0.0006168911, 0.000461206015, 0.000197039088, -0.0131581547, -0.0161433574, 0.0002700494, 923.6675    , 30.9585876  , 774.5934    , 3.89        , 3           , 255         , 0           , 0
-0.1566381  , 0.137755319 , -9.797306   , 0.000496841269, 0.000206401848, 3.88608933E-05, -0.0131531907, -0.01614129 , 0.000270410936, 923.6675    , 30.9585876  , 774.5939    , 3.9         , 3           , 255         , 0           , 0
-0.155705079, 0.131735533 , -9.78935051 , 0.0005922774, 3.3709337E-05, -9.89941836E-05, -0.0131503046, -0.0161426  , 0.00026946576, 923.6675    , 30.9585876  , 774.5116    , 3.91        , 3           , 255         , 0           , 0
-0.16182813 , 0.128336266 , -9.793039   , 0.0001640218, 2.82680849E-05, 5.72406425E-05, -0.0131486738, -0.0161423087, 0.000270034478, 923.6675    , 30.9585876  , 774.5116    , 3.92        , 3           , 255         , 0           , 0
-0.157002836, 0.137674645 , -9.794481   , 0.000464111217, -0.000352716655, -0.000243213071, -0.0131439948, -0.0161458682, 0.000267648662, 923.6399    , 30.9604874  , 774.5116    , 3.93        , 3           , 255         , 0           , 0
-0.146913   , 0.136386186 , -9.79607    , -0.0005094357, -0.0003257902, -0.000464644079, -0.0131490156, -0.0161491856, 0.00026304496, 923.6399    , 30.9604874  , 774.5116    , 3.94        , 3           , 255         , 0           , 0
-0.152892068, 0.131600112 , -9.79437351 , -0.000283609843, -0.00012524426, 0.000182929289, -0.0131518813, -0.0161504149, 0.000264890783, 923.6399    , 30.9604874  , 774.5116    , 3.95        , 3           , 255         , 0           , 0
-0.1620529  , 0.126813918 , -9.793989   , 0.000111019064, 7.523397E-05, -0.000229018158, -0.0131507339, -0.0161496922, 0.000262590649, 923.6399    , 30.9604874  , 774.5116    , 3.96        , 3           , 255         , 0           , 0
-0.169594735, 0.135591418 , -9.790514   , -0.000347159, -7.21454853E-05, -0.000327008951, -0.0131541528, -0.0161504578, 0.00025933  , 923.6399    , 30.9604874  , 774.5116    , 3.97        , 3           , 255         , 0           , 0
-0.161742061, 0.130425841 , -9.787925   , -1.29427644E-06, 0.000431463239, 0.0002504001, -0.0131542059, -0.01614611 , 0.000261777284, 923.6399    , 30.9604874  , 774.5116    , 3.98        , 3           , 255         , 0           , 0
-0.163821489, 0.129211545 , -9.794685   , -0.000199061877, 0.00013785818, 9.246269E-07, -0.0131561952, -0.016144732, 0.000261768379, 923.6399    , 30.9604874  , 774.5116    , 3.99        , 3           , 255         , 0           , 0
-0.166452736, 0.129424989 , -9.791316   , -8.07438046E-05, -0.000535751169, -0.000257982523, -0.0131569635, -0.0161501225, 0.000259259 , 923.6399    , 30.9604874  , 774.5116    , 4           , 3           , 0           , 9.482237    , 400
-0.159221008, 0.128037214 , -9.791133   , -7.275454E-05, 0.00014998368, -0.000193035448, -0.0131622683, -0.0161512  , 0.0002573833, 923.6399    , 30.9604874  , 774.479858  , 4.01        , 3           , 1           , 0           , 0
-0.163699225, 0.122699238 , -9.791468   , -0.0003646812, 0.0002690843, 0.000263555761, -0.0131659564, -0.0161484741, 0.00025998347, 923.6399    , 30.9604874  , 774.4797    , 4.02        , 3           , 2           , 0           , 0
-0.160655737, 0.118990138 , -9.794101   , -0.000115074945, 0.000198830559, 0.000502732233, -0.0131671894, -0.01614642 , 0.000264984759, 923.5735    , 30.9566879  , 774.4795    , 4.03        , 3           , 3           , 0           , 0
-0.154938191, 0.123869978 , -9.796298   , -0.000140804244, 0.0007029957, 0.000417076139, -0.0131686646, -0.0161393341, 0.000269063021, 923.5735    , 30.9566879  , 774.4793    , 4.04        , 3           , 4           , 0           , 0
-0.153709218, 0.1330852   , -9.793829   , -0.0004413683, 5.378708E-05, 0.000312074553, -0.0131731285, -0.0161387548, 0.000272176723, 923.5735    , 30.9566879  , 774.4791    , 4.05        , 3           , 5           , 0           , 0
-0.151800632, 0.129006937 , -9.789421   , -7.38589151E-05, -0.000239971123, 0.000455493719, -0.0131739406, -0.0161410924, 0.000276763341, 923.5735    , 30.9566879  , 774.478943  , 4.06        , 3           , 6           , 0           , 0
-0.1531225  , 0.128819153 , -9.797834   , 0.000114620168, 0.000297066028, -0.000138080271, -0.0131727709, -0.01613814 , 0.000275343366, 923.5735    , 30.9566879  , 774.47876   , 4.07        , 3           , 7           , 0           , 0
-0.1583542  , 0.128062442 , -9.793884   , 1.64147641E-05, -0.000323404354, -0.0003258505, -0.0131725548, -0.0161414184, 0.000272127421, 923.5735    , 30.9566879  , 774.4786    , 4.08        , 3           , 8           , 5           , 5
-0.153404415, 0.135144085 , -9.782938   , -0.000287930568, -0.000183321972, -0.00036815292, -0.0131753739, -0.0161432959, 0.0002684699, 923.5735    , 30.9566879  , 774.4784    , 4.09        , 3           , 9           , 5           , 0.1
-0.1602027  , 0.12797758  , -9.789737   , -0.000200338516, -0.000256897853, 0.0001247605, -0.0131773986, -0.01614585 , 0.000269751443, 923.5735    , 30.9566879  , 774.4782    , 4.1         , 3           , 10          , 0.1         , 0.1
-0.164276436, 0.127753437 , -9.79099    , 7.041119E-06, 9.85869E-05 , 0.0007010342, -0.0131751541, -0.01614291 , 0.000276712 , 923.5735    , 30.9566879  , 774.5455    , 4.11        , 3           , 11          , 0.00674144737, 0.00674144458
-0.156138927, 0.130848721 , -9.792063   , -0.000120163837, 0.000319455052, 0.000130982313, -0.0131763751, -0.0161396973, 0.0002779798, 923.5735    , 30.9566879  , 774.5457    , 4.12        , 3           , 12          , 0.174648076 , 0
-0.158944875, 0.129080281 , -9.792041   , 0.000284263049, -9.722926E-05, -0.000249840465, -0.0131734936, -0.0161407031, 0.000275494123, 923.6151    , 30.9565525  , 774.545959  , 4.13        , 3           , 13          , 0           , 0
-0.159355924, 0.126910374 , -9.785747   , -0.000508435944, -0.0003460801, -0.0007662406, -0.0131784547, -0.0161442682, 0.000267877156, 923.6151    , 30.9565525  , 774.5462    , 4.14        , 3           , 14          , -0.000442828459, -0.0003046313
-0.156763926, 0.130473092 , -9.781769   , -0.0008575024, -0.0003025299, 0.00100676343, -0.0131871914, -0.0161471553, 0.000277984829, 923.6151    , 30.9565525  , 774.546448  , 4.15        , 3           , 15          , 0           , 2.853327E-05
-0.164088532, 0.128643751 , -9.790023   , -0.000670641137, 7.248149E-05, 0.0004364872, -0.0131939687, -0.01614637 , 0.0002823402, 923.6151    , 30.9565525  , 774.5467    , 4.16        , 3           , 16          , 0           , 1.401298E-45
-0.165555149, 0.1279136   , -9.796931   , -0.00015494175, -0.000141751458, 0.000449218758, -0.013195591, -0.0161477271, 0.000286851166, 923.6151    , 30.9565525  , 774.546936  , 4.17        , 3           , 20          , 0           , 0
-0.165373117, 0.114671744 , -9.793263   , 1.13708375E-05, -4.73722466E-05, -0.000412880559, -0.01319541 , -0.0161482561, 0.00028272855, 923.6151    , 30.9565525  , 774.5472    , 4.18        , 3           , 21          , 0           , 0
-0.168122455, 0.126615062 , -9.790518   , -0.000606291869, -3.88034969E-05, -0.000151605185, -0.0132014481, -0.0161486641, 0.000281217566, 923.6151    , 30.9565525  , 774.5474    , 4.19        , 3           , 22          , 0           , 0
-0.156923339, 0.133266687 , -9.793153   , -0.0001437706, 0.00045627926, -0.000356095843, -0.0132028274, -0.0161441471, 0.000277596264, 923.6151    , 30.9565525  , 774.547668  , 4.2         , 3           , 40          , 0           , 0
-0.158565387, 0.1348128   , -9.79545    , -0.00032032773, 9.08970833E-07, 8.351795E-05, -0.0132034551, -0.0161502026, 0.000278389547, 923.6151    , 30.9565525  , 774.5459    , 4.21        , 3           , 41          , 0           , 0
-0.1555691  , 0.130929083 , -9.794647   , -0.000190732913, 7.583795E-05, 2.95598038E-05, -0.013205369, -0.01614944 , 0.000278675143, 923.6151    , 30.9565525  , 774.546143  , 4.22        , 3           , 42          , 0           , 0
-0.152109385, 0.140501767 , -9.784491   , -0.000143638317, -0.00042150286, -0.000495574, -0.0132067241, -0.0161537211, 0.00027377496, 923.6552    , 30.9590626  , 774.5464    , 4.23        , 3           , 255         , 0           , 0
-0.153839156, 0.127101988 , -9.794789   , -2.39844667E-05, -0.000308245246, -0.0007591327, -0.0132068424, -0.0161569044, 0.0002662242, 923.6552    , 30.9590626  , 774.546631  , 4.24        , 3           , 255         , 0           , 0
-0.165720955, 0.133412018 , -9.795378   , 5.58786851E-05, 9.896641E-06, -0.0004562191, -0.01320621 , -0.0161568653, 0.000261660636, 923.6552    , 30.9590626  , 774.5469    , 4.25        , 3           , 255         , 0           , 0
-0.163318232, 0.132998645 , -9.800997   , 0.000100912846, -0.0001542902, -0.000328153576, -0.01320515 , -0.01615845 , 0.000258399436, 923.6552    , 30.9590626  , 774.5471    , 4.26        , 3           , 255         , 0           , 0
-0.157764375, 0.134904936 , -9.794726   , 9.25766362E-05, -0.0004817323, 0.000259531225, -0.0132042672, -0.0161632318, 0.0002610584, 923.6552    , 30.9590626  , 774.547363  , 4.27        , 3           , 255         , 0           , 0
-0.16345194 , 0.139690623 , -9.801298   , 0.00058029  , -0.000191475847, -1.07349042E-05, -0.0131984632, -0.0161651466, 0.000260976347, 923.6552    , 30.9590626  , 774.5476    , 4.28        , 3           , 255         , 0           , 0
-0.1632533  , 0.12543115  , -9.791071   , 0.000242180889, -8.243951E-06, 0.000307172566, -0.0131960912, -0.01616519 , 0.0002640492, 923.6552    , 30.9590626  , 774.547852  , 4.29        , 3           , 255         , 0           , 0
-0.1618252  , 0.133870751 , -9.790891   , -0.000145940023, 2.84347334E-06, 0.0005488725, -0.01319764 , -0.016165087, 0.000269537646, 923.6552    , 30.9590626  , 774.5481    , 4.3         , 3           , 255         , 0           , 0
-0.162590861, 0.130268484 , -9.792959   , 0.000425435748, 0.000257355277, 0.000634526135, -0.0131988535, -0.016164124, 0.0002759358, 923.6552    , 30.9590626  , 774.4896    , 4.31        , 3           , 255         , 0           , 0
-0.157169938, 0.1222736   , -9.789533   , 0.000474173459, -0.000210814789, -0.000400051, -0.0131940478, -0.0161662865, 0.000271963 , 923.6552    , 30.9590626  , 774.4895    , 4.32        , 3           , 255         , 0           , 0
-0.158802778, 0.1300151   , -9.794548   , 0.0002735767, 0.000194385924, 8.060988E-06, -0.0131913135, -0.0161643438, 0.000272018 , 923.6488    , 30.95784    , 774.4894    , 4.33        , 3           , 255         , 0           , 0
-0.1569387  , 0.128042743 , -9.792755   , 0.000140584132, 0.00015986932, -0.000347859284, -0.0131898513, -0.01616279 , 0.000268518255, 923.6488    , 30.95784    , 774.489258  , 4.34        , 3           , 255         , 0           , 0
-0.153363556, 0.128430828 , -9.790143   , 7.144312E-05, 0.000401042867, 0.000698273245, -0.0131892487, -0.016158687, 0.000275448227, 923.6488    , 30.95784    , 774.489136  , 4.35        , 3           , 255         , 0           , 0
-0.153127685, 0.135759324 , -9.783681   , 0.000147478073, 0.000205804885, 0.0007718201, -0.0131879  , -0.0161565263, 0.000283139438, 923.6488    , 30.95784    , 774.489     , 4.36        , 3           , 255         , 0           , 0
-0.156235725, 0.133585885 , -9.785627   , 0.0005723431, -0.000411949557, 6.93265756E-05, -0.0131821893, -0.016160639, 0.000283887028, 923.6488    , 30.95784    , 774.4889    , 4.37        , 3           , 255         , 0           , 0
-0.160168871, 0.1370638   , -9.797058   , 0.000146119186, -0.000277999818, -0.000105775696, -0.01318071 , -0.0161634311, 0.00028286592, 923.6488    , 30.95784    , 774.4888    , 4.38        , 3           , 255         , 0           , 0
-0.1655047  , 0.137765884 , -9.797377   , -0.000310195523, -0.000314137229, -0.000139851385, -0.0131837912, -0.01616659 , 0.00028150875, 923.6488    , 30.95784    , 774.488647  , 4.39        , 3           , 255         , 0           , 0
-0.161943555, 0.129026964 , -9.794487   , -0.0002016876, -0.000553421443, 0.000229348618, -0.0131858448, -0.0161720924, 0.000283875241, 923.6488    , 30.95784    , 774.4885    , 4.4         , 3           , 255         , 0           , 0
-0.160992622, 0.130402848 , -9.78553    , 0.000183817523, 5.85929956E-05, 2.26929478E-05, -0.0131872594, -0.0161720049, 0.000284147 , 923.6488    , 30.95784    , 774.447754  , 4.41        , 3           , 255         , 0           , 0
-0.166537851, 0.121354237 , -9.789549   , 0.000309676048, -0.0002679801, 0.0007361328, -0.0131842839, -0.01617459 , 0.000291543838, 923.6488    , 30.95784    , 774.4474    , 4.42        , 3           , 255         , 0           , 0
-0.158325464, 0.123835959 , -9.790512   , 0.000174547255, -0.000443476543, -0.000501211267, -0.0131824575, -0.0161790885, 0.000286590046, 923.652     , 30.9586544  , 774.447     , 4.43        , 3           , 255         , 0           , 0
-0.158086509, 0.123689853 , -9.791627   , 0.00014638016, 9.787097E-05, 0.000556238869, -0.013181082, -0.016178038, 0.000292139652, 923.652     , 30.9586544  , 774.446655  , 4.44        , 3           , 255         , 0           , 0
-0.160894692, 0.127091318 , -9.784088   , 1.30229164E-05, -4.94439737E-05, 0.000733703841, -0.0131810708, -0.0161784347, 0.000299483363, 923.652     , 30.9586544  , 774.4463    , 4.45        , 3           , 255         , 0           , 0
-0.151963249, 0.12694031  , -9.787883   , 2.33382452E-05, 6.39036152E-05, -0.0002804624, -0.0131807923, -0.0161778331, 0.000296670245, 923.652     , 30.9586544  , 774.4459    , 4.46        , 3           , 255         , 0           , 0
-0.15625897 , 0.12013495  , -9.797361   , -0.0004003402, -0.000158954092, 0.000484611053, -0.0131848743, -0.0161793549, 0.000301537366, 923.652     , 30.9586544  , 774.445557  , 4.47        , 3           , 255         , 0           , 0
-0.156848431, 0.133677632 , -9.785329   , 3.02772969E-06, 0.000200055292, -0.0003898383, -0.01318478 , -0.0161774065, 0.00029761254, 923.652     , 30.9586544  , 774.4452    , 4.48        , 3           , 255         , 0           , 0
-0.161940023, 0.134207934 , -9.792171   , 0.000460270559, 0.000113815666, 0.000456940761, -0.0131802494, -0.0161762089, 0.000302167056, 923.652     , 30.9586544  , 774.4448    , 4.49        , 3           , 255         , 0           , 0
-0.170684144, 0.132072434 , -9.788178   , 0.000323134474, 0.000242519527, -0.0003462381, -0.0131769627, -0.016173834, 0.000298672647, 923.652     , 30.9586544  , 774.444458  , 4.5         , 3           , 255         , 0           , 0
-0.168345   , 0.1301633   , -9.789693   , -0.000369293557, -0.000135630864, -1.959979E-05, -0.0131774032, -0.0161787327, 0.0002984419, 923.652     , 30.9586544  , 774.4055    , 4.51        , 3           , 255         , 0           , 0
-0.157629579, 0.132597029 , -9.793226   , -0.0005864752, -0.000269207143, -1.59522533E-05, -0.0131832669, -0.0161814243, 0.000298317871, 923.652     , 30.9586544  , 774.404968  , 4.52        , 3           , 255         , 0           , 0
-0.153605908, 0.126106068 , -9.79836    , -0.000577010156, 6.46779663E-05, -0.0001521423, -0.0131890113, -0.0161807965, 0.000296787854, 923.6067    , 30.9572983  , 774.4044    , 4.53        , 3           , 255         , 0           , 0
-0.1555003  , 0.131770045 , -9.796745   , 0.0004955414, -0.000279179, -0.000323416432, -0.0131840063, -0.0161836315, 0.000293590478, 923.6067    , 30.9572983  , 774.4039    , 4.54        , 3           , 255         , 0           , 0
-0.152267545, 0.13506566  , -9.789259   , -0.000290205178, 1.25143561E-06, -0.000531971455, -0.0131868226, -0.0161836874, 0.0002882705, 923.6067    , 30.9572983  , 774.4033    , 4.55        , 3           , 255         , 0           , 0
-0.159394711, 0.129847467 , -9.785889   , -0.0003561845, 0.000360141246, 0.000160553143, -0.0131904092, -0.0161800664, 0.000289828546, 923.6067    , 30.9572983  , 774.4028    , 4.56        , 3           , 255         , 0           , 0
-0.160393164, 0.128260091 , -9.791555   , -0.000112072739, 0.000390733476, 0.0005713935, -0.0131916218, -0.0161760841, 0.000295491016, 923.6067    , 30.9572983  , 774.4022    , 4.57        , 3           , 255         , 0           , 0
-0.162737638, 0.133645758 , -9.799121   , -0.000477756083, 0.0001238805, -0.000132294881, -0.0131963752, -0.0161748622, 0.000294151716, 923.6067    , 30.9572983  , 774.4017    , 4.58        , 3           , 255         , 0           , 0
-0.1597623  , 0.123820879 , -9.792774   , -0.000281173328, -0.000514738145, -8.265395E-05, -0.0131991748, -0.01618002 , 0.0002933931, 923.6067    , 30.9572983  , 774.4011    , 4.59        , 3           , 255         , 0           , 0
-0.155668721, 0.125607282 , -9.783212   , 3.21314437E-05, 0.0002862903, 0.0006859282, -0.0131989643, -0.0161770675, 0.0003002147, 923.6067    , 30.9572983  , 774.4006    , 4.6         , 3           , 255         , 0           , 0
-0.153936774, 0.121664405 , -9.790099   , -0.000177210488, -0.000127226551, 1.35740629E-05, -0.0132015934, -0.0161783863, 0.000300381042, 923.6067    , 30.9572983  , 774.431946  , 4.61        , 3           , 255         , 0           , 0
-0.160873964, 0.120939337 , -9.7842865  , -0.000363577739, -3.446499E-05, -5.758967E-05, -0.0132052209, -0.0161787346, 0.0002998097, 923.6067    , 30.9572983  , 774.4316    , 4.62        , 3           , 255         , 0           , 0
-0.16067186 , 0.133109212 , -9.790654   , 0.000303059642, 0.00027899188, -0.000156456343, -0.0132021634, -0.0161759667, 0.0002982083, 923.602844  , 30.9574337  , 774.4312    , 4.63        , 3           , 255         , 0           , 0
-0.163501948, 0.136120737 , -9.792051   , 0.000283697678, -0.00049199874, -7.79879047E-05, -0.0131993135, -0.0161808971, 0.00029749336, 923.602844  , 30.9574337  , 774.430847  , 4.64        , 3           , 255         , 0           , 0
-0.1614614  , 0.128677934 , -9.787483   , -1.34869479E-05, 9.641006E-05, 1.9425901E-05, -0.0131994514, -0.01617993 , 0.00029767488, 923.602844  , 30.9574337  , 774.4305    , 4.65        , 3           , 255         , 0           , 0
-0.157851413, 0.12442036  , -9.794153   , -0.000325073546, 0.000229333309, -0.000570402131, -0.0132026095, -0.016177712, 0.000291940465, 923.602844  , 30.9574337  , 774.4301    , 4.66        , 3           , 255         , 0           , 0
-0.155317873, 0.129843384 , -9.790953   , -0.000612186443, 0.000166810118, 0.000128475382, -0.0132087516, -0.0161760263, 0.000293203222, 923.602844  , 30.9574337  , 774.429749  , 4.67        , 3           , 255         , 0           , 0
-0.160510987, 0.131405488 , -9.793556   , 0.00027966185, -3.910245E-06, 5.415932E-05, -0.0132059641, -0.01617606 , 0.000293745339, 923.602844  , 30.9574337  , 774.4294    , 4.68        , 3           , 255         , 0           , 0
-0.154710889, 0.132190615 , -9.793142   , 0.000187608 , 2.41679372E-05, 0.000114013208, -0.0132041061, -0.0161758028, 0.0002948823, 923.602844  , 30.9574337  , 774.429     , 4.69        , 3           , 255         , 0           , 0
-0.156591088, 0.12981303  , -9.794703   , 0.00015157141, 0.000234971027, -0.000162765587, -0.0132025639, -0.0161734726, 0.000293223566, 923.602844  , 30.9574337  , 774.42865   , 4.7         , 3           , 255         , 0           , 0
-0.162175059, 0.125357658 , -9.791019   , 0.000271516968, -2.61767127E-05, -0.000859371852, -0.0131990332, -0.016174   , 0.00028462222, 923.602844  , 30.9574337  , 774.4616    , 4.71        , 3           , 255         , 0           , 0
-0.155594587, 0.1316808   , -9.789778   , -0.000204103242, -0.000281685352, 2.577923E-05, -0.0132010793, -0.01617681 , 0.000284917158, 923.602844  , 30.9574337  , 774.4615    , 4.72        , 3           , 255         , 0           , 0
-0.1448633  , 0.138801754 , -9.786074   , 6.86936546E-05, -5.5714685E-05, -0.0004937627, -0.0132003119, -0.0161774326, 0.0002799868, 923.6118    , 30.9582481  , 774.461365  , 4.73        , 3           , 255         , 0           , 0
-0.155033708, 0.127182037 , -9.789248   , 2.28521822E-05, 0.000226594391, -0.000216504908, -0.0132000474, -0.0161751956, 0.000277791783, 923.6118    , 30.9582481  , 774.461243  , 4.74        , 3           , 255         , 0           , 0
-0.157673761, 0.138044551 , -9.802655   , -0.0003138568, 8.897994E-05, 0.000358222664, -0.0132032437, -0.0161742587, 0.000281362329, 923.6118    , 30.9582481  , 774.4611    , 4.75        , 3           , 255         , 0           , 0
-0.158075079, 0.12586996  , -9.794149   , -0.00022500573, 0.000452562468, 0.000508322846, -0.0132055748, -0.0161696654, 0.0002863859, 923.6118    , 30.9582481  , 774.461     , 4.76        , 3           , 255         , 0           , 0
-0.152841613, 0.12720114  , -9.797281   , 0.0006951223, 0.0003623955, 0.0007227357, -0.01319874 , -0.01616595 , 0.000293565565, 923.6118    , 30.9582481  , 774.4609    , 4.77        , 3           , 255         , 0           , 0
-0.158371657, 0.133691385 , -9.79246    , 0.001068959 , -3.12445336E-05, 9.016041E-05, -0.013188066, -0.0161662474, 0.000294471276, 923.6118    , 30.9582481  , 774.460754  , 4.78        , 3           , 255         , 0           , 0
-0.161687538, 0.128064662 , -9.796366   , 0.000162052282, -0.0003291994, -0.0003189893, -0.0131863942, -0.0161695816, 0.000291324744, 923.6118    , 30.9582481  , 774.460632  , 4.79        , 3           , 255         , 0           , 0
-0.158397   , 0.1267852   , -9.796396   , -0.000145069964, 0.000165285819, -0.000457632, -0.01318777 , -0.01616799 , 0.000286726543, 923.6118    , 30.9582481  , 774.4605    , 4.8         , 3           , 255         , 0           , 0
-0.153193623, 0.13597241  , -9.787767   , 0.000109227345, -0.0002039721, -0.000279011729, -0.0131879132, -0.0161674656, 0.000283983973, 923.6118    , 30.9582481  , 774.476135  , 4.81        , 3           , 255         , 0           , 0
