Acc X       , Acc Y       , Acc Z       , Gyro X      , Gyro Y      , Gyro Z      , Euler X     , Euler Y     , Euler Z     , Pres X      , Pres Y      , Pres Z      , Time        , Status      , LowRate X   , LowRate Y   , LowRate Z    
-0.137811676, 0.156261444 , -9.78283    , 0           , 0           , 0           , -0.0159716718, -0.0140843689, 0           , 921.1936    , 32.8518524  , 796.286743  , 0           , 2           , 0           , 5.04123163  , 0
-0.141103223, 0.158084661 , -9.788105   , 0.000253769744, -0.000228672288, -0.000799394737, -0.0159693714, -0.0140868993, -7.956991E-06, 921.1936    , 32.8518524  , 796.286743  , 0.01        , 3           , 1           , 0           , 0
-0.13588354 , 0.158724219 , -9.789418   , 0.00019488926, -0.00022850174, -0.000629508169, -0.0159673318, -0.0140892845, -1.42152494E-05, 921.1936    , 32.8518524  , 796.286743  , 0.02        , 3           , 2           , 0           , 0
-0.139723241, 0.159661412 , -9.786024   , 1.94842578E-05, 3.652263E-05, -0.0005078887, -0.0159670655, -0.0140889995, -1.9299714E-05, 921.1615    , 32.42201    , 796.286743  , 0.03        , 3           , 3           , 0           , 0
-0.146331653, 0.158100367 , -9.797754   , 0.000299648847, 8.510309E-05, -0.000234102219, -0.0159640368, -0.0140881846, -2.16542048E-05, 921.1615    , 32.42201    , 796.286743  , 0.04        , 3           , 4           , 0           , 0
-0.143076763, 0.159664959 , -9.789138   , 0.000163079123, 6.13956945E-05, -0.000375097967, -0.0159623548, -0.01408763 , -2.54147726E-05, 921.1615    , 32.42201    , 796.286743  , 0.05        , 3           , 5           , 0           , 0
-0.141661614, 0.160240144 , -9.788044   , 0.000315751182, 0.000179742 , -0.000349406851, -0.01595915 , -0.0140858889, -2.89373347E-05, 921.1615    , 32.42201    , 796.286743  , 0.06        , 3           , 6           , 0           , 0
-0.1432657  , 0.155303568 , -9.783609   , -0.000395571464, -6.35614851E-05, -0.000259219523, -0.0159630682, -0.0140865669, -3.15192447E-05, 921.1615    , 32.42201    , 796.286743  , 0.07        , 3           , 7           , 0           , 0
-0.143008739, 0.160097808 , -9.791627   , -6.36208E-05, -7.163989E-05, 4.78438669E-05, -0.0159637127, -0.0140872756, -3.102939E-05, 921.1615    , 32.42201    , 796.286743  , 0.08        , 3           , 8           , 5           , 5
-0.135238856, 0.165678978 , -9.790594   , 0.000443533732, -0.000525729964, -0.0008215048, -0.0159591623, -0.0140926642, -3.91600843E-05, 921.1615    , 32.42201    , 796.286743  , 0.09        , 3           , 9           , 5           , 0.1
-0.137552708, 0.163383171 , -9.7871     , 0.00059726584, 3.23463464E-05, -0.00051497 , -0.0159531161, -0.0140924221, -4.43146637E-05, 921.1615    , 32.42201    , 796.286743  , 0.1         , 3           , 10          , 0.1         , 0.1
-0.131932557, 0.159332082 , -9.785115   , 4.31941E-05 , -0.000184544711, -0.000465340854, -0.01597113 , -0.014108412, -4.86772369E-05, 921.1615    , 32.42201    , 796.5776    , 0.11        , 3           , 11          , 0.0109544508, 0.0109544508
-0.130834669, 0.160109878 , -9.792028   , 4.656904E-06, -0.000180925592, 9.043069E-05, -0.0159710944, -0.0141102066, -4.77440772E-05, 921.1615    , 32.42201    , 796.5776    , 0.12        , 3           , 12          , 0.174642488 , 0
-0.142696023, 0.153807282 , -9.778987   , -3.8047554E-05, -0.000176504953, -7.875472E-05, -0.0159714632, -0.0141119827, -4.85033961E-05, 921.2019    , 32.45864    , 796.5776    , 0.13        , 3           , 13          , 0           , 0
-0.131484136, 0.154515564 , -9.79254    , -0.000351378869, -0.000272914069, 0.0002266076, -0.0159750078, -0.014114676, -4.61938434E-05, 921.2019    , 32.45864    , 796.5776    , 0.14        , 3           , 14          , -0.000888757349, -0.001061492
-0.132555917, 0.152096257 , -9.782881   , -0.000405384053, -0.00047484634, 0.000190786828, -0.0159790888, -0.0141193932, -4.421021E-05, 921.2019    , 32.45864    , 796.5776    , 0.15        , 3           , 15          , 0           , -0.000160518626
-0.1369319  , 0.149813563 , -9.786443   , -0.0004225063, -9.422598E-05, 0.0004675049, -0.0159833785, -0.0141202612, -3.95203642E-05, 921.2019    , 32.45864    , 796.5776    , 0.16        , 3           , 16          , 0           , 1.401298E-45
-0.138858974, 0.159075692 , -9.789912   , -0.00028782367, 0.000271725061, 0.000161966265, -0.01598628 , -0.0141175194, -3.79442172E-05, 921.2019    , 32.45864    , 796.5776    , 0.17        , 3           , 20          , 0           , 0
-0.139213577, 0.165377975 , -9.78187    , -0.000140898221, -0.000121357734, -0.0003380149, -0.01598764 , -0.0141187869, -4.13047965E-05, 921.2019    , 32.45864    , 796.5776    , 0.18        , 3           , 21          , 0           , 0
-0.14067547 , 0.1544642   , -9.78111    , 7.518235E-05, -0.000421067583, -0.000169253326, -0.0159868635, -0.0141230235, -4.29299071E-05, 921.2019    , 32.45864    , 796.5776    , 0.19        , 3           , 22          , 0           , 0
-0.14218463 , 0.155283421 , -9.782404   , 0.0009840498, -0.000334540964, 0.0005090997, -0.0159770939, -0.0141262859, -3.77857068E-05, 921.2019    , 32.45864    , 796.5776    , 0.2         , 3           , 40          , 0           , 0
-0.143197775, 0.158988118 , -9.78557    , 0.000245206058, -2.6044203E-05, -0.00019079604, -0.0159748327, -0.0141160395, -3.968633E-05, 921.2019    , 32.45864    , 796.394958  , 0.21        , 3           , 41          , 0           , 0
-0.142518014, 0.152362376 , -9.789953   , 0.000392193848, 0.000164624129, -0.0007775703, -0.0159708038, -0.0141145177, -4.74879162E-05, 921.2019    , 32.45864    , 796.394958  , 0.22        , 3           , 42          , 0           , 0
-0.13792488 , 0.15239951  , -9.79669    , -0.000126515864, 1.22328056E-05, -0.000194455526, -0.0159720425, -0.0141144255, -4.94343039E-05, 921.170532  , 32.4827271  , 796.394958  , 0.23        , 3           , 255         , 0           , 0
-0.13523753 , 0.154306561 , -9.792028   , -0.00029912428, -0.000278692343, 0.000691505033, -0.01597513 , -0.0141171021, -4.24750979E-05, 921.170532  , 32.4827271  , 796.394958  , 0.24        , 3           , 255         , 0           , 0
-0.138957411, 0.160696834 , -9.79186    , 0.000236181309, -2.32112361E-05, 0.00019160728, -0.0159727968, -0.0141173052, -4.05554274E-05, 921.170532  , 32.4827271  , 796.395     , 0.25        , 3           , 255         , 0           , 0
-0.147859827, 0.161858231 , -9.791184   , 0.000122054131, 0.000100609672, -0.00033520165, -0.0159715265, -0.0141163515, -4.392333E-05, 921.170532  , 32.4827271  , 796.3951    , 0.26        , 3           , 255         , 0           , 0
-0.129325971, 0.160315558 , -9.783207   , 5.08041121E-05, -0.00036300486, -4.38640855E-05, -0.0159710124, -0.0141199892, -4.4303968E-05, 921.170532  , 32.4827271  , 796.395142  , 0.27        , 3           , 255         , 0           , 0
-0.12945804 , 0.15912798  , -9.784212   , 0.000190645922, -0.000249890843, 1.58013427E-05, -0.0159691088, -0.0141224852, -4.41060438E-05, 921.170532  , 32.4827271  , 796.3952    , 0.28        , 3           , 255         , 0           , 0
-0.133322924, 0.151598066 , -9.784944   , 0.000292940123, 7.270742E-05, 0.000132475645, -0.0159661975, -0.0141217364, -4.27929663E-05, 921.170532  , 32.4827271  , 796.395264  , 0.29        , 3           , 255         , 0           , 0
-0.137914971, 0.157391742 , -9.784287   , 0.0001645378, -4.4930377E-05, 0.00018464202, -0.01596458 , -0.0141221564, -4.09394634E-05, 921.170532  , 32.4827271  , 796.3953    , 0.3         , 3           , 255         , 0           , 0
-0.128326744, 0.151510641 , -9.794098   , 7.318071E-05, -0.000370864873, -0.000254122249, -0.0159664247, -0.014122773, -4.338446E-05, 921.170532  , 32.4827271  , 796.429138  , 0.31        , 3           , 255         , 0           , 0
-0.143320441, 0.143036917 , -9.79285    , -0.000120680837, 0.0003367256, 9.331926E-05, -0.0159676448, -0.0141193923, -4.25050639E-05, 921.170532  , 32.4827271  , 796.4292    , 0.32        , 3           , 255         , 0           , 0
-0.14478454 , 0.162613124 , -9.795221   , -0.0004595486, 0.000123967882, 2.55962077E-05, -0.0159722473, -0.0141181489, -4.226891E-05, 921.1917    , 32.4994164  , 796.42926   , 0.33        , 3           , 255         , 0           , 0
-0.142606169, 0.1599922   , -9.79422951 , -0.000129158434, 0.000153081957, -0.0007500678, -0.015973432, -0.014116738, -4.979364E-05, 921.1917    , 32.4994164  , 796.4293    , 0.34        , 3           , 255         , 0           , 0
-0.137783736, 0.162683755 , -9.790445   , -7.316511E-05, 1.34081347E-05, -0.000227306446, -0.0159741286, -0.01411664 , -5.20687172E-05, 921.1917    , 32.4994164  , 796.4294    , 0.35        , 3           , 255         , 0           , 0
-0.138633192, 0.159684137 , -9.796228   , 9.342859E-05, 0.000103031693, 0.00019244969, -0.0159732215, -0.0141155794, -5.01607938E-05, 921.1917    , 32.4994164  , 796.429443  , 0.36        , 3           , 255         , 0           , 0
-0.135332748, 0.1611275   , -9.791774   , 0.0005353333, 0.0001065259, 0.000327237241, -0.0159679111, -0.0141144609, -4.69056176E-05, 921.1917    , 32.4994164  , 796.4295    , 0.37        , 3           , 255         , 0           , 0
-0.1461261  , 0.158359736 , -9.79727    , 0.00061139313, -0.000378620462, 0.00105231872, -0.0159619488, -0.0141180819, -3.632252E-05, 921.1917    , 32.4994164  , 796.429565  , 0.38        , 3           , 255         , 0           , 0
-0.139012411, 0.157667488 , -9.79206848 , 0.0005929325, -0.0007817219, 0.000162507946, -0.0159560423, -0.0141258677, -3.457278E-05, 921.1917    , 32.4994164  , 796.4296    , 0.39        , 3           , 255         , 0           , 0
-0.141981721, 0.156028166 , -9.782905   , 0.0005907004, -5.51563E-05, 0.000127362087, -0.0159501564, -0.0141263986, -3.32904165E-05, 921.1917    , 32.4994164  , 796.4297    , 0.4         , 3           , 255         , 0           , 0
-0.138076514, 0.148528874 , -9.768438   , -0.000184138422, -5.069631E-05, 0.0009328218, -0.0159548856, -0.0141318217, -2.39156161E-05, 921.1917    , 32.4994164  , 796.3983    , 0.41        , 3           , 255         , 0           , 0
-0.135082632, 0.147675842 , -9.768075   , -0.00100585329, 1.89245911E-05, 0.0001520174, -0.0159649663, -0.01413161 , -2.23985135E-05, 921.1917    , 32.4994164  , 796.3984    , 0.42        , 3           , 255         , 0           , 0
-0.129397288, 0.152856931 , -9.798327   , -0.000331146875, -0.00025584118, -0.0005990851, -0.0159681924, -0.0141342618, -2.83482041E-05, 921.192444  , 32.5101357  , 796.398438  , 0.43        , 3           , 255         , 0           , 0
-0.141135529, 0.15211609  , -9.78717    , -0.000117149204, 7.57304952E-06, 0.000262291753, -0.0159694  , -0.0141341444, -2.57266383E-05, 921.192444  , 32.5101357  , 796.3985    , 0.44        , 3           , 255         , 0           , 0
-0.133634865, 0.1493089   , -9.783701   , 0.0003669138, -7.640151E-05, 0.00103350182, -0.0159658771, -0.0141347451, -1.53799774E-05, 921.192444  , 32.5101357  , 796.39856   , 0.45        , 3           , 255         , 0           , 0
-0.132061139, 0.154818147 , -9.777748   , 0.000322750071, -0.000151160988, 0.000265781156, -0.0159626864, -0.0141362147, -1.26981777E-05, 921.192444  , 32.5101357  , 796.3986    , 0.46        , 3           , 255         , 0           , 0
-0.144756109, 0.15093869  , -9.785732   , -0.0004362153, -9.08606453E-05, -8.059091E-05, -0.0159670357, -0.014137134, -1.34895263E-05, 921.192444  , 32.5101357  , 796.3987    , 0.47        , 3           , 255         , 0           , 0
-0.152604774, 0.156788275 , -9.786574   , -0.0007114026, -0.0004049124, 0.0006379853, -0.0159742385, -0.01414108 , -7.045338E-06, 921.192444  , 32.5101357  , 796.398743  , 0.48        , 3           , 255         , 0           , 0
-0.138453782, 0.155265123 , -9.807144   , 0.000214493659, -0.000278634485, 0.00038818852, -0.01597215 , -0.0141438032, -3.11914414E-06, 921.192444  , 32.5101357  , 796.3988    , 0.49        , 3           , 255         , 0           , 0
-0.136365712, 0.15787895  , -9.811697   , 0.0004074672, -0.00010683306, 0.000105270774, -0.01596809 , -0.0141448546, -2.04942057E-06, 921.192444  , 32.5101357  , 796.398865  , 0.5         , 3           , 255         , 0           , 0
-0.1346322  , 0.15623045  , -9.787437   , 0.000511994353, -0.000173175009, -0.00014377317, -0.01594463 , -0.0141455624, -3.71862666E-06, 921.192444  , 32.5101357  , 796.3782    , 0.51        , 3           , 255         , 0           , 0
-0.131995291, 0.152133942 , -9.774131   , 0.000701655459, 9.913725E-05, 0.0003809224, -0.0159376618, -0.0141445091, 7.458603E-08, 921.192444  , 32.5101357  , 796.378235  , 0.52        , 3           , 255         , 0           , 0
-0.129536152, 0.142708525 , -9.78105    , 0.000109677028, -1.8224935E-05, -0.000381543534, -0.0159365144, -0.0141447512, -3.73774265E-06, 921.230957  , 32.5178     , 796.3783    , 0.53        , 3           , 255         , 0           , 0
-0.1385806  , 0.160597354 , -9.79736    , -0.0006868965, -0.0002554732, 0.000369289541, -0.0159434341, -0.0141472481, -4.33690461E-09, 921.230957  , 32.5178     , 796.378357  , 0.54        , 3           , 255         , 0           , 0
-0.1398845  , 0.15658772  , -9.791642   , -0.0006618673, 0.000408046064, 0.0004207315, -0.0159501135, -0.0141431009, 4.13769067E-06, 921.230957  , 32.5178     , 796.3784    , 0.55        , 3           , 255         , 0           , 0
-0.1353766  , 0.156803936 , -9.79522    , -0.00108440535, 0.000390796748, 4.464812E-05, -0.0159609579, -0.0141391885, 4.52179E-06 , 921.230957  , 32.5178     , 796.3785    , 0.56        , 3           , 255         , 0           , 0
-0.134512171, 0.159472242 , -9.790961   , -0.000278998632, 0.000246325973, 0.0008628893, -0.0159638729, -0.0141365882, 1.31109182E-05, 921.230957  , 32.5178     , 796.37854   , 0.57        , 3           , 255         , 0           , 0
-0.137304381, 0.152730986 , -9.78623    , -0.000525033334, -0.000177046983, -0.000163129487, -0.0159691  , -0.0141383829, 1.1507982E-05, 921.230957  , 32.5178     , 796.3786    , 0.58        , 3           , 255         , 0           , 0
-0.138606146, 0.145014241 , -9.802874   , -0.000679862, -0.0008158126, 1.28005486E-05, -0.0159759  , -0.0141465366, 1.17662776E-05, 921.230957  , 32.5178     , 796.378662  , 0.59        , 3           , 255         , 0           , 0
-0.137792975, 0.149961472 , -9.803925   , -0.000304822461, -0.000327211, 0.00027921662, -0.0159789883, -0.0141497636, 1.4610574E-05, 921.230957  , 32.5178     , 796.3787    , 0.6         , 3           , 255         , 0           , 0
-0.139873609, 0.169579551 , -9.800032   , -0.000322916952, 0.0001108374, 0.000177688969, -0.0159720629, -0.01413927 , 1.62257638E-05, 921.230957  , 32.5178     , 796.3043    , 0.61        , 3           , 255         , 0           , 0
-0.138612181, 0.165035814 , -9.786797   , 0.000196228561, -0.0003427778, 0.000109416484, -0.0159701165, -0.01414268 , 1.73746139E-05, 921.230957  , 32.5178     , 796.3044    , 0.62        , 3           , 255         , 0           , 0
-0.1322497  , 0.159651235 , -9.777998   , -1.53080327E-06, -0.00036771677, 0.0008562437, -0.0159702543, -0.0141462209, 2.599533E-05, 921.2153    , 32.52465    , 796.304443  , 0.63        , 3           , 255         , 0           , 0
-0.138364419, 0.1565978   , -9.778249   , -0.000329645176, 0.000108935055, 6.99460652E-05, -0.01597356 , -0.0141451173, 2.66773568E-05, 921.2153    , 32.52465    , 796.3045    , 0.64        , 3           , 255         , 0           , 0
-0.137704939, 0.161695212 , -9.788813   , -0.000270657882, 0.000322417181, -1.25190127E-05, -0.0159762669, -0.0141418967, 2.65006711E-05, 921.2153    , 32.52465    , 796.304565  , 0.65        , 3           , 255         , 0           , 0
-0.148310691, 0.165185228 , -9.800057   , -0.000464361, 5.80801861E-05, 0.000194199733, -0.0159809384, -0.0141412849, 2.84332909E-05, 921.2153    , 32.52465    , 796.3046    , 0.66        , 3           , 255         , 0           , 0
-0.144060016, 0.1609233   , -9.795672   , -0.000231093552, 1.88803533E-05, 0.000480851682, -0.0159833152, -0.0141410194, 3.323853E-05, 921.2153    , 32.52465    , 796.3047    , 0.67        , 3           , 255         , 0           , 0
-0.140302643, 0.159809679 , -9.794811   , 8.118636E-05, 0.000146646751, -3.0900992E-06, -0.0159825012, -0.0141395545, 3.31841948E-05, 921.2153    , 32.52465    , 796.304749  , 0.68        , 3           , 255         , 0           , 0
-0.136874542, 0.154194668 , -9.792564   , -0.0009461381, -0.0004448708, 0.000211316219, -0.0159919932, -0.01414397 , 3.53683754E-05, 921.2153    , 32.52465    , 796.3048    , 0.69        , 3           , 255         , 0           , 0
-0.143697858, 0.158500463 , -9.792464   , 0.0002186328, -0.0004567951, 0.0005900724, -0.0159898885, -0.0141484411, 4.134183E-05, 921.2153    , 32.52465    , 796.3049    , 0.7         , 3           , 255         , 0           , 0
-0.132583991, 0.165723935 , -9.784357   , 0.000202030409, -0.000171037624, 0.000356665143, -0.0160038639, -0.0141552063, 4.516134E-05, 921.2153    , 32.52465    , 796.2727    , 0.71        , 3           , 255         , 0           , 0
-0.142706126, 0.158309892 , -9.789828   , -0.000284217531, -0.000175036956, -0.000133527952, -0.0160066877, -0.0141569767, 4.385415E-05, 921.2153    , 32.52465    , 796.272766  , 0.72        , 3           , 255         , 0           , 0
-0.14234367 , 0.153527051 , -9.786904   , -0.0002356699, 3.97698E-06 , -0.000171503736, -0.0160090178, -0.0141569646, 4.213856E-05, 921.131958  , 32.5254669  , 796.2728    , 0.73        , 3           , 255         , 0           , 0
-0.131871849, 0.162837014 , -9.790033   , 4.43308381E-05, -0.000339859049, 0.000657114142, -0.01600867 , -0.0141602568, 4.876376E-05, 921.131958  , 32.5254669  , 796.2729    , 0.74        , 3           , 255         , 0           , 0
-0.134303629, 0.142003223 , -9.792336   , 0.0003308399, 1.55596063E-05, 0.000247164717, -0.0160053931, -0.0141600613, 5.12327861E-05, 921.131958  , 32.5254669  , 796.272949  , 0.75        , 3           , 255         , 0           , 0
-0.135521561, 0.147305936 , -9.795351   , 0.0001116214, -2.88127922E-07, -0.0005367131, -0.0160042029, -0.01416015 , 4.586599E-05, 921.131958  , 32.5254669  , 796.273     , 0.76        , 3           , 255         , 0           , 0
-0.137718186, 0.1446497   , -9.797136   , -1.15852454E-05, 0.0003326616, 4.28349E-05 , -0.016004324, -0.0141568175, 4.624108E-05, 921.131958  , 32.5254669  , 796.2731    , 0.77        , 3           , 255         , 0           , 0
-0.136441663, 0.145515919 , -9.78437    , 0.00052354706, -1.81538053E-05, 0.00028323257, -0.0159991328, -0.0141569534, 4.907617E-05, 921.131958  , 32.5254669  , 796.273132  , 0.78        , 3           , 255         , 0           , 0
-0.136533245, 0.149918273 , -9.783062   , 0.0003126028, -0.000206513563, 0.0008894036, -0.01599613 , -0.0141588775, 5.800277E-05, 921.131958  , 32.5254669  , 796.2732    , 0.79        , 3           , 255         , 0           , 0
-0.13996172 , 0.15376845  , -9.785757   , -8.171692E-05, -0.000625443063, 0.0006763525, -0.0159970447, -0.0141650233, 6.486599E-05, 921.131958  , 32.5254669  , 796.273254  , 0.8         , 3           , 255         , 0           , 0
-0.130776927, 0.152529925 , -9.785002   , 0.000155290647, -3.081793E-05, 0.000239708766, -0.0159786511, -0.0141589241, 6.70289446E-05, 921.131958  , 32.5254669  , 796.3522    , 0.81        , 3           , 255         , 0           , 0
-0.151437238, 0.155321926 , -9.795778   , 0.000255551946, 0.000240417721, 3.23320273E-06, -0.0159760956, -0.0141565194, 6.70228546E-05, 921.131958  , 32.5254669  , 796.3523    , 0.82        , 3           , 255         , 0           , 0
-0.140632063, 0.159414738 , -9.792787   , 0.000207523175, -0.000264585833, -5.44999639E-05, -0.0159740113, -0.0141591728, 6.652015E-05, 921.193     , 32.5294     , 796.3524    , 0.83        , 3           , 255         , 0           , 0
-0.139645338, 0.1659149   , -9.798553   , -0.000211965118, -0.000413691741, 0.000289586838, -0.0159761738, -0.0141632622, 6.94819537E-05, 921.193     , 32.5294     , 796.352539  , 0.84        , 3           , 255         , 0           , 0
-0.145374253, 0.167048946 , -9.792387   , -0.000317392, -0.000141615048, -0.0009515363, -0.0159792155, -0.01416483 , 5.998971E-05, 921.193     , 32.5294     , 796.352661  , 0.85        , 3           , 255         , 0           , 0
-0.1395332  , 0.159283832 , -9.791935   , -0.000119568256, -0.000211944222, -0.000287749077, -0.01598037 , -0.014166995, 5.71462369E-05, 921.193     , 32.5294     , 796.3528    , 0.86        , 3           , 255         , 0           , 0
-0.139279485, 0.165439814 , -9.793501   , 0.000498522131, -3.33046773E-05, -0.000104999082, -0.01597537 , -0.0141673442, 5.610164E-05, 921.193     , 32.5294     , 796.3529    , 0.87        , 3           , 255         , 0           , 0
-0.1440276  , 0.160056725 , -9.790231   , 0.0003923184, 0.000232906139, -1.80046773E-05, -0.0159714445, -0.0141650224, 5.58844E-05 , 921.193     , 32.5294     , 796.353     , 0.88        , 3           , 255         , 0           , 0
-0.1397061  , 0.158508092 , -9.7943325  , 0.0004197746, -0.000188484788, -0.0001630082, -0.0159672238, -0.0141669307, 5.42844973E-05, 921.193     , 32.5294     , 796.353149  , 0.89        , 3           , 255         , 0           , 0
-0.126030117, 0.164972156 , -9.79511452 , 0.000222153962, -0.000305869384, -0.0003168935, -0.015964957, -0.0141700394, 5.116456E-05, 921.193     , 32.5294     , 796.3533    , 0.9         , 3           , 255         , 0           , 0
-0.135204032, 0.149776131 , -9.794307   , 2.47096177E-05, -0.0003476952, -0.0008478403, -0.0159764215, -0.01417611 , 4.29098436E-05, 921.193     , 32.5294     , 796.346069  , 0.91        , 3           , 255         , 0           , 0
-0.14291808 , 0.149471819 , -9.794398   , 0.000122540165, 0.00021726347, -0.00105538743, -0.015975045, -0.0141741084, 3.23218119E-05, 921.193     , 32.5294     , 796.3462    , 0.92        , 3           , 255         , 0           , 0
-0.137976736, 0.15148823  , -9.787737   , 8.30066856E-05, 0.0005615591, -0.000357047771, -0.0159741621, -0.0141685493, 2.86618051E-05, 921.184631  , 32.52974    , 796.3463    , 0.93        , 3           , 255         , 0           , 0
-0.133664668, 0.1516571   , -9.795365   , -0.000285968534, -5.04637137E-06, -0.0003289795, -0.0159769747, -0.0141686518, 2.537298E-05, 921.184631  , 32.52974    , 796.346436  , 0.94        , 3           , 255         , 0           , 0
-0.132863328, 0.159067139 , -9.800777   , -0.000258032582, -0.000236525317, 0.000693835435, -0.0159796514, -0.0141709046, 3.23487438E-05, 921.184631  , 32.52974    , 796.346558  , 0.95        , 3           , 255         , 0           , 0
-0.141353831, 0.14861609  , -9.793383   , -0.000236180029, -1.35088339E-05, 0.0003227222, -0.0159820579, -0.0141709875, 3.557795E-05, 921.184631  , 32.52974    , 796.346741  , 0.96        , 3           , 255         , 0           , 0
-0.146296293, 0.153366491 , -9.79178    , -9.7455224E-05, 0.000137029914, -0.00052349153, -0.01598296 , -0.0141697014, 3.03214074E-05, 921.184631  , 32.52974    , 796.3469    , 0.97        , 3           , 255         , 0           , 0
-0.145231   , 0.152152166 , -9.797174   , 2.72463076E-05, -0.00027059915, -5.43059723E-05, -0.0159826782, -0.0141724162, 2.9821631E-05, 921.184631  , 32.52974    , 796.3471    , 0.98        , 3           , 255         , 0           , 0
-0.1334519  , 0.1590452   , -9.790724   , 0.000277075684, 2.74530612E-06, -0.00012229431, -0.0159798916, -0.0141724078, 2.85983169E-05, 921.184631  , 32.52974    , 796.3473    , 0.99        , 3           , 255         , 0           , 0
-0.135521755, 0.165461868 , -9.78475952 , -1.95112079E-07, -3.643462E-05, 0.00052564434, -0.015979968, -0.0141726881, 3.38603022E-05, 921.184631  , 32.52974    , 796.3475    , 1           , 3           , 0           , 6.0412364   , 100
-0.146778241, 0.1611873   , -9.789887   , -0.00049934 , 0.0002869654, -0.000124728569, -0.0159783661, -0.0141689219, 3.24740358E-05, 921.184631  , 32.52974    , 796.3504    , 1.01        , 3           , 1           , 0           , 0
-0.146545619, 0.170090213 , -9.807055   , -0.0006349264, -0.000135609531, 0.000276803359, -0.0159847531, -0.0141702341, 3.52635871E-05, 921.184631  , 32.52974    , 796.3506    , 1.02        , 3           , 2           , 0           , 0
-0.135534838, 0.1654411   , -9.775004   , 4.97344881E-05, -0.000227771467, 2.12442246E-05, -0.01598426 , -0.0141725084, 3.5512443E-05, 921.1907    , 32.5333366  , 796.350769  , 1.03        , 3           , 3           , 0           , 0
-0.1391888  , 0.152716741 , -9.789088   , 0.0004021387, -2.02239025E-05, 0.0005685476, -0.01598032 , -0.0141726192, 4.120085E-05, 921.1907    , 32.5333366  , 796.350952  , 1.04        , 3           , 4           , 0           , 0
-0.1347142  , 0.150978655 , -9.791444   , 0.00034792145, -6.357557E-06, 2.51894235E-05, -0.0159768444, -0.0141726788, 4.14537426E-05, 921.1907    , 32.5333366  , 796.351135  , 1.05        , 3           , 5           , 0           , 0
-0.126310557, 0.156760722 , -9.797194   , -9.035482E-05, -0.000137952156, -9.447773E-05, -0.0159777328, -0.0141740739, 4.053105E-05, 921.1907    , 32.5333366  , 796.3513    , 1.06        , 3           , 6           , 0           , 0
-0.141971856, 0.153803468 , -9.794354   , -0.000417542178, -0.000219898415, 0.000542355934, -0.0159819853, -0.0141761852, 4.59894582E-05, 921.1907    , 32.5333366  , 796.3515    , 1.07        , 3           , 7           , 0           , 0
-0.136778682, 0.151999772 , -9.79177    , 0.0003766429, -0.000230153557, 0.000660348 , -0.0159783121, -0.01417838 , 5.26293661E-05, 921.1907    , 32.5333366  , 796.3517    , 1.08        , 3           , 8           , 5           , 5
-0.140300184, 0.152932778 , -9.79501152 , 0.0007098753, -6.091746E-05, 0.000110829569, -0.01597123 , -0.0141789718, 5.374734E-05, 921.1907    , 32.5333366  , 796.351868  , 1.09        , 3           , 9           , 5           , 0.1
-0.137571543, 0.144080773 , -9.783014   , 0.0004530362, -0.000216930988, -1.608378E-05, -0.0159666948, -0.0141811417, 5.36211446E-05, 921.1907    , 32.5333366  , 796.352051  , 1.1         , 3           , 10          , 0.1         , 0.1
-0.134292826, 0.150694788 , -9.771397   , -0.000284682726, -0.000234051375, 0.0003659354, -0.0159682557, -0.0141827678, 5.72986828E-05, 921.1907    , 32.5333366  , 796.3479    , 1.11        , 3           , 11          , 0.008893258 , 0.008893258
-0.128905088, 0.168327287 , -9.792036   , -0.0004842832, -4.46300255E-05, -4.478055E-05, -0.015973093, -0.0141832214, 5.685802E-05, 921.1907    , 32.5333366  , 796.3481    , 1.12        , 3           , 12          , 0.174642846 , 0
-0.12754941 , 0.163886279 , -9.800837   , -0.00025199377, -5.5667595E-05, -0.000142253339, -0.0159755927, -0.0141838007, 5.54444632E-05, 921.1818    , 32.53259    , 796.348267  , 1.13        , 3           , 13          , 0           , 0
-0.1371539  , 0.154585078 , -9.792712   , -0.000314988662, -0.000748096732, -0.000353542622, -0.015978694, -0.0141913351, 5.202874E-05, 921.1818    , 32.53259    , 796.34845   , 1.14        , 3           , 14          , -0.000888771843, -0.00106150063
-0.145234972, 0.16709435  , -9.796196   , -0.0006125326, -0.000236843363, -0.0006497067, -0.0159847252, -0.0141938087, 4.55698573E-05, 921.1818    , 32.53259    , 796.348633  , 1.15        , 3           , 15          , 0           , -0.000160518524
-0.137194186, 0.166553587 , -9.791906   , -0.000677846256, 0.000164472323, -0.0006194532, -0.015991414, -0.0141922617, 3.93493319E-05, 921.1818    , 32.53259    , 796.3488    , 1.16        , 3           , 16          , 0           , 1.401298E-45
-0.143268257, 0.165801182 , -9.79035    , -0.000482011819, 0.0001522071, -0.000736796937, -0.0159961283, -0.0141908573, 3.195742E-05, 921.1818    , 32.53259    , 796.349     , 1.17        , 3           , 20          , 0           , 0
-0.136318222, 0.165660515 , -9.791112   , 0.000128206622, -0.0003235346, -0.000786448247, -0.0159947369, -0.0141942184, 2.41450925E-05, 921.1818    , 32.53259    , 796.3492    , 1.18        , 3           , 21          , 0           , 0
-0.140555456, 0.156493157 , -9.799909   , 0.0007656324, -9.251025E-05, -0.000375297619, -0.0159870256, -0.0141952019, 2.04070948E-05, 921.1818    , 32.53259    , 796.349365  , 1.19        , 3           , 22          , 0           , 0
-0.1459131  , 0.150421292 , -9.787663   , 0.000476536981, 0.0003244026, 0.000102020917, -0.0159822758, -0.0141919414, 2.13754047E-05, 921.1818    , 32.53259    , 796.349548  , 1.2         , 3           , 40          , 0           , 0
-0.147167966, 0.150895372 , -9.783888   , 0.0006007942, -0.0001074645, -7.179112E-05, -0.0159886833, -0.0141892359, 2.085103E-05, 921.1818    , 32.53259    , 796.355164  , 1.21        , 3           , 41          , 0           , 0
-0.139107361, 0.147821471 , -9.794598   , 0.0004777427, -3.08350427E-05, -0.0008890807, -0.01598378 , -0.0141896866, 1.19656E-05 , 921.1818    , 32.53259    , 796.355347  , 1.22        , 3           , 42          , 0           , 0
-0.133505553, 0.150554627 , -9.783811   , -0.000232730526, -0.000293840072, 0.000238172419, -0.0159861427, -0.0141925877, 1.43941588E-05, 921.196045  , 32.53442    , 796.3555    , 1.23        , 3           , 255         , 0           , 0
-0.1287196  , 0.155488655 , -9.794422   , 7.164286E-05, -0.000187540776, 0.0003433274, -0.015985474, -0.0141944075, 1.785723E-05, 921.196045  , 32.53442    , 796.3557    , 1.24        , 3           , 255         , 0           , 0
-0.132450834, 0.151767448 , -9.78554    , -7.825118E-05, -0.000239533256, 0.00050273235, -0.0159863252, -0.0141967209, 2.29225734E-05, 921.196045  , 32.53442    , 796.3559    , 1.25        , 3           , 255         , 0           , 0
-0.139306977, 0.151498616 , -9.784464   , -0.000124552054, -0.000147931161, 0.0007909667, -0.0159876831, -0.0141980732, 3.08554845E-05, 921.196045  , 32.53442    , 796.3561    , 1.26        , 3           , 255         , 0           , 0
-0.1304532  , 0.155231163 , -9.796462   , -0.000318353646, 0.000139213051, 0.0008400106, -0.0159909856, -0.0141965477, 3.923289E-05, 921.196045  , 32.53442    , 796.356262  , 1.27        , 3           , 255         , 0           , 0
-0.13296178 , 0.1501051   , -9.781973   , -3.090757E-05, 0.0007122014, 0.000381041871, -0.0159913469, -0.0141893644, 4.29292231E-05, 921.196045  , 32.53442    , 796.356445  , 1.28        , 3           , 255         , 0           , 0
-0.1413416  , 0.152284473 , -9.787783   , -0.000435801339, 6.709632E-05, 0.00035287108, -0.0159957558, -0.014188638, 4.64470031E-05, 921.196045  , 32.53442    , 796.3566    , 1.29        , 3           , 255         , 0           , 0
-0.136027485, 0.158104241 , -9.795123   , 0.0002838655, 1.581083E-05, 1.59082847E-05, -0.015992919, -0.0141884768, 4.660355E-05, 921.196045  , 32.53442    , 796.3569    , 1.3         , 3           , 255         , 0           , 0
-0.14368847 , 0.1620201   , -9.79558    , 9.43550258E-05, -1.73798762E-05, -0.000642113737, -0.0159778483, -0.01417894 , 3.99865E-05 , 921.196045  , 32.53442    , 796.3469    , 1.31        , 3           , 255         , 0           , 0
-0.133679211, 0.155905992 , -9.800523   , 0.000108442211, 0.000346650369, -9.958478E-05, -0.01597675 , -0.01417549 , 3.893533E-05, 921.196045  , 32.53442    , 796.3471    , 1.32        , 3           , 255         , 0           , 0
-0.128429517, 0.159009516 , -9.78925    , -0.000284795125, 0.000378303055, 0.000213579173, -0.0159796271, -0.014171673, 4.10105567E-05, 921.156067  , 32.5355072  , 796.3473    , 1.33        , 3           , 255         , 0           , 0
-0.130063027, 0.15473257  , -9.789088   , 2.41445377E-07, -0.000255637919, 0.0006478599, -0.01597972 , -0.0141741261, 4.75296729E-05, 921.156067  , 32.5355072  , 796.3475    , 1.34        , 3           , 255         , 0           , 0
-0.1429151  , 0.151255548 , -9.785346   , -0.000331968127, -0.000741265132, 0.000836403458, -0.015983155, -0.0141814025, 5.601174E-05, 921.156067  , 32.5355072  , 796.347656  , 1.35        , 3           , 255         , 0           , 0
-0.141246825, 0.156872392 , -9.786249   , -0.0002177988, -0.000494442065, -0.0001812856, -0.0159853082, -0.0141863748, 5.4278E-05  , 921.156067  , 32.5355072  , 796.347839  , 1.36        , 3           , 255         , 0           , 0
-0.139450788, 0.155802384 , -9.789266   , 0.0001257708, -0.000128078391, -0.00031371892, -0.0159840062, -0.0141877057, 5.116144E-05, 921.156067  , 32.5355072  , 796.348     , 1.37        , 3           , 255         , 0           , 0
-0.1365667  , 0.155945972 , -9.803098   , 0.000470683124, -0.000209021964, -0.000707094441, -0.0159791987, -0.0141899083, 4.41242664E-05, 921.156067  , 32.5355072  , 796.3482    , 1.38        , 3           , 255         , 0           , 0
-0.137343854, 0.160627112 , -9.793331   , -0.000212106912, -3.894174E-05, 7.67274E-05 , -0.0159813315, -0.0141902864, 4.489774E-05, 921.156067  , 32.5355072  , 796.3484    , 1.39        , 3           , 255         , 0           , 0
-0.128733128, 0.156561971 , -9.79219    , -0.000777636829, -6.52262243E-05, 4.57078058E-05, -0.0159891155, -0.01419093 , 4.53652428E-05, 921.156067  , 32.5355072  , 796.3486    , 1.4         , 3           , 255         , 0           , 0
-0.130308121, 0.166329592 , -9.788486   , -0.000371053349, -0.000222169328, -0.000356579374, -0.0159936659, -0.0141866412, 4.184778E-05, 921.156067  , 32.5355072  , 796.380737  , 1.41        , 3           , 255         , 0           , 0
-0.137925729, 0.154221147 , -9.796724   , -0.000158969779, 0.000161128817, 0.000469173 , -0.0159953218, -0.0141849555, 4.651349E-05, 921.156067  , 32.5355072  , 796.381042  , 1.42        , 3           , 255         , 0           , 0
-0.133599237, 0.153809339 , -9.776018   , -0.0002724214, 0.000289649644, -0.000489799364, -0.0159979723, -0.0141821373, 4.156941E-05, 921.212769  , 32.5371361  , 796.381348  , 1.43        , 3           , 255         , 0           , 0
-0.129306555, 0.150687575 , -9.79207    , -1.38446921E-06, 0.000444895762, 0.0003813844, -0.0159980413, -0.0141776288, 4.53118737E-05, 921.212769  , 32.5371361  , 796.381653  , 1.44        , 3           , 255         , 0           , 0
-0.139582485, 0.149990514 , -9.783388   , -0.0001439004, -2.56671337E-05, -0.000117167816, -0.0159994643, -0.0141779045, 4.41443553E-05, 921.212769  , 32.5371361  , 796.381958  , 1.45        , 3           , 255         , 0           , 0
-0.142359212, 0.148579389 , -9.79405    , 2.37465138E-05, -0.0003966553, 0.00015758301, -0.01599925 , -0.0141818449, 4.57835849E-05, 921.212769  , 32.5371361  , 796.3823    , 1.46        , 3           , 255         , 0           , 0
-0.145656377, 0.1544725   , -9.795905   , 0.000362990366, 4.98211E-06 , -0.000287523551, -0.01599558 , -0.0141818412, 4.29077E-05 , 921.212769  , 32.5371361  , 796.3827    , 1.47        , 3           , 255         , 0           , 0
-0.14172636 , 0.161362618 , -9.791479   , -0.000119756674, 0.000169203558, -0.0009854728, -0.015996635, -0.0141803082, 3.30264156E-05, 921.212769  , 32.5371361  , 796.383057  , 1.48        , 3           , 255         , 0           , 0
-0.125740319, 0.163049176 , -9.790995   , -8.153741E-05, -1.855474E-05, -0.000535928761, -0.0159973763, -0.0141805792, 2.76703813E-05, 921.212769  , 32.5371361  , 796.3834    , 1.49        , 3           , 255         , 0           , 0
-0.123720609, 0.163412124 , -9.785982   , -0.000472083455, -0.000214362051, -0.000133937152, -0.0160020757, -0.0141827436, 2.63653747E-05, 921.212769  , 32.5371361  , 796.3838    , 1.5         , 3           , 255         , 0           , 0
-0.141440257, 0.161523849 , -9.78850651 , -0.000663491955, -0.00050093967, 4.64102923E-05, -0.01600859 , -0.0141762067, 2.69077773E-05, 921.212769  , 32.5371361  , 796.353149  , 1.51        , 3           , 255         , 0           , 0
-0.141057342, 0.163593054 , -9.79116    , 0.0001952175, -2.08067941E-05, -0.0002276284, -0.0160066038, -0.0141764507, 2.463494E-05, 921.212769  , 32.5371361  , 796.353333  , 1.52        , 3           , 255         , 0           , 0
-0.132104948, 0.1608202   , -9.794458   , -9.800441E-05, -1.03381462E-05, -7.621451E-05, -0.0160075724, -0.0141765671, 2.38744815E-05, 921.149536  , 32.53639    , 796.3535    , 1.53        , 3           , 255         , 0           , 0
-0.135021776, 0.159645662 , -9.794063   , -1.97818154E-05, -0.000305476831, -0.0007903693, -0.0160076581, -0.0141797485, 1.602011E-05, 921.149536  , 32.53639    , 796.3537    , 1.54        , 3           , 255         , 0           , 0
-0.145074934, 0.159912631 , -9.792849   , 0.0005320071, -0.000230977777, 0.000327561167, -0.0160023849, -0.0141820051, 1.933252E-05, 921.149536  , 32.53639    , 796.3539    , 1.55        , 3           , 255         , 0           , 0
-0.13621971 , 0.156052262 , -9.782993   , 0.0005315142, -0.000231820974, 0.0001308023, -0.0159970876, -0.0141843017, 2.0677573E-05, 921.149536  , 32.53639    , 796.354065  , 1.56        , 3           , 255         , 0           , 0
-0.139700815, 0.164375    , -9.791181   , 6.72825263E-05, 7.687381E-05, 0.000290252327, -0.0159964561, -0.0141834868, 2.35676489E-05, 921.149536  , 32.53639    , 796.354248  , 1.57        , 3           , 255         , 0           , 0
-0.133420855, 0.151806682 , -9.78693    , 0.0002276267, 3.95566458E-05, -0.000169642983, -0.0159941576, -0.0141831189, 2.18649911E-05, 921.149536  , 32.53639    , 796.354431  , 1.58        , 3           , 255         , 0           , 0
-0.126366347, 0.1586399   , -9.789349   , -0.0001819054, 0.000381675083, -0.000435366237, -0.0159959141, -0.0141793722, 1.745052E-05, 921.149536  , 32.53639    , 796.3546    , 1.59        , 3           , 255         , 0           , 0
-0.137147665, 0.152984381 , -9.782942   , -0.0001702513, -1.35798473E-06, -0.000317391474, -0.0159975719, -0.0141794365, 1.42769886E-05, 921.149536  , 32.53639    , 796.3548    , 1.6         , 3           , 255         , 0           , 0
-0.13598612 , 0.153718263 , -9.786659   , -0.000438704039, -0.000266167684, -0.000877715065, -0.0160084181, -0.0141760958, 5.63620324E-06, 921.149536  , 32.53639    , 796.3945    , 1.61        , 3           , 255         , 0           , 0
-0.1342594  , 0.157453626 , -9.79433    , -0.000111967325, -2.98517989E-05, 0.000211311213, -0.0160095673, -0.01417636 , 7.753989E-06, 921.149536  , 32.53639    , 796.3949    , 1.62        , 3           , 255         , 0           , 0
-0.134779125, 0.153184161 , -9.779715   , -0.000138016883, 0.0004417103, 0.000693653361, -0.0160110425, -0.0141718322, 1.4619427E-05, 921.206055  , 32.5405273  , 796.3953    , 1.63        , 3           , 255         , 0           , 0
-0.1361391  , 0.1480413   , -9.774316   , -0.0009524522, -2.8676237E-05, -0.000107494823, -0.0160205513, -0.0141721368, 1.35491127E-05, 921.206055  , 32.5405273  , 796.395752  , 1.64        , 3           , 255         , 0           , 0
-0.1387981  , 0.148504168 , -9.774623   , -0.00119850622, 0.000437495648, -1.7846367E-05, -0.0160325319, -0.0141677661, 1.330054E-05, 921.206055  , 32.5405273  , 796.3962    , 1.65        , 3           , 255         , 0           , 0
-0.136366159, 0.162545651 , -9.803549   , -0.00180018274, 0.0006137921, 9.714572E-05, -0.0160505455, -0.0141616119, 1.41734736E-05, 921.206055  , 32.5405273  , 796.3966    , 1.66        , 3           , 255         , 0           , 0
-0.1460118  , 0.167714328 , -9.817116   , -0.0009991466, 0.000311706448, -0.000158121489, -0.0160605162, -0.0141585218, 1.25422939E-05, 921.206055  , 32.5405273  , 796.397034  , 1.67        , 3           , 255         , 0           , 0
-0.1362112  , 0.1612506   , -9.823824   , 0.000277309678, -0.000639018, -0.000163205113, -0.0160577167, -0.0141649377, 1.10129613E-05, 921.206055  , 32.5405273  , 796.397461  , 1.68        , 3           , 255         , 0           , 0
-0.13775818 , 0.159251228 , -9.810799   , 0.0006987752, -0.0006937238, -0.000229884376, -0.0160507  , -0.0141719077, 8.825612E-06, 921.206055  , 32.5405273  , 796.3979    , 1.69        , 3           , 255         , 0           , 0
-0.14264062 , 0.160677284 , -9.793001   , 0.001592388 , -0.0005656275, 0.0009304599, -0.0160349067, -0.0141774174, 1.822045E-05, 921.206055  , 32.5405273  , 796.3983    , 1.7         , 3           , 255         , 0           , 0
-0.13695547 , 0.155044124 , -9.772496   , 0.00164746866, -0.0009278988, 0.0003404232, -0.01601888 , -0.0141849183, 2.17788638E-05, 921.206055  , 32.5405273  , 796.372     , 1.71        , 3           , 255         , 0           , 0
-0.142461047, 0.139790088 , -9.769056   , 0.00113045832, -0.0009454477, 0.000692919362, -0.0160076749, -0.0141942613, 2.88590745E-05, 921.206055  , 32.5405273  , 796.3723    , 1.72        , 3           , 255         , 0           , 0
-0.144006953, 0.13821201  , -9.770599   , 4.82784235E-05, -0.000667598564, 5.486473E-05, -0.0160072  , -0.0142009268, 2.95145419E-05, 921.174866  , 32.5397148  , 796.3726    , 1.73        , 3           , 255         , 0           , 0
-0.143833563, 0.147728413 , -9.796594   , -0.000351979921, -0.000160174561, 0.000477917085, -0.0160107855, -0.01420245 , 3.43191059E-05, 921.174866  , 32.5397148  , 796.3729    , 1.74        , 3           , 255         , 0           , 0
-0.135364145, 0.146629661 , -9.791934   , -0.000190905819, -1.5698839E-05, 0.0003472666, -0.016012745, -0.0142025528, 3.77941033E-05, 921.174866  , 32.5397148  , 796.3732    , 1.75        , 3           , 255         , 0           , 0
-0.138328284, 0.145675972 , -9.773031   , -0.000628170965, -2.39296351E-05, -0.0002800121, -0.0160189848, -0.014202836, 3.49979528E-05, 921.174866  , 32.5397148  , 796.373535  , 1.76        , 3           , 255         , 0           , 0
-0.142265841, 0.160884574 , -9.776688   , -0.00105589256, 0.000189158483, -0.000333247415, -0.0160294957, -0.0142010013, 3.163534E-05, 921.174866  , 32.5397148  , 796.37384   , 1.77        , 3           , 255         , 0           , 0
-0.149527892, 0.171349734 , -9.780047   , -0.00217366847, 0.0003290145, -0.0004431681, -0.0160511658, -0.0141977808, 2.715113E-05, 921.174866  , 32.5397148  , 796.374146  , 1.78        , 3           , 255         , 0           , 0
-0.150250167, 0.176098257 , -9.793211   , -0.00218025432, -0.000171400257, -0.000598737, -0.0160728823, -0.0141995894, 2.11916122E-05, 921.174866  , 32.5397148  , 796.374451  , 1.79        , 3           , 255         , 0           , 0
-0.137259752, 0.178201646 , -9.823972   , -0.000346823421, -0.000482123229, -0.000109105007, -0.0160763357, -0.0142044285, 2.01781277E-05, 921.174866  , 32.5397148  , 796.374756  , 1.8         , 3           , 255         , 0           , 0
-0.129335731, 0.178050339 , -9.836794   , 0.0012923535, -0.000641495, -0.00048523 , -0.0160599649, -0.0142250331, 1.53811052E-05, 921.174866  , 32.5397148  , 796.3857    , 1.81        , 3           , 255         , 0           , 0
-0.138580516, 0.155264661 , -9.798244   , 0.00103042845, -0.000261898153, 0.0005161335, -0.0160497315, -0.01422757 , 2.05842025E-05, 921.174866  , 32.5397148  , 796.386047  , 1.82        , 3           , 255         , 0           , 0
-0.151163369, 0.1461977   , -9.761721   , 0.000963667 , -0.000170574058, 0.000606460148, -0.016040178, -0.0142291775, 2.66758434E-05, 921.1802    , 32.5412064  , 796.3864    , 1.83        , 3           , 255         , 0           , 0
-0.135196164, 0.140826419 , -9.755026   , -0.0002936725, -8.66439659E-05, 0.000325656438, -0.016043162, -0.0142299915, 2.99461281E-05, 921.1802    , 32.5412064  , 796.3868    , 1.84        , 3           , 255         , 0           , 0
-0.141584188, 0.149463445 , -9.781136   , -0.00139582506, 2.14762986E-05, -0.000351159077, -0.0160570722, -0.0142298313, 2.64312766E-05, 921.1802    , 32.5412064  , 796.387146  , 1.85        , 3           , 255         , 0           , 0
-0.147929639, 0.146721929 , -9.814552   , -0.000762213545, 1.00736506E-05, -0.000107088868, -0.0160646774, -0.0142297512, 2.535884E-05, 921.1802    , 32.5412064  , 796.3875    , 1.86        , 3           , 255         , 0           , 0
-0.137096941, 0.147531778 , -9.823571   , 0.000607699738, 1.42143108E-05, -0.000108594759, -0.0160585865, -0.0142296264, 2.427067E-05, 921.1802    , 32.5412064  , 796.3879    , 1.87        , 3           , 255         , 0           , 0
-0.13523002 , 0.147980168 , -9.797618   , 0.0012698567, 0.000230359321, 9.28752343E-05, -0.0160459038, -0.0142273065, 2.516241E-05, 921.1802    , 32.5412064  , 796.388245  , 1.88        , 3           , 255         , 0           , 0
-0.136058092, 0.1349601   , -9.758827   , 0.000384637329, 0.0006536719, 5.377832E-05, -0.0160420612, -0.0142207658, 2.55953018E-05, 921.1802    , 32.5412064  , 796.3886    , 1.89        , 3           , 255         , 0           , 0
-0.13126488 , 0.14613612  , -9.750361   , -0.000813609746, 0.0004452516, -0.000139482276, -0.01605018 , -0.0142163355, 2.41291145E-05, 921.1802    , 32.5412064  , 796.389     , 1.9         , 3           , 255         , 0           , 0
-0.1420795  , 0.163074285 , -9.783651   , -0.00118178944, 0.0007708458, -0.000102514183, -0.0160372723, -0.0142056067, 2.26293087E-05, 921.1802    , 32.5412064  , 796.392334  , 1.91        , 3           , 255         , 0           , 0
-0.149747178, 0.163197711 , -9.810054   , -0.000730684143, 0.000282988534, 8.575034E-05, -0.0160445925, -0.0142027624, 2.34413747E-05, 921.1802    , 32.5412064  , 796.3927    , 1.92        , 3           , 255         , 0           , 0
-0.141214043, 0.169803113 , -9.800846   , -0.000244962983, 0.00013191381, 9.915037E-05, -0.0160470549, -0.0142014278, 2.44116545E-05, 921.176331  , 32.5396461  , 796.393066  , 1.93        , 3           , 255         , 0           , 0
-0.134494349, 0.172444731 , -9.781496   , -0.000373494928, 0.000124531914, 0.000356946315, -0.01605084 , -0.0142001249, 2.79609485E-05, 921.176331  , 32.5396461  , 796.393433  , 1.94        , 3           , 255         , 0           , 0
-0.137516081, 0.171803236 , -9.778331   , -3.01088439E-05, -0.000273159472, 0.000225082069, -0.0160511751, -0.0142028211, 3.02555054E-05, 921.176331  , 32.5396461  , 796.3938    , 1.95        , 3           , 255         , 0           , 0
-0.134293154, 0.161278218 , -9.792277   , 0.000106023275, -0.00077635725, 8.106553E-05, -0.0160501264, -0.0142105678, 3.119072E-05, 921.176331  , 32.5396461  , 796.394165  , 1.96        , 3           , 255         , 0           , 0
-0.142737135, 0.153747171 , -9.80318    , 0.000603277353, -0.0003149173, -0.00126597879, -0.0160439145, -0.0142139206, 1.85821318E-05, 921.176331  , 32.5396461  , 796.3946    , 1.97        , 3           , 255         , 0           , 0
-0.150306612, 0.152612984 , -9.797551   , -4.48693754E-05, -8.77073035E-07, -0.000920689257, -0.0160442311, -0.0142140752, 9.375859E-06, 921.176331  , 32.5396461  , 796.395     , 1.98        , 3           , 255         , 0           , 0
-0.137650892, 0.151870251 , -9.783687   , -0.0003929478, 0.000219220063, -0.000589858857, -0.0160480738, -0.0142119788, 3.44239243E-06, 921.176331  , 32.5396461  , 796.395447  , 1.99        , 3           , 255         , 0           , 0
-0.137828737, 0.143390447 , -9.781901   , 0.000313051452, -8.959079E-05, -0.00010893833, -0.0160449278, -0.0142128915, 2.367443E-06, 921.176331  , 32.5396461  , 796.3959    , 2           , 3           , 0           , 7.0412364   , 200
-0.1370248  , 0.154044673 , -9.800758   , -0.0003939909, -2.26771226E-05, -0.0003458566, -0.0160558354, -0.0142169725, -9.875565E-07, 921.176331  , 32.5396461  , 796.403     , 2.01        , 3           , 1           , 0           , 0
-0.142191976, 0.146870181 , -9.794368   , -0.00048820104, 0.000419511867, -0.000356530538, -0.0160606652, -0.0142128365, -4.620045E-06, 921.176331  , 32.5396461  , 796.403442  , 2.02        , 3           , 2           , 0           , 0
-0.128373325, 0.156495675 , -9.804565   , 0.0004432981, 0.00057463604, -0.000473381544, -0.0160561632, -0.0142071694, -9.445895E-06, 921.1991    , 32.5412064  , 796.4039    , 2.03        , 3           , 3           , 0           , 0
-0.13847962 , 0.158089876 , -9.771948   , 0.00104034634, 5.52252168E-05, 0.0005380388, -0.0160458386, -0.01420653 , -4.07465632E-06, 921.1991    , 32.5412064  , 796.4043    , 2.04        , 3           , 4           , 0           , 0
-0.143284008, 0.155327052 , -9.768429   , 0.000198210124, -0.000223545358, 0.000438610616, -0.01604392 , -0.014208694, 3.47076366E-07, 921.1991    , 32.5412064  , 796.4047    , 2.05        , 3           , 5           , 0           , 0
-0.151777655, 0.159196541 , -9.782409   , -0.000760064344, -0.000353463343, -0.000281884684, -0.01605148 , -0.014212274, -2.41488669E-06, 921.1991    , 32.5412064  , 796.405151  , 2.06        , 3           , 6           , 0           , 0
-0.1402587  , 0.163647473 , -9.798929   , -0.000293876976, 8.200749E-05, -0.0004419214, -0.0160543546, -0.0142115252, -6.84703264E-06, 921.1991    , 32.5412064  , 796.4056    , 2.07        , 3           , 7           , 0           , 0
-0.145057678, 0.161506578 , -9.808174   , 0.000837203232, -1.84269156E-05, -0.000169775463, -0.0160459615, -0.0142117376, -8.541738E-06, 921.1991    , 32.5412064  , 796.406     , 2.08        , 3           , 8           , 5           , 5
-0.137753516, 0.163470134 , -9.793119   , 0.0005746355, 0.000194637862, 0.00054041855, -0.01604029 , -0.0142097035, -3.16905039E-06, 921.1991    , 32.5412064  , 796.406433  , 2.09        , 3           , 9           , 5           , 0.1
-0.131019965, 0.1586279   , -9.776981   , 0.000559650536, 0.000456297421, -0.000228825855, -0.0160346627, -0.0142051782, -5.5303517E-06, 921.1991    , 32.5412064  , 796.40686   , 2.1         , 3           , 10          , 0.1         , 0.1
-0.143872082, 0.157085851 , -9.765394   , -0.000302487635, 0.000295698876, -0.000316426915, -0.0160391945, -0.0142032458, -8.719856E-06, 921.1991    , 32.5412064  , 796.3849    , 2.11        , 3           , 11          , 0.007701803 , 0.00770180253
-0.14666231 , 0.161764756 , -9.77294    , -0.00081532856, -0.000186125515, 0.000664623745, -0.0160474367, -0.0142050013, -2.04411731E-06, 921.1991    , 32.5412064  , 796.3852    , 2.12        , 3           , 12          , 0.174643889 , 0
-0.153489083, 0.154158235 , -9.791353   , -0.000850983663, -0.000586403068, -0.000290751981, -0.0160559043, -0.0142109077, -4.85736E-06, 921.2258    , 32.5418167  , 796.3855    , 2.13        , 3           , 13          , 0           , 0
-0.139954492, 0.152475029 , -9.798116   , -0.000276657054, 7.18954252E-05, -0.000131584937, -0.0160586536, -0.01421021 , -6.18468675E-06, 921.2258    , 32.5418167  , 796.3858    , 2.14        , 3           , 14          , -0.0008888111, -0.00106153381
-0.133919865, 0.1474905   , -9.794054   , 0.00016776612, 0.0002946228, -0.000117259187, -0.0160569586, -0.0142072858, -7.404521E-06, 921.2258    , 32.5418167  , 796.3861    , 2.15        , 3           , 15          , 0           , -0.00016051851
-0.1307921  , 0.143366769 , -9.785208   , 0.000188616337, 1.4516525E-05, 0.000411286135, -0.0160551313, -0.0142070735, -3.29420959E-06, 921.2258    , 32.5418167  , 796.3864    , 2.16        , 3           , 16          , 0           , 1.401298E-45
-0.135277361, 0.141453654 , -9.787801   , -0.0006712326, -0.000113368151, -0.0001635038, -0.01606182 , -0.014208233, -4.91095943E-06, 921.2258    , 32.5418167  , 796.3867    , 2.17        , 3           , 20          , 0           , 0
-0.14744769 , 0.148623914 , -9.799704   , -0.000433269423, -0.000151979155, 0.000122557773, -0.0160661712, -0.0142097315, -3.66104223E-06, 921.2258    , 32.5418167  , 796.387     , 2.18        , 3           , 21          , 0           , 0
-0.140003428, 0.161087885 , -9.801387   , 8.30083154E-05, 0.000207247329, -0.000216199609, -0.016065307, -0.0142076956, -5.856217E-06, 921.2258    , 32.5418167  , 796.3873    , 2.19        , 3           , 22          , 0           , 0
-0.141989276, 0.159711033 , -9.792856   , -0.000159925083, 8.59815045E-05, -0.000176207366, -0.0160668828, -0.0142068639, -7.631998E-06, 921.2258    , 32.5418167  , 796.387634  , 2.2         , 3           , 40          , 0           , 0
-0.132626861, 0.152685255 , -9.788919   , 0.000480705115, -0.000247884542, 0.000441792945, -0.0160503983, -0.0142151173, -3.34137758E-06, 921.2258    , 32.5418167  , 796.3337    , 2.21        , 3           , 41          , 0           , 0
-0.129382625, 0.154073209 , -9.78465    , 0.0003295666, -0.000178222312, 0.000130479792, -0.016047122, -0.0142168775, -2.0080472E-06, 921.2258    , 32.5418167  , 796.3337    , 2.22        , 3           , 42          , 0           , 0
-0.141397744, 0.151597291 , -9.788063   , 0.000186674821, -0.000197489164, -0.0001891109, -0.0160452314, -0.0142188827, -3.867359E-06, 921.1502    , 32.5427666  , 796.3337    , 2.23        , 3           , 255         , 0           , 0
-0.1393555  , 0.1532735   , -9.788752   , 0.0002619099, -0.000149090309, 8.490115E-05, -0.0160426218, -0.01422036 , -2.994483E-06, 921.1502    , 32.5427666  , 796.3337    , 2.24        , 3           , 255         , 0           , 0
-0.135238767, 0.159921542 , -9.784028   , -0.000366456, 0.000124742626, -0.000353969925, -0.0160462372, -0.0142191686, -6.55401573E-06, 921.1502    , 32.5427666  , 796.3337    , 2.25        , 3           , 255         , 0           , 0
-0.143628627, 0.156928152 , -9.787284   , -0.000342502375, 1.05589861E-05, -0.000894587138, -0.0160495322, -0.0142192058, -1.55011039E-05, 921.1502    , 32.5427666  , 796.3337    , 2.26        , 3           , 255         , 0           , 0
-0.1407294  , 0.157653287 , -9.79487    , 0.000191076542, -0.000289543765, -0.0007946898, -0.0160475075, -0.0142222289, -2.34011131E-05, 921.1502    , 32.5427666  , 796.3337    , 2.27        , 3           , 255         , 0           , 0
-0.135703981, 0.1662575   , -9.78314    , -8.8863424E-05, -0.00016501057, 0.000228159333, -0.01604843 , -0.014223842, -2.109318E-05, 921.1502    , 32.5427666  , 796.3337    , 2.28        , 3           , 255         , 0           , 0
-0.132614449, 0.159063727 , -9.790317   , -6.179407E-05, 9.37295263E-05, 0.0007741046, -0.01604916 , -0.0142227812, -1.3367564E-05, 921.1502    , 32.5427666  , 796.3337    , 2.29        , 3           , 255         , 0           , 0
-0.129531488, 0.149446651 , -9.785514   , 0.000182700518, -0.000288098468, 0.000314430654, -0.0160473771, -0.01422561 , -1.01771993E-05, 921.1502    , 32.5427666  , 796.3337    , 2.3         , 3           , 255         , 0           , 0
-0.1370578  , 0.154638186 , -9.79143    , -0.000144107558, -0.0002250534, -4.1784413E-05, -0.0160460081, -0.0142185939, -1.05987947E-05, 921.1502    , 32.5427666  , 796.3832    , 2.31        , 3           , 255         , 0           , 0
-0.144134447, 0.150409311 , -9.790009   , 0.0006927224, 0.000257656327, 0.0003260112, -0.0160391275, -0.0142159648, -7.380183E-06, 921.1502    , 32.5427666  , 796.3835    , 2.32        , 3           , 255         , 0           , 0
-0.154257134, 0.154557973 , -9.77864    , 0.000165843812, -9.28471563E-05, 0.000185773475, -0.0160374958, -0.0142168636, -5.50765662E-06, 921.1706    , 32.5418167  , 796.3838    , 2.33        , 3           , 255         , 0           , 0
-0.1347882  , 0.15447402  , -9.783167   , -0.0001181126, -0.000581053551, -0.000287456438, -0.0160386357, -0.01422272 , -8.288896E-06, 921.1706    , 32.5418167  , 796.3841    , 2.34        , 3           , 255         , 0           , 0
-0.141351447, 0.152850389 , -9.791683   , 0.000430233049, 0.000156119233, -0.000637663, -0.0160342418, -0.0142212613, -1.46902339E-05, 921.1706    , 32.5418167  , 796.3844    , 2.35        , 3           , 255         , 0           , 0
-0.139987275, 0.152492374 , -9.788807   , 0.000772217871, -0.000124624465, -0.0003671323, -0.0160264671, -0.014222566, -1.83413722E-05, 921.1706    , 32.5418167  , 796.3847    , 2.36        , 3           , 255         , 0           , 0
-0.140753418, 0.160314962 , -9.796613   , 0.000302291242, 0.000147932733, 0.0007919   , -0.0160235576, -0.0142209614, -1.04464943E-05, 921.1706    , 32.5418167  , 796.385     , 2.37        , 3           , 255         , 0           , 0
-0.133533627, 0.158494085 , -9.79381    , -0.000728268467, -8.51046061E-05, -0.00044274627, -0.0160307772, -0.0142218843, -1.48600993E-05, 921.1706    , 32.5418167  , 796.3853    , 2.38        , 3           , 255         , 0           , 0
-0.129024029, 0.165490761 , -9.795534   , -0.0005141978, 0.00018093863, -0.000254211947, -0.01603588 , -0.0142201167, -1.74311062E-05, 921.1706    , 32.5418167  , 796.3856    , 2.39        , 3           , 255         , 0           , 0
-0.128441364, 0.15788886  , -9.786707   , -0.000329573231, 0.000186498219, -0.00015486039, -0.0160391554, -0.0142182754, -1.900953E-05, 921.1706    , 32.5418167  , 796.3859    , 2.4         , 3           , 255         , 0           , 0
-0.137360319, 0.154698044 , -9.793492   , -0.000472413318, 0.000467803678, 0.0003087215, -0.01604197 , -0.0142114079, -1.60252639E-05, 921.1706    , 32.5418167  , 796.4028    , 2.41        , 3           , 255         , 0           , 0
-0.143111557, 0.160700828 , -9.7955265  , 0.000294418249, -9.363098E-05, -5.973161E-05, -0.0160390176, -0.0142123522, -1.6607537E-05, 921.1706    , 32.5418167  , 796.4032    , 2.42        , 3           , 255         , 0           , 0
-0.138028458, 0.143901259 , -9.794943   , 0.0002873402, -0.0004199153, -0.000375029165, -0.0160360914, -0.0142166112, -2.02902866E-05, 921.2025    , 32.54039    , 796.4036    , 2.43        , 3           , 255         , 0           , 0
-0.141427189, 0.1426508   , -9.794008   , 0.000216221379, -4.78297E-05, -0.000324296649, -0.0160338823, -0.0142171411, -2.35254247E-05, 921.2025    , 32.54039    , 796.404053  , 2.44        , 3           , 255         , 0           , 0
-0.1486911  , 0.141061381 , -9.792692   , 0.000464282115, 0.000116384472, -0.000183898592, -0.0160292126, -0.0142160058, -2.53829548E-05, 921.2025    , 32.54039    , 796.4045    , 2.45        , 3           , 255         , 0           , 0
-0.145272821, 0.146438509 , -9.784998   , 0.000191148254, 0.0004210107, 0.000312638353, -0.0160273463, -0.0142117459, -2.23242187E-05, 921.2025    , 32.54039    , 796.4049    , 2.46        , 3           , 255         , 0           , 0
-0.133853376, 0.153002337 , -9.781221   , -0.000396553485, -0.0003071765, -4.332776E-05, -0.0160313081, -0.0142148249, -2.27082364E-05, 921.2025    , 32.54039    , 796.405334  , 2.47        , 3           , 255         , 0           , 0
-0.135690928, 0.15754801  , -9.786894   , -0.0005854952, -0.000334778684, 4.29153442E-06, -0.0160371624, -0.0142181721, -2.26116535E-05, 921.2025    , 32.54039    , 796.405762  , 2.48        , 3           , 255         , 0           , 0
-0.13031444 , 0.158961132 , -9.784785   , -0.000256812375, 1.38792675E-05, -0.00068269443, -0.0160396323, -0.0142181432, -2.944045E-05, 921.2025    , 32.54039    , 796.4062    , 2.49        , 3           , 255         , 0           , 0
-0.130074009, 0.1554904   , -9.778347   , -4.838512E-06, -0.000525968266, -0.0003004208, -0.0160396378, -0.01422345 , -3.23601271E-05, 921.2025    , 32.54039    , 796.4066    , 2.5         , 3           , 255         , 0           , 0
-0.137262285, 0.1726028   , -9.795852   , 0.0002935296, -0.000190003775, 0.000948581262, -0.0160231479, -0.0142231928, -2.303905E-05, 921.2025    , 32.54039    , 796.378     , 2.51        , 3           , 255         , 0           , 0
-0.141150624, 0.161769778 , -9.799134   , -8.50316137E-05, -0.000282986672, 0.001234108 , -0.01602417 , -0.0142258229, -1.06532761E-05, 921.2025    , 32.54039    , 796.378235  , 2.52        , 3           , 255         , 0           , 0
-0.132076457, 0.153432637 , -9.799249   , 0.000382791681, -0.000153723289, -0.000445196056, -0.0160202775, -0.0142274313, -1.50803889E-05, 921.1973    , 32.545887   , 796.3785    , 2.53        , 3           , 255         , 0           , 0
-0.137434274, 0.1500711   , -9.794133   , 0.0006911049, -0.00013088563, -0.000191371044, -0.0160133429, -0.0142287705, -1.69730356E-05, 921.1973    , 32.545887   , 796.3787    , 2.54        , 3           , 255         , 0           , 0
-0.148106724, 0.149732009 , -9.787883   , 0.000132393732, -0.00017394661, -8.245514E-05, -0.0160120074, -0.0142305233, -1.77696966E-05, 921.1973    , 32.545887   , 796.378967  , 2.55        , 3           , 255         , 0           , 0
-0.142359823, 0.152043626 , -9.771112   , -0.000248267257, 2.25637341E-05, 0.000128932064, -0.01601451 , -0.0142302774, -1.648405E-05, 921.1973    , 32.545887   , 796.3792    , 2.56        , 3           , 255         , 0           , 0
-0.148497671, 0.158372119 , -9.786638   , -0.0005709662, -4.223897E-05, 0.000451897358, -0.01602028 , -0.0142306285, -1.19585347E-05, 921.1973    , 32.545887   , 796.379456  , 2.57        , 3           , 255         , 0           , 0
-0.144492343, 0.155108765 , -9.806164   , -0.000104239734, 0.000133936875, -0.0002500164, -0.0160212871, -0.0142293293, -1.44800315E-05, 921.1973    , 32.545887   , 796.379761  , 2.58        , 3           , 255         , 0           , 0
-0.1370335  , 0.1660526   , -9.809728   , 0.000456965878, -0.000114935916, -0.0003620932, -0.0160166677, -0.0142305354, -1.80823681E-05, 921.1973    , 32.545887   , 796.380066  , 2.59        , 3           , 255         , 0           , 0
-0.141625121, 0.162189126 , -9.795509   , 0.000427361636, 0.000148890016, 0.0005323454, -0.01601247 , -0.0142289614, -1.27830281E-05, 921.1973    , 32.545887   , 796.3804    , 2.6         , 3           , 255         , 0           , 0
-0.136508152, 0.1605356   , -9.79365    , 0.000487143756, 0.000285201 , 5.16164218E-05, -0.0160096232, -0.0142286047, -1.22838765E-05, 921.1973    , 32.545887   , 796.3621    , 2.61        , 3           , 255         , 0           , 0
-0.13539663 , 0.155915886 , -9.78844    , 0.000447948376, -0.0001317237, -0.000211599632, -0.01600511 , -0.0142299589, -1.43786883E-05, 921.1973    , 32.545887   , 796.3623    , 2.62        , 3           , 255         , 0           , 0
-0.147835732, 0.157635719 , -9.789686   , 0.0003183437, -8.99257138E-05, -0.0003712903, -0.0160018746, -0.0142309144, -1.80770112E-05, 921.1601    , 32.5440559  , 796.3625    , 2.63        , 3           , 255         , 0           , 0
-0.1472098  , 0.1588678   , -9.791917   , -0.000377324119, -0.000589356758, -0.000648487941, -0.0160055552, -0.0142369112, -2.446724E-05, 921.1601    , 32.5440559  , 796.3627    , 2.64        , 3           , 255         , 0           , 0
-0.135216385, 0.159039855 , -9.797706   , 0.000232897874, -0.00052908517, -0.001052585, -0.0160030778, -0.0142423678, -3.490787E-05, 921.1601    , 32.5440559  , 796.362854  , 2.65        , 3           , 255         , 0           , 0
-0.13362205 , 0.1587848   , -9.799457   , 0.0005673112, -0.000475906068, 1.52070425E-05, -0.01599741 , -0.0142471241, -3.467965E-05, 921.1601    , 32.5440559  , 796.363037  , 2.66        , 3           , 255         , 0           , 0
-0.1347335  , 0.160062551 , -9.797686   , 0.000210019934, -3.63301951E-05, -0.00047185045, -0.0159952454, -0.0142475627, -3.93920927E-05, 921.1601    , 32.5440559  , 796.3632    , 2.67        , 3           , 255         , 0           , 0
-0.140425935, 0.153507456 , -9.785608   , -0.000259356631, -1.69605482E-05, -0.0005515442, -0.0159977563, -0.01424782 , -4.49045328E-05, 921.1601    , 32.5440559  , 796.3634    , 2.68        , 3           , 255         , 0           , 0
-0.140651852, 0.156647265 , -9.793758   , -0.000344539, -0.000250800047, 8.607442E-05, -0.0160012189, -0.0142503139, -4.40037147E-05, 921.1601    , 32.5440559  , 796.3636    , 2.69        , 3           , 255         , 0           , 0
-0.133337229, 0.161904    , -9.788954   , 0.000245715666, -0.000388900749, 0.000107567772, -0.0159987751, -0.0142541854, -4.28658641E-05, 921.1601    , 32.5440559  , 796.3638    , 2.7         , 3           , 255         , 0           , 0
-0.135751456, 0.154188991 , -9.789409   , -0.000653749565, 6.796757E-05, -0.000214912987, -0.0160079822, -0.01425183 , -4.49873078E-05, 921.1601    , 32.5440559  , 796.3989    , 2.71        , 3           , 255         , 0           , 0
-0.135379821, 0.159145266 , -9.803652   , -0.0005316783, 7.43172131E-06, -0.000955868163, -0.0160131585, -0.0142519074, -5.45466974E-05, 921.1601    , 32.5440559  , 796.399353  , 2.72        , 3           , 255         , 0           , 0
-0.133368418, 0.162495986 , -9.778899   , -0.000327665, 0.000464200682, -0.0007572175, -0.0160163268, -0.0142473876, -6.219281E-05, 921.2099    , 32.54297    , 796.3998    , 2.73        , 3           , 255         , 0           , 0
-0.131283253, 0.15409407  , -9.78654    , -0.000159831136, -0.000316326856, -0.0004939159, -0.0160178542, -0.01425063 , -6.708104E-05, 921.2099    , 32.54297    , 796.4002    , 2.74        , 3           , 255         , 0           , 0
-0.134765759, 0.152182728 , -9.789527   , 0.0005001346, -0.00013139518, -2.01485818E-06, -0.016012853, -0.0142519437, -6.708017E-05, 921.2099    , 32.54297    , 796.400635  , 2.75        , 3           , 255         , 0           , 0
-0.146335989, 0.155598268 , -9.792409   , 1.07235392E-05, 0.0003160052, 0.0002143746, -0.0160127729, -0.0142487492, -6.49871363E-05, 921.2099    , 32.54297    , 796.401062  , 2.76        , 3           , 255         , 0           , 0
-0.145607769, 0.15565446  , -9.783547   , 0.000497761066, -0.000393520924, 0.000869726646, -0.0160079226, -0.0142525462, -5.622731E-05, 921.2099    , 32.54297    , 796.4015    , 2.77        , 3           , 255         , 0           , 0
-0.1290816  , 0.1498526   , -9.78391552 , 0.000326173264, -0.000463100383, 0.000570038159, -0.01600474 , -0.0142570846, -5.045311E-05, 921.2099    , 32.54297    , 796.4019    , 2.78        , 3           , 255         , 0           , 0
-0.131407708, 0.153863549 , -9.791818   , -0.000100572244, -0.00047193293, -7.71628256E-05, -0.016005734, -0.0142618138, -5.11491562E-05, 921.2099    , 32.54297    , 796.402344  , 2.79        , 3           , 255         , 0           , 0
-0.139739215, 0.1585789   , -9.792679   , -0.000588378171, -0.000174729736, -0.000188824662, -0.016011592, -0.0142635908, -5.30093457E-05, 921.2099    , 32.54297    , 796.4028    , 2.8         , 3           , 255         , 0           , 0
-0.127782419, 0.158248737 , -9.79832    , -0.0005928469, -0.00013214536, 0.000140316537, -0.0160148051, -0.0142575689, -5.16241053E-05, 921.2099    , 32.54297    , 796.3635    , 2.81        , 3           , 255         , 0           , 0
-0.1305319  , 0.15588519  , -9.798114   , -0.000301390071, -0.000314943143, 0.00018552746, -0.016017843, -0.0142606869, -4.97184919E-05, 921.2099    , 32.54297    , 796.3637    , 2.82        , 3           , 255         , 0           , 0
-0.13710779 , 0.1493563   , -9.79001    , -6.74517942E-05, -0.000230928767, 0.000297183928, -0.0160185583, -0.0142629482, -4.670982E-05, 921.1999    , 32.5429     , 796.3639    , 2.83        , 3           , 255         , 0           , 0
-0.13424775 , 0.155699611 , -9.782387   , 0.000164875644, 0.000397394877, 0.000583191868, -0.0160169937, -0.0142588811, -4.094186E-05, 921.1999    , 32.5429     , 796.3641    , 2.84        , 3           , 255         , 0           , 0
-0.1373696  , 0.1515711   , -9.78274    , 0.000356115575, 7.881492E-05, 0.000208537167, -0.0160134621, -0.01425806 , -3.8869217E-05, 921.1999    , 32.5429     , 796.364258  , 2.85        , 3           , 255         , 0           , 0
-0.135276541, 0.156670421 , -9.784834   , -0.0004539179, 0.000215768348, 0.000353593 , -0.0160180517, -0.0142558459, -3.53680261E-05, 921.1999    , 32.5429     , 796.364441  , 2.86        , 3           , 255         , 0           , 0
-0.148045778, 0.165130854 , -9.783113   , -0.000688391854, 0.0004144301, 0.0003218004, -0.0160249788, -0.0142516512, -3.2216587E-05, 921.1999    , 32.5429     , 796.3646    , 2.87        , 3           , 255         , 0           , 0
-0.132566065, 0.156896189 , -9.793685   , 0.000432706147, 0.0005957162, -4.938552E-05, -0.0160206426, -0.0142457047, -3.280588E-05, 921.1999    , 32.5429     , 796.3648    , 2.88        , 3           , 255         , 0           , 0
-0.13864775 , 0.1613529   , -9.794311   , -0.000172570115, 0.000446964172, 0.00113757222, -0.0160225313, -0.0142410509, -2.15023665E-05, 921.1999    , 32.5429     , 796.365     , 2.89        , 3           , 255         , 0           , 0
-0.128191188, 0.167801186 , -9.789065   , -0.0009637241, 0.0003919801, 0.000341410516, -0.0160322133, -0.0142370779, -1.81512351E-05, 921.1999    , 32.5429     , 796.3652    , 2.9         , 3           , 255         , 0           , 0
-0.131708354, 0.16074343  , -9.784407   , -0.0005866987, -3.10087344E-05, 4.2011E-05  , -0.0160403419, -0.01422758 , -1.76940521E-05, 921.1999    , 32.5429     , 796.344849  , 2.91        , 3           , 255         , 0           , 0
-0.139635414, 0.165158    , -9.809723   , -0.000429040345, 0.000127286417, 0.00019128788, -0.01604466 , -0.0142262774, -1.580169E-05, 921.1999    , 32.5429     , 796.3449    , 2.92        , 3           , 255         , 0           , 0
-0.1381329  , 0.157031521 , -9.789806   , -0.000359064841, 2.20083166E-05, -0.0007276649, -0.0160481445, -0.0142261721, -2.30815E-05, 921.201233  , 32.54446    , 796.345     , 2.93        , 3           , 255         , 0           , 0
-0.14126271 , 0.159224629 , -9.7998085  , 7.39907846E-05, -0.0004408994, -0.000238952693, -0.0160473716, -0.0142306192, -2.54001388E-05, 921.201233  , 32.54446    , 796.345032  , 2.94        , 3           , 255         , 0           , 0
-0.144657552, 0.141643673 , -9.785065   , 0.00016852055, -0.0002526933, -0.00043683828, -0.0160456263, -0.0142332166, -2.97277511E-05, 921.201233  , 32.54446    , 796.3451    , 2.95        , 3           , 255         , 0           , 0
-0.133341551, 0.143685386 , -9.778809   , 0.0005171036, -3.71121569E-05, -6.642702E-06, -0.0160404537, -0.0142335882, -2.97882216E-05, 921.201233  , 32.54446    , 796.345154  , 2.96        , 3           , 255         , 0           , 0
-0.136763453, 0.148886278 , -9.778603   , -0.000377424, -0.000135172158, -0.000120510434, -0.01604421 , -0.0142349591, -3.097158E-05, 921.201233  , 32.54446    , 796.3452    , 2.97        , 3           , 255         , 0           , 0
-0.129108429, 0.143712088 , -9.780789   , -0.00051773357, -0.000122378464, 0.0003621815, -0.0160494372, -0.0142361261, -2.73303122E-05, 921.201233  , 32.54446    , 796.3453    , 2.98        , 3           , 255         , 0           , 0
-0.130899161, 0.147580609 , -9.782672   , -0.00010593218, -0.000157058937, -4.1772E-05 , -0.01605049 , -0.0142377028, -2.772281E-05, 921.201233  , 32.54446    , 796.345337  , 2.99        , 3           , 255         , 0           , 0
-0.13144134 , 0.155681342 , -9.790067   , -0.000195298286, -0.00013295433, -0.000784184434, -0.01605233 , -0.0142391576, -3.55429038E-05, 921.201233  , 32.54446    , 796.3454    , 3           , 3           , 0           , 8.041237    , 300
-0.1363025  , 0.155613512 , -9.786488   , -0.0003583267, -6.85744453E-05, -0.000242282069, -0.01604432 , -0.0142310159, -3.81190657E-05, 921.201233  , 32.54446    , 796.3257    , 3.01        , 3           , 1           , 0           , 0
-0.145469174, 0.1672601   , -9.778097   , 8.993782E-05, -3.43604479E-05, 0.000561853638, -0.016043501, -0.0142312692, -3.2495318E-05, 921.201233  , 32.54446    , 796.3256    , 3.02        , 3           , 2           , 0           , 0
-0.136067808, 0.16695641  , -9.779813   , -0.000180099858, 2.3592147E-05, -0.0005685802, -0.0160452221, -0.0142311249, -3.81846148E-05, 921.172363  , 32.54358    , 796.325562  , 3.03        , 3           , 3           , 0           , 0
-0.137482852, 0.169683337 , -9.795355   , -0.0003513851, 0.0002403605, -0.000219208145, -0.0160487015, -0.0142287575, -4.04151469E-05, 921.172363  , 32.54358    , 796.3255    , 3.04        , 3           , 4           , 0           , 0
-0.152124643, 0.171876252 , -9.79276848 , -0.0005370114, -4.42481833E-05, -0.0003082379, -0.0160540268, -0.01422925 , -4.349026E-05, 921.172363  , 32.54358    , 796.325439  , 3.05        , 3           , 5           , 0           , 0
-0.14045085 , 0.168839261 , -9.793046   , 8.145376E-05, 0.00012753671, -0.000445812184, -0.0160531513, -0.0142280459, -4.79686132E-05, 921.172363  , 32.54358    , 796.3254    , 3.06        , 3           , 6           , 0           , 0
-0.131750733, 0.1713176   , -9.792208   , 0.0002578838, 0.000333268021, 0.000174296918, -0.0160505958, -0.0142246857, -4.62792268E-05, 921.172363  , 32.54358    , 796.3253    , 3.07        , 3           , 7           , 0           , 0
-0.133067518, 0.158084527 , -9.79331    , -0.000241195317, -2.203614E-05, 0.0008157892, -0.0160531271, -0.0142247751, -3.81182253E-05, 921.172363  , 32.54358    , 796.325256  , 3.08        , 3           , 8           , 5           , 5
-0.129017323, 0.1615139   , -9.778447   , -0.0003509249, -0.000233378843, 0.000333216216, -0.0160566811, -0.014227055, -3.47487621E-05, 921.172363  , 32.54358    , 796.3252    , 3.09        , 3           , 9           , 5           , 0.1
-0.137181789, 0.154765442 , -9.781396   , 0.000128553831, 0.000146648381, -0.0006262111, -0.0160553064, -0.0142256888, -4.10340872E-05, 921.172363  , 32.54358    , 796.325134  , 3.1         , 3           , 10          , 0.1         , 0.1
-0.140841156, 0.15676409  , -9.787588   , 0.00017457112, 0.000440366217, -0.0002026461, -0.0160726029, -0.014217752, -4.2859996E-05, 921.172363  , 32.54358    , 796.349243  , 3.11        , 3           , 11          , 0.00690656854, 0.00690656668
-0.138300389, 0.147834167 , -9.791478   , 0.0003260381, 0.000309708877, -7.32840272E-06, -0.0160693415, -0.0142146554, -4.2983047E-05, 921.172363  , 32.54358    , 796.349365  , 3.12        , 3           , 12          , 0.174645633 , 0
-0.129029781, 0.146734521 , -9.786059   , 0.00057808467, 0.000152032182, 0.000484166347, -0.01606363 , -0.014213061, -3.816607E-05, 921.1904    , 32.5426979  , 796.3495    , 3.13        , 3           , 13          , 0           , 0
-0.137399092, 0.139354452 , -9.78926849 , 0.000340622442, -0.00020326674, -0.000387212058, -0.0160601679, -0.0142151527, -4.20053439E-05, 921.1904    , 32.5426979  , 796.3496    , 3.14        , 3           , 14          , -0.0008888605, -0.0010617096
-0.141915   , 0.151055217 , -9.786855   , 0.000544907758, -0.00028504245, -0.000427321851, -0.01605466 , -0.0142180705, -4.623256E-05, 921.1904    , 32.5426979  , 796.349731  , 3.15        , 3           , 15          , 0           , -0.000160520634
-0.141541123, 0.157275647 , -9.792454   , 0.0008232984, -0.000241151545, -0.000159393036, -0.0160464048, -0.01422051 , -4.778772E-05, 921.1904    , 32.5426979  , 796.349854  , 3.16        , 3           , 16          , 0           , 1.401298E-45
-0.134390071, 0.160278231 , -9.79406452 , 0.000766449433, -0.0007169094, -0.00021592222, -0.0160387084, -0.01422771 , -4.983182E-05, 921.1904    , 32.5426979  , 796.35      , 3.17        , 3           , 20          , 0           , 0
-0.13899596 , 0.165640384 , -9.791552   , 0.000192942913, -0.000514262356, -0.000101525948, -0.0160367638, -0.0142328693, -5.076455E-05, 921.1904    , 32.5426979  , 796.3501    , 3.18        , 3           , 21          , 0           , 0
-0.133046836, 0.162990585 , -9.784083   , -0.00026838138, -0.0002766666, 0.000265749753, -0.0160394851, -0.0142355934, -4.80628078E-05, 921.1904    , 32.5426979  , 796.3502    , 3.19        , 3           , 22          , 0           , 0
-0.15122807 , 0.1650357   , -9.792191   , -0.000240625057, 0.00016582  , -4.66377533E-05, -0.0160418842, -0.0142339412, -4.85557648E-05, 921.1904    , 32.5426979  , 796.350342  , 3.2         , 3           , 40          , 0           , 0
-0.148997709, 0.164950162 , -9.77722    , -0.000334114069, -0.0006922027, 0.000182926044, -0.01604145 , -0.0142397648, -4.666969E-05, 921.1904    , 32.5426979  , 796.345154  , 3.21        , 3           , 41          , 0           , 0
-0.134626791, 0.151877955 , -9.785997   , -4.52424865E-06, -0.0005385254, -0.000183310549, -0.01604147 , -0.0142451786, -4.84163029E-05, 921.1904    , 32.5426979  , 796.3452    , 3.22        , 3           , 42          , 0           , 0
-0.133317843, 0.148190916 , -9.791006   , 0.00063172396, -1.02247577E-05, 0.00028897723, -0.0160351936, -0.0142452344, -4.55250338E-05, 921.219     , 32.5399857  , 796.3453    , 3.23        , 3           , 255         , 0           , 0
-0.144677252, 0.14572975  , -9.79234    , 0.0004769274, 0.000439434138, -0.0002305029, -0.0160303935, -0.0142408786, -4.79003975E-05, 921.219     , 32.5399857  , 796.345337  , 3.24        , 3           , 255         , 0           , 0
-0.149272218, 0.146028608 , -9.78627    , -6.2320265E-05, 0.0001143706, -0.000146425518, -0.0160309952, -0.0142397583, -4.938289E-05, 921.219     , 32.5399857  , 796.3454    , 3.25        , 3           , 255         , 0           , 0
-0.144851252, 0.141108826 , -9.795862   , -0.0003918407, 0.0005813157, 0.000143587749, -0.0160349328, -0.0142339226, -4.804029E-05, 921.219     , 32.5399857  , 796.345459  , 3.26        , 3           , 255         , 0           , 0
-0.138361961, 0.152001143 , -9.793104   , 0.0002595049, -0.000152141438, 0.000283419562, -0.0160323773, -0.0142353978, -4.51818269E-05, 921.219     , 32.5399857  , 796.3455    , 3.27        , 3           , 255         , 0           , 0
-0.133160263, 0.155820012 , -9.786087   , -0.000132278772, 0.00030005083, -0.0003745827, -0.0160336476, -0.0142324623, -4.8975573E-05, 921.219     , 32.5399857  , 796.3456    , 3.28        , 3           , 255         , 0           , 0
-0.1365518  , 0.156381682 , -9.789457   , -0.000177087029, 0.000571754063, -0.0001558936, -0.0160353947, -0.0142267682, -5.06260949E-05, 921.219     , 32.5399857  , 796.345642  , 3.29        , 3           , 255         , 0           , 0
-0.137560084, 0.159320384 , -9.790787   , -0.000495136832, 0.000105764018, -0.000170550324, -0.01604032 , -0.0142257381, -5.234847E-05, 921.219     , 32.5399857  , 796.3457    , 3.3         , 3           , 255         , 0           , 0
-0.136929467, 0.147114724 , -9.793452   , 0.000153747154, -0.0004970175, -0.000306427246, -0.016028678, -0.01423226 , -5.547608E-05, 921.219     , 32.5399857  , 796.3008    , 3.31        , 3           , 255         , 0           , 0
-0.140174553, 0.163065717 , -9.78753948 , 7.34273344E-05, -7.590349E-05, 0.00100278982, -0.0160280857, -0.01423286 , -4.543654E-05, 921.219     , 32.5399857  , 796.3006    , 3.32        , 3           , 255         , 0           , 0
-0.131217971, 0.159453124 , -9.78928    , -0.000298198429, 0.0004831914, 0.000210163707, -0.0160311  , -0.0142279947, -4.34124631E-05, 921.2002    , 32.54351    , 796.3004    , 3.33        , 3           , 255         , 0           , 0
-0.132526442, 0.168039843 , -9.798288   , 5.65373339E-05, 0.0009428948, -0.000133021254, -0.01603051 , -0.0142185874, -4.489376E-05, 921.2002    , 32.54351    , 796.300232  , 3.34        , 3           , 255         , 0           , 0
-0.132155627, 0.176627785 , -9.78965    , -0.000110382214, 0.00013250293, 0.000336753757, -0.0160316639, -0.0142172081, -4.15476534E-05, 921.2002    , 32.54351    , 796.300049  , 3.35        , 3           , 255         , 0           , 0
-0.139520556, 0.1640853   , -9.785979   , -0.000325775822, -1.77216716E-05, 0.0005816497, -0.0160350036, -0.0142172929, -3.57286081E-05, 921.2002    , 32.54351    , 796.299866  , 3.36        , 3           , 255         , 0           , 0
-0.1399299  , 0.1593844   , -9.786954   , -8.293614E-05, 0.000132504909, 0.00121276814, -0.016036002, -0.014215772, -2.36228334E-05, 921.2002    , 32.54351    , 796.2997    , 3.37        , 3           , 255         , 0           , 0
-0.137519956, 0.1562335   , -9.790125   , 5.78269246E-05, -3.4571276E-05, 0.000410221284, -0.0160354823, -0.0142160514, -1.95152716E-05, 921.2002    , 32.54351    , 796.2995    , 3.38        , 3           , 255         , 0           , 0
-0.138631836, 0.15754877  , -9.788521   , 0.000240028487, -0.000151080429, 0.000220197049, -0.0160331111, -0.01421753 , -1.728921E-05, 921.2002    , 32.54351    , 796.2993    , 3.39        , 3           , 255         , 0           , 0
-0.141223714, 0.153115243 , -9.785068   , -5.58261527E-05, -0.000235899817, -0.000464100216, -0.0160336047, -0.014219963, -2.18921432E-05, 921.2002    , 32.54351    , 796.299133  , 3.4         , 3           , 255         , 0           , 0
-0.135249972, 0.154208362 , -9.789558   , -8.39562854E-05, -9.18319E-05, 0.0005415057, -0.0160412863, -0.0142165031, -1.636649E-05, 921.2002    , 32.54351    , 796.287537  , 3.41        , 3           , 255         , 0           , 0
-0.132031322, 0.143118784 , -9.782753   , 0.00017268298, 0.0003376137, -5.63273061E-05, -0.01603955 , -0.0142131364, -1.69838731E-05, 921.2002    , 32.54351    , 796.2873    , 3.42        , 3           , 255         , 0           , 0
-0.133611277, 0.1527395   , -9.788618   , 0.000246548734, 0.000129258086, -0.0006163983, -0.0160369985, -0.0142119424, -2.31682752E-05, 921.2237    , 32.5424271  , 796.287048  , 3.43        , 3           , 255         , 0           , 0
-0.132117108, 0.156464219 , -9.800135   , -0.000286449445, -0.000136469258, 9.898647E-05, -0.0160398763, -0.014213291, -2.21565679E-05, 921.2237    , 32.5424271  , 796.2868    , 3.44        , 3           , 255         , 0           , 0
-0.138696849, 0.155884415 , -9.792557   , -8.92654061E-05, 0.000370091526, -0.000542054069, -0.01604069 , -0.0142096765, -2.76361789E-05, 921.2237    , 32.5424271  , 796.28656   , 3.45        , 3           , 255         , 0           , 0
-0.137886733, 0.155875847 , -9.788175   , -0.000155715621, 0.000298894476, -0.0003616748, -0.0160421953, -0.0142067466, -3.13006931E-05, 921.2237    , 32.5424271  , 796.2863    , 3.46        , 3           , 255         , 0           , 0
-0.13000755 , 0.151330069 , -9.797326   , -0.000183703378, 0.000183104072, -0.000307275273, -0.016043989, -0.0142049668, -3.440267E-05, 921.2237    , 32.5424271  , 796.2861    , 3.47        , 3           , 255         , 0           , 0
-0.129572481, 0.156470791 , -9.793378   , 0.000306088128, -0.000283073168, 0.00032659882, -0.0160409734, -0.0142077431, -3.10914438E-05, 921.2237    , 32.5424271  , 796.2858    , 3.48        , 3           , 255         , 0           , 0
-0.130284756, 0.167697877 , -9.793836   , -0.000214907341, -0.000148159568, 5.849266E-05, -0.0160431322, -0.0142092155, -3.048277E-05, 921.2237    , 32.5424271  , 796.2856    , 3.49        , 3           , 255         , 0           , 0
-0.1278286  , 0.163724244 , -9.785953   , -0.00038783066, -2.498785E-05, -3.081521E-05, -0.0160470065, -0.0142094707, -3.07868977E-05, 921.2237    , 32.5424271  , 796.285339  , 3.5         , 3           , 255         , 0           , 0
-0.129833549, 0.157379121 , -9.801085   , -8.286786E-05, -0.000665305648, 0.000381186866, -0.0160457026, -0.01420536 , -2.68995263E-05, 921.2237    , 32.5424271  , 796.2424    , 3.51        , 3           , 255         , 0           , 0
-0.142235368, 0.159048319 , -9.787246   , 0.000134447473, -0.0003233865, -0.0004620346, -0.01604429 , -0.014208667, -3.14677563E-05, 921.2237    , 32.5424271  , 796.2419    , 3.52        , 3           , 255         , 0           , 0
-0.1382792  , 0.156065688 , -9.781465   , -0.000164755387, -9.90770059E-05, -7.503787E-05, -0.016045928, -0.0142096691, -3.22022133E-05, 921.2643    , 32.54297    , 796.2414    , 3.53        , 3           , 255         , 0           , 0
-0.135585487, 0.159321085 , -9.781521   , -0.000112788053, -0.000525149633, 0.000655387063, -0.0160471443, -0.0142148146, -2.55644336E-05, 921.2643    , 32.54297    , 796.2409    , 3.54        , 3           , 255         , 0           , 0
-0.143963262, 0.1593248   , -9.786887   , -0.000204263371, -0.000221505063, -0.0001670287, -0.0160491671, -0.0142170563, -2.71990648E-05, 921.2643    , 32.54297    , 796.2404    , 3.55        , 3           , 255         , 0           , 0
-0.134473488, 0.15984261  , -9.790292   , 0.000204948534, 0.00016508461, 0.0003581007, -0.0160471685, -0.0142153483, -2.3644734E-05, 921.2643    , 32.54297    , 796.2399    , 3.56        , 3           , 255         , 0           , 0
-0.139647156, 0.156981826 , -9.793314   , 6.25791145E-05, -0.000362108927, 0.0008427116, -0.0160466619, -0.0142188333, -1.5159957E-05, 921.2643    , 32.54297    , 796.239441  , 3.57        , 3           , 255         , 0           , 0
-0.14151828 , 0.162493125 , -9.789823   , 2.15346226E-05, -9.76626761E-05, -1.4926045E-05, -0.016046444, -0.014219814, -1.529355E-05, 921.2643    , 32.54297    , 796.238953  , 3.58        , 3           , 255         , 0           , 0
-0.139804825, 0.157010555 , -9.789412   , -3.961334E-05, 0.000279107247, 3.22856067E-05, -0.0160468426, -0.0142170172, -1.50155E-05, 921.2643    , 32.54297    , 796.238464  , 3.59        , 3           , 255         , 0           , 0
-0.134325713, 0.158763289 , -9.798378   , -0.0001488023, -0.000122419209, -4.05239552E-05, -0.0160483252, -0.0142182484, -1.54010922E-05, 921.2643    , 32.54297    , 796.238     , 3.6         , 3           , 255         , 0           , 0
-0.1440157  , 0.155080348 , -9.801333   , -0.000211727165, -0.00035306788, -0.000119690769, -0.0160531141, -0.0142195784, -1.65030524E-05, 921.2643    , 32.54297    , 796.144165  , 3.61        , 3           , 255         , 0           , 0
-0.143434435, 0.162617669 , -9.805519   , 0.000537269167, -0.0002995924, -0.000446648162, -0.0160476752, -0.0142226443, -2.09212067E-05, 921.2643    , 32.54297    , 796.143066  , 3.62        , 3           , 255         , 0           , 0
-0.124425486, 0.160827547 , -9.785837   , 0.000402559 , -3.44667351E-05, -0.000722104334, -0.01604355 , -0.0142231043, -2.813634E-05, 921.1794    , 32.5420876  , 796.141968  , 3.63        , 3           , 255         , 0           , 0
-0.136024565, 0.156952336 , -9.786615   , -9.487959E-05, 1.80770876E-05, 0.000425073027, -0.0160445571, -0.0142228557, -2.38887369E-05, 921.1794    , 32.5420876  , 796.1409    , 3.64        , 3           , 255         , 0           , 0
-0.14089036 , 0.154491574 , -9.785326   , 0.000194538443, -0.000202848227, 0.00128832739, -0.016042795, -0.0142246746, -1.09735984E-05, 921.1794    , 32.5420876  , 796.1399    , 3.65        , 3           , 255         , 0           , 0
-0.147201508, 0.160588682 , -9.788271   , 4.114682E-05, -0.000213367166, 6.167409E-05, -0.0160423927, -0.014226798, -1.03226539E-05, 921.1794    , 32.5420876  , 796.138855  , 3.66        , 3           , 255         , 0           , 0
-0.1441265  , 0.155713946 , -9.793398   , 8.441025E-05, 1.97591726E-05, -0.000198777983, -0.01604152 , -0.0142266322, -1.23134923E-05, 921.1794    , 32.5420876  , 796.1378    , 3.67        , 3           , 255         , 0           , 0
-0.133482978, 0.1512707   , -9.79713249 , 4.08026972E-05, 7.289194E-05, -0.0002496345, -0.0160410758, -0.014225943, -1.48214122E-05, 921.1794    , 32.5420876  , 796.1368    , 3.68        , 3           , 255         , 0           , 0
-0.134744436, 0.152605176 , -9.795881   , -2.97879451E-05, 1.925393E-06, -0.000783672032, -0.0160412621, -0.01422605 , -2.26580269E-05, 921.1794    , 32.5420876  , 796.135742  , 3.69        , 3           , 255         , 0           , 0
-0.130132675, 0.154688731 , -9.794718   , 0.000123538775, -2.39004148E-05, -5.88991679E-05, -0.0160400178, -0.0142263025, -2.32431412E-05, 921.1794    , 32.5420876  , 796.1347    , 3.7         , 3           , 255         , 0           , 0
-0.134349242, 0.1529198   , -9.786331   , 9.634311E-05, 0.0002474925, -0.000546452764, -0.01603808 , -0.0142218778, -2.87598214E-05, 921.1794    , 32.5420876  , 796.1765    , 3.71        , 3           , 255         , 0           , 0
-0.13410008 , 0.16089803  , -9.796962   , 0.000270248624, 1.50965061E-05, -0.000322546024, -0.0160353314, -0.0142217781, -3.19875326E-05, 921.1794    , 32.5420876  , 796.1757    , 3.72        , 3           , 255         , 0           , 0
-0.144163132, 0.1566053   , -9.793024   , -0.0006088414, -0.000225926866, -0.000164243509, -0.0160413943, -0.0142240636, -3.359366E-05, 921.2169    , 32.5427666  , 796.1749    , 3.73        , 3           , 255         , 0           , 0
-0.140245363, 0.162059262 , -9.786278   , -2.33953469E-05, -0.0002230861, -0.0006257466, -0.0160415415, -0.0142263947, -3.9815E-05 , 921.2169    , 32.5427666  , 796.174133  , 3.74        , 3           , 255         , 0           , 0
-0.145009741, 0.15563108  , -9.789773   , 2.70636519E-05, 0.000113147544, -0.0003368407, -0.016041223, -0.0142253172, -4.32013767E-05, 921.2169    , 32.5427666  , 796.17334   , 3.75        , 3           , 255         , 0           , 0
-0.138986588, 0.1555431   , -9.78951    , 0.000539760455, 3.934023E-06, -9.447112E-05, -0.016035812, -0.014225292, -4.414667E-05, 921.2169    , 32.5427666  , 796.172546  , 3.76        , 3           , 255         , 0           , 0
-0.136590242, 0.150901467 , -9.790918   , 0.0002542417, 0.000477613881, -5.220616E-05, -0.01603326 , -0.0142205255, -4.4745273E-05, 921.2169    , 32.5427666  , 796.171753  , 3.77        , 3           , 255         , 0           , 0
-0.139982969, 0.157056883 , -9.793797   , -0.000354679767, 0.000180126866, 0.0005865247, -0.0160368886, -0.0142186312, -3.890921E-05, 921.2169    , 32.5427666  , 796.170959  , 3.78        , 3           , 255         , 0           , 0
-0.1375604  , 0.1527803   , -9.792047   , -0.000544650131, -0.000264701433, -0.0003318239, -0.0160422884, -0.014221333, -4.218482E-05, 921.2169    , 32.5427666  , 796.170166  , 3.79        , 3           , 255         , 0           , 0
-0.148227155, 0.159605816 , -9.789775   , -0.000357139274, 0.0004945952, 0.000374205643, -0.0160459131, -0.0142163271, -3.85223175E-05, 921.2169    , 32.5427666  , 796.1694    , 3.8         , 3           , 255         , 0           , 0
-0.140658066, 0.155816481 , -9.796417   , -0.00011548138, 0.000807461736, 0.0005650886, -0.0160460565, -0.01420916 , -3.301681E-05, 921.2169    , 32.5427666  , 796.153     , 3.81        , 3           , 255         , 0           , 0
-0.1270177  , 0.150255    , -9.80618    , 0.000345802167, 3.50044575E-05, 0.0005376199, -0.0160426758, -0.0142087238, -2.7646498E-05, 921.2169    , 32.5427666  , 796.152161  , 3.82        , 3           , 255         , 0           , 0
-0.136375546, 0.157191664 , -9.785685   , -0.0001587263, 0.000327949179, 0.000312953984, -0.0160443075, -0.0142053952, -2.45697483E-05, 921.2066    , 32.54039    , 796.1513    , 3.83        , 3           , 255         , 0           , 0
-0.133507371, 0.160438463 , -9.790367   , 0.000617484329, 9.85700754E-05, -0.0006947135, -0.0160380341, -0.0142045207, -3.15323159E-05, 921.2066    , 32.54039    , 796.150452  , 3.84        , 3           , 255         , 0           , 0
-0.135676607, 0.159409761 , -9.788302   , 0.000573557336, -0.000190775027, -0.000476467656, -0.0160322282, -0.0142065026, -3.62661631E-05, 921.2066    , 32.54039    , 796.1496    , 3.85        , 3           , 255         , 0           , 0
-0.137024432, 0.1452609   , -9.787065   , -4.61430172E-05, -0.00054311147, -0.000166870421, -0.01603267 , -0.01421196 , -3.78476871E-05, 921.2066    , 32.54039    , 796.148743  , 3.86        , 3           , 255         , 0           , 0
-0.1378179  , 0.15249899  , -9.790987   , -0.000243867689, -0.000355049269, 0.0001702107, -0.01603513 , -0.0142154833, -3.608876E-05, 921.2066    , 32.54039    , 796.1479    , 3.87        , 3           , 255         , 0           , 0
-0.13160035 , 0.152478218 , -9.787268   , -0.000607024471, 9.8290795E-05, -7.732268E-05, -0.01604119 , -0.0142145129, -3.687772E-05, 921.2066    , 32.54039    , 796.147034  , 3.88        , 3           , 255         , 0           , 0
-0.138362959, 0.1615338   , -9.791858   , 0.0007543125, -0.00018063304, 0.0008906971, -0.0160337724, -0.0142161762, -2.794224E-05, 921.2066    , 32.54039    , 796.1462    , 3.89        , 3           , 255         , 0           , 0
-0.135327667, 0.152796477 , -9.798685   , 0.000180509174, 0.000138256 , -2.5455447E-05, -0.0160319675, -0.0142147979, -2.82189339E-05, 921.2066    , 32.54039    , 796.1453    , 3.9         , 3           , 255         , 0           , 0
-0.127676383, 0.1577173   , -9.7931     , 0.000220805639, -5.669298E-05, -0.0006323259, -0.0160263889, -0.014209955, -3.45793851E-05, 921.2066    , 32.54039    , 796.1471    , 3.91        , 3           , 255         , 0           , 0
-0.130953759, 0.156047136 , -9.79579    , -0.000137895229, -0.000148792169, 0.0003143124, -0.0160278119, -0.014211393, -3.14125973E-05, 921.2066    , 32.54039    , 796.14624   , 3.92        , 3           , 255         , 0           , 0
-0.138136223, 0.155385852 , -9.776377   , -0.00020693324, -4.89321537E-05, 0.0006693355, -0.0160299782, -0.0142117757, -2.471173E-05, 921.2109    , 32.54134    , 796.1454    , 3.93        , 3           , 255         , 0           , 0
-0.142371714, 0.1627857   , -9.79665852 , 0.000260517641, 0.000285318645, 5.53842328E-05, -0.0160273779, -0.0142089128, -2.42036567E-05, 921.2109    , 32.54134    , 796.144531  , 3.94        , 3           , 255         , 0           , 0
-0.142697975, 0.160086617 , -9.7862215  , 0.000139000011, 0.000623441651, -0.0003295345, -0.01602594 , -0.0142027372, -2.75987422E-05, 921.2109    , 32.54134    , 796.1437    , 3.95        , 3           , 255         , 0           , 0
-0.1435726  , 0.149830192 , -9.788395   , -0.000582906534, 0.00033678842, -0.0007224827, -0.0160316639, -0.0141994832, -3.48771828E-05, 921.2109    , 32.54134    , 796.1428    , 3.96        , 3           , 255         , 0           , 0
-0.1450807  , 0.159009725 , -9.787816   , -0.000500925235, -2.71915924E-05, 4.77784124E-05, -0.01603668 , -0.0141997477, -3.439507E-05, 921.2109    , 32.54134    , 796.141968  , 3.97        , 3           , 255         , 0           , 0
-0.147816062, 0.164191157 , -9.795637   , -0.000201833085, -2.30261358E-05, -0.000101287995, -0.0160386842, -0.0141999945, -3.54042168E-05, 921.2109    , 32.54134    , 796.1411    , 3.98        , 3           , 255         , 0           , 0
-0.145937517, 0.160849959 , -9.788218   , 0.00012523809, 0.000234475592, 0.000189008017, -0.0160374567, -0.01419762 , -3.3551838E-05, 921.2109    , 32.54134    , 796.140259  , 3.99        , 3           , 255         , 0           , 0
-0.1367655  , 0.150759533 , -9.794169   , 0.00066028  , -0.000210632454, -9.477293E-05, -0.0160308424, -0.0141997412, -3.44657637E-05, 921.2109    , 32.54134    , 796.1394    , 4           , 3           , 0           , 9.041237    , 400
-0.133659154, 0.1576936   , -9.784557   , -7.60972034E-06, -0.000353511539, 0.0007151375, -0.016032258, -0.0142048215, -2.7240425E-05, 921.2109    , 32.54134    , 796.136353  , 4.01        , 3           , 1           , 0           , 0
-0.136539608, 0.150109559 , -9.785606   , 0.0006839356, 0.0001760046, 0.000291410484, -0.0160254613, -0.0142030166, -2.43546874E-05, 921.2109    , 32.54134    , 796.1355    , 4.02        , 3           , 2           , 0           , 0
-0.133679032, 0.15037401  , -9.786356   , 0.0004983808, 0.000138664269, 4.85650162E-05, -0.0160204861, -0.0142016215, -2.389128E-05, 921.1707    , 32.5431747  , 796.134644  , 4.03        , 3           , 3           , 0           , 0
-0.136007413, 0.156414732 , -9.787287   , -3.81420832E-05, -0.000278047519, 0.000731627049, -0.0160209723, -0.0142042842, -1.65308556E-05, 921.1707    , 32.5431747  , 796.1338    , 4.04        , 3           , 4           , 0           , 0
-0.132802352, 0.1555933   , -9.784211   , 5.42379E-05 , -0.000284916838, 0.000338002574, -0.0160204787, -0.0142070772, -1.3105353E-05, 921.1707    , 32.5431747  , 796.132935  , 4.05        , 3           , 5           , 0           , 0
-0.144536972, 0.163762808 , -9.785093   , -0.000466467929, -0.000259561115, 0.000396569725, -0.0160251986, -0.01420961 , -9.098281E-06, 921.1707    , 32.5431747  , 796.1321    , 4.06        , 3           , 6           , 0           , 0
-0.134547859, 0.159099326 , -9.790423   , -0.0005509878, -0.0005085756, 0.00106111285, -0.01603086 , -0.014214525, 1.5938067E-06, 921.1707    , 32.5431747  , 796.1312    , 4.07        , 3           , 7           , 0           , 0
-0.13743192 , 0.154788509 , -9.792358   , 0.0006425134, -0.000251670135, 0.000308686635, -0.01602448 , -0.01421699 , 4.72084957E-06, 921.1707    , 32.5431747  , 796.1304    , 4.08        , 3           , 8           , 5           , 5
-0.136960581, 0.166098788 , -9.787709   , 0.000385781 , 4.383619E-05, 8.492099E-05, -0.0160206333, -0.0142165385, 5.56298164E-06, 921.1707    , 32.5431747  , 796.1295    , 4.09        , 3           , 9           , 5           , 0.1
-0.131732255, 0.161138177 , -9.786487   , 0.0005119247, -0.00037886668, 0.0006577427, -0.01601561 , -0.0142202238, 1.22007505E-05, 921.1707    , 32.5431747  , 796.128662  , 4.1         , 3           , 10          , 0.1         , 0.1
-0.142640859, 0.1643193   , -9.792475   , -0.00028370478, 0.000127251726, 0.000307078881, -0.0160200428, -0.0142116211, 1.52731227E-05, 921.1707    , 32.5431747  , 796.184     , 4.11        , 3           , 11          , 0.006357928 , 0.006357925
-0.13084951 , 0.157991    , -9.783338   , -0.000162632612, -8.47305637E-05, 7.254179E-05, -0.0160216819, -0.0142124565, 1.601207E-05, 921.1707    , 32.5431747  , 796.183533  , 4.12        , 3           , 12          , 0.174648076 , 0
-0.126207635, 0.163924277 , -9.791903   , -0.0009251204, -8.178223E-05, -0.000285583374, -0.0160308927, -0.0142133217, 1.31694951E-05, 921.1371    , 32.54107    , 796.183044  , 4.13        , 3           , 13          , 0           , 0
-0.138524935, 0.160836458 , -9.804884   , -0.000905703229, -0.0003567862, -0.000327398535, -0.0160399  , -0.01421694 , 9.952909E-06, 921.1371    , 32.54107    , 796.182556  , 4.14        , 3           , 14          , -0.0008889129, -0.00106191356
-0.131441444, 0.158726051 , -9.797102   , -0.000206882658, -0.000486017438, 0.000138446063, -0.0160419885, -0.0142217781, 1.14152626E-05, 921.1371    , 32.54107    , 796.182068  , 4.15        , 3           , 15          , 0           , -0.000160523152
-0.140136153, 0.15710035  , -9.788073   , 0.000221786846, -0.00054503826, -0.000100408375, -0.0160397552, -0.0142272422, 1.04986466E-05, 921.1371    , 32.54107    , 796.1816    , 4.16        , 3           , 16          , 0           , 1.401298E-45
-0.138060838, 0.165227562 , -9.789306   , -9.01852E-06, -5.93010336E-05, -0.0007163989, -0.016039744, -0.01422795 , 3.3445433E-06, 921.1371    , 32.54107    , 796.1811    , 4.17        , 3           , 20          , 0           , 0
-0.138156027, 0.151110768 , -9.785135   , -0.000205744349, -0.000242037, -0.000292943732, -0.0160417613, -0.014230418, 4.54080265E-07, 921.1371    , 32.54107    , 796.1806    , 4.18        , 3           , 21          , 0           , 0
-0.126878   , 0.150268    , -9.794753   , -0.0008100287, -0.000413456233, 0.000113987313, -0.0160498768, -0.0142345335, 1.66022164E-06, 921.1371    , 32.54107    , 796.1801    , 4.19        , 3           , 22          , 0           , 0
-0.138546467, 0.156509712 , -9.806826   , -0.0005152161, -0.000346738379, 0.000378987985, -0.016055081, -0.0142379394, 5.505555E-06, 921.1371    , 32.54107    , 796.1796    , 4.2         , 3           , 40          , 0           , 0
-0.141432017, 0.156624943 , -9.801077   , -0.000226402655, -0.000199588365, 0.0003823003, -0.0160593111, -0.0142345643, 9.38759149E-06, 921.1371    , 32.54107    , 796.275757  , 4.21        , 3           , 41          , 0           , 0
-0.141292185, 0.150991961 , -9.783066   , -0.000589543954, 1.35226874E-05, -0.000143578291, -0.0160651859, -0.0142344534, 7.949717E-06, 921.1371    , 32.54107    , 796.2759    , 4.22        , 3           , 42          , 0           , 0
-0.13289395 , 0.1617608   , -9.7826     , -0.000399857177, -0.0004321871, 0.000240594934, -0.0160692185, -0.0142387347, 1.04249793E-05, 921.189453  , 32.5430374  , 796.276     , 4.23        , 3           , 255         , 0           , 0
-0.1370471  , 0.1640679   , -9.785464   , -0.000105080195, -0.000197564717, 5.83362125E-05, -0.0160702765, -0.0142407008, 1.10400424E-05, 921.189453  , 32.5430374  , 796.2761    , 4.24        , 3           , 255         , 0           , 0
-0.13460359 , 0.162706465 , -9.782259   , -0.000106603373, 0.0001428356, -9.322379E-06, -0.01607134 , -0.014239274, 1.092387E-05, 921.189453  , 32.5430374  , 796.276245  , 4.25        , 3           , 255         , 0           , 0
-0.1374406  , 0.162735045 , -9.779447   , 8.687901E-05, 4.16166149E-05, -0.00014664371, -0.0160704516, -0.0142388819, 9.45082E-06 , 921.189453  , 32.5430374  , 796.276367  , 4.26        , 3           , 255         , 0           , 0
-0.141924843, 0.165723756 , -9.788311   , 0.00052999414, -0.000449052663, 0.000132979621, -0.016065171, -0.0142433494, 1.08526974E-05, 921.189453  , 32.5430374  , 796.2765    , 4.27        , 3           , 255         , 0           , 0
-0.134834141, 0.162227    , -9.792906   , 7.06804E-06 , -0.000488253427, 0.0009316859, -0.0160652325, -0.0142480833, 2.02475E-05 , 921.189453  , 32.5430374  , 796.2766    , 4.28        , 3           , 255         , 0           , 0
-0.140347987, 0.157310873 , -9.791026   , -0.000489761238, -0.000254094135, 0.0004867827, -0.0160702  , -0.0142505448, 2.51558959E-05, 921.189453  , 32.5430374  , 796.276733  , 4.29        , 3           , 255         , 0           , 0
-0.135320678, 0.163030908 , -9.786549   , -0.000341882929, -0.000368181849, -0.0005113179, -0.0160735454, -0.0142543064, 2.0102143E-05, 921.189453  , 32.5430374  , 796.276855  , 4.3         , 3           , 255         , 0           , 0
-0.127500862, 0.1608319   , -9.789229   , 0.000348583737, 1.8715742E-05, 3.458452E-05, -0.0160771664, -0.01425061 , 2.05461965E-05, 921.189453  , 32.5430374  , 796.2846    , 4.31        , 3           , 255         , 0           , 0
-0.137234569, 0.160650283 , -9.786697   , 0.000165574776, 0.0002243375, -7.865649E-05, -0.0160754975, -0.0142483795, 1.972361E-05, 921.189453  , 32.5430374  , 796.2848    , 4.32        , 3           , 255         , 0           , 0
-0.134257823, 0.160223365 , -9.785685   , 0.000254360377, -0.000365091953, 7.94763546E-05, -0.01607297 , -0.0142520173, 2.05770157E-05, 921.1873    , 32.54236    , 796.285     , 4.33        , 3           , 255         , 0           , 0
-0.134971783, 0.155472636 , -9.789595   , -0.000199519913, -0.0005919277, 0.000507864868, -0.0160750374, -0.0142578548, 2.57505362E-05, 921.1873    , 32.54236    , 796.285156  , 4.34        , 3           , 255         , 0           , 0
-0.1394453  , 0.156538323 , -9.794449   , 0.0002182445, 0.000108201115, 0.0009969254, -0.0160729941, -0.0142566143, 3.5701858E-05, 921.1873    , 32.54236    , 796.285339  , 4.35        , 3           , 255         , 0           , 0
-0.1432925  , 0.153672963 , -9.794743   , 0.000365146669, -0.0002615432, -0.000444082776, -0.0160692781, -0.0142592974, 3.130329E-05, 921.1873    , 32.54236    , 796.2855    , 4.36        , 3           , 255         , 0           , 0
-0.142252073, 0.152986854 , -9.795062   , 0.000176323985, -0.000249346485, -0.00127716176, -0.0160673335, -0.0142619964, 1.85723929E-05, 921.1873    , 32.54236    , 796.2857    , 4.37        , 3           , 255         , 0           , 0
-0.1376389  , 0.165325657 , -9.791555   , 0.000374295516, -6.478804E-05, -0.00120344968, -0.0160634182, -0.0142628346, 6.548919E-06, 921.1873    , 32.54236    , 796.2859    , 4.38        , 3           , 255         , 0           , 0
-0.14251706 , 0.167021573 , -9.787024   , 0.000132415444, 0.000303136185, -0.0006407256, -0.016062   , -0.0142599083, 9.330182E-08, 921.1873    , 32.54236    , 796.2861    , 4.39        , 3           , 255         , 0           , 0
-0.141968533, 0.153967828 , -9.792979   , 0.000155531627, -9.99307958E-05, -0.000639312, -0.01606036 , -0.01426101 , -6.283429E-06, 921.1873    , 32.54236    , 796.2863    , 4.4         , 3           , 255         , 0           , 0
-0.137448847, 0.159023434 , -9.7909565  , -7.69122853E-05, -0.000418410054, -0.000665658, -0.0160629526, -0.01426304 , -1.28450238E-05, 921.1873    , 32.54236    , 796.2961    , 4.41        , 3           , 255         , 0           , 0
-0.140316561, 0.172387227 , -9.78321    , 0.0002322027, -0.000207889825, -5.27184457E-05, -0.0160606261, -0.0142651275, -1.33387994E-05, 921.1873    , 32.54236    , 796.2964    , 4.42        , 3           , 255         , 0           , 0
-0.134915859, 0.174740553 , -9.786191   , 2.25682743E-06, -0.000239237561, 0.0007363017, -0.0160607081, -0.0142674018, -5.937742E-06, 921.186768  , 32.5424957  , 796.2967    , 4.43        , 3           , 255         , 0           , 0
-0.130932659, 0.167602092 , -9.792775   , 6.03146618E-05, -0.000305965426, 0.00022437828, -0.0160601381, -0.0142704248, -3.64493462E-06, 921.186768  , 32.5424957  , 796.297     , 4.44        , 3           , 255         , 0           , 0
-0.135810882, 0.16805318  , -9.788488   , -0.0002236396, -0.00034797308, -0.000388456217, -0.0160623156, -0.0142739676, -7.47341E-06, 921.186768  , 32.5424957  , 796.2973    , 4.45        , 3           , 255         , 0           , 0
-0.147329658, 0.162927985 , -9.787058   , -0.000444646983, -0.000256688683, -0.000224175179, -0.0160667319, -0.01427657 , -9.673804E-06, 921.186768  , 32.5424957  , 796.2976    , 4.46        , 3           , 255         , 0           , 0
-0.141283125, 0.165378928 , -9.791955   , 0.0006706043, 0.000397750176, -0.000251825084, -0.01605999 , -0.0142726311, -1.2255824E-05, 921.186768  , 32.5424957  , 796.2979    , 4.47        , 3           , 255         , 0           , 0
-0.1251126  , 0.169872478 , -9.79154    , -9.330193E-05, -9.010197E-06, 0.00014338443, -0.01606094 , -0.0142726982, -1.08206195E-05, 921.186768  , 32.5424957  , 796.2982    , 4.48        , 3           , 255         , 0           , 0
-0.135889888, 0.1646037   , -9.783442   , 4.00759745E-05, 0.0001857162, -1.58898765E-05, -0.0160605386, -0.0142708467, -1.10093379E-05, 921.186768  , 32.5424957  , 796.2985    , 4.49        , 3           , 255         , 0           , 0
-0.137269035, 0.153380349 , -9.794386   , 8.774304E-05, 0.0007063593, 0.0003692016, -0.0160597134, -0.0142637221, -7.43097144E-06, 921.186768  , 32.5424957  , 796.2988    , 4.5         , 3           , 255         , 0           , 0
-0.126918241, 0.14018397  , -9.790222   , 2.93913763E-06, 0.0002734795, -0.000469024963, -0.016074108, -0.014255791, -1.1958321E-05, 921.186768  , 32.5424957  , 796.3077    , 4.51        , 3           , 255         , 0           , 0
-0.13999486 , 0.1513283   , -9.79208    , 0.00016380148, 6.090314E-05, -0.00029076435, -0.0160724279, -0.0142552322, -1.48755826E-05, 921.186768  , 32.5424957  , 796.308044  , 4.52        , 3           , 255         , 0           , 0
-0.143063471, 0.16349712  , -9.790616   , -0.000115599716, 1.60338823E-06, -0.000262394955, -0.0160735473, -0.0142552564, -1.74996549E-05, 921.165833  , 32.5440559  , 796.3084    , 4.53        , 3           , 255         , 0           , 0
-0.137267679, 0.159102    , -9.792851   , -0.0005632617, -0.000239704154, -0.000167226186, -0.0160791539, -0.0142576816, -1.91333038E-05, 921.165833  , 32.5440559  , 796.3088    , 4.54        , 3           , 255         , 0           , 0
-0.141301736, 0.15870592  , -9.800646   , -6.089901E-05, 0.000124341226, 0.000502423849, -0.0160798356, -0.0142563572, -1.41293294E-05, 921.165833  , 32.5440559  , 796.309143  , 4.55        , 3           , 255         , 0           , 0
-0.147035986, 0.161224648 , -9.78134    , 0.000306022877, 0.000166456681, 0.000247906253, -0.0160768088, -0.014254652, -1.16771625E-05, 921.165833  , 32.5440559  , 796.3095    , 4.56        , 3           , 255         , 0           , 0
-0.134428129, 0.1650939   , -9.786064   , -0.000119233038, 0.000683324237, 0.0003049989, -0.0160780456, -0.01424777 , -8.737173E-06, 921.165833  , 32.5440559  , 796.3099    , 4.57        , 3           , 255         , 0           , 0
-0.137252539, 0.166778713 , -9.792909   , -0.000551782432, -0.000328168273, 0.000177019159, -0.0160835888, -0.0142510235, -6.914302E-06, 921.165833  , 32.5440559  , 796.310242  , 4.58        , 3           , 255         , 0           , 0
-0.14176102 , 0.166634738 , -9.797079   , -0.0005363377, -0.000185887562, -0.000190637074, -0.0160889253, -0.0142529113, -8.790672E-06, 921.165833  , 32.5440559  , 796.3106    , 4.59        , 3           , 255         , 0           , 0
-0.130835414, 0.163789451 , -9.791687   , -0.000315114274, -0.000267945463, 0.000435637281, -0.0160921365, -0.0142555209, -4.39140649E-06, 921.165833  , 32.5440559  , 796.311     , 4.6         , 3           , 255         , 0           , 0
-0.131292552, 0.161905915 , -9.788958   , -0.000393521681, -0.0005858741, 0.000724755868, -0.0160991512, -0.01425902 , 2.99249086E-06, 921.165833  , 32.5440559  , 796.3476    , 4.61        , 3           , 255         , 0           , 0
-0.143351763, 0.15937756  , -9.802702   , 0.000139186857, -0.000293657533, 0.000133537746, -0.0160977785, -0.014261934, 4.3750706E-06, 921.165833  , 32.5440559  , 796.3482    , 4.62        , 3           , 255         , 0           , 0
-0.130939156, 0.149441049 , -9.783485   , 1.28314132E-05, -0.000185258919, 0.000346917717, -0.0160977  , -0.0142637305, 7.873881E-06, 921.1463    , 32.54202    , 796.3488    , 4.63        , 3           , 255         , 0           , 0
-0.134800866, 0.150102466 , -9.781523   , -2.68432777E-05, -9.713182E-05, -0.000235632629, -0.0160979349, -0.0142647382, 5.53330256E-06, 921.1463    , 32.54202    , 796.3494    , 4.64        , 3           , 255         , 0           , 0
-0.1417478  , 0.151331589 , -9.79438    , 3.83848674E-05, -0.000116944546, -0.000219909052, -0.01609752 , -0.0142659442, 3.35316781E-06, 921.1463    , 32.54202    , 796.350037  , 4.65        , 3           , 255         , 0           , 0
-0.140540153, 0.148585826 , -9.78755    , 5.56069426E-06, -0.000318250619, -0.000238770575, -0.01609743 , -0.0142691657, 1.016824E-06, 921.1463    , 32.54202    , 796.350647  , 4.66        , 3           , 255         , 0           , 0
-0.13868995 , 0.1504344   , -9.790709   , 7.777329E-05, -0.000147929066, -0.000676152646, -0.0160965566, -0.0142707536, -5.72054E-06, 921.1463    , 32.54202    , 796.351257  , 4.67        , 3           , 255         , 0           , 0
-0.1390929  , 0.151487976 , -9.788105   , -0.000316596648, -0.00018179731, -0.000360111066, -0.01609967 , -0.0142726274, -9.292199E-06, 921.1463    , 32.54202    , 796.351868  , 4.68        , 3           , 255         , 0           , 0
-0.134302109, 0.154488042 , -9.78956    , -0.000569355732, 7.390452E-05, 0.00028978975, -0.0161054041, -0.0142718423, -6.406369E-06, 921.1463    , 32.54202    , 796.3525    , 4.69        , 3           , 255         , 0           , 0
-0.129135847, 0.1534347   , -9.790207   , 0.0002616053, -2.36259075E-05, 0.000302851666, -0.0161028355, -0.0142720295, -3.374205E-06, 921.1463    , 32.54202    , 796.3531    , 4.7         , 3           , 255         , 0           , 0
-0.132953718, 0.157339424 , -9.792512   , 0.0003171098, -0.000169978244, 0.000600740954, -0.01609257 , -0.0142684337, 2.55785449E-06, 921.1463    , 32.54202    , 796.4111    , 4.71        , 3           , 255         , 0           , 0
-0.133860379, 0.1657706   , -9.78937149 , 5.42327762E-05, -1.76859321E-05, 0.0004723206, -0.0160920955, -0.014268538, 7.283654E-06, 921.1463    , 32.54202    , 796.412048  , 4.72        , 3           , 255         , 0           , 0
-0.13605395 , 0.167366683 , -9.789177   , -0.000109547807, 0.000413174857, 0.000346938439, -0.0160932373, -0.0142643489, 1.06863545E-05, 921.188232  , 32.5441246  , 796.413     , 4.73        , 3           , 255         , 0           , 0
-0.139713153, 0.172359243 , -9.787262   , 0.000129980966, 0.00013835053, 0.0007393898, -0.0160920452, -0.0142628467, 1.80575844E-05, 921.188232  , 32.5441246  , 796.414     , 4.74        , 3           , 255         , 0           , 0
-0.133257359, 0.163550436 , -9.793967   , 0.0002312311, -0.000175734516, -0.00016219457, -0.0160897113, -0.0142646292, 1.646401E-05, 921.188232  , 32.5441246  , 796.415     , 4.75        , 3           , 255         , 0           , 0
-0.136132151, 0.161519647 , -9.784227   , -0.00039911404, -1.13915885E-05, 0.000225705386, -0.0160937328, -0.0142647075, 1.872279E-05, 921.188232  , 32.5441246  , 796.415955  , 4.76        , 3           , 255         , 0           , 0
-0.141177773, 0.1582334   , -9.78816    , -0.000114088005, -0.0003901926, 0.0007093769, -0.0160949752, -0.0142684961, 2.58789732E-05, 921.188232  , 32.5441246  , 796.416931  , 4.77        , 3           , 255         , 0           , 0
-0.139229462, 0.151660636 , -9.790688   , -0.0003877462, -9.403366E-05, 0.0009950948, -0.0160989948, -0.0142692747, 3.584454E-05, 921.188232  , 32.5441246  , 796.4179    , 4.78        , 3           , 255         , 0           , 0
-0.131044075, 0.146775678 , -9.788804   , -9.60662146E-05, -0.000398185337, 0.0004013296, -0.0161000136, -0.0142731909, 3.9921717E-05, 921.188232  , 32.5441246  , 796.4189    , 4.79        , 3           , 255         , 0           , 0
-0.139281124, 0.14502123  , -9.797706   , -0.000273893762, -1.26800733E-05, 5.0474584E-05, -0.01610276 , -0.01427331 , 4.042848E-05, 921.188232  , 32.5441246  , 796.419861  , 4.8         , 3           , 255         , 0           , 0
