Acc X       , Acc Y       , Acc Z       , Gyro X      , Gyro Y      , Gyro Z      , Euler X     , Euler Y     , Euler Z     , Pres X      , Pres Y      , Pres Z      , Time        , Status      , LowRate X   , LowRate Y   , LowRate Z    
-0.261834443, 0.0542113557, 9.785569    , 0           , 0           , 0           , -3.13605285 , -0.0267504081, 0           , 920.3216    , 30.2237225  , 804.131836  , 0           , 2           , 0           , 5.41023159  , 0
-0.222024828, 0.008668663 , 9.780073    , 0.000213259016, 0.00377469021, 0.000302007247, -3.1360507  , -0.0267879739, -3.23015638E-06, 920.3216    , 30.2237225  , 804.131836  , 0.01        , 3           , 1           , 0           , 0
-0.231847122, 0.0128867682, 9.785142    , 0.00165176671, 0.004155701 , 0.0003352727, -3.136034   , -0.02682951 , -6.81467736E-06, 920.3216    , 30.2237225  , 804.131836  , 0.02        , 3           , 2           , 0           , 0
-0.228847176, 0.009982126 , 9.780055    , 0.00179836841, 0.00378206628, -5.5771583E-05, -3.136016   , -0.0268673319, -6.467408E-06, 920.298157  , 29.7865486  , 804.131836  , 0.03        , 3           , 3           , 0           , 0
-0.227144808, 0.0117792217, 9.792299    , 0.00162190583, 0.00359301  , -0.000450999156, -3.136      , -0.0269032884, -2.15669752E-06, 920.298157  , 29.7865486  , 804.131836  , 0.04        , 3           , 4           , 0           , 0
-0.23568514 , 0.0172413569, 9.789805    , 0.0008609311, 0.00270053814, -0.000158655152, -3.13599133 , -0.0269302987, -7.20872265E-07, 920.298157  , 29.7865486  , 804.131836  , 0.05        , 3           , 5           , 0           , 0
-0.230371   , 0.0184051245, 9.804251    , -0.00096477347, 0.0025625308, 0.000233249972, -3.13600087 , -0.0269559138, -3.197606E-06, 920.298157  , 29.7865486  , 804.131836  , 0.06        , 3           , 6           , 0           , 0
-0.22876358 , 0.0140459659, 9.792029    , -0.00144684478, 0.00134727149, 0.000452419161, -3.13601518 , -0.0269693639, -7.798544E-06, 920.298157  , 29.7865486  , 804.131836  , 0.07        , 3           , 7           , 0           , 0
-0.230351955, 0.0158168878, 9.788935    , -0.00182892394, 0.0008911315, -3.82435974E-05, -3.13603354 , -0.0269782748, -7.46565274E-06, 920.298157  , 29.7865486  , 804.131836  , 0.08        , 3           , 8           , 5           , 5
-0.234767944, 0.0228294376, 9.793364    , -0.00147926447, -0.000350754883, 0.000280709763, -3.13604832 , -0.0269747525, -1.02541808E-05, 920.298157  , 29.7865486  , 804.131836  , 0.09        , 3           , 9           , 5           , 0.1
-0.237577647, 0.0219721161, 9.784487    , -0.000394314964, -0.00040550885, -0.0002727396, -3.13605237 , -0.0269707181, -7.50342542E-06, 920.298157  , 29.7865486  , 804.131836  , 0.1         , 3           , 10          , 0.1         , 0.1
-0.2283469  , 0.0202269964, 9.79624     , 0.0008299843, 0.00015560913, -0.000151257991, -3.13624072 , -0.0268086325, -7.293421E-07, 920.298157  , 29.7865486  , 804.3433    , 0.11        , 3           , 11          , 0.0109544508, 0.0109544508
-0.2179468  , 0.0105453487, 9.79088     , 0.001845399 , 0.00123511034, 0.000137755618, -3.13622212 , -0.0268209726, -2.173579E-06, 920.298157  , 29.7865486  , 804.3433    , 0.12        , 3           , 12          , 0.174642488 , 0
-0.225483343, 0.012703645 , 9.795344    , 0.002626068 , 0.00248011039, 0.0009822974, -3.13619566 , -0.02684572 , -1.21333032E-05, 920.318665  , 29.823658   , 804.3433    , 0.13        , 3           , 13          , 0           , 0
-0.228582263, 0.0170069467, 9.798223    , 0.001823918 , 0.002745025 , 0.0005523957, -3.1361773  , -0.02687314 , -1.78074715E-05, 920.318665  , 29.823658   , 804.3433    , 0.14        , 3           , 14          , -0.000287499977, 0.000224644784
-0.244890764, 0.0121086659, 9.78703     , 0.00262185722, 0.00177840376, 0.0007949456, -3.13615084 , -0.02689088 , -2.58560358E-05, 920.318665  , 29.823658   , 804.3433    , 0.15        , 3           , 15          , 0           , 0.000305160822
-0.23663649 , 0.0217399113, 9.789205    , 0.00343259424, 0.00187996379, 0.0005112927, -3.13611627 , -0.0269096531, -3.10732867E-05, 920.318665  , 29.823658   , 804.3433    , 0.16        , 3           , 16          , 0           , 1.401298E-45
-0.227533668, 0.0270110667, 9.788004    , 0.00306297676, 0.00197808444, 0.000189117389, -3.13608551 , -0.02692942 , -3.30737457E-05, 920.318665  , 29.823658   , 804.3433    , 0.17        , 3           , 20          , 0           , 0
-0.236737892, 0.0275839511, 9.794327    , 0.00267358427, 0.00153414463, 0.0005311807, -3.13605881 , -0.026944736, -3.847201E-05, 920.318665  , 29.823658   , 804.3433    , 0.18        , 3           , 21          , 0           , 0
-0.233567879, 0.0244380832, 9.79786     , 0.003157409 , 0.00166999293, -0.000152042674, -3.136027   , -0.0269614439, -3.704378E-05, 920.318665  , 29.823658   , 804.3433    , 0.19        , 3           , 22          , 0           , 0
-0.23520498 , 0.007940817 , 9.801973    , 0.00327167776, 0.00121502485, 0.0003616205, -3.13599443 , -0.0269735735, -4.07289954E-05, 920.318665  , 29.823658   , 804.3434    , 0.2         , 3           , 40          , 0           , 0
-0.240493417, 0.01795644  , 9.792346    , 0.00313962041, 0.0009954271, -0.00058940507, -3.13608146 , -0.02687603 , -3.17072663E-05, 920.318665  , 29.823658   , 804.250854  , 0.21        , 3           , 41          , 0           , 0
-0.230775   , 0.009885447 , 9.78972149  , 0.00336566684, 0.00155481335, 0.0002212429, -3.13604784 , -0.0268915687, -3.40063925E-05, 920.318665  , 29.823658   , 804.2509    , 0.22        , 3           , 42          , 0           , 0
-0.233722016, 0.0212467723, 9.795103    , 0.00434054947, 0.00209700316, -0.000545354851, -3.13600445 , -0.0269125663, -2.86678278E-05, 920.286438  , 29.8490982  , 804.251     , 0.23        , 3           , 255         , 0           , 0
-0.228303909, 0.0269456264, 9.792222    , 0.0041547087, 0.00183100859, -0.000715766335, -3.1359632  , -0.0269309152, -2.16106127E-05, 920.286438  , 29.8490982  , 804.251038  , 0.24        , 3           , 255         , 0           , 0
-0.232308239, 0.02471911  , 9.788623    , 0.00402519433, 0.0026120143, 0.000252385857, -3.135923   , -0.02695702 , -2.428292E-05, 920.286438  , 29.8490982  , 804.2511    , 0.25        , 3           , 255         , 0           , 0
-0.22994642 , 0.01890712  , 9.7956295   , 0.00374369882, 0.00247353758, 0.000131955429, -3.13588548 , -0.0269817486, -2.57436714E-05, 920.286438  , 29.8490982  , 804.25116   , 0.26        , 3           , 255         , 0           , 0
-0.22908397 , 0.0191245265, 9.79865551  , 0.0031529963, 0.00308187352, -0.000437278533, -3.135854   , -0.02701259 , -2.154591E-05, 920.286438  , 29.8490982  , 804.2512    , 0.27        , 3           , 255         , 0           , 0
-0.234180853, 0.0275400933, 9.798574    , 0.00405350653, 0.003997793 , -0.000342683081, -3.13581347 , -0.027052585, -1.83482371E-05, 920.286438  , 29.8490982  , 804.2513    , 0.28        , 3           , 255         , 0           , 0
-0.235655665, 0.0179752372, 9.79434     , 0.004360302 , 0.00309670367, -0.0006540938, -3.13577    , -0.0270835869, -1.19848428E-05, 920.286438  , 29.8490982  , 804.251343  , 0.29        , 3           , 255         , 0           , 0
-0.223695159, 0.0232929531, 9.798706    , 0.00469776336, 0.0024939382, 0.000320065825, -3.135723   , -0.0271085072, -1.53324163E-05, 920.286438  , 29.8490982  , 804.2514    , 0.3         , 3           , 255         , 0           , 0
-0.231740281, 0.0252309926, 9.792896    , 0.00501562562, 0.00368281337, 0.000188894715, -3.13578272 , -0.02704321 , -1.44663863E-05, 920.286438  , 29.8490982  , 804.317932  , 0.31        , 3           , 255         , 0           , 0
-0.233074665, 0.0210297517, 9.80129     , 0.00519142766, 0.00376002979, 6.286008E-05, -3.13573074 , -0.0270808078, -1.53146575E-05, 920.286438  , 29.8490982  , 804.318     , 0.32        , 3           , 255         , 0           , 0
-0.235555321, 0.0189908743, 9.797519    , 0.00397910131, 0.003501835 , -0.0006024089, -3.13569117 , -0.0271158572, -9.494723E-06, 920.329163  , 29.8645     , 804.318054  , 0.33        , 3           , 255         , 0           , 0
-0.244441152, 0.0248708967, 9.79066     , 0.00293111941, 0.00291227922, -0.0006626204, -3.135662   , -0.0271450169, -3.03868637E-06, 920.329163  , 29.8645     , 804.3181    , 0.34        , 3           , 255         , 0           , 0
-0.2287235  , 0.0247273054, 9.795062    , 0.00247086887, 0.00170149165, -0.00017058698, -3.13563728 , -0.02716204 , -1.43338309E-06, 920.329163  , 29.8645     , 804.3182    , 0.35        , 3           , 255         , 0           , 0
-0.230803683, 0.014356032 , 9.79393     , 0.00192919234, 0.0009219942, 2.08830752E-05, -3.13561821 , -0.027171256, -1.69731447E-06, 920.329163  , 29.8645     , 804.318237  , 0.36        , 3           , 255         , 0           , 0
-0.230933473, 0.0211721025, 9.787721    , 0.00211451133, 0.00156107079, 6.158836E-05, -3.135597   , -0.0271868631, -2.40686677E-06, 920.329163  , 29.8645     , 804.3183    , 0.37        , 3           , 255         , 0           , 0
-0.22479637 , 0.0316730924, 9.790792    , 0.00296997954, 0.0015860647, -0.000196408175, -3.13556719 , -0.0272027422, -5.375065E-07, 920.329163  , 29.8645     , 804.318359  , 0.38        , 3           , 255         , 0           , 0
-0.229268163, 0.0170976277, 9.798986    , 0.00348687777, 0.00249073957, 6.022374E-05, -3.13553238 , -0.0272276439, -1.29047635E-06, 920.329163  , 29.8645     , 804.3184    , 0.39        , 3           , 255         , 0           , 0
-0.2289778  , 0.0211359244, 9.796839    , 0.004177079 , 0.00253069145, 0.000167829014, -3.13549066 , -0.0272529349, -3.1233244E-06, 920.329163  , 29.8645     , 804.3185    , 0.4         , 3           , 255         , 0           , 0
-0.227727056, 0.03263123  , 9.793478    , 0.00268267863, 0.0032333117, -0.000133307156, -3.135574   , -0.0271810722, 1.01197213E-06, 920.329163  , 29.8645     , 804.2546    , 0.41        , 3           , 255         , 0           , 0
-0.237867475, 0.0310697947, 9.789133    , 0.00341531  , 0.00338983443, 5.925368E-05, -3.13554    , -0.0272149686, 2.146256E-07, 920.329163  , 29.8645     , 804.254639  , 0.42        , 3           , 255         , 0           , 0
-0.240434021, 0.0247327033, 9.787455    , 0.003423361 , 0.00366245443, 4.89191152E-05, -3.13550568 , -0.0272515863, -4.971398E-07, 920.2753    , 29.87956    , 804.2547    , 0.43        , 3           , 255         , 0           , 0
-0.23923862 , 0.0261037759, 9.790037    , 0.00289725629, 0.00401983131, -0.0001018873, -3.13547683 , -0.02729179 , 2.76727661E-07, 920.2753    , 29.87956    , 804.254761  , 0.44        , 3           , 255         , 0           , 0
-0.239766791, 0.02575947  , 9.794386    , 0.00268620672, 0.003871181 , 2.46291165E-06, -3.13545    , -0.0273305  , 1.47174823E-08, 920.2753    , 29.87956    , 804.2548    , 0.45        , 3           , 255         , 0           , 0
-0.238672212, 0.0225107111, 9.792964    , 0.00210845866, 0.0036336612, -0.0004954245, -3.135429   , -0.0273668636, 4.74691E-06 , 920.2753    , 29.87956    , 804.2549    , 0.46        , 3           , 255         , 0           , 0
-0.233170673, 0.01865142  , 9.792106    , 0.00268366886, 0.004349492 , 0.0002616734, -3.135402   , -0.0274103433, 1.86054979E-06, 920.2753    , 29.87956    , 804.254944  , 0.47        , 3           , 255         , 0           , 0
-0.233249262, 0.01569808  , 9.782364    , 0.00346890651, 0.005745631 , -8.417452E-05, -3.13536739 , -0.0274677966, 2.34578783E-06, 920.2753    , 29.87956    , 804.255     , 0.48        , 3           , 255         , 0           , 0
-0.236817911, 0.0269755926, 9.791928    , 0.00536875939, 0.0066085686, -2.52715836E-05, -3.13531375 , -0.0275338814, 2.18531841E-06, 920.2753    , 29.87956    , 804.255066  , 0.49        , 3           , 255         , 0           , 0
-0.235200092, 0.0274436064, 9.799803    , 0.005132314 , 0.00611017924, 0.000181309122, -3.13526225 , -0.0275949687, -1.3727683E-08, 920.2753    , 29.87956    , 804.2551    , 0.5         , 3           , 255         , 0           , 0
-0.242324948, 0.0283895489, 9.7976675   , 0.00454483461, 0.00449994532, 0.000457084 , -3.13534212 , -0.0275274049, -1.41902171E-06, 920.2753    , 29.87956    , 804.3159    , 0.51        , 3           , 255         , 0           , 0
-0.247178763, 0.0290560536, 9.796807    , 0.00440699747, 0.00518689444, 0.000194262044, -3.135298   , -0.0275792517, -3.68775227E-06, 920.2753    , 29.87956    , 804.31604   , 0.52        , 3           , 255         , 0           , 0
-0.245204329, 0.0195013415, 9.789295    , 0.00495980261, 0.00480012  , 0.000215015054, -3.13524842 , -0.0276272446, -6.14202872E-06, 920.250244  , 29.8856659  , 804.316162  , 0.53        , 3           , 255         , 0           , 0
-0.249946475, 0.0263948739, 9.797107    , 0.00455364352, 0.00354195922, -0.000211838647, -3.135203   , -0.0276626721, -4.248558E-06, 920.250244  , 29.8856659  , 804.3163    , 0.54        , 3           , 255         , 0           , 0
-0.246668965, 0.02217229  , 9.791311    , 0.00343584828, 0.00347292027, 9.61873156E-05, -3.13516855 , -0.02769739 , -5.43334636E-06, 920.250244  , 29.8856659  , 804.3164    , 0.55        , 3           , 255         , 0           , 0
-0.245349884, 0.0198489353, 9.78311     , 0.004189715 , 0.003012159 , 0.0006659435, -3.13512635 , -0.0277274717, -1.22891724E-05, 920.250244  , 29.8856659  , 804.3165    , 0.56        , 3           , 255         , 0           , 0
-0.250013679, 0.03266887  , 9.801096    , 0.004111154 , 0.00258052861, -7.8009034E-05, -3.13508534 , -0.0277532786, -1.16762885E-05, 920.250244  , 29.8856659  , 804.31665   , 0.57        , 3           , 255         , 0           , 0
-0.249056309, 0.0270689316, 9.803924    , 0.00362175936, 0.00227127969, -1.32987916E-05, -3.135049   , -0.02777599 , -1.16915244E-05, 920.250244  , 29.8856659  , 804.3168    , 0.58        , 3           , 255         , 0           , 0
-0.2456268  , 0.0252591632, 9.799861    , 0.00289311074, 0.00167259248, -0.000115446222, -3.13502026 , -0.027792722, -1.06464086E-05, 920.250244  , 29.8856659  , 804.3169    , 0.59        , 3           , 255         , 0           , 0
-0.230967313, 0.0287872162, 9.790393    , 0.00226309383, 0.00187308341, 0.000177615031, -3.13499761 , -0.0278114416, -1.25465231E-05, 920.250244  , 29.8856659  , 804.317     , 0.6         , 3           , 255         , 0           , 0
-0.238708049, 0.0240702722, 9.793785    , 0.00342560443, 0.00241617719, -0.0004392792, -3.13506413 , -0.02776467 , -5.516341E-06, 920.250244  , 29.8856659  , 804.3975    , 0.61        , 3           , 255         , 0           , 0
-0.244342327, 0.0262434632, 9.800808    , 0.00322661339, 0.00249592913, -0.000161427684, -3.135032   , -0.0277896374, -4.06493655E-06, 920.250244  , 29.8856659  , 804.397644  , 0.62        , 3           , 255         , 0           , 0
-0.2413528  , 0.0284228027, 9.79993248  , 0.00333598931, 0.002515977 , -0.000562661153, -3.13499856 , -0.0278148334, 1.39807753E-06, 920.289856  , 29.8909569  , 804.397766  , 0.63        , 3           , 255         , 0           , 0
-0.243241638, 0.0300660226, 9.795573    , 0.00295336777, 0.00180708431, -0.000620186271, -3.13496923 , -0.0278329458, 7.48258935E-06, 920.289856  , 29.8909569  , 804.397949  , 0.64        , 3           , 255         , 0           , 0
-0.234216735, 0.0224638935, 9.790686    , 0.00292290119, 0.00152182346, -0.000418934738, -3.13494015 , -0.02784819 , 1.1572306E-05, 920.289856  , 29.8909569  , 804.398132  , 0.65        , 3           , 255         , 0           , 0
-0.2345756  , 0.02767101  , 9.789286    , 0.00264392421, 0.00185658294, -0.000138451738, -3.13491368 , -0.027866764, 1.28334786E-05, 920.289856  , 29.8909569  , 804.3983    , 0.66        , 3           , 255         , 0           , 0
-0.246269748, 0.0189877916, 9.7943325   , 0.00309223845, 0.00244346913, -0.000369790883, -3.134883   , -0.0278912224, 1.63690347E-05, 920.289856  , 29.8909569  , 804.3985    , 0.67        , 3           , 255         , 0           , 0
-0.247125983, 0.0353203   , 9.79669     , 0.002846721 , 0.00156544812, -0.000113724294, -3.13485456 , -0.0279068854, 1.74013658E-05, 920.289856  , 29.8909569  , 804.3987    , 0.68        , 3           , 255         , 0           , 0
-0.248271853, 0.04663997  , 9.77873     , 0.00202572765, 0.00100173766, 0.000197683868, -3.13483429 , -0.0279168915, 1.535623E-05, 920.289856  , 29.8909569  , 804.398865  , 0.69        , 3           , 255         , 0           , 0
-0.2371908  , 0.03721409  , 9.79325     , 0.00137602235, -0.00023903964, -0.000638214755, -3.1348207  , -0.027914539, 2.17567522E-05, 920.289856  , 29.8909569  , 804.399048  , 0.7         , 3           , 255         , 0           , 0
-0.242971778, 0.0391598865, 9.793511    , 0.000142014556, -0.0006552037, -0.0003514175, -3.1349237  , -0.0278158262, 2.822121E-05, 920.289856  , 29.8909569  , 804.402649  , 0.71        , 3           , 255         , 0           , 0
-0.253563225, 0.03561413  , 9.78684     , -0.000110292254, -0.000202667041, 5.210284E-05, -3.134925   , -0.0278137941, 2.77135168E-05, 920.289856  , 29.8909569  , 804.402832  , 0.72        , 3           , 255         , 0           , 0
-0.243617371, 0.03448868  , 9.787204    , 2.91637843E-06, -0.0003497916, 0.000207628967, -3.13492465 , -0.027810283, 2.56598378E-05, 920.315063  , 29.89469    , 804.403     , 0.73        , 3           , 255         , 0           , 0
-0.235509872, 0.031374447 , 9.795483    , 0.00119290978, -0.000472004846, 0.0007853698, -3.13491249 , -0.0278055146, 1.783499E-05, 920.315063  , 29.89469    , 804.4032    , 0.74        , 3           , 255         , 0           , 0
-0.233473584, 0.0254775174, 9.798587    , 0.000120309793, 0.000379415025, -0.000125711565, -3.1349113  , -0.0278093144, 1.90671853E-05, 920.315063  , 29.89469    , 804.4034    , 0.75        , 3           , 255         , 0           , 0
-0.2332305  , 0.0299544   , 9.79995251  , -0.000144755322, 0.001037956 , -0.000551795238, -3.134913   , -0.0278197285, 2.45176489E-05, 920.315063  , 29.89469    , 804.403564  , 0.76        , 3           , 255         , 0           , 0
-0.232058674, 0.0355423652, 9.786192    , -8.903735E-06, -4.23356541E-05, 7.61277624E-06, -3.134913   , -0.0278193038, 2.44443236E-05, 920.315063  , 29.89469    , 804.403748  , 0.77        , 3           , 255         , 0           , 0
-0.233011   , 0.031473536 , 9.77619     , 0.0009773945, 0.000465473073, -0.000662988, -3.13490343 , -0.0278240051, 3.104532E-05, 920.315063  , 29.89469    , 804.403931  , 0.78        , 3           , 255         , 0           , 0
-0.244384736, 0.0222877078, 9.790469    , 0.000425894745, 0.00135647808, -0.0002915855, -3.13489938 , -0.0278375931, 3.38713362E-05, 920.315063  , 29.89469    , 804.4041    , 0.79        , 3           , 255         , 0           , 0
-0.2457817  , 0.0401819572, 9.792405    , -0.0009231785, 0.000720525044, 0.0001620602, -3.13490844 , -0.0278447829, 3.220197E-05, 920.315063  , 29.89469    , 804.4043    , 0.8         , 3           , 255         , 0           , 0
-0.244932681, 0.0402596444, 9.782462    , -0.00134838629, 0.000160027324, 5.199382E-05, -3.13503456 , -0.0277348235, 3.479432E-05, 920.315063  , 29.89469    , 804.375366  , 0.81        , 3           , 255         , 0           , 0
-0.232759923, 0.0309479646, 9.787448    , 5.3114316E-05, -0.000246984244, -0.000319963583, -3.135034   , -0.0277323741, 3.80112469E-05, 920.315063  , 29.89469    , 804.375549  , 0.82        , 3           , 255         , 0           , 0
-0.242403552, 0.02928244  , 9.788565    , 0.0001994335, 0.000613440643, -9.633695E-05, -3.13503218 , -0.0277385172, 3.89346642E-05, 920.344666  , 29.8977413  , 804.375732  , 0.83        , 3           , 255         , 0           , 0
-0.24050498 , 0.0303781983, 9.789808    , -0.000111304427, 0.000574482954, -0.000149313913, -3.13503337 , -0.027744269, 4.03906E-05 , 920.344666  , 29.8977413  , 804.3759    , 0.84        , 3           , 255         , 0           , 0
-0.2442265  , 0.0323688723, 9.7960825   , -0.0009250823, 0.000602472 , -0.000114431226, -3.13504267 , -0.027750304, 4.14957831E-05, 920.344666  , 29.8977413  , 804.3761    , 0.85        , 3           , 255         , 0           , 0
-0.240406275, 0.0287408084, 9.799391    , -0.000432640431, -0.0004063583, -0.0001772558, -3.135047   , -0.02774625 , 4.32955567E-05, 920.344666  , 29.8977413  , 804.3763    , 0.86        , 3           , 255         , 0           , 0
-0.239406988, 0.0329819322, 9.79832     , 0.000186439531, -0.000792808132, 4.662387E-05, -3.135045   , -0.0277383216, 4.28810636E-05, 920.344666  , 29.8977413  , 804.376465  , 0.87        , 3           , 255         , 0           , 0
-0.243044332, 0.0296078436, 9.792599    , 0.0005748032, -0.000366962922, -0.000709464366, -3.13503957 , -0.0277347  , 5.000215E-05, 920.344666  , 29.8977413  , 804.376648  , 0.88        , 3           , 255         , 0           , 0
-0.240145922, 0.03014792  , 9.784622    , 0.000948754838, 0.000619684462, -0.00030445616, -3.13503027 , -0.0277409125, 5.30070974E-05, 920.344666  , 29.8977413  , 804.376831  , 0.89        , 3           , 255         , 0           , 0
-0.249220163, 0.0372242257, 9.792017    , 0.0010400617, 0.00141377933, 0.000681030855, -3.13501954 , -0.0277550071, 4.610157E-05, 920.344666  , 29.8977413  , 804.377     , 0.9         , 3           , 255         , 0           , 0
-0.249184087, 0.0268624164, 9.804835    , 0.000261027075, 0.00128642458, 0.0005295332, -3.1351192  , -0.0276716743, 4.35526272E-05, 920.344666  , 29.8977413  , 804.319458  , 0.91        , 3           , 255         , 0           , 0
-0.2414166  , 0.0283553489, 9.796662    , 0.0007296278, 0.000359872385, -0.000125231425, -3.13511181 , -0.0276752841, 4.47820457E-05, 920.344666  , 29.8977413  , 804.3195    , 0.92        , 3           , 255         , 0           , 0
-0.231700569, 0.03266105  , 9.795215    , 0.0009434173, 0.0007656299, -1.97408954E-05, -3.13510251 , -0.0276829377, 4.492987E-05, 920.2787    , 29.9030342  , 804.319641  , 0.93        , 3           , 255         , 0           , 0
-0.232652813, 0.0345962122, 9.793829    , 0.0008153076, 0.000426998333, 0.00103946473, -3.13509417 , -0.0276871379, 3.45039734E-05, 920.2787    , 29.9030342  , 804.319763  , 0.94        , 3           , 255         , 0           , 0
-0.236108392, 0.0393455736, 9.787827    , 0.00150576083, 0.00147177815, 5.33948769E-05, -3.135079   , -0.0277018547, 3.387405E-05, 920.2787    , 29.9030342  , 804.3199    , 0.95        , 3           , 255         , 0           , 0
-0.238411039, 0.0305689164, 9.77969551  , 0.00127050478, 0.001041252 , -0.0001879482, -3.13506627 , -0.0277122762, 3.56862547E-05, 920.2787    , 29.9030342  , 804.32      , 0.96        , 3           , 255         , 0           , 0
-0.231016591, 0.0335728   , 9.786316    , 0.00126399728, 0.00175223465, -5.79652842E-05, -3.13505363 , -0.0277298  , 3.61515922E-05, 920.2787    , 29.9030342  , 804.3201    , 0.97        , 3           , 255         , 0           , 0
-0.2397418  , 0.03673507  , 9.798885    , 0.00114349613, 0.0013193225, 3.49349575E-05, -3.13504219 , -0.0277429931, 3.57157478E-05, 920.2787    , 29.9030342  , 804.320251  , 0.98        , 3           , 255         , 0           , 0
-0.240571663, 0.0373020768, 9.794114    , 0.0004844371, 0.000827359967, 7.509324E-05, -3.13503742 , -0.0277512558, 3.49103357E-05, 920.2787    , 29.9030342  , 804.3204    , 0.99        , 3           , 255         , 0           , 0
-0.239425033, 0.0329071321, 9.798525    , 0.0007882236, 0.0005649853, 0.000102660066, -3.13502955 , -0.0277569033, 3.384628E-05, 920.2787    , 29.9030342  , 804.3205    , 1           , 3           , 0           , 6.41023636  , 100
-0.237776637, 0.032226257 , 9.796011    , 0.000217276393, 0.000332613883, 0.00048139476, -3.13510823 , -0.0276716277, 3.12515076E-05, 920.2787    , 29.9030342  , 804.345032  , 1.01        , 3           , 1           , 0           , 0
-0.244505137, 0.0312907845, 9.795969    , -0.000119079254, 0.000635502452, 0.0005874102, -3.13510919 , -0.0276779421, 2.53342059E-05, 920.2787    , 29.9030342  , 804.3452    , 1.02        , 3           , 2           , 0           , 0
-0.24396041 , 0.02985568  , 9.798027    , 0.0003565785, 0.00191869133, 0.0008689808, -3.13510537 , -0.0276970752, 1.65170241E-05, 920.283142  , 29.9032364  , 804.3454    , 1.03        , 3           , 3           , 0           , 0
-0.235768721, 0.030276766 , 9.795853    , 0.001093844 , 0.0013711371, -4.81251627E-05, -3.1350944  , -0.0277107861, 1.69093855E-05, 920.283142  , 29.9032364  , 804.3456    , 1.04        , 3           , 4           , 0           , 0
-0.23676677 , 0.03493207  , 9.791442    , 0.000109458953, 0.000608791946, -0.000307057868, -3.13509345 , -0.0277168918, 1.99414189E-05, 920.283142  , 29.9032364  , 804.345764  , 1.05        , 3           , 5           , 0           , 0
-0.246746227, 0.0357917175, 9.784948    , -0.000187694066, 0.000129820444, -0.000420712429, -3.1350956  , -0.0277182162, 2.414153E-05, 920.283142  , 29.9032364  , 804.345947  , 1.06        , 3           , 6           , 0           , 0
-0.24043636 , 0.03231557  , 9.787823    , 0.000147956074, 0.000324592867, -0.000235296815, -3.13509417 , -0.0277214777, 2.64742048E-05, 920.283142  , 29.9032364  , 804.3461    , 1.07        , 3           , 7           , 0           , 0
-0.234015137, 0.03136661  , 9.791075    , 0.00115583988, 0.0005128589, -0.0005606754, -3.13508272 , -0.0277266465, 3.204947E-05, 920.283142  , 29.9032364  , 804.3463    , 1.08        , 3           , 8           , 5           , 5
-0.245482609, 0.0289978739, 9.798679    , 0.000705774641, 0.00132869254, -3.074907E-05, -3.13507557 , -0.02773993 , 3.22704764E-05, 920.283142  , 29.9032364  , 804.3465    , 1.09        , 3           , 9           , 5           , 0.1
-0.244438335, 0.0281014927, 9.792357    , 0.00116419606, 0.0009533399, 0.000288181938, -3.135064   , -0.0277494416, 2.93254725E-05, 920.283142  , 29.9032364  , 804.3467    , 1.1         , 3           , 10          , 0.1         , 0.1
-0.24673    , 0.0285499338, 9.790265    , 0.0005501817, 0.000578293344, -0.000139505573, -3.13514328 , -0.02767467 , 3.30337E-05 , 920.283142  , 29.9032364  , 804.362366  , 1.11        , 3           , 11          , 0.009295055 , 0.009295055
-0.242423967, 0.03314615  , 9.780973    , 0.00138143124, 0.000698577147, -0.000434878079, -3.13512969 , -0.027681686, 3.733881E-05, 920.283142  , 29.9032364  , 804.362549  , 1.12        , 3           , 12          , 0.174642846 , 0
-0.239346   , 0.0258585662, 9.791671    , 0.0009477631, 0.001077232 , -0.000482705771, -3.13512039 , -0.0276924875, 4.20977958E-05, 920.273438  , 29.90629    , 804.362732  , 1.13        , 3           , 13          , 0           , 0
-0.234343618, 0.0343313627, 9.78653     , 0.00144443952, 0.00195951737, -0.000333232078, -3.135106   , -0.0277121  , 4.53042157E-05, 920.273438  , 29.90629    , 804.3629    , 1.14        , 3           , 14          , -0.0002868078, 0.000225293712
-0.236888289, 0.0352590233, 9.794974    , 0.00147671544, 0.002580764 , 0.000491732149, -3.135091   , -0.0277378783, 4.021756E-05, 920.273438  , 29.90629    , 804.363159  , 1.15        , 3           , 15          , 0           , 0.000305175781
-0.246303365, 0.03150798  , 9.797944    , 0.00107935385, 0.00275895558, 0.000128073618, -3.13508034 , -0.0277654584, 3.87567961E-05, 920.273438  , 29.90629    , 804.3634    , 1.16        , 3           , 16          , 0           , 1.401298E-45
-0.2463241  , 0.02757073  , 9.796393    , 0.00113748945, 0.001735501 , -8.536615E-05, -3.135069   , -0.0277828164, 3.94976159E-05, 920.273438  , 29.90629    , 804.363647  , 1.17        , 3           , 20          , 0           , 0
-0.247526765, 0.0274507664, 9.791101    , 0.000360859616, 0.000202914351, 0.00015203064, -3.13506532 , -0.0277848318, 3.7963564E-05, 920.273438  , 29.90629    , 804.3639    , 1.18        , 3           , 21          , 0           , 0
-0.242081523, 0.0311515816, 9.783812    , -5.85716625E-05, -0.000461162243, -5.708629E-05, -3.13506579 , -0.0277802218, 3.856474E-05, 920.273438  , 29.90629    , 804.364136  , 1.19        , 3           , 22          , 0           , 0
-0.243126243, 0.0422836542, 9.78419     , -0.000212633837, -4.68441867E-05, -0.0007592974, -3.13506818 , -0.0277798045, 4.61633572E-05, 920.273438  , 29.90629    , 804.3644    , 1.2         , 3           , 40          , 0           , 0
-0.237405732, 0.0300905649, 9.795299    , -0.0004045457, -0.0002892622, -0.000242790324, -3.13517618 , -0.0276825  , 5.148479E-05, 920.273438  , 29.90629    , 804.388245  , 1.21        , 3           , 41          , 0           , 0
-0.241729215, 0.013877918 , 9.795518    , -0.000230798149, 0.00020766299, -0.000631421455, -3.13517857 , -0.0276846178, 5.77878054E-05, 920.273438  , 29.90629    , 804.38855   , 1.22        , 3           , 42          , 0           , 0
-0.241051838, 0.0223576184, 9.785257    , 0.000245485833, 0.00083227735, 0.000229948433, -3.13517618 , -0.027692927, 5.54341277E-05, 920.2721    , 29.90602    , 804.388855  , 1.23        , 3           , 255         , 0           , 0
-0.242415667, 0.0330486968, 9.791842    , -0.000123596, 0.00111233862, -0.000542988, -3.13517737 , -0.027704088, 6.07944567E-05, 920.2721    , 29.90602    , 804.38916   , 1.24        , 3           , 255         , 0           , 0
-0.235035628, 0.031401258 , 9.79182148  , 0.00143568777, 0.0006272966, -0.000297383755, -3.135163   , -0.0277103763, 6.372901E-05, 920.2721    , 29.90602    , 804.389465  , 1.25        , 3           , 255         , 0           , 0
-0.23387    , 0.0266132113, 9.788797    , 0.00125971611, 0.0003630644, 0.000424048165, -3.13515043 , -0.0277139768, 5.94637058E-05, 920.2721    , 29.90602    , 804.3898    , 1.26        , 3           , 255         , 0           , 0
-0.232333422, 0.03236135  , 9.787283    , 0.00111939979, 0.0004676734, -1.31502165E-05, -3.13513923 , -0.0277186576, 5.956507E-05, 920.2721    , 29.90602    , 804.3901    , 1.27        , 3           , 255         , 0           , 0
-0.237580687, 0.0351880677, 9.79308     , 0.00113268534, 0.0003967614, -0.000115698916, -3.135128   , -0.0277226288, 6.069681E-05, 920.2721    , 29.90602    , 804.3904    , 1.28        , 3           , 255         , 0           , 0
-0.245283037, 0.0294295959, 9.796785    , 0.000407040759, 0.000623239146, -1.75131427E-05, -3.135124   , -0.0277288631, 6.08316841E-05, 920.2721    , 29.90602    , 804.3907    , 1.29        , 3           , 255         , 0           , 0
-0.23984322 , 0.0246649627, 9.793343    , 0.000321570144, 0.000134074769, -1.6633363E-05, -3.13512063 , -0.027730206, 6.0989405E-05, 920.2721    , 29.90602    , 804.391     , 1.3         , 3           , 255         , 0           , 0
-0.236208767, 0.0232291222, 9.797084    , 0.0005459028, -0.000255765452, 0.0006738045, -3.13521075 , -0.0276382882, 5.69072363E-05, 920.2721    , 29.90602    , 804.413     , 1.31        , 3           , 255         , 0           , 0
-0.247389674, 0.0455237776, 9.797047    , -0.0005013667, -0.0009813559, -6.755571E-05, -3.13521576 , -0.02762848 , 5.764563E-05, 920.2721    , 29.90602    , 804.4134    , 1.32        , 3           , 255         , 0           , 0
-0.244996071, 0.0406986661, 9.794503    , -0.000852039549, -0.0004635525, -0.0002400957, -3.13522434 , -0.0276238583, 6.00769454E-05, 920.2842    , 29.9054756  , 804.4138    , 1.33        , 3           , 255         , 0           , 0
-0.239125758, 0.0307478644, 9.791384    , -0.00130636338, -0.0009612586, 0.000189249578, -3.13523722 , -0.0276142359, 5.82449829E-05, 920.2842    , 29.9054756  , 804.414246  , 1.34        , 3           , 255         , 0           , 0
-0.239560321, 0.0234513823, 9.787264    , -0.0003904729, -0.00119868817, 8.674653E-05, -3.13524127 , -0.027602246, 5.7453366E-05, 920.2842    , 29.9054756  , 804.4147    , 1.35        , 3           , 255         , 0           , 0
-0.231957167, 0.0346272364, 9.797023    , 0.000672068738, 0.000472510117, -0.000376308046, -3.13523459 , -0.0276069958, 6.11876749E-05, 920.2842    , 29.9054756  , 804.4151    , 1.36        , 3           , 255         , 0           , 0
-0.245106936, 0.04136946  , 9.802421    , 0.00104693545, 0.00132153  , 0.000364719017, -3.13522387 , -0.02762019 , 5.74551268E-05, 920.2842    , 29.9054756  , 804.4155    , 1.37        , 3           , 255         , 0           , 0
-0.237688974, 0.0297410935, 9.79344     , 0.000635262229, 0.001389634 , 0.000827256532, -3.13521743 , -0.0276340283, 4.90911953E-05, 920.2842    , 29.9054756  , 804.415955  , 1.38        , 3           , 255         , 0           , 0
-0.2330307  , 0.029844543 , 9.790512    , 0.00145713694, 0.00147391658, 0.000298215658, -3.13520265 , -0.02764875 , 4.60139381E-05, 920.2842    , 29.9054756  , 804.4164    , 1.39        , 3           , 255         , 0           , 0
-0.24362357 , 0.03648473  , 9.79256     , 0.00119693635, 0.000296817336, 2.17618071E-05, -3.13519073 , -0.0276517179, 4.57772476E-05, 920.2842    , 29.9054756  , 804.4168    , 1.4         , 3           , 255         , 0           , 0
-0.239824817, 0.03657267  , 9.787811    , 0.0020668467, 0.00192067225, -0.000184632, -3.13523555 , -0.02760119 , 4.93053776E-05, 920.2842    , 29.9054756  , 804.423767  , 1.41        , 3           , 255         , 0           , 0
-0.245804161, 0.0339607671, 9.789772    , 0.002205366 , 0.00133935851, -0.000564119255, -3.13521361 , -0.0276146233, 5.4863136E-05, 920.2842    , 29.9054756  , 804.4242    , 1.42        , 3           , 255         , 0           , 0
-0.234631449, 0.02982896  , 9.79715     , 0.0008795082, 0.000281357381, -0.00030759 , -3.13520479 , -0.0276174545, 5.792211E-05, 920.324     , 29.9061546  , 804.4246    , 1.43        , 3           , 255         , 0           , 0
-0.2502636  , 0.017514037 , 9.795118    , -0.0007865154, -0.0008569336, -0.0003739948, -3.135213   , -0.0276089124, 6.17180049E-05, 920.324     , 29.9061546  , 804.425049  , 1.44        , 3           , 255         , 0           , 0
-0.244141012, 0.02659679  , 9.792076    , -0.00105819688, -0.0007932901, -0.000285221322, -3.13522363 , -0.0276009943, 6.462177E-05, 920.324     , 29.9061546  , 804.4255    , 1.45        , 3           , 255         , 0           , 0
-0.240448147, 0.0323654339, 9.790591    , 0.000110468536, -0.00044136183, -0.000385781517, -3.13522243 , -0.0275966041, 6.850901E-05, 920.324     , 29.9061546  , 804.4259    , 1.46        , 3           , 255         , 0           , 0
-0.240465924, 0.027074432 , 9.805056    , 0.000142397766, -0.000235229192, -0.000254482118, -3.13522124 , -0.02759427 , 7.106967E-05, 920.324     , 29.9061546  , 804.426331  , 1.47        , 3           , 255         , 0           , 0
-0.23229821 , 0.0229850654, 9.799916    , -0.000396061718, -0.00066761265, -0.0008146391, -3.1352253  , -0.0275876429, 7.92613137E-05, 920.324     , 29.9061546  , 804.426758  , 1.48        , 3           , 255         , 0           , 0
-0.237715155, 0.0222410429, 9.789077    , -0.000299665873, -0.0007332969, -0.0005559664, -3.13522863 , -0.0275803469, 8.48695345E-05, 920.324     , 29.9061546  , 804.4272    , 1.49        , 3           , 255         , 0           , 0
-0.234006479, 0.02643533  , 9.793722    , -0.0005187596, -0.0009924634, -0.000404261635, -3.13523388 , -0.0275704544, 8.89766452E-05, 920.324     , 29.9061546  , 804.4277    , 1.5         , 3           , 255         , 0           , 0
-0.234610289, 0.0277829133, 9.79783249  , -0.000857849955, -0.000462190364, -0.0003449145, -3.13532186 , -0.0274966378, 9.463564E-05, 920.324     , 29.9061546  , 804.391663  , 1.51        , 3           , 255         , 0           , 0
-0.235815331, 0.03210575  , 9.792345    , 9.24768538E-05, -5.16078871E-05, -0.0006284775, -3.135321   , -0.0274961572, 0.000100925747, 920.324     , 29.9061546  , 804.391968  , 1.52        , 3           , 255         , 0           , 0
-0.2356667  , 0.03496734  , 9.792814    , 0.0006643357, 0.000140252581, -0.00014701602, -3.13531446 , -0.02749757 , 0.0001023876, 920.295532  , 29.9096813  , 804.3923    , 1.53        , 3           , 255         , 0           , 0
-0.232025772, 0.03902322  , 9.792592    , 0.00114878255, 0.000425373233, -0.000316560327, -3.135303   , -0.02750184 , 0.000105527528, 920.295532  , 29.9096813  , 804.3926    , 1.54        , 3           , 255         , 0           , 0
-0.239870474, 0.03147287  , 9.791016    , 0.000112778464, -0.000892004929, 3.19682877E-05, -3.13530183 , -0.02749292 , 0.000105263891, 920.295532  , 29.9096813  , 804.3929    , 1.55        , 3           , 255         , 0           , 0
-0.242979378, 0.0305264648, 9.788939    , -0.000383035571, -0.00056925544, -0.000223133713, -3.13530564 , -0.02748724 , 0.000107531792, 920.295532  , 29.9096813  , 804.3932    , 1.56        , 3           , 255         , 0           , 0
-0.241712168, 0.0306549072, 9.790277    , -0.000453421148, -0.00111114047, 0.00016242027, -3.13531017 , -0.0274761226, 0.0001059769, 920.295532  , 29.9096813  , 804.3935    , 1.57        , 3           , 255         , 0           , 0
-0.245967835, 0.0363569744, 9.79918     , -0.000914172851, -0.00173351145, 0.00010973413, -3.13531947 , -0.0274587777, 0.000104988067, 920.295532  , 29.9096813  , 804.3938    , 1.58        , 3           , 255         , 0           , 0
-0.244770691, 0.0333575644, 9.794172    , -0.0019287715, -0.002862327, 0.0001357279, -3.13533854 , -0.0274301488, 0.000103809667, 920.295532  , 29.9096813  , 804.3941    , 1.59        , 3           , 255         , 0           , 0
-0.240413517, 0.0327764452, 9.789625    , -0.00211073039, -0.00363373966, 2.39146175E-06, -3.13535976 , -0.0273938123, 0.0001040127, 920.295532  , 29.9096813  , 804.3944    , 1.6         , 3           , 255         , 0           , 0
-0.22930637 , 0.03604805  , 9.794325    , -0.00223178766, -0.00352130551, 0.0002778376, -3.13545036 , -0.0272871722, 0.000103321036, 920.295532  , 29.9096813  , 804.3918    , 1.61        , 3           , 255         , 0           , 0
-0.235075921, 0.04441286  , 9.80034     , -0.0022180432, -0.0019139701, 7.961498E-06, -3.13547254 , -0.0272680335, 0.000103358834, 920.295532  , 29.9096813  , 804.3921    , 1.62        , 3           , 255         , 0           , 0
-0.226421237, 0.0366975665, 9.796066    , -0.00134968094, -0.000218242843, 9.090974E-05, -3.13548613 , -0.0272658411, 0.000102462785, 920.317     , 29.91192    , 804.3924    , 1.63        , 3           , 255         , 0           , 0
-0.223814011, 0.03154634  , 9.789638    , -6.937198E-05, 0.001554959 , 8.504122E-05, -3.13548684 , -0.0272813886, 0.000101517122, 920.317     , 29.91192    , 804.3927    , 1.64        , 3           , 255         , 0           , 0
-0.234478444, 0.0238027256, 9.790317    , 0.0006433147, 0.00276156655, -0.000196461333, -3.1354804  , -0.02730901 , 0.000103313621, 920.317     , 29.91192    , 804.393     , 1.65        , 3           , 255         , 0           , 0
-0.226278752, 0.0286391024, 9.792147    , 0.00190600078, 0.00369794667, 8.74823E-05 , -3.13546133 , -0.0273459852, 0.000102212107, 920.317     , 29.91192    , 804.3933    , 1.66        , 3           , 255         , 0           , 0
-0.229018778, 0.0236315429, 9.803255    , 0.003487131 , 0.00406681746, 0.00102883042, -3.135426   , -0.02738659 , 9.167032E-05, 920.317     , 29.91192    , 804.3936    , 1.67        , 3           , 255         , 0           , 0
-0.22977443 , 0.0278193317, 9.79154     , 0.00499513652, 0.00367640238, 0.000749291969, -3.135376   , -0.0274233017, 8.39472341E-05, 920.317     , 29.91192    , 804.3939    , 1.68        , 3           , 255         , 0           , 0
-0.239139482, 0.0213976465, 9.791736    , 0.004738583 , 0.003426572 , 1.446277E-05, -3.13532853 , -0.0274575632, 8.35886458E-05, 920.317     , 29.91192    , 804.3942    , 1.69        , 3           , 255         , 0           , 0
-0.241232127, 0.0230824314, 9.802708    , 0.00364418421, 0.00254288455, -0.00035336407, -3.13529229 , -0.0274830144, 8.696366E-05, 920.317     , 29.91192    , 804.394531  , 1.7         , 3           , 255         , 0           , 0
-0.235957786, 0.03351236  , 9.795117    , 0.00266251434, 0.00177133549, 0.000523148337, -3.13532758 , -0.0274266675, 8.331884E-05, 920.317     , 29.91192    , 804.3682    , 1.71        , 3           , 255         , 0           , 0
-0.241820842, 0.0296675824, 9.791258    , 0.00163559383, 0.000406065839, 3.48218E-05 , -3.13531113 , -0.0274307225, 8.29450437E-05, 920.317     , 29.91192    , 804.3684    , 1.72        , 3           , 255         , 0           , 0
-0.243277341, 0.0211806446, 9.7871      , 0.00107802264, -8.672058E-05, 0.000270454533, -3.13530016 , -0.0274298415, 8.024505E-05, 920.276245  , 29.9098854  , 804.3686    , 1.73        , 3           , 255         , 0           , 0
-0.238940522, 0.0304353088, 9.798593    , 0.0007129132, -1.99318456E-05, 0.00103686051, -3.13529277 , -0.0274295732, 6.9874266E-05, 920.276245  , 29.9098854  , 804.3688    , 1.74        , 3           , 255         , 0           , 0
-0.239765167, 0.03512524  , 9.804197    , 0.000817012333, 0.000353238545, 1.05015934E-05, -3.13528466 , -0.027433103, 6.9746915E-05, 920.276245  , 29.9098854  , 804.368958  , 1.75        , 3           , 255         , 0           , 0
-0.235935777, 0.0343269855, 9.796641    , 0.00168738863, 0.00101330224, -2.33155733E-05, -3.13526773 , -0.0274432339, 6.991612E-05, 920.276245  , 29.9098854  , 804.369141  , 1.76        , 3           , 255         , 0           , 0
-0.235221192, 0.0386843868, 9.793212    , 0.00285256119, 0.00134974974, 0.000119135511, -3.13523912 , -0.0274567287, 6.86387648E-05, 920.276245  , 29.9098854  , 804.3693    , 1.77        , 3           , 255         , 0           , 0
-0.235171765, 0.0342517234, 9.797401    , 0.00268914783, 0.00269577187, 0.0005665958, -3.13521218 , -0.0274836477, 6.27991758E-05, 920.276245  , 29.9098854  , 804.3695    , 1.78        , 3           , 255         , 0           , 0
-0.238726616, 0.0267830156, 9.794254    , 0.00313651469, 0.003393991 , 0.000917421537, -3.13518047 , -0.0275175273, 5.34047867E-05, 920.276245  , 29.9098854  , 804.3697    , 1.79        , 3           , 255         , 0           , 0
-0.246025518, 0.0266595185, 9.796725    , 0.00339786545, 0.003171261 , 0.000422134966, -3.13514638 , -0.0275492109, 4.89780541E-05, 920.276245  , 29.9098854  , 804.3699    , 1.8         , 3           , 255         , 0           , 0
-0.244683191, 0.0241118111, 9.797888    , 0.002920954 , 0.00304668257, 0.000877562 , -3.13517737 , -0.0275211688, 4.166701E-05, 920.276245  , 29.9098854  , 804.3919    , 1.81        , 3           , 255         , 0           , 0
-0.240374178, 0.0289656073, 9.789841    , 0.00216920488, 0.00119582913, 0.000198818452, -3.13515568 , -0.0275331177, 3.9601302E-05, 920.276245  , 29.9098854  , 804.3922    , 1.82        , 3           , 255         , 0           , 0
-0.240408465, 0.03559634  , 9.792158    , 0.00128815835, 0.00037474517, -0.000309735566, -3.135143   , -0.0275368821, 4.2675525E-05, 920.3134    , 29.9109039  , 804.3925    , 1.83        , 3           , 255         , 0           , 0
-0.233609959, 0.04062334  , 9.79115     , 0.001255637 , 0.000100169986, 1.09869288E-05, -3.13513041 , -0.02753788 , 4.255916E-05, 920.3134    , 29.9109039  , 804.3928    , 1.84        , 3           , 255         , 0           , 0
-0.241779476, 0.04265181  , 9.795206    , 0.0007128349, -0.000140365737, -0.000133245339, -3.13512325 , -0.0275364853, 4.390113E-05, 920.3134    , 29.9109039  , 804.3931    , 1.85        , 3           , 255         , 0           , 0
-0.234709173, 0.0440618843, 9.790731    , 0.000183464479, -0.000236941065, 0.0001916783, -3.13512135 , -0.0275341067, 4.19990465E-05, 920.3134    , 29.9109039  , 804.393433  , 1.86        , 3           , 255         , 0           , 0
-0.23168917 , 0.0357144773, 9.792826    , -5.015725E-06, 0.000326132926, 7.931105E-05, -3.13512135 , -0.0275373589, 4.11845758E-05, 920.3134    , 29.9109039  , 804.393738  , 1.87        , 3           , 255         , 0           , 0
-0.233829051, 0.03437666  , 9.791675    , -0.000145612285, 0.00123114325, -0.000301625085, -3.135123   , -0.0275496878, 4.412213E-05, 920.3134    , 29.9109039  , 804.394043  , 1.88        , 3           , 255         , 0           , 0
-0.2303731  , 0.0303118862, 9.790415    , -0.000356374367, 0.00120784785, -0.0005245209, -3.13512659 , -0.0275618024, 4.92909276E-05, 920.3134    , 29.9109039  , 804.394348  , 1.89        , 3           , 255         , 0           , 0
-0.239900976, 0.0352946743, 9.794387    , 0.000200532813, 0.000563029433, -9.289206E-05, -3.13512468 , -0.02756744 , 5.01837239E-05, 920.3134    , 29.9109039  , 804.394653  , 1.9         , 3           , 255         , 0           , 0
-0.229368135, 0.0358699262, 9.799397    , 0.000608873 , 0.00127646129, -1.6070524E-05, -3.135183   , -0.02750565 , 5.20344656E-05, 920.3134    , 29.9109039  , 804.37085   , 1.91        , 3           , 255         , 0           , 0
-0.225264221, 0.034573935 , 9.790019    , 0.0010691426, 0.00264501153, 0.000235133542, -3.13517237 , -0.02753208 , 4.9512626E-05, 920.3134    , 29.9109039  , 804.371033  , 1.92        , 3           , 255         , 0           , 0
-0.2328959  , 0.0332992   , 9.800534    , 0.00195352873, 0.00384927727, 0.000282541354, -3.13515258 , -0.0275705587, 4.64386976E-05, 920.303345  , 29.9137516  , 804.3712    , 1.93        , 3           , 255         , 0           , 0
-0.245724   , 0.0258387178, 9.798246    , 0.002017778 , 0.003021967 , -0.0002616087, -3.13513255 , -0.0276007857, 4.886065E-05, 920.303345  , 29.9137516  , 804.3714    , 1.94        , 3           , 255         , 0           , 0
-0.243891627, 0.0319973156, 9.796137    , 0.00195563352, 0.00303455861, 1.42823556E-05, -3.135113   , -0.0276311375, 4.85214077E-05, 920.303345  , 29.9137516  , 804.3716    , 1.95        , 3           , 255         , 0           , 0
-0.246329278, 0.033205092 , 9.795271    , 0.00109057943, 0.00144174474, 0.000335468416, -3.135102   , -0.0276455283, 4.507205E-05, 920.303345  , 29.9137516  , 804.371765  , 1.96        , 3           , 255         , 0           , 0
-0.235952854, 0.03984408  , 9.798214    , 0.0009274385, 0.000416388 , 0.000159748539, -3.13509274 , -0.0276496857, 4.34469766E-05, 920.303345  , 29.9137516  , 804.371948  , 1.97        , 3           , 255         , 0           , 0
-0.246034667, 0.0393207446, 9.795209    , 0.000477056077, -0.000118298973, 4.56333219E-05, -3.135088   , -0.0276484955, 4.299819E-05, 920.303345  , 29.9137516  , 804.372131  , 1.98        , 3           , 255         , 0           , 0
-0.238373443, 0.0300906561, 9.794836    , 0.000147699946, -0.001552598, -0.000465768651, -3.13508654 , -0.0276329983, 4.77584945E-05, 920.303345  , 29.9137516  , 804.3723    , 1.99        , 3           , 255         , 0           , 0
-0.23889032 , 0.03235392  , 9.796682    , -0.000106574007, -0.00152418774, -0.000935694552, -3.135088   , -0.0276178215, 5.72177378E-05, 920.303345  , 29.9137516  , 804.3725    , 2           , 3           , 0           , 7.41023636  , 200
-0.234692484, 0.0240363   , 9.794016    , 0.000478643575, -0.000215056163, -0.000454541267, -3.1351366  , -0.0275576152, 6.32513E-05 , 920.303345  , 29.9137516  , 804.363037  , 2.01        , 3           , 1           , 0           , 0
-0.233219892, 0.0309063   , 9.789363    , 0.0011878144, 0.00111533492, -0.000473012624, -3.135125   , -0.0275687929, 6.79108853E-05, 920.303345  , 29.9137516  , 804.363159  , 2.02        , 3           , 2           , 0           , 0
-0.243546486, 0.03198596  , 9.792885    , 0.001777913 , 0.00262768287, -0.0004021998, -3.13510728 , -0.0275950953, 7.1763985E-05, 920.291931  , 29.91036    , 804.363342  , 2.03        , 3           , 3           , 0           , 0
-0.2384893  , 0.0314320773, 9.793316    , 0.00267953752, 0.00383619871, 0.000197988964, -3.13508034 , -0.0276334435, 6.953403E-05, 920.291931  , 29.91036    , 804.3635    , 2.04        , 3           , 4           , 0           , 0
-0.238243654, 0.0275826752, 9.794273    , 0.002230639 , 0.0038862573, -0.000138191113, -3.13505816 , -0.0276723113, 7.066277E-05, 920.291931  , 29.91036    , 804.3637    , 2.05        , 3           , 5           , 0           , 0
-0.239717215, 0.03312274  , 9.793156    , 0.00220847712, 0.0038362965, 0.0001458049, -3.135036   , -0.0277106632, 6.89531E-05 , 920.291931  , 29.91036    , 804.3639    , 2.06        , 3           , 6           , 0           , 0
-0.24031809 , 0.0306561943, 9.790273    , 0.002100739 , 0.00231340155, 0.000182200834, -3.135015   , -0.02773379 , 6.697848E-05, 920.291931  , 29.91036    , 804.3641    , 2.07        , 3           , 7           , 0           , 0
-0.249340221, 0.0271076411, 9.794338    , 0.000635598961, 0.002027953 , 0.0003200322, -3.13500857 , -0.0277540442, 6.36435652E-05, 920.291931  , 29.91036    , 804.364258  , 2.08        , 3           , 8           , 5           , 5
-0.242040589, 0.031504    , 9.792916    , 0.00113778806, 0.0008993501, 0.000372463575, -3.134997   , -0.0277630109, 5.98583865E-05, 920.291931  , 29.91036    , 804.364441  , 2.09        , 3           , 9           , 5           , 0.1
-0.234511167, 0.0304692574, 9.793286    , 0.00100649893, 6.514849E-05, 5.98313636E-05, -3.13498688 , -0.0277636629, 5.92555662E-05, 920.291931  , 29.91036    , 804.3646    , 2.1         , 3           , 10          , 0.1         , 0.1
-0.236559436, 0.0358242765, 9.80027     , 0.000578449 , -0.0006316942, 4.70338273E-06, -3.135055   , -0.0276888181, 6.13005759E-05, 920.291931  , 29.91036    , 804.3697    , 2.11        , 3           , 11          , 0.008283966 , 0.008283965
-0.247862846, 0.0253547318, 9.797657    , 6.773551E-05, -0.000592585537, -0.000163352859, -3.13505459 , -0.0276829023, 6.29734E-05 , 920.291931  , 29.91036    , 804.3699    , 2.12        , 3           , 12          , 0.174643889 , 0
-0.246350959, 0.0301605053, 9.793501    , 0.000376751821, -7.580986E-05, -0.000228286415, -3.13505077 , -0.027682161, 6.526199E-05, 920.3292    , 29.9131413  , 804.370056  , 2.13        , 3           , 13          , 0           , 0
-0.240755409, 0.03096411  , 9.793879    , -0.0003873638, 0.000348856178, -0.000209542166, -3.13505483 , -0.0276856646, 6.73353E-05 , 920.3292    , 29.9131413  , 804.370239  , 2.14        , 3           , 14          , -0.000285304763, 0.000226813572
-0.247375324, 0.0337845162, 9.793306    , 8.70511E-05 , -0.0004471936, -0.000391639536, -3.135054   , -0.0276812147, 7.128226E-05, 920.3292    , 29.9131413  , 804.3704    , 2.15        , 3           , 15          , 0           , 0.000305207534
-0.24772203 , 0.0281647258, 9.787424    , 0.0004252438, -0.0006624826, 0.000721609569, -3.13504958 , -0.0276745465, 6.41070437E-05, 920.3292    , 29.9131413  , 804.3706    , 2.16        , 3           , 16          , 0           , 1.401298E-45
-0.2325212  , 0.0352985263, 9.787028    , 0.001280804 , -0.0004238728, 7.670664E-05, -3.13503671 , -0.0276703  , 6.33674863E-05, 920.3292    , 29.9131413  , 804.3708    , 2.17        , 3           , 20          , 0           , 0
-0.236326411, 0.03754132  , 9.797077    , 0.00135319482, 0.000191904721, 0.000272113568, -3.135023   , -0.0276721977, 6.06328431E-05, 920.3292    , 29.9131413  , 804.371     , 2.18        , 3           , 21          , 0           , 0
-0.238000274, 0.0402187668, 9.804686    , 0.0018756215, 0.00115110644, 0.00016923045, -3.13500428 , -0.0276837  , 5.88641524E-05, 920.3292    , 29.9131413  , 804.3712    , 2.19        , 3           , 22          , 0           , 0
-0.237993762, 0.0359556675, 9.799047    , 0.00229737023, 0.00210392033, -0.000276116742, -3.13498139 , -0.0277047586, 6.14873861E-05, 920.3292    , 29.9131413  , 804.37146   , 2.2         , 3           , 40          , 0           , 0
-0.238093019, 0.0358123258, 9.796483    , 0.00294788973, 0.00219597016, 9.588752E-06, -3.13500786 , -0.0276718959, 6.27957561E-05, 920.3292    , 29.9131413  , 804.3289    , 2.21        , 3           , 41          , 0           , 0
-0.2409409  , 0.0323013924, 9.794271    , 0.00278912438, 0.00241839373, 0.000201426767, -3.13498    , -0.0276960656, 6.06211979E-05, 920.3292    , 29.9131413  , 804.328857  , 2.22        , 3           , 42          , 0           , 0
-0.2440826  , 0.0296046324, 9.793661    , 0.00226061745, 0.002061801 , -0.0001203463, -3.13495731 , -0.02771669 , 6.16884354E-05, 920.297058  , 29.9151764  , 804.3288    , 2.23        , 3           , 255         , 0           , 0
-0.245183855, 0.0292173438, 9.79175     , 0.00253212824, 0.0012943839, -0.000190935578, -3.134932   , -0.02772965 , 6.351238E-05, 920.297058  , 29.9151764  , 804.328735  , 2.24        , 3           , 255         , 0           , 0
-0.241400883, 0.0316837542, 9.796074    , 0.00195501139, 0.0005422217, -0.000545174349, -3.13491273 , -0.02773511 , 6.892976E-05, 920.297058  , 29.9151764  , 804.3287    , 2.25        , 3           , 255         , 0           , 0
-0.235016137, 0.0319765   , 9.792287    , 0.000299420179, -0.0001601325, -0.000106468782, -3.13490987 , -0.0277335159, 7.000552E-05, 920.297058  , 29.9151764  , 804.3286    , 2.26        , 3           , 255         , 0           , 0
-0.231764123, 0.0381118171, 9.792997    , -9.414129E-05, -0.000204446027, -0.000172241766, -3.13491082 , -0.0277314819, 7.174217E-05, 920.297058  , 29.9151764  , 804.328552  , 2.27        , 3           , 255         , 0           , 0
-0.239279747, 0.03259432  , 9.797092    , 0.00019446222, -0.000205542921, -0.0007587357, -3.13490915 , -0.0277294777, 7.934582E-05, 920.297058  , 29.9151764  , 804.3285    , 2.28        , 3           , 255         , 0           , 0
-0.252957135, 0.02756218  , 9.797544    , 0.000236299049, 7.3430856E-05, -0.000407793734, -3.13490677 , -0.0277302377, 8.342021E-05, 920.297058  , 29.9151764  , 804.3284    , 2.29        , 3           , 255         , 0           , 0
-0.24796471 , 0.0339253843, 9.78799248  , 6.527349E-06, 0.000341488223, 0.0002795673, -3.13490677 , -0.0277336352, 8.060075E-05, 920.297058  , 29.9151764  , 804.328369  , 2.3         , 3           , 255         , 0           , 0
-0.241259411, 0.0277670417, 9.784936    , 0.0007959191, 0.000427904539, -0.0002406568, -3.1349628  , -0.0276798382, 8.475207E-05, 920.297058  , 29.9151764  , 804.332     , 2.31        , 3           , 255         , 0           , 0
-0.2286812  , 0.0338408351, 9.783652    , 0.00123086665, 0.001387371 , 0.000363948755, -3.1349504  , -0.0276936889, 8.101925E-05, 920.297058  , 29.9151764  , 804.332     , 2.32        , 3           , 255         , 0           , 0
-0.242085889, 0.0310836043, 9.789553    , 0.00167071  , 0.00198582234, 3.54202639E-05, -3.13493371 , -0.02771354 , 8.053278E-05, 920.315     , 29.9147015  , 804.332     , 2.33        , 3           , 255         , 0           , 0
-0.2410183  , 0.0291080978, 9.792482    , 0.00154185039, 0.002403678 , -0.000216497487, -3.13491821 , -0.0277375933, 8.253818E-05, 920.315     , 29.9147015  , 804.332     , 2.34        , 3           , 255         , 0           , 0
-0.238376826, 0.0334194824, 9.79404449  , 0.0019392625, 0.00202155858, -0.000109488, -3.134899   , -0.0277578123, 8.34982857E-05, 920.315     , 29.9147015  , 804.332     , 2.35        , 3           , 255         , 0           , 0
-0.2500574  , 0.0350342   , 9.798853    , 0.00242808741, 0.00169941748, 0.000168460159, -3.13487458 , -0.027774794, 8.16990942E-05, 920.315     , 29.9147015  , 804.332     , 2.36        , 3           , 255         , 0           , 0
-0.243523076, 0.031315513 , 9.802248    , 0.00185561948, 0.00173228909, 0.000193711487, -3.134856   , -0.0277921055, 7.964475E-05, 920.315     , 29.9147015  , 804.332     , 2.37        , 3           , 255         , 0           , 0
-0.242829725, 0.0331668071, 9.797307    , 0.000630310446, 0.000302850443, 0.000427584862, -3.13484955 , -0.0277951062, 7.53470158E-05, 920.315     , 29.9147015  , 804.332     , 2.38        , 3           , 255         , 0           , 0
-0.242078334, 0.03358806  , 9.800576    , -0.000137110648, -0.000247587828, 0.0005626818, -3.13485074 , -0.0277925935, 6.9735E-05  , 920.315     , 29.9147015  , 804.332     , 2.39        , 3           , 255         , 0           , 0
-0.242175177, 0.02738542  , 9.797925    , 9.109202E-05, -0.000873964338, 0.000111032772, -3.13484979 , -0.0277838446, 6.868325E-05, 920.315     , 29.9147015  , 804.332     , 2.4         , 3           , 255         , 0           , 0
-0.241264269, 0.0328462869, 9.791375    , -0.000202042313, -0.000528244651, -1.25216611E-05, -3.13491583 , -0.0277207419, 7.061865E-05, 920.315     , 29.9147015  , 804.3115    , 2.41        , 3           , 255         , 0           , 0
-0.230304509, 0.0356706828, 9.796537    , -0.0003327265, 0.0004999647, 0.000306993577, -3.13491917 , -0.0277257189, 6.751429E-05, 920.315     , 29.9147015  , 804.3114    , 2.42        , 3           , 255         , 0           , 0
-0.241002917, 0.0303743389, 9.791407    , -0.000230541249, 0.000848532771, 0.000151388958, -3.13492131 , -0.027734194, 6.59432553E-05, 920.2448    , 29.91355    , 804.3113    , 2.43        , 3           , 255         , 0           , 0
-0.2395107  , 0.0339547172, 9.786596    , 0.000701949 , 0.00169467716, 0.000105352665, -3.1349144  , -0.0277511347, 6.477622E-05, 920.2448    , 29.91355    , 804.311157  , 2.44        , 3           , 255         , 0           , 0
-0.23524332 , 0.02995712  , 9.797801    , 0.00126773515, 0.0022764178, -0.000113822549, -3.13490176 , -0.0277739037, 6.576259E-05, 920.2448    , 29.91355    , 804.311035  , 2.45        , 3           , 255         , 0           , 0
-0.243803024, 0.0300316066, 9.794033    , 0.00116089475, 0.00243169325, -0.000303899025, -3.13489    , -0.027798241, 6.86396961E-05, 920.2448    , 29.91355    , 804.3109    , 2.46        , 3           , 255         , 0           , 0
-0.24064979 , 0.028888274 , 9.791124    , 0.00080274255, 0.00224978966, 0.00131140812, -3.13488173 , -0.0278206486, 5.537025E-05, 920.2448    , 29.91355    , 804.3108    , 2.47        , 3           , 255         , 0           , 0
-0.244931653, 0.0408559181, 9.790509    , 0.00138380681, 0.00216091517, 0.0009558307, -3.13486767 , -0.0278421938, 4.566346E-05, 920.2448    , 29.91355    , 804.310669  , 2.48        , 3           , 255         , 0           , 0
-0.240719751, 0.03579637  , 9.794111    , 0.0008663698, 0.00107658107, 0.000212432729, -3.13485885 , -0.0278529413, 4.346594E-05, 920.2448    , 29.91355    , 804.310547  , 2.49        , 3           , 255         , 0           , 0
-0.238802582, 0.0377256759, 9.787978    , 4.50155057E-05, 0.000132554182, -0.0004022756, -3.13485861 , -0.0278542954, 4.74811422E-05, 920.2448    , 29.91355    , 804.3104    , 2.5         , 3           , 255         , 0           , 0
-0.246946484, 0.0389120057, 9.794728    , -0.0009532743, -0.000386325875, 0.000498461 , -3.13493514 , -0.0277823657, 4.438477E-05, 920.2448    , 29.91355    , 804.3867    , 2.51        , 3           , 255         , 0           , 0
-0.241860822, 0.04137569  , 9.792155    , -0.00080508145, -0.00117932667, 0.00018555345, -3.134943   , -0.02777056 , 4.26070837E-05, 920.2448    , 29.91355    , 804.3871    , 2.52        , 3           , 255         , 0           , 0
-0.240475938, 0.03789435  , 9.79534149  , -0.00129763421, -0.00162443146, 0.0006015139, -3.134956   , -0.0277542733, 3.66978675E-05, 920.2937    , 29.9130058  , 804.387451  , 2.53        , 3           , 255         , 0           , 0
-0.245240256, 0.0375419632, 9.792918    , -0.00153655291, -0.00168315566, 0.000148484425, -3.13497114 , -0.0277374368, 3.53241376E-05, 920.2937    , 29.9130058  , 804.3878    , 2.54        , 3           , 255         , 0           , 0
-0.244603232, 0.04322382  , 9.795957    , -0.00115492416, -0.0002874554, 0.0001883987, -3.13498282 , -0.0277345534, 3.34585347E-05, 920.2937    , 29.9130058  , 804.3882    , 2.55        , 3           , 255         , 0           , 0
-0.2412852  , 0.0331481472, 9.79801     , 0.00014787582, 0.0003458972, 1.41281926E-05, -3.13498116 , -0.0277380086, 3.32943346E-05, 920.2937    , 29.9130058  , 804.3886    , 2.56        , 3           , 255         , 0           , 0
-0.225081056, 0.0254002512, 9.79485     , 0.001743484 , 0.00214135461, 0.0007059527, -3.13496351 , -0.0277593713, 2.60906127E-05, 920.2937    , 29.9130058  , 804.389038  , 2.57        , 3           , 255         , 0           , 0
-0.235162452, 0.0292986818, 9.792802    , 0.002852778 , 0.00369516015, 0.000363385479, -3.134935   , -0.0277962964, 2.22099916E-05, 920.2937    , 29.9130058  , 804.389465  , 2.58        , 3           , 255         , 0           , 0
-0.24367249 , 0.019052811 , 9.799845    , 0.00400292268, 0.004087562 , -8.964726E-05, -3.134895   , -0.027837174, 2.28336739E-05, 920.2937    , 29.9130058  , 804.3899    , 2.59        , 3           , 255         , 0           , 0
-0.252845526, 0.0278037637, 9.797619    , 0.0034022918, 0.00409963168, -0.000293932448, -3.134861   , -0.0278781913, 2.54986371E-05, 920.2937    , 29.9130058  , 804.3903    , 2.6         , 3           , 255         , 0           , 0
-0.252663583, 0.03337892  , 9.78945351  , 0.00234820624, 0.002759669 , -5.491139E-05, -3.13489079 , -0.0278550219, 2.73423084E-05, 920.2937    , 29.9130058  , 804.3906    , 2.61        , 3           , 255         , 0           , 0
-0.253030241, 0.0330051519, 9.798986    , 0.00109883922, 0.001410918 , -0.0007338821, -3.13487983 , -0.0278691836, 3.45889348E-05, 920.2937    , 29.9130058  , 804.391052  , 2.62        , 3           , 255         , 0           , 0
-0.2484574  , 0.021322    , 9.797055    , 7.09312735E-06, 6.542193E-05, -0.000374773663, -3.13488    , -0.0278698634, 3.83335573E-05, 920.2894    , 29.9137516  , 804.3915    , 2.63        , 3           , 255         , 0           , 0
-0.246127129, 0.0331912525, 9.80186749  , -0.000642456464, -0.00106664852, 4.4917193E-05, -3.13488626 , -0.0278591979, 3.795583E-05, 920.2894    , 29.9137516  , 804.3919    , 2.64        , 3           , 255         , 0           , 0
-0.235021323, 0.0422745645, 9.791973    , -0.00131100346, -0.0010814264, 0.000382356026, -3.13489938 , -0.0278483517, 3.42034327E-05, 920.2894    , 29.9137516  , 804.392334  , 2.65        , 3           , 255         , 0           , 0
-0.245911509, 0.02951632  , 9.790693    , -0.001634633, -0.00118333322, -0.0003757062, -3.13491583 , -0.0278365482, 3.804091E-05, 920.2894    , 29.9137516  , 804.392761  , 2.66        , 3           , 255         , 0           , 0
-0.24807243 , 0.0238750763, 9.802856    , -0.0008826249, -0.000973262358, -0.000406234118, -3.134925   , -0.0278268456, 4.216958E-05, 920.2894    , 29.9137516  , 804.3932    , 2.67        , 3           , 255         , 0           , 0
-0.246616811, 0.0271948036, 9.798233    , -0.0016706239, -0.000860705, -0.000142347591, -3.13494158 , -0.02781825 , 4.36508963E-05, 920.2894    , 29.9137516  , 804.3936    , 2.68        , 3           , 255         , 0           , 0
-0.238901019, 0.0311156511, 9.784602    , -0.0005280782, 4.90504754E-05, -4.68993676E-06, -3.13494682 , -0.0278187413, 4.3694552E-05, 920.2894    , 29.9137516  , 804.394043  , 2.69        , 3           , 255         , 0           , 0
-0.243165344, 0.030024711 , 9.78881     , 0.00124018837, 0.000714631169, -9.041192E-06, -3.13493443 , -0.0278258864, 4.373742E-05, 920.2894    , 29.9137516  , 804.3945    , 2.7         , 3           , 255         , 0           , 0
-0.236170918, 0.0230401866, 9.789801    , 0.001779153 , 0.00187901966, 0.001238583 , -3.13497758 , -0.0277972873, 3.29288E-05 , 920.2894    , 29.9137516  , 804.3998    , 2.71        , 3           , 255         , 0           , 0
-0.234007686, 0.02588152  , 9.80067     , 0.00121576677, 0.00261803879, 0.0008187473, -3.13496518 , -0.0278234128, 2.45651245E-05, 920.2894    , 29.9137516  , 804.400269  , 2.72        , 3           , 255         , 0           , 0
-0.2371653  , 0.0293486   , 9.794683    , 0.00143295643, 0.003069937 , 0.0004165642, -3.13495088 , -0.027854085, 2.01942876E-05, 920.279053  , 29.9168739  , 804.400757  , 2.73        , 3           , 255         , 0           , 0
-0.235553026, 0.04065125  , 9.794665    , 0.000717250863, 0.002401329 , 7.5426884E-05, -3.13494372 , -0.0278780963, 1.9280129E-05, 920.279053  , 29.9168739  , 804.401245  , 2.74        , 3           , 255         , 0           , 0
-0.238518521, 0.0326489545, 9.789213    , -0.0003354821, -0.0004631948, -0.00024950254, -3.134947   , -0.027873477, 2.18068035E-05, 920.279053  , 29.9168739  , 804.401733  , 2.75        , 3           , 255         , 0           , 0
-0.23898311 , 0.0336729363, 9.796964    , -0.000636645244, -0.0017330246, -0.0007233281, -3.13495374 , -0.0278562  , 2.91577035E-05, 920.279053  , 29.9168739  , 804.4022    , 2.76        , 3           , 255         , 0           , 0
-0.241714   , 0.03689953  , 9.790623    , -0.000454375375, -0.00143021916, -0.00103248155, -3.13495851 , -0.027841961, 3.958101E-05, 920.279053  , 29.9168739  , 804.4027    , 2.77        , 3           , 255         , 0           , 0
-0.243235826, 0.03083885  , 9.790521    , -0.00184098422, -0.00247779628, 0.0005235461, -3.13497663 , -0.02781715 , 3.450798E-05, 920.279053  , 29.9168739  , 804.4032    , 2.78        , 3           , 255         , 0           , 0
-0.243527859, 0.0243865   , 9.791586    , -0.00162507745, -0.003036561, 0.00033430793, -3.13499284 , -0.0277867652, 3.136446E-05, 920.279053  , 29.9168739  , 804.4037    , 2.79        , 3           , 255         , 0           , 0
-0.23998335 , 0.0244504772, 9.789255    , -0.00113701611, -0.002853856, -0.000757039059, -3.13500452 , -0.0277582761, 3.91256763E-05, 920.279053  , 29.9168739  , 804.4042    , 2.8         , 3           , 255         , 0           , 0
-0.240664154, 0.0223070942, 9.791704    , -0.0005738437, -0.000957113632, 9.195181E-06, -3.13507724 , -0.0276831239, 4.09531131E-05, 920.279053  , 29.9168739  , 804.4225    , 2.81        , 3           , 255         , 0           , 0
-0.228212431, 0.03172472  , 9.799998    , 0.000109261993, 0.00094289484, 0.00118990336, -3.13507581 , -0.02769248 , 2.89885975E-05, 920.279053  , 29.9168739  , 804.4231    , 2.82        , 3           , 255         , 0           , 0
-0.242068142, 0.0301765   , 9.796574    , 0.00142734556, 0.00301345438, 0.000387240318, -3.1350615  , -0.02772258 , 2.4918214E-05, 920.290344  , 29.9168053  , 804.4237    , 2.83        , 3           , 255         , 0           , 0
-0.235877961, 0.0321116149, 9.789558    , 0.00210014358, 0.00324251968, 0.000619158731, -3.13504028 , -0.02775497 , 1.851242E-05, 920.290344  , 29.9168053  , 804.4243    , 2.84        , 3           , 255         , 0           , 0
-0.230463028, 0.028360825 , 9.798827    , 0.002893432 , 0.00290436251, 7.57623056E-05, -3.13501143 , -0.02778401 , 1.75637288E-05, 920.290344  , 29.9168053  , 804.4249    , 2.85        , 3           , 255         , 0           , 0
-0.244636729, 0.0275175013, 9.787191    , 0.00255817  , 0.003200437 , -0.000554315, -3.134986   , -0.0278160479, 2.28976241E-05, 920.290344  , 29.9168053  , 804.425537  , 2.86        , 3           , 255         , 0           , 0
-0.249494031, 0.0334081054, 9.785842    , 0.00198865542, 0.00260952953, -0.000184646371, -3.13496614 , -0.0278421529, 2.45720075E-05, 920.290344  , 29.9168053  , 804.426147  , 2.87        , 3           , 255         , 0           , 0
-0.238829181, 0.0308231972, 9.791048    , 0.00116622937, 0.000266072864, -0.000818024448, -3.13495469 , -0.0278448649, 3.273741E-05, 920.290344  , 29.9168053  , 804.426758  , 2.88        , 3           , 255         , 0           , 0
-0.245883226, 0.03565816  , 9.795685    , -0.0003203377, -0.000409535744, -0.000174527537, -3.13495779 , -0.0278407875, 3.45104527E-05, 920.290344  , 29.9168053  , 804.427368  , 2.89        , 3           , 255         , 0           , 0
-0.246350691, 0.03486374  , 9.801947    , -0.0016109373, -0.0013569179, -0.0003524574, -3.134974   , -0.0278272387, 3.81261852E-05, 920.290344  , 29.9168053  , 804.428     , 2.9         , 3           , 255         , 0           , 0
-0.244352624, 0.03693613  , 9.798489    , -0.00144242775, -0.00190056255, -0.00083618873, -3.13504815 , -0.0277520958, 4.826626E-05, 920.290344  , 29.9168053  , 804.4274    , 2.91        , 3           , 255         , 0           , 0
-0.243028969, 0.0261201   , 9.798203    , -0.00176259666, -0.00220051617, -0.000489989063, -3.135066   , -0.02773013 , 5.33116981E-05, 920.290344  , 29.9168053  , 804.42804   , 2.92        , 3           , 255         , 0           , 0
-0.239972919, 0.0179037414, 9.79987     , -0.002100154, -0.00112022448, -0.0004659276, -3.135087   , -0.0277189557, 5.80455744E-05, 920.2902    , 29.91416    , 804.42865   , 2.93        , 3           , 255         , 0           , 0
-0.235393077, 0.0244766511, 9.796415    , -0.00106950547, -0.000117081523, 2.79653759E-05, -3.13509774 , -0.027717784, 5.77734572E-05, 920.2902    , 29.91416    , 804.42926   , 2.94        , 3           , 255         , 0           , 0
-0.234438181, 0.0314366929, 9.792897    , 0.000176459958, 0.0008458074, 0.0009086642, -3.13509583 , -0.027726179, 4.86287754E-05, 920.2902    , 29.91416    , 804.4299    , 2.95        , 3           , 255         , 0           , 0
-0.2361863  , 0.0251158476, 9.783933    , 0.00100484758, 0.00144211343, -0.00042809383, -3.13508582 , -0.02774063 , 5.281736E-05, 920.2902    , 29.91416    , 804.4305    , 2.96        , 3           , 255         , 0           , 0
-0.239363432, 0.0271184389, 9.784837    , 0.00174996862, 0.00204874622, -7.76683E-05, -3.13506842 , -0.0277611166, 5.3460757E-05, 920.2902    , 29.91416    , 804.4311    , 2.97        , 3           , 255         , 0           , 0
-0.237419441, 0.0202758219, 9.795576    , 0.00280708051, 0.00272483751, 0.000831706333, -3.13504    , -0.02778831 , 4.49626423E-05, 920.2902    , 29.91416    , 804.4317    , 2.98        , 3           , 255         , 0           , 0
-0.245870382, 0.0201323573, 9.798198    , 0.00253371266, 0.00332773454, 0.000361083134, -3.13501453 , -0.0278215613, 4.11320434E-05, 920.2902    , 29.91416    , 804.4323    , 2.99        , 3           , 255         , 0           , 0
-0.2432766  , 0.0336847231, 9.789561    , 0.00241346029, 0.00231527374, -0.0002708481, -3.13499045 , -0.0278447289, 4.36888367E-05, 920.2902    , 29.91416    , 804.4329    , 3           , 3           , 0           , 8.410236    , 300
-0.248621374, 0.0347872749, 9.793219    , 0.001236054 , 0.001142552 , 3.81235441E-05, -3.13504314 , -0.027800981, 4.504069E-05, 920.2902    , 29.91416    , 804.4316    , 3.01        , 3           , 1           , 0           , 0
-0.239839524, 0.0306632929, 9.795881    , -7.810662E-05, 8.921856E-05, 0.000277075742, -3.13504386 , -0.0278018545, 4.22631419E-05, 920.2902    , 29.91416    , 804.4322    , 3.02        , 3           , 2           , 0           , 0
-0.245188326, 0.0310606863, 9.790248    , -0.0003882481, -0.000854418438, 0.0005062248, -3.13504767 , -0.02779328 , 3.72551149E-05, 920.287659  , 29.91199    , 804.4328    , 3.03        , 3           , 3           , 0           , 0
-0.238428861, 0.04275966  , 9.789641    , -0.00109999476, -0.00158839417, -0.0006114603, -3.13505888 , -0.0277774353, 4.34756766E-05, 920.287659  , 29.91199    , 804.4334    , 3.04        , 3           , 4           , 0           , 0
-0.231625766, 0.03661581  , 9.788553    , -0.0006382682, -0.00203402434, 0.000542462454, -3.135065   , -0.0277570635, 3.81820864E-05, 920.287659  , 29.91199    , 804.434     , 3.05        , 3           , 5           , 0           , 0
-0.2414368  , 0.0279267784, 9.788411    , -0.000194981025, -0.00145171827, -5.54538565E-05, -3.135067   , -0.0277425461, 3.88315821E-05, 920.287659  , 29.91199    , 804.434631  , 3.06        , 3           , 6           , 0           , 0
-0.23332867 , 0.0265028384, 9.797232    , 0.000625525368, -0.0006491676, 0.000191393716, -3.13506079 , -0.0277360454, 3.695939E-05, 920.287659  , 29.91199    , 804.435242  , 3.07        , 3           , 7           , 0           , 0
-0.242119282, 0.0269977637, 9.80543     , 0.00118881976, 0.0005534177, 0.0005137954, -3.13504863 , -0.0277415458, 3.178352E-05, 920.287659  , 29.91199    , 804.435852  , 3.08        , 3           , 8           , 5           , 5
-0.241631821, 0.0276583526, 9.792183    , 0.00167305954, 0.0010210108, 0.000299890351, -3.135032   , -0.0277517345, 2.8716644E-05, 920.287659  , 29.91199    , 804.436462  , 3.09        , 3           , 9           , 5           , 0.1
-0.234626532, 0.0251584351, 9.790804    , 0.00101333275, 0.00143132079, -0.0004392446, -3.135022   , -0.0277660713, 3.301656E-05, 920.287659  , 29.91199    , 804.4371    , 3.1         , 3           , 10          , 0.1         , 0.1
-0.231590986, 0.0339634866, 9.79464149  , 0.0003720887, 0.0017682364, -0.000735172653, -3.13507724 , -0.0277262479, 4.18834679E-05, 920.287659  , 29.91199    , 804.438843  , 3.11        , 3           , 11          , 0.007578715 , 0.007578712
-0.24170956 , 0.0302996524, 9.791259    , 0.00207385025, 0.0022265478, -0.000375377334, -3.1350565  , -0.0277485438, 4.54931942E-05, 920.287659  , 29.91199    , 804.439453  , 3.12        , 3           , 12          , 0.174645633 , 0
-0.245199174, 0.03252188  , 9.793633    , 0.00105618185, 0.00161494408, -0.0007623987, -3.13504624 , -0.0277647376, 5.30140569E-05, 920.279236  , 29.9161263  , 804.440063  , 3.13        , 3           , 13          , 0           , 0
-0.244954988, 0.0266696159, 9.801183    , -1.36050512E-05, 0.000644979067, -0.00046567648, -3.13504648 , -0.0277712159, 5.763016E-05, 920.279236  , 29.9161263  , 804.4407    , 3.14        , 3           , 14          , -0.000282884343, 0.000229057478
-0.237721562, 0.023770174 , 9.786739    , 0.000214993372, -0.000202030817, 0.000364941254, -3.135044   , -0.0277691726, 5.399274E-05, 920.279236  , 29.9161263  , 804.4413    , 3.15        , 3           , 15          , 0           , 0.00030525995
-0.231275409, 0.0270521455, 9.793289    , -0.0002085712, -0.000214799817, 0.0002834152, -3.13504624 , -0.0277670138, 5.117169E-05, 920.279236  , 29.9161263  , 804.441956  , 3.16        , 3           , 16          , 0           , 1.401298E-45
-0.238525227, 0.0376368836, 9.794889    , 6.712353E-05, 2.433412E-05, -1.47650426E-05, -3.13504553 , -0.027767254, 5.13177947E-05, 920.279236  , 29.9161263  , 804.4426    , 3.17        , 3           , 20          , 0           , 0
-0.234218866, 0.0331706665, 9.799218    , -6.39293E-05, 0.00028373822, 0.0006988321, -3.135046   , -0.0277700461, 4.430852E-05, 920.279236  , 29.9161263  , 804.4433    , 3.18        , 3           , 21          , 0           , 0
-0.2361478  , 0.022664709 , 9.791564    , 0.000769501145, 0.0004475475, 0.000579753832, -3.13503814 , -0.0277744867, 3.847968E-05, 920.279236  , 29.9161263  , 804.444     , 3.19        , 3           , 22          , 0           , 0
