Acc X       , Acc Y       , Acc Z       , Gyro X      , Gyro Y      , Gyro Z      , Euler X     , Euler Y     , Euler Z     , Pres X      , Pres Y      , Pres Z      , Time        , Status      , LowRate X   , LowRate Y   , LowRate Z    
-0.168550342, -0.0837836862, 9.78716     , 0           , 0           , 0           , 3.13303232  , -0.0172192454, 0           , 918.1008    , 32.2591858  , 824.139465  , 0           , 2           , 0           , 5.57723141  , 0
-0.161587924, -0.088929   , 9.804023    , 0.00039925013, 7.47781E-05 , 0.000126415121, 3.13303614  , -0.0172198955, -1.25786494E-06, 918.1008    , 32.2591858  , 824.139465  , 0.01        , 3           , 1           , 0           , 0
-0.165033266, -0.07423186 , 9.79637     , -0.000592287863, -0.00014777272, 0.000171251333, 3.13303041  , -0.0172184333, -2.983163E-06, 918.1008    , 32.2591858  , 824.139465  , 0.02        , 3           , 2           , 0           , 0
-0.167335033, -0.07847045 , 9.804431    , -0.0005309719, 0.000212863524, -0.000122498779, 3.133025    , -0.017220553, -1.739845E-06, 918.0868    , 31.8237076  , 824.139465  , 0.03        , 3           , 3           , 0           , 0
-0.170564055, -0.08520669 , 9.797865    , -0.000147677667, -0.00019299594, -0.0002643685, 3.1330235   , -0.017218601, 8.875292E-07, 918.0868    , 31.8237076  , 824.139465  , 0.04        , 3           , 4           , 0           , 0
-0.166414827, -0.0793933  , 9.793016    , -0.000622887746, -9.396771E-05, 0.000624575245, 3.1330173   , -0.0172177143, -5.36682137E-06, 918.0868    , 31.8237076  , 824.139465  , 0.05        , 3           , 5           , 0           , 0
-0.172038153, -0.07591291 , 9.797183    , -0.0001597809, 0.000233163446, 0.000384230516, 3.13301587  , -0.01722008 , -9.189456E-06, 918.0868    , 31.8237076  , 824.139465  , 0.06        , 3           , 6           , 0           , 0
-0.161496624, -0.08629163 , 9.79628     , -0.0003326588, 0.000194260065, 0.0002789838, 3.13301253  , -0.0172220469, -1.19628658E-05, 918.0868    , 31.8237076  , 824.139465  , 0.07        , 3           , 7           , 0           , 0
-0.165199876, -0.08201785 , 9.795296    , 0.000267554977, 0.000562043453, 0.000163250967, 3.13301516  , -0.01722768 , -1.35473047E-05, 918.0868    , 31.8237076  , 824.139465  , 0.08        , 3           , 8           , 5           , 5
-0.170367211, -0.09313126 , 9.800933    , 0.00039022186, 0.000404370163, -0.0005947637, 3.133019    , -0.0172316711, -7.564481E-06, 918.0868    , 31.8237076  , 824.139465  , 0.09        , 3           , 9           , 5           , 0.1
-0.17222932 , -0.0898413658, 9.800165    , 0.000175629481, 0.0001793529, -0.0002802421, 3.13302088  , -0.01723344 , -4.746448E-06, 918.0868    , 31.8237076  , 824.139465  , 0.1         , 3           , 10          , 0.1         , 0.1
-0.173939884, -0.0845098943, 9.800886    , -0.000170991523, 0.00023515895, 0.00012892652, 3.13302088  , -0.017231416, -6.04878323E-06, 918.0868    , 31.8237076  , 824.2665    , 0.11        , 3           , 11          , 0.0109544508, 0.0109544508
-0.175132453, -0.08772288 , 9.799135    , -0.000396705756, 0.000180385148, -0.0004435764, 3.133017    , -0.0172331817, -1.59717172E-06, 918.0868    , 31.8237076  , 824.2665    , 0.12        , 3           , 12          , 0.174642488 , 0
-0.177877516, -0.08239791 , 9.802462    , -0.000464486831, 0.00041694683, 0.000207276782, 3.13301229  , -0.0172373671, -3.63434924E-06, 918.121155  , 31.8676014  , 824.2665    , 0.13        , 3           , 13          , 0           , 0
-0.169970945, -0.08044807 , 9.798004    , -5.342369E-05, -0.000212593586, 0.000788991 , 3.133012    , -0.0172353089, -1.1543194E-05, 918.121155  , 31.8676014  , 824.266541  , 0.14        , 3           , 14          , -0.000317026919, -0.000349109236
-0.169679165, -0.0932052  , 9.801043    , 0.000203435688, -0.0008109437, -0.000170962245, 3.133014    , -0.017227184, -9.903E-06  , 918.121155  , 31.8676014  , 824.2666    , 0.15        , 3           , 15          , 0           , -7.090231E-05
-0.1727818  , -0.08936578 , 9.794797    , -9.319512E-06, -0.0002871757, 9.671472E-05, 3.133014    , -0.0172243211, -1.089486E-05, 918.121155  , 31.8676014  , 824.266663  , 0.16        , 3           , 16          , 0           , 1.401298E-45
-0.176696271, -0.08504921 , 9.791081    , -0.000344847154, 0.000173812878, -0.000136788847, 3.13301039  , -0.0172260478, -9.511932E-06, 918.121155  , 31.8676014  , 824.2667    , 0.17        , 3           , 20          , 0           , 0
-0.163952753, -0.08233406 , 9.795941    , 0.000111264788, 0.0001372795, -0.000198807189, 3.13301158  , -0.0172274038, -7.51191874E-06, 918.121155  , 31.8676014  , 824.2668    , 0.18        , 3           , 21          , 0           , 0
-0.165291652, -0.08054848 , 9.803549    , 2.74927E-05 , 0.000488118472, -0.0002810067, 3.13301182  , -0.0172322616, -4.65972E-06, 918.121155  , 31.8676014  , 824.266846  , 0.19        , 3           , 22          , 0           , 0
-0.165143073, -0.08708859 , 9.802363    , -0.000166035024, 0.000226549542, 0.0006986946, 3.13301015  , -0.0172345843, -1.16278261E-05, 918.121155  , 31.8676014  , 824.2669    , 0.2         , 3           , 40          , 0           , 0
-0.168619052, -0.08005488 , 9.788507    , 0.000106315885, 2.07480916E-05, 0.000613321667, 3.133008    , -0.0172408912, -1.77027669E-05, 918.121155  , 31.8676014  , 824.112     , 0.21        , 3           , 41          , 0           , 0
-0.168988347, -0.07953707 , 9.789586    , -6.9006026E-05, -4.45699261E-05, -3.75002128E-06, 3.13300729  , -0.0172404461, -1.76690883E-05, 918.121155  , 31.8676014  , 824.112061  , 0.22        , 3           , 42          , 0           , 0
-0.174068525, -0.0860003  , 9.793692    , -0.00019044595, 0.000163737452, 0.000551688543, 3.13300562  , -0.0172421318, -2.31723861E-05, 918.14      , 31.88999    , 824.1121    , 0.23        , 3           , 255         , 0           , 0
-0.163204536, -0.0751441643, 9.80662     , -0.000294579047, 0.000306270842, -0.000434805843, 3.13300252  , -0.0172451567, -1.879764E-05, 918.14      , 31.88999    , 824.1122    , 0.24        , 3           , 255         , 0           , 0
-0.171639249, -0.090152584, 9.798174    , -6.05984824E-05, 0.00030631735, -0.0005580378, 3.1330018   , -0.0172481686, -1.3190458E-05, 918.14      , 31.88999    , 824.112244  , 0.25        , 3           , 255         , 0           , 0
-0.167018786, -0.08282079 , 9.796245    , -0.000533158542, -0.000170969608, -0.000606497459, 3.13299632  , -0.0172464084, -7.13965E-06, 918.14      , 31.88999    , 824.1123    , 0.26        , 3           , 255         , 0           , 0
-0.171361387, -0.08455876 , 9.798761    , -0.0006007616, 2.17385532E-05, -0.000830552657, 3.13299012  , -0.0172465555, 1.1684524E-06, 918.14      , 31.88999    , 824.112366  , 0.27        , 3           , 255         , 0           , 0
-0.1680772  , -0.08302711 , 9.796656    , -0.000696035335, 0.000228178673, -0.0003782083, 3.13298321  , -0.0172488  , 4.9704945E-06, 918.14      , 31.88999    , 824.1124    , 0.28        , 3           , 255         , 0           , 0
-0.168730065, -0.0794371  , 9.803874    , 0.000155385191, 0.000174508183, -0.000392657152, 3.13298464  , -0.0172505118, 8.912438E-06, 918.14      , 31.88999    , 824.1125    , 0.29        , 3           , 255         , 0           , 0
-0.165928036, -0.09347735 , 9.799527    , 0.00022727254, 0.000187577039, -0.000290247583, 3.13298678  , -0.0172523614, 1.183131E-05, 918.14      , 31.88999    , 824.112549  , 0.3         , 3           , 255         , 0           , 0
-0.159503251, -0.09348433 , 9.796854    , -0.000133630267, 0.0001859506, 0.0004995259, 3.13298774  , -0.0172535833, 6.81375559E-06, 918.14      , 31.88999    , 824.003052  , 0.31        , 3           , 255         , 0           , 0
-0.170227334, -0.08301313 , 9.80664     , -6.510122E-05, 0.000277240324, 0.000918220147, 3.13298726  , -0.0172564369, -2.34539016E-06, 918.14      , 31.88999    , 824.0031    , 0.32        , 3           , 255         , 0           , 0
-0.174252823, -0.07086128 , 9.789433    , -0.000221390714, -2.90348835E-05, 0.000347199355, 3.132985    , -0.0172561724, -5.820185E-06, 918.1512    , 31.9074936  , 824.0032    , 0.33        , 3           , 255         , 0           , 0
-0.16102162 , -0.07087823 , 9.803129    , -0.000248675438, 4.04644234E-05, 0.0007208915, 3.13298273  , -0.01725664 , -1.30262533E-05, 918.1512    , 31.9074936  , 824.003235  , 0.34        , 3           , 255         , 0           , 0
-0.168944627, -0.06926249 , 9.80908     , -9.953845E-05, 6.338605E-05, 0.000253443373, 3.13298178  , -0.0172572955, -1.55554389E-05, 918.1512    , 31.9074936  , 824.0033    , 0.35        , 3           , 255         , 0           , 0
-0.169045657, -0.07535518 , 9.789688    , -0.000275549159, 0.0003412745, 0.000370388967, 3.13297915  , -0.01726074 , -1.92302668E-05, 918.1512    , 31.9074936  , 824.003357  , 0.36        , 3           , 255         , 0           , 0
-0.167680219, -0.068746604, 9.794289    , -0.0003163919, -0.000150804, -9.725585E-05, 3.132976    , -0.0172592234, -1.827062E-05, 918.1512    , 31.9074936  , 824.0034    , 0.37        , 3           , 255         , 0           , 0
-0.160615131, -0.07699131 , 9.793547    , -0.000311662123, -0.000321967062, -0.0003544706, 3.132973    , -0.0172559731, -1.47533628E-05, 918.1512    , 31.9074936  , 824.0035    , 0.38        , 3           , 255         , 0           , 0
-0.1632216  , -0.09017976 , 9.797112    , 0.0001662661, -0.000367182831, 8.591758E-05, 3.13297462  , -0.0172523074, -1.56442547E-05, 918.1512    , 31.9074936  , 824.00354   , 0.39        , 3           , 255         , 0           , 0
-0.169719934, -0.0868661851, 9.800685    , -0.000404549734, -3.299222E-05, 0.000130143642, 3.13297057  , -0.0172519889, -1.69486411E-05, 918.1512    , 31.9074936  , 824.0036    , 0.4         , 3           , 255         , 0           , 0
-0.162103489, -0.08522272 , 9.791583    , -0.0006601985, -0.0003086609, 0.000216289976, 3.13297987  , -0.01724154 , -1.94137156E-05, 918.1512    , 31.9074936  , 823.923035  , 0.41        , 3           , 255         , 0           , 0
-0.169152156, -0.0914132  , 9.78895     , -0.0006657576, -1.18080643E-05, 0.000403333775, 3.13297319  , -0.0172414556, -2.34484178E-05, 918.1512    , 31.9074936  , 823.9231    , 0.42        , 3           , 255         , 0           , 0
-0.167477757, -0.08507439 , 9.798174    , -0.000144478341, -0.000103604194, 9.115251E-05, 3.13297176  , -0.0172404274, -2.43689483E-05, 918.140747  , 31.9197044  , 823.923157  , 0.43        , 3           , 255         , 0           , 0
-0.168961838, -0.08703184 , 9.791503    , -0.000306814123, -0.000389744062, 0.000157277624, 3.132969    , -0.017236542, -2.59754761E-05, 918.140747  , 31.9197044  , 823.9232    , 0.44        , 3           , 255         , 0           , 0
-0.161155313, -0.09200392 , 9.790489    , 0.000223834737, -6.605615E-05, -7.7873985E-05, 3.132971    , -0.0172358751, -2.52023638E-05, 918.140747  , 31.9197044  , 823.9233    , 0.45        , 3           , 255         , 0           , 0
-0.170527026, -0.09375358 , 9.796324    , 0.000316360762, 3.578025E-07, 0.00053870416, 3.13297439  , -0.0172359254, -3.05898466E-05, 918.140747  , 31.9197044  , 823.9234    , 0.46        , 3           , 255         , 0           , 0
-0.166839764, -0.0909158438, 9.792067    , 4.687879E-05, -0.000415071961, 0.000232994877, 3.13297486  , -0.0172317941, -3.29557733E-05, 918.140747  , 31.9197044  , 823.9235    , 0.47        , 3           , 255         , 0           , 0
-0.164066046, -0.09063555 , 9.801313    , 0.000424512633, 1.0123651E-05, -0.00011844081, 3.13297915  , -0.0172318853, -3.17703925E-05, 918.140747  , 31.9197044  , 823.923645  , 0.48        , 3           , 255         , 0           , 0
-0.164124548, -0.0903731361, 9.800253    , -0.000210744241, 5.26009535E-05, -0.000309781462, 3.132977    , -0.0172323845, -2.866777E-05, 918.140747  , 31.9197044  , 823.923767  , 0.49        , 3           , 255         , 0           , 0
-0.176536486, -0.08600363 , 9.802934    , -0.0002195854, 3.24010034E-05, -9.311885E-05, 3.13297462  , -0.0172327012, -2.773369E-05, 918.140747  , 31.9197044  , 823.9239    , 0.5         , 3           , 255         , 0           , 0
-0.169577032, -0.09061174 , 9.80521     , -0.000185898069, 0.000513548031, -0.000370932743, 3.132958    , -0.0172323752, -2.3726112E-05, 918.140747  , 31.9197044  , 823.894653  , 0.51        , 3           , 255         , 0           , 0
-0.172539636, -0.093692705, 9.801791    , -0.000256968633, -3.18998646E-05, -2.51999E-05, 3.13295555  , -0.0172320548, -2.34768449E-05, 918.140747  , 31.9197044  , 823.8948    , 0.52        , 3           , 255         , 0           , 0
-0.173568934, -0.0836779  , 9.78565     , -0.0003341617, -0.000102612074, 8.609174E-05, 3.13295221  , -0.017231036, -2.43467057E-05, 918.1647    , 31.9275074  , 823.8949    , 0.53        , 3           , 255         , 0           , 0
-0.174938425, -0.0874696  , 9.80248     , 0.000181772179, -0.000128288841, 0.00023190098, 3.132954    , -0.017229775, -2.66769948E-05, 918.1647    , 31.9275074  , 823.895     , 0.54        , 3           , 255         , 0           , 0
-0.171501487, -0.080146715, 9.795481    , 3.758812E-05, 0.000304152665, -3.98992779E-05, 3.13295436  , -0.0172328111, -2.625169E-05, 918.1647    , 31.9275074  , 823.895142  , 0.55        , 3           , 255         , 0           , 0
-0.169568092, -0.07297566 , 9.789305    , 6.286209E-05, 0.000234856736, 0.00018957007, 3.132955    , -0.0172351766, -2.81272733E-05, 918.1647    , 31.9275074  , 823.895264  , 0.56        , 3           , 255         , 0           , 0
-0.168835521, -0.07902024 , 9.791352    , -3.14306817E-06, 0.000229377561, -0.000375457224, 3.13295484  , -0.017237436, -2.435256E-05, 918.1647    , 31.9275074  , 823.8954    , 0.57        , 3           , 255         , 0           , 0
-0.162024543, -0.08022843 , 9.794306    , 0.0005091355, 0.000167652732, -5.575172E-05, 3.13296     , -0.0172391087, -2.37805125E-05, 918.1647    , 31.9275074  , 823.8955    , 0.58        , 3           , 255         , 0           , 0
-0.167096168, -0.0861999243, 9.794436    , 0.0001266143, -0.000201189279, -2.33226456E-06, 3.13296127  , -0.0172370952, -2.37745535E-05, 918.1647    , 31.9275074  , 823.8956    , 0.59        , 3           , 255         , 0           , 0
-0.17106925 , -0.08137412 , 9.804712    , 0.000181212468, -0.000374670984, -0.0002771715, 3.132963    , -0.0172333289, -2.10349317E-05, 918.1647    , 31.9275074  , 823.895752  , 0.6         , 3           , 255         , 0           , 0
-0.1678173  , -0.07248884 , 9.805875    , -0.000368791545, -2.01213115E-05, 0.000108447479, 3.13296247  , -0.0172366146, -2.217396E-05, 918.1647    , 31.9275074  , 823.8381    , 0.61        , 3           , 255         , 0           , 0
-0.160701126, -0.06846891 , 9.797838    , 0.000114002949, 0.000109671746, -0.0002837427, 3.13296342  , -0.0172376856, -1.93268243E-05, 918.1647    , 31.9275074  , 823.8382    , 0.62        , 3           , 255         , 0           , 0
-0.161832929, -0.0784892  , 9.789403    , 0.00025509455, -0.000139409822, -0.000270040327, 3.132966    , -0.0172362681, -1.66382215E-05, 918.131     , 31.9318485  , 823.8383    , 0.63        , 3           , 255         , 0           , 0
-0.169879586, -0.07665618 , 9.798012    , 0.000110690118, 0.000327471527, -0.0001541517, 3.132967    , -0.0172395278, -1.50683245E-05, 918.131     , 31.9318485  , 823.83844   , 0.64        , 3           , 255         , 0           , 0
-0.167386979, -0.08094758 , 9.798015    , 0.000296408922, 1.81547657E-05, -0.0001528434, 3.13297     , -0.0172396954, -1.35381961E-05, 918.131     , 31.9318485  , 823.838562  , 0.65        , 3           , 255         , 0           , 0
-0.1686778  , -0.0883181244, 9.793394    , 0.000184580756, -0.0004168536, 0.000119822551, 3.132972    , -0.017235538, -1.47724686E-05, 918.131     , 31.9318485  , 823.8387    , 0.66        , 3           , 255         , 0           , 0
-0.1808953  , -0.09168788 , 9.79066849  , -6.201296E-05, -7.410537E-05, 0.0006708203, 3.13297153  , -0.0172348563, -2.14876327E-05, 918.131     , 31.9318485  , 823.8388    , 0.67        , 3           , 255         , 0           , 0
-0.17161952 , -0.08996775 , 9.798676    , 7.26027356E-05, -5.75794256E-05, -0.000203017349, 3.132972    , -0.0172342621, -1.946225E-05, 918.131     , 31.9318485  , 823.8389    , 0.68        , 3           , 255         , 0           , 0
-0.1656312  , -0.104683205, 9.789824    , 0.0002454305, 0.000213899344, -0.0003031299, 3.13297439  , -0.0172363743, -1.64122466E-05, 918.131     , 31.9318485  , 823.83905   , 0.69        , 3           , 255         , 0           , 0
-0.178845108, -0.102002963, 9.791125    , 0.0002107037, 0.00015650448, 0.000120245677, 3.13297653  , -0.0172379483, -1.76013236E-05, 918.131     , 31.9318485  , 823.8392    , 0.7         , 3           , 255         , 0           , 0
-0.17392008 , -0.09397099 , 9.792208    , -0.000218155823, 0.000184997509, 0.000277679064, 3.13297176  , -0.0172411054, -2.03172385E-05, 918.131     , 31.9318485  , 823.84375   , 0.71        , 3           , 255         , 0           , 0
-0.164463654, -0.096817   , 9.797305    , -0.000147472514, -0.0004754824, 0.000695192837, 3.13297057  , -0.01723641 , -2.73107617E-05, 918.131     , 31.9318485  , 823.8439    , 0.72        , 3           , 255         , 0           , 0
-0.173967749, -0.08901958 , 9.788817    , -0.000245173083, -0.0004944423, 0.000132532208, 3.13296819  , -0.0172314774, -2.8678829E-05, 918.1894    , 31.9378872  , 823.844     , 0.73        , 3           , 255         , 0           , 0
-0.168752909, -0.08800166 , 9.793136    , -7.407542E-05, -0.000153282221, 0.0005278868, 3.13296747  , -0.0172299929, -3.397138E-05, 918.1894    , 31.9378872  , 823.8441    , 0.74        , 3           , 255         , 0           , 0
-0.164595172, -0.0756898448, 9.800398    , 0.000114134848, -0.000227858458, 0.0006353695, 3.13296866  , -0.0172277689, -4.034527E-05, 918.1894    , 31.9378872  , 823.844238  , 0.75        , 3           , 255         , 0           , 0
-0.161245748, -0.08304774 , 9.800578    , -0.000109362794, 0.000261868117, 0.0008269046, 3.13296771  , -0.0172304586, -4.85924356E-05, 918.1894    , 31.9378872  , 823.84436   , 0.76        , 3           , 255         , 0           , 0
-0.164025888, -0.0912141  , 9.802426    , 0.0005862373, -0.000234518113, -0.000302687637, 3.13297343  , -0.0172280874, -4.55855043E-05, 918.1894    , 31.9378872  , 823.8445    , 0.77        , 3           , 255         , 0           , 0
-0.168841049, -0.08460564 , 9.79567     , 0.0007282536, -0.0007862756, -0.000452019216, 3.13298082  , -0.0172201861, -4.11327E-05, 918.1894    , 31.9378872  , 823.8446    , 0.78        , 3           , 255         , 0           , 0
-0.170334518, -0.0787460357, 9.801614    , 0.000620283652, -6.238668E-06, 0.000209261634, 3.132987    , -0.0172201432, -4.322603E-05, 918.1894    , 31.9378872  , 823.8447    , 0.79        , 3           , 255         , 0           , 0
-0.169882625, -0.0727516562, 9.797462    , -0.000119181874, 0.000488915539, -0.0004653058, 3.13298583  , -0.017224988, -3.8530492E-05, 918.1894    , 31.9378872  , 823.844849  , 0.8         , 3           , 255         , 0           , 0
-0.164272338, -0.08240817 , 9.786949    , -0.0002665415, 0.000367382949, -0.0002456426, 3.13298082  , -0.017226547, -3.6002446E-05, 918.1894    , 31.9378872  , 823.7754    , 0.81        , 3           , 255         , 0           , 0
-0.151373833, -0.07252361 , 9.803122    , 0.0004755493, -0.000140833756, -0.0001660491, 3.13298535  , -0.0172251239, -3.435394E-05, 918.1894    , 31.9378872  , 823.775452  , 0.82        , 3           , 255         , 0           , 0
-0.156973884, -0.07499558 , 9.800621    , -7.919886E-05, -0.000210887665, -0.000121573816, 3.13298464  , -0.0172230043, -3.315624E-05, 918.1203    , 31.9426346  , 823.7755    , 0.83        , 3           , 255         , 0           , 0
-0.167976171, -0.0833127  , 9.799888    , 1.806661E-05, 0.000120060911, 0.000567235344, 3.13298488  , -0.0172242541, -3.88187364E-05, 918.1203    , 31.9426346  , 823.7756    , 0.84        , 3           , 255         , 0           , 0
-0.171001241, -0.0832849741, 9.794284    , -5.003996E-06, -0.0002704026, -5.084594E-05, 3.13298488  , -0.0172215458, -3.83335027E-05, 918.1203    , 31.9426346  , 823.775635  , 0.85        , 3           , 255         , 0           , 0
-0.168380246, -0.0849709  , 9.801559    , -0.000224803109, 0.000507056946, 0.0005051497, 3.13298273  , -0.01722666 , -4.33417736E-05, 918.1203    , 31.9426346  , 823.7757    , 0.86        , 3           , 255         , 0           , 0
-0.167425215, -0.08713402 , 9.796516    , 4.76811547E-05, 0.000476298068, 0.00050951005, 3.13298321  , -0.0172314681, -4.8396294E-05, 918.1203    , 31.9426346  , 823.775757  , 0.87        , 3           , 255         , 0           , 0
-0.1705288  , -0.07922206 , 9.79812     , -0.0006095144, 0.000346875458, -3.6810372E-05, 3.13297725  , -0.01723493 , -4.79983173E-05, 918.1203    , 31.9426346  , 823.7758    , 0.88        , 3           , 255         , 0           , 0
-0.157278374, -0.06889535 , 9.798813    , -0.000167884049, -8.984082E-05, -0.000103812985, 3.13297534  , -0.0172340218, -4.69678271E-05, 918.1203    , 31.9426346  , 823.7759    , 0.89        , 3           , 255         , 0           , 0
-0.158859968, -0.07448815 , 9.79719     , -0.000304059533, 0.000478876347, 3.67416942E-05, 3.13297248  , -0.0172388144, -4.729399E-05, 918.1203    , 31.9426346  , 823.776     , 0.9         , 3           , 255         , 0           , 0
-0.1652161  , -0.0758697242, 9.797314    , 0.000259220455, -0.000249989738, 0.000177845417, 3.13298774  , -0.017223211, -4.931416E-05, 918.1203    , 31.9426346  , 823.8005    , 0.91        , 3           , 255         , 0           , 0
-0.170052648, -0.089602   , 9.793432    , -0.0003492284, -6.218761E-05, -0.000298007624, 3.13298416  , -0.0172225628, -4.63391625E-05, 918.1203    , 31.9426346  , 823.8006    , 0.92        , 3           , 255         , 0           , 0
-0.165490657, -0.0894957557, 9.789148    , -0.000102610938, 0.0002704211, -0.000229502926, 3.13298321  , -0.0172252469, -4.40206531E-05, 918.153931  , 31.94216    , 823.8007    , 0.93        , 3           , 255         , 0           , 0
-0.167911008, -0.08551579 , 9.795777    , -3.214809E-07, -0.000120030192, -3.023674E-05, 3.13298321  , -0.0172240436, -4.37285962E-05, 918.153931  , 31.94216    , 823.800842  , 0.94        , 3           , 255         , 0           , 0
-0.175599   , -0.08693876 , 9.806051    , 0.0002080943, 0.000336281548, -0.000183531592, 3.13298535  , -0.01722739 , -4.186418E-05, 918.153931  , 31.94216    , 823.800964  , 0.95        , 3           , 255         , 0           , 0
-0.166475534, -0.08696995 , 9.789696    , -0.000363027619, 0.000220881542, -0.0003557428, 3.13298154  , -0.01722957 , -3.82874132E-05, 918.153931  , 31.94216    , 823.8011    , 0.96        , 3           , 255         , 0           , 0
-0.169308409, -0.0925030857, 9.785696    , -0.0008751849, -0.000104087841, 0.0002283998, 3.13297272  , -0.01722855 , -4.058058E-05, 918.153931  , 31.94216    , 823.8012    , 0.97        , 3           , 255         , 0           , 0
-0.166216925, -0.08756033 , 9.796475    , -0.000523712137, 5.38157765E-05, 0.000393859518, 3.13296771  , -0.01722912 , -4.451488E-05, 918.153931  , 31.94216    , 823.801331  , 0.98        , 3           , 255         , 0           , 0
-0.163341433, -0.08201585 , 9.79516     , 0.000419838645, 0.000291930482, 0.000651253562, 3.132972    , -0.0172320921, -5.10027967E-05, 918.153931  , 31.94216    , 823.801453  , 0.99        , 3           , 255         , 0           , 0
-0.172875375, -0.086578235, 9.795027    , 0.0005630425, -9.744114E-05, 0.0003070467, 3.13297772  , -0.017231144, -5.40819237E-05, 918.153931  , 31.94216    , 823.8016    , 1           , 3           , 0           , 6.577236    , 100
-0.168458924, -0.0884975344, 9.799191    , 0.000421264558, -0.000208584446, 0.000414863927, 3.13297629  , -0.0172276851, -5.81507848E-05, 918.153931  , 31.94216    , 823.784851  , 1.01        , 3           , 1           , 0           , 0
-0.172213256, -0.08341031 , 9.800252    , 0.0003316982, 0.000225944576, -8.71322845E-05, 3.13297963  , -0.017229937, -5.72599238E-05, 918.153931  , 31.94216    , 823.785     , 1.02        , 3           , 2           , 0           , 0
-0.166048631, -0.08146404 , 9.805462    , -0.000162548327, -0.0005164064, 0.0002928758, 3.132978    , -0.0172248  , -6.02333967E-05, 918.0865    , 31.9447384  , 823.7851    , 1.03        , 3           , 3           , 0           , 0
-0.174276069, -0.08278084 , 9.800537    , -0.000312793, 0.000114648021, 0.0006899842, 3.13297486  , -0.0172260012, -6.712397E-05, 918.0865    , 31.9447384  , 823.7852    , 1.04        , 3           , 4           , 0           , 0
-0.173665971, -0.08684913 , 9.790958    , -0.000496572757, -2.97742954E-05, 0.0004300702, 3.13297     , -0.01722574 , -7.14276E-05, 918.0865    , 31.9447384  , 823.785339  , 1.05        , 3           , 5           , 0           , 0
-0.157962382, -0.08346891 , 9.790275    , 0.00015700412, 1.37925672E-05, -0.000250487064, 3.13297153  , -0.017225856, -6.89213339E-05, 918.0865    , 31.9447384  , 823.785461  , 1.06        , 3           , 6           , 0           , 0
-0.164172441, -0.0823583156, 9.789774    , 0.0006197221, -0.0003213576, 0.000385862484, 3.132978    , -0.0172226764, -7.2808E-05 , 918.0865    , 31.9447384  , 823.7856    , 1.07        , 3           , 7           , 0           , 0
-0.170605376, -0.0790715739, 9.797247    , 0.0003146191, -0.0002761668, 0.0002556473, 3.132981    , -0.0172199365, -7.538846E-05, 918.0865    , 31.9447384  , 823.7857    , 1.08        , 3           , 8           , 5           , 5
-0.167483017, -0.07783945 , 9.804823    , -0.0002635917, -0.000385436375, 0.0003018743, 3.13297844  , -0.0172161087, -7.84406657E-05, 918.0865    , 31.9447384  , 823.7858    , 1.09        , 3           , 9           , 5           , 0.1
-0.1676179  , -0.0861967057, 9.801443    , -0.00012240978, -0.000462423341, 0.0003877399, 3.13297725  , -0.017211521, -8.235825E-05, 918.0865    , 31.9447384  , 823.78595   , 1.1         , 3           , 10          , 0.1         , 0.1
-0.183628365, -0.100457288, 9.796418    , 0.000515601365, -0.000312217133, -0.000156858849, 3.13298535  , -0.0172071252, -8.086639E-05, 918.0865    , 31.9447384  , 823.842834  , 1.11        , 3           , 11          , 0.009535698 , 0.009535698
-0.178661853, -0.0963520557, 9.791043    , 0.0004332259, 0.000268471253, 0.000600273837, 3.13299     , -0.0172098614, -8.684655E-05, 918.0865    , 31.9447384  , 823.84314   , 1.12        , 3           , 12          , 0.174642846 , 0
-0.166398853, -0.08459358 , 9.791056    , -0.0005632051, -0.000266152463, -0.000434961083, 3.13298416  , -0.0172071625, -8.251948E-05, 918.088745  , 31.9450779  , 823.843445  , 1.13        , 3           , 13          , 0           , 0
-0.164938748, -0.08621758 , 9.794932    , 0.000344855856, -0.000740722753, -0.00113260373, 3.13298726  , -0.01719966 , -7.12562251E-05, 918.088745  , 31.9450779  , 823.84375   , 1.14        , 3           , 14          , -0.0003170335, -0.000349090056
-0.164517432, -0.0837963745, 9.792837    , 6.019592E-05, -0.00012491885, 0.000218569 , 3.132988    , -0.0171984266, -7.345284E-05, 918.088745  , 31.9450779  , 823.844055  , 1.15        , 3           , 15          , 0           , -7.090226E-05
-0.159873471, -0.08750303 , 9.798503    , 9.062816E-06, 0.000418629555, -0.000154553476, 3.132988    , -0.0172026  , -7.187114E-05, 918.088745  , 31.9450779  , 823.84436   , 1.16        , 3           , 16          , 0           , 1.401298E-45
-0.158993453, -0.07665927 , 9.795439    , -0.0001971107, 4.80095041E-05, 0.0002084482, 3.132986    , -0.0172030982, -7.395168E-05, 918.088745  , 31.9450779  , 823.844666  , 1.17        , 3           , 20          , 0           , 0
-0.167564   , -0.0836149454, 9.793608    , -9.262923E-05, -0.0002722701, 0.0008282218, 3.13298535  , -0.0172004439, -8.22580259E-05, 918.088745  , 31.9450779  , 823.845     , 1.18        , 3           , 21          , 0           , 0
-0.166707233, -0.08103038 , 9.802287    , 4.90091334E-05, -0.000179061113, 0.000429351581, 3.13298583  , -0.0171986911, -8.656733E-05, 918.088745  , 31.9450779  , 823.8453    , 1.19        , 3           , 22          , 0           , 0
-0.162855789, -0.07778105 , 9.79684     , 3.18095845E-05, 0.00019477465, 0.000439620257, 3.13298631  , -0.0172006767, -9.094714E-05, 918.088745  , 31.9450779  , 823.8456    , 1.2         , 3           , 40          , 0           , 0
-0.174986392, -0.07421243 , 9.800408    , 0.0004614385, 0.000295121863, 0.000384765968, 3.132987    , -0.0172008816, -9.470267E-05, 918.088745  , 31.9450779  , 823.8924    , 1.21        , 3           , 41          , 0           , 0
-0.177269861, -0.08750464 , 9.791727    , 0.000147909 , 0.0004162733, 0.000188448146, 3.13298845  , -0.0172050614, -9.65515E-05, 918.088745  , 31.9450779  , 823.8928    , 1.22        , 3           , 42          , 0           , 0
-0.170600608, -0.09026375 , 9.789717    , -9.35947755E-05, -0.000127062347, 0.0004758113, 3.13298774  , -0.017203832, -0.00010132094, 918.128845  , 31.9492836  , 823.89325   , 1.23        , 3           , 255         , 0           , 0
-0.169778675, -0.09303499 , 9.79088     , -6.255461E-06, -0.0002815278, 0.000850957353, 3.13298774  , -0.0172010884, -0.000109855479, 918.128845  , 31.9492836  , 823.8937    , 1.24        , 3           , 255         , 0           , 0
-0.170401961, -0.0924670547, 9.794506    , 3.903173E-05, -0.0001799888, -0.000269248849, 3.13298821  , -0.0171992648, -0.000107178232, 918.128845  , 31.9492836  , 823.8941    , 1.25        , 3           , 255         , 0           , 0
-0.160720155, -0.100724339, 9.792067    , -1.91784056E-05, -0.0002664121, -0.000552679063, 3.13298774  , -0.0171965547, -0.00010167389, 918.128845  , 31.9492836  , 823.894531  , 1.26        , 3           , 255         , 0           , 0
-0.1644827  , -0.10083    , 9.796425    , 0.000599773659, 2.53429171E-05, 0.000231561542, 3.132994    , -0.0171968285, -0.000103987506, 918.128845  , 31.9492836  , 823.894958  , 1.27        , 3           , 255         , 0           , 0
-0.179519951, -0.0929102451, 9.797927    , 0.0006378383, -0.000252060185, 0.000132335976, 3.13300037  , -0.0171943214, -0.000105332641, 918.128845  , 31.9492836  , 823.8954    , 1.28        , 3           , 255         , 0           , 0
-0.172276258, -0.0906716958, 9.788531    , 1.01683836E-05, 0.0004759711, 0.000300494954, 3.13300037  , -0.0171991028, -0.000108296968, 918.128845  , 31.9492836  , 823.8958    , 1.29        , 3           , 255         , 0           , 0
-0.171963364, -0.0945309  , 9.794134    , 0.000372786162, 9.34642158E-05, 0.0005820489, 3.13300419  , -0.0172000863, -0.000114109913, 918.128845  , 31.9492836  , 823.89624   , 1.3         , 3           , 255         , 0           , 0
-0.171498254, -0.0794780254, 9.804439    , 0.000472473737, 3.87799228E-05, 0.0002949557, 3.13298845  , -0.0172080416, -0.000116702016, 918.128845  , 31.9492836  , 823.896362  , 1.31        , 3           , 255         , 0           , 0
-0.161486059, -0.08503983 , 9.793255    , -0.000115501316, 0.000183005643, 0.0004813497, 3.1329875   , -0.0172099117, -0.000121500176, 918.128845  , 31.9492836  , 823.896851  , 1.32        , 3           , 255         , 0           , 0
-0.167393729, -0.0784333944, 9.795717    , -0.0006991185, 0.0004991045, 0.0005683237, 3.13298059  , -0.0172149464, -0.000127140956, 918.1174    , 31.9501667  , 823.897339  , 1.33        , 3           , 255         , 0           , 0
-0.167831212, -0.0846471339, 9.79814     , -0.000458022783, 0.000227355675, 0.000181353535, 3.132976    , -0.0172172375, -0.000128935062, 918.1174    , 31.9501667  , 823.8978    , 1.34        , 3           , 255         , 0           , 0
-0.168269068, -0.0852146149, 9.793846    , -0.000471279171, -1.74163724E-05, 0.000463430275, 3.13297129  , -0.0172171034, -0.000133571288, 918.1174    , 31.9501667  , 823.8983    , 1.35        , 3           , 255         , 0           , 0
-0.167571872, -0.07697235 , 9.799103    , 0.000412597525, 5.27522352E-05, -0.000163485354, 3.13297534  , -0.0172176175, -0.000131931738, 918.1174    , 31.9501667  , 823.8988    , 1.36        , 3           , 255         , 0           , 0
-0.172027439, -0.0781331956, 9.801136    , -0.000174701825, 0.000364697218, 0.0003275476, 3.13297367  , -0.01722129 , -0.000135176058, 918.1174    , 31.9501667  , 823.8993    , 1.37        , 3           , 255         , 0           , 0
-0.162049085, -0.0758197457, 9.792661    , -0.000289397925, 0.000120438941, -0.000269236247, 3.13297081  , -0.0172224715, -0.000132473069, 918.1174    , 31.9501667  , 823.8998    , 1.38        , 3           , 255         , 0           , 0
-0.1648484  , -0.08528624 , 9.794043    , -0.00054374116, 0.000348421134, 0.000211408624, 3.13296533  , -0.0172259752, -0.000134557282, 918.1174    , 31.9501667  , 823.900269  , 1.39        , 3           , 255         , 0           , 0
-0.175037771, -0.0892664939, 9.799578    , -0.0003565549, 0.000454441 , 0.00018259199, 3.13296175  , -0.0172305349, -0.000136344155, 918.1174    , 31.9501667  , 823.900757  , 1.4         , 3           , 255         , 0           , 0
-0.173400074, -0.08663082 , 9.793299    , 0.0001030953, 0.000182633288, -0.000394936, 3.13296866  , -0.0172303356, -0.000132478512, 918.1174    , 31.9501667  , 823.912231  , 1.41        , 3           , 255         , 0           , 0
-0.160743877, -0.08350922 , 9.808027    , 0.0002524422, -4.113739E-06, -0.000588492956, 3.132971    , -0.0172302425, -0.000126593426, 918.1174    , 31.9501667  , 823.9128    , 1.42        , 3           , 255         , 0           , 0
-0.168569535, -0.08114055 , 9.800841    , 0.000365589018, 0.0003742071, -0.000815528852, 3.13297462  , -0.0172339138, -0.000118405194, 918.2071    , 31.9501667  , 823.9133    , 1.43        , 3           , 255         , 0           , 0
-0.177275255, -0.0783929452, 9.79864     , 0.00053438195, -0.0003674736, 7.262832E-05, 3.13297987  , -0.0172302444, -0.000119163218, 918.2071    , 31.9501667  , 823.9139    , 1.44        , 3           , 255         , 0           , 0
-0.175489023, -0.08857499 , 9.79761     , 0.00015466765, -6.922905E-05, 0.0006828824, 3.13298154  , -0.0172296111, -0.000125998587, 918.2071    , 31.9501667  , 823.9144    , 1.45        , 3           , 255         , 0           , 0
-0.169781446, -0.0829010457, 9.806564    , 4.4417975E-06, -0.000741146039, 0.000111566587, 3.13298154  , -0.0172222052, -0.0001271782, 918.2071    , 31.9501667  , 823.915     , 1.46        , 3           , 255         , 0           , 0
-0.164640978, -0.08448704 , 9.802906    , -0.000154668582, -0.000543481554, 0.0001605018, 3.13298     , -0.0172167849, -0.000128830143, 918.2071    , 31.9501667  , 823.9155    , 1.47        , 3           , 255         , 0           , 0
-0.16935572 , -0.0795200244, 9.798896    , -0.000279244239, -0.000218577828, -4.17194969E-05, 3.13297725  , -0.0172145944, -0.000128431755, 918.2071    , 31.9501667  , 823.9161    , 1.48        , 3           , 255         , 0           , 0
-0.1721904  , -0.0866655558, 9.801415    , -0.000241419213, 0.000238008026, -0.0003166292, 3.13297486  , -0.0172169469, -0.000125244667, 918.2071    , 31.9501667  , 823.9166    , 1.49        , 3           , 255         , 0           , 0
-0.171440929, -0.08912261 , 9.803397    , 0.000336397439, -0.000104977953, -0.000380780024, 3.1329782   , -0.0172158647, -0.000121445592, 918.2071    , 31.9501667  , 823.9172    , 1.5         , 3           , 255         , 0           , 0
-0.167009234, -0.08416681 , 9.799884    , -0.0004439661, -0.000487457582, 0.000246946671, 3.13297439  , -0.0172135  , -0.0001239669, 918.2071    , 31.9501667  , 823.832642  , 1.51        , 3           , 255         , 0           , 0
-0.170250669, -0.092002064, 9.80316448  , 0.0005677064, -3.54318181E-05, -0.000150256921, 3.13297987  , -0.01721314 , -0.00012246726, 918.2071    , 31.9501667  , 823.8328    , 1.52        , 3           , 255         , 0           , 0
-0.176894039, -0.08806778 , 9.785742    , 0.000135175083, -0.000378343364, -0.0003649628, 3.1329813   , -0.0172093213, -0.000118849894, 918.1382    , 31.952879   , 823.833     , 1.53        , 3           , 255         , 0           , 0
-0.166784555, -0.08515535 , 9.792839    , -8.315401E-06, -2.48181168E-05, -0.0001425869, 3.132981    , -0.01720906 , -0.000117426032, 918.1382    , 31.952879   , 823.8332    , 1.54        , 3           , 255         , 0           , 0
-0.163036764, -0.08473457 , 9.797625    , -0.000543472357, 0.000410588225, 0.000327404647, 3.13297582  , -0.0172131937, -0.000120665005, 918.1382    , 31.952879   , 823.8334    , 1.55        , 3           , 255         , 0           , 0
-0.166304588, -0.07740655 , 9.785311    , -0.000265429175, 8.882824E-05, 0.00014589692, 3.13297319  , -0.0172140934, -0.000122116428, 918.1382    , 31.952879   , 823.833557  , 1.56        , 3           , 255         , 0           , 0
-0.166227281, -0.08058629 , 9.785954    , -0.000302148779, -0.0002493617, -0.000752626453, 3.13296986  , -0.0172115359, -0.000114611023, 918.1382    , 31.952879   , 823.83374   , 1.57        , 3           , 255         , 0           , 0
-0.156059638, -0.0802214  , 9.793585    , -6.145419E-05, -0.00048729367, 0.000112424968, 3.13296938  , -0.0172066744, -0.000115777373, 918.1382    , 31.952879   , 823.8339    , 1.58        , 3           , 255         , 0           , 0
-0.16976212 , -0.07450328 , 9.808329    , -0.00025578108, -0.000597744365, 0.000336833473, 3.13296676  , -0.0172007252, -0.000119197568, 918.1382    , 31.952879   , 823.8341    , 1.59        , 3           , 255         , 0           , 0
-0.175779045, -0.0824103  , 9.809201    , -0.0002403731, -0.000268220057, -6.08032133E-06, 3.13296437  , -0.0171980429, -0.000119159908, 918.1382    , 31.952879   , 823.8343    , 1.6         , 3           , 255         , 0           , 0
-0.165698484, -0.08484535 , 9.796125    , 0.000226344579, 0.000134165384, 3.58853722E-05, 3.13297     , -0.0171975419, -0.000119564036, 918.1382    , 31.952879   , 823.831055  , 1.61        , 3           , 255         , 0           , 0
-0.165394008, -0.0818199441, 9.807039    , 6.466784E-05, 3.298538E-05, 0.00016949854, 3.13297081  , -0.0171978865, -0.000121256307, 918.1382    , 31.952879   , 823.831238  , 1.62        , 3           , 255         , 0           , 0
-0.167212874, -0.08344308 , 9.800351    , 0.000858389249, -0.000110073568, -0.000159419738, 3.13297915  , -0.0171967782, -0.000119671451, 918.145935  , 31.95349    , 823.8314    , 1.63        , 3           , 255         , 0           , 0
-0.169869229, -0.07449117 , 9.80258751  , -0.0001275093, -0.0002452682, -0.000423127523, 3.132978    , -0.0171942841, -0.000115460964, 918.145935  , 31.95349    , 823.8316    , 1.64        , 3           , 255         , 0           , 0
-0.1667045  , -0.0705533  , 9.805208    , -0.000184426957, 4.11982764E-05, 0.000355411932, 3.132976    , -0.0171947274, -0.000119011827, 918.145935  , 31.95349    , 823.8318    , 1.65        , 3           , 255         , 0           , 0
-0.161640346, -0.09309653 , 9.797121    , -0.000157281058, 0.000266843 , -0.0002458424, 3.13297462  , -0.0171973743, -0.000116530173, 918.145935  , 31.95349    , 823.832     , 1.66        , 3           , 255         , 0           , 0
-0.165642887, -0.09387529 , 9.79449     , 2.016587E-05, -6.917672E-05, -0.000973021844, 3.13297462  , -0.0171966013, -0.0001068051, 918.145935  , 31.95349    , 823.832153  , 1.67        , 3           , 255         , 0           , 0
-0.169725612, -0.0930460244, 9.804834    , -0.000104266626, -0.000457773422, -9.714624E-05, 3.13297343  , -0.01719201 , -0.000105873019, 918.145935  , 31.95349    , 823.832336  , 1.68        , 3           , 255         , 0           , 0
-0.1822977  , -0.09143789 , 9.794872    , 0.0003088119, -0.000427720457, -0.000212353567, 3.13297653  , -0.0171877127, -0.000103786173, 918.145935  , 31.95349    , 823.8325    , 1.69        , 3           , 255         , 0           , 0
-0.180834889, -0.08723508 , 9.785791    , 0.000549661054, 0.0002373574, 0.000435569469, 3.132982    , -0.0171901267, -0.000108121778, 918.145935  , 31.95349    , 823.8327    , 1.7         , 3           , 255         , 0           , 0
-0.16978468 , -0.08273621 , 9.790232    , 0.000191550585, 0.000295604754, 0.0004799292, 3.13298225  , -0.01719502 , -0.000112864582, 918.145935  , 31.95349    , 823.8208    , 1.71        , 3           , 255         , 0           , 0
-0.168733329, -0.08556844 , 9.793959    , 0.000233076949, -0.000139858428, -0.000145285827, 3.13298464  , -0.017193608, -0.000111423637, 918.145935  , 31.95349    , 823.8209    , 1.72        , 3           , 255         , 0           , 0
-0.166140765, -0.07539414 , 9.79178     , 0.000362636871, 0.000206611483, 0.000312191463, 3.13298821  , -0.0171957016, -0.00011452804, 918.1068    , 31.9502335  , 823.821045  , 1.73        , 3           , 255         , 0           , 0
-0.1615857  , -0.07749303 , 9.784314    , -0.000209662656, 0.000262671267, 0.000174666522, 3.13298631  , -0.0171983447, -0.000116252253, 918.1068    , 31.9502335  , 823.821167  , 1.74        , 3           , 255         , 0           , 0
-0.174401656, -0.0712117553, 9.796845    , -0.0002904035, -0.000271253666, -5.52172423E-05, 3.13298321  , -0.0171956271, -0.000115723393, 918.1068    , 31.9502335  , 823.8213    , 1.75        , 3           , 255         , 0           , 0
-0.170746535, -0.08004695 , 9.7926      , -0.000105900341, 1.6306818E-05, 5.48973549E-05, 3.13298225  , -0.0171957947, -0.000116271, 918.1068    , 31.9502335  , 823.8214    , 1.76        , 3           , 255         , 0           , 0
-0.16441381 , -0.0819500238, 9.78996     , 0.0004612598, -9.000808E-05, 0.000239821238, 3.13298678  , -0.0171949156, -0.000118677177, 918.1068    , 31.9502335  , 823.821533  , 1.77        , 3           , 255         , 0           , 0
-0.1624907  , -0.0837765038, 9.79311     , 1.53287547E-05, 4.84332268E-05, -6.584267E-05, 3.132987    , -0.0171953943, -0.000118014526, 918.1068    , 31.9502335  , 823.821655  , 1.78        , 3           , 255         , 0           , 0
-0.16177614 , -0.0838598162, 9.788892    , -0.000386894273, 0.000248828321, 0.000445979676, 3.13298321  , -0.01719792 , -0.000122453275, 918.1068    , 31.9502335  , 823.8218    , 1.79        , 3           , 255         , 0           , 0
-0.160907939, -0.08505951 , 9.794014    , -0.000240903173, 0.000196760811, 0.000347398454, 3.13298082  , -0.0171999168, -0.000125910621, 918.1068    , 31.9502335  , 823.8219    , 1.8         , 3           , 255         , 0           , 0
-0.166519135, -0.08759363 , 9.794525    , -0.0004091778, -7.657244E-05, 0.000380161742, 3.13298726  , -0.0171924625, -0.000129898617, 918.1068    , 31.9502335  , 823.8556    , 1.81        , 3           , 255         , 0           , 0
-0.172800869, -0.08741186 , 9.802475    , -9.932529E-05, -0.0001735361, 0.000286049384, 3.13298631  , -0.0171907526, -0.000132774308, 918.1068    , 31.9502335  , 823.8559    , 1.82        , 3           , 255         , 0           , 0
-0.16525726 , -0.08389311 , 9.794306    , 0.0001786114, -0.000125565013, -0.000796977431, 3.132988    , -0.01718943 , -0.000124814658, 918.1235    , 31.954237   , 823.8562    , 1.83        , 3           , 255         , 0           , 0
-0.161493525, -0.088877   , 9.79709148  , 0.000170945859, -0.000202777534, 0.000110636756, 3.13298965  , -0.017187411, -0.000125938575, 918.1235    , 31.954237   , 823.8565    , 1.84        , 3           , 255         , 0           , 0
-0.1702419  , -0.08278021 , 9.793244    , 0.0005037999, -9.45424545E-05, 0.000334051379, 3.132995    , -0.0171864927, -0.0001292875, 918.1235    , 31.954237   , 823.8568    , 1.85        , 3           , 255         , 0           , 0
-0.166454554, -0.08214106 , 9.791507    , -1.16017472E-05, -0.000170496263, -0.00102576951, 3.13299465  , -0.017184699, -0.00011904358, 918.1235    , 31.954237   , 823.8571    , 1.86        , 3           , 255         , 0           , 0
-0.173162431, -0.0783216357, 9.793111    , 0.000298270228, -8.97717255E-05, 9.594581E-05, 3.13299751  , -0.0171838086, -0.000120010831, 918.1235    , 31.954237   , 823.8574    , 1.87        , 3           , 255         , 0           , 0
-0.16948238 , -0.07434174 , 9.793669    , 0.0006405682, 9.133946E-06, 0.000336910365, 3.133004    , -0.01718393 , -0.000123379461, 918.1235    , 31.954237   , 823.8577    , 1.88        , 3           , 255         , 0           , 0
-0.166458413, -0.08774905 , 9.788969    , 0.0006851555, 0.0001592416, 0.000118553966, 3.13301086  , -0.0171855316, -0.000124551414, 918.1235    , 31.954237   , 823.858032  , 1.89        , 3           , 255         , 0           , 0
-0.169490367, -0.08473996 , 9.78863     , 0.000149353291, 4.94927226E-05, 0.000216851477, 3.13301253  , -0.0171860456, -0.0001267159, 918.1235    , 31.954237   , 823.8584    , 1.9         , 3           , 255         , 0           , 0
-0.1718159  , -0.08748768 , 9.794855    , -0.000215814769, -4.35684051E-05, -1.17858071E-05, 3.13301134  , -0.0171851  , -0.000126620187, 918.1235    , 31.954237   , 823.869263  , 1.91        , 3           , 255         , 0           , 0
-0.1719762  , -0.08487656 , 9.790606    , -0.0003596711, -0.000256647385, 0.0008824027, 3.133008    , -0.0171826091, -0.000135467009, 918.1235    , 31.954237   , 823.8697    , 1.92        , 3           , 255         , 0           , 0
-0.172678426, -0.0795269758, 9.800726    , 0.000150828375, -0.0001961056, 0.0007524724, 3.13300943  , -0.01718071 , -0.000143009223, 918.157959  , 31.9541683  , 823.8701    , 1.93        , 3           , 255         , 0           , 0
-0.1612651  , -0.0823596343, 9.800394    , 0.000272312172, 0.000189584272, 0.0003392151, 3.13301229  , -0.0171826351, -0.000146385384, 918.157959  , 31.9541683  , 823.870544  , 1.94        , 3           , 255         , 0           , 0
-0.166630417, -0.08638619 , 9.794825    , -0.000280823, 6.43605E-05 , -0.00109204522, 3.1330092   , -0.0171831865, -0.0001354585, 918.157959  , 31.9541683  , 823.871     , 1.95        , 3           , 255         , 0           , 0
-0.171574235, -0.0932846144, 9.793856    , -0.000152868015, -0.000360655627, -0.0004999028, 3.13300776  , -0.0171795357, -0.000130489992, 918.157959  , 31.9541683  , 823.8714    , 1.96        , 3           , 255         , 0           , 0
-0.1697671  , -0.0964425951, 9.802504    , -0.0003475001, -0.000230136473, 0.000121727062, 3.13300419  , -0.0171772428, -0.000131727138, 918.157959  , 31.9541683  , 823.8718    , 1.97        , 3           , 255         , 0           , 0
-0.165253073, -0.08501156 , 9.795809    , -0.000290743337, -8.12159E-05, 0.0007753019, 3.13300157  , -0.0171764977, -0.000139487776, 918.157959  , 31.9541683  , 823.872253  , 1.98        , 3           , 255         , 0           , 0
-0.176695287, -0.07035285 , 9.794028    , 0.000126136947, 0.000234839827, 0.0005970719, 3.13300276  , -0.0171789  , -0.000145438811, 918.157959  , 31.9541683  , 823.8727    , 1.99        , 3           , 255         , 0           , 0
-0.174534053, -0.07015082 , 9.796105    , 5.539047E-05, -0.000152827677, -0.000533932645, 3.13300323  , -0.0171773247, -0.00014011217, 918.157959  , 31.9541683  , 823.8731    , 2           , 3           , 0           , 7.577236    , 200
-0.1665435  , -0.0731330141, 9.794685    , 0.0001558496, -0.000266482064, 0.000163306569, 3.13300586  , -0.0171784535, -0.000141785291, 918.157959  , 31.9541683  , 823.8408    , 2.01        , 3           , 1           , 0           , 0
-0.169853047, -0.07770352 , 9.801058    , 0.000286875758, 0.000130747 , 0.0005136591, 3.13300872  , -0.0171798039, -0.0001469111, 918.157959  , 31.9541683  , 823.841064  , 2.02        , 3           , 2           , 0           , 0
-0.167574361, -0.08675959 , 9.803931    , 0.0007473624, 0.000611333642, -3.69253321E-05, 3.13301635  , -0.0171859134, -0.000146489358, 918.1585    , 31.9527435  , 823.8413    , 2.03        , 3           , 3           , 0           , 0
-0.158658668, -0.09159789 , 9.792935    , -2.21070077E-05, -6.10062853E-05, -0.0005109367, 3.13301587  , -0.0171852559, -0.0001413848, 918.1585    , 31.9527435  , 823.841553  , 2.04        , 3           , 4           , 0           , 0
-0.158463985, -0.08040382 , 9.790915    , -0.000389732566, -0.000312098127, -0.000346764, 3.133012    , -0.0171821062, -0.000137943643, 918.1585    , 31.9527435  , 823.8418    , 2.05        , 3           , 5           , 0           , 0
-0.176911026, -0.08332856 , 9.79474449  , -0.000154422625, 0.000188094884, -6.905865E-05, 3.13301039  , -0.01718398 , -0.000137236857, 918.1585    , 31.9527435  , 823.842041  , 2.06        , 3           , 6           , 0           , 0
-0.17140168 , -0.0822733  , 9.790369    , -0.0003400223, 2.93171615E-05, -0.000121096971, 3.133007    , -0.0171842631, -0.000136023285, 918.1585    , 31.9527435  , 823.8423    , 2.07        , 3           , 7           , 0           , 0
-0.1672413  , -0.08841421 , 9.795492    , -0.000506225857, -0.00040330505, -0.000223147828, 3.133002    , -0.0171802118, -0.000133826237, 918.1585    , 31.9527435  , 823.8425    , 2.08        , 3           , 8           , 5           , 5
-0.174120992, -0.08910612 , 9.794485    , -0.000266419869, 0.000174867586, -0.000711925037, 3.13299918  , -0.0171818975, -0.000126691346, 918.1585    , 31.9527435  , 823.8428    , 2.09        , 3           , 9           , 5           , 0.1
-0.169482455, -0.09065537 , 9.79081     , 0.000443263241, 0.0003881385, -5.72619538E-05, 3.13300347  , -0.0171857737, -0.000126085331, 918.1585    , 31.9527435  , 823.843     , 2.1         , 3           , 10          , 0.1         , 0.1
-0.165241569, -0.09301366 , 9.791555    , -3.80314E-05, 2.94258934E-05, 0.000651551061, 3.13300276  , -0.01718546 , -0.000132587578, 918.1585    , 31.9527435  , 823.8128    , 2.11        , 3           , 11          , 0.008519932 , 0.008519929
-0.16958411 , -0.08410506 , 9.795952    , 0.000222185263, 0.0001510903, 1.07232772E-05, 3.133005    , -0.0171869714, -0.000132681846, 918.1585    , 31.9527435  , 823.812866  , 2.12        , 3           , 12          , 0.174643889 , 0
-0.168946   , -0.0871755257, 9.797895    , -8.663055E-05, -0.000102242891, 0.000210550439, 3.133004    , -0.0171859674, -0.000134796326, 918.15564   , 31.9576969  , 823.8129    , 2.13        , 3           , 13          , 0           , 0
-0.162676841, -0.0894992352, 9.792003    , 9.435724E-06, -0.000250083685, -0.0006159414, 3.133004    , -0.0171834137, -0.000128657834, 918.15564   , 31.9576969  , 823.813     , 2.14        , 3           , 14          , -0.0003170371, -0.000349090784
-0.1623183  , -0.08354176 , 9.787685    , -1.1627184E-05, 9.514217E-06, 0.0001713213, 3.133004    , -0.0171835236, -0.0001303704, 918.15564   , 31.9576969  , 823.813049  , 2.15        , 3           , 15          , 0           , -7.090232E-05
-0.17410329 , -0.08681995 , 9.794527    , -0.000441512966, -0.000280878623, -0.000148166931, 3.13299942  , -0.0171807017, -0.000128912725, 918.15564   , 31.9576969  , 823.8131    , 2.16        , 3           , 16          , 0           , 1.401298E-45
-0.172421932, -0.0815328  , 9.791338    , 0.000266046758, -0.000135959854, 0.0005819859, 3.13300228  , -0.0171793941, -0.0001347448, 918.15564   , 31.9576969  , 823.8132    , 2.17        , 3           , 20          , 0           , 0
-0.165443346, -0.08514059 , 9.786482    , -9.067898E-05, -7.470959E-05, 0.000241027388, 3.13300133  , -0.0171786677, -0.000137161682, 918.15564   , 31.9576969  , 823.813232  , 2.18        , 3           , 21          , 0           , 0
-0.169194192, -0.0811128542, 9.796291    , 0.0002611164, -3.398332E-05, 0.000276393 , 3.133004    , -0.0171783511, -0.000139928787, 918.15564   , 31.9576969  , 823.8133    , 2.19        , 3           , 22          , 0           , 0
-0.173151582, -0.08470411 , 9.796406    , -0.0001027422, 2.3583998E-06, 0.000129839042, 3.133003    , -0.0171783864, -0.000141227036, 918.15564   , 31.9576969  , 823.813354  , 2.2         , 3           , 40          , 0           , 0
-0.156628028, -0.0827742  , 9.796312    , 0.000257341133, -0.000224330055, -0.000328083377, 3.1330018   , -0.0171761289, -0.000137901385, 918.15564   , 31.9576969  , 823.789856  , 2.21        , 3           , 41          , 0           , 0
-0.157720417, -0.0928124  , 9.796312    , -0.000144043588, -5.51253324E-05, 4.317151E-05, 3.13300037  , -0.0171755813, -0.000138337869, 918.15564   , 31.9576969  , 823.7898    , 2.22        , 3           , 42          , 0           , 0
-0.160257339, -0.0943651944, 9.799939    , 7.75764056E-05, 0.0002810758, -0.000255459279, 3.133001    , -0.0171783715, -0.0001357589, 918.140137  , 31.9551868  , 823.789734  , 2.23        , 3           , 255         , 0           , 0
-0.165576816, -0.08563177 , 9.807626    , 6.929165E-05, 0.0007170059, -0.000189520273, 3.1330018   , -0.0171855241, -0.000133801936, 918.140137  , 31.9551868  , 823.7897    , 2.24        , 3           , 255         , 0           , 0
-0.163820162, -0.0851789  , 9.796455    , -0.0003284861, 4.2990403E-05, 3.81816826E-05, 3.13299847  , -0.0171859562, -0.0001341801, 918.140137  , 31.9551868  , 823.7896    , 2.25        , 3           , 255         , 0           , 0
-0.1668742  , -0.07826746 , 9.787837    , 0.000205989956, -0.000466421421, 0.000686026644, 3.13300061  , -0.0171813555, -0.00014108108, 918.140137  , 31.9551868  , 823.789551  , 2.26        , 3           , 255         , 0           , 0
-0.168663561, -0.07748191 , 9.79351     , -0.000117210409, -5.134777E-05, 0.0006755837, 3.13299966  , -0.0171808954, -0.000147841885, 918.140137  , 31.9551868  , 823.7895    , 2.27        , 3           , 255         , 0           , 0
-0.176549718, -0.07833965 , 9.791372    , 0.000434739632, -0.0001471701, -5.123329E-05, 3.133004    , -0.0171794221, -0.000147342173, 918.140137  , 31.9551868  , 823.7894    , 2.28        , 3           , 255         , 0           , 0
-0.173621565, -0.08228452 , 9.7946825   , 0.0004081158, -0.000174217217, -0.000136721632, 3.133008    , -0.0171776675, -0.0001459898, 918.140137  , 31.9551868  , 823.789368  , 2.29        , 3           , 255         , 0           , 0
-0.171945229, -0.08585338 , 9.795453    , 8.07077449E-05, 0.000289373245, -0.000175815745, 3.133009    , -0.0171805434, -0.000144206657, 918.140137  , 31.9551868  , 823.7893    , 2.3         , 3           , 255         , 0           , 0
-0.17080535 , -0.0855019242, 9.805485    , 0.000167499762, -0.000122599158, -0.000306823058, 3.13301015  , -0.0171749722, -0.00014114457, 918.140137  , 31.9551868  , 823.7886    , 2.31        , 3           , 255         , 0           , 0
-0.171218053, -0.08195533 , 9.789513    , 0.000346147077, 0.000232262115, -0.000176153248, 3.13301373  , -0.01717728 , -0.000139362965, 918.140137  , 31.9551868  , 823.7885    , 2.32        , 3           , 255         , 0           , 0
-0.1765045  , -0.0813194141, 9.794116    , 0.0005683472, 0.0002717941, -7.154606E-05, 3.13301921  , -0.0171799939, -0.00013862412, 918.1571    , 31.9567471  , 823.788452  , 2.33        , 3           , 255         , 0           , 0
-0.1724709  , -0.07869587 , 9.794577    , 0.0003533895, -0.000125797465, -0.0006414031, 3.13302279  , -0.0171786845, -0.000132220332, 918.1571    , 31.9567471  , 823.7884    , 2.34        , 3           , 255         , 0           , 0
-0.168721765, -0.08548807 , 9.791135    , 0.000170504762, -0.000111441506, -0.000276952516, 3.13302445  , -0.01717754 , -0.000129460124, 918.1571    , 31.9567471  , 823.7883    , 2.35        , 3           , 255         , 0           , 0
-0.175076678, -0.08978786 , 9.791253    , -0.000105814979, 0.000143616271, 0.0003436943, 3.1330235   , -0.0171790067, -0.000132885049, 918.1571    , 31.9567471  , 823.788269  , 2.36        , 3           , 255         , 0           , 0
-0.180046484, -0.09348148 , 9.795364    , 0.00019496672, -7.961699E-05, -0.000115916671, 3.13302541  , -0.0171782  , -0.00013173261, 918.1571    , 31.9567471  , 823.7882    , 2.37        , 3           , 255         , 0           , 0
-0.169772848, -0.08806042 , 9.794104    , 0.000295339647, 0.0001955232, 0.000395410869, 3.13302827  , -0.01718019 , -0.0001356703, 918.1571    , 31.9567471  , 823.788147  , 2.38        , 3           , 255         , 0           , 0
-0.168319225, -0.08089022 , 9.796865    , 0.00022662188, 0.000360143662, -0.0002789849, 3.13303065  , -0.0171837658, -0.000132849367, 918.1571    , 31.9567471  , 823.7881    , 2.39        , 3           , 255         , 0           , 0
-0.175254241, -0.07897873 , 9.804022    , 0.000107651009, 0.000257470238, 2.49871882E-05, 3.13303161  , -0.0171863437, -0.000133077221, 918.1571    , 31.9567471  , 823.788     , 2.4         , 3           , 255         , 0           , 0
-0.167817369, -0.0813357  , 9.796789    , 0.000408581429, 7.704599E-06, -0.00061383564, 3.13303471  , -0.0171951577, -0.000126921776, 918.1571    , 31.9567471  , 823.7651    , 2.41        , 3           , 255         , 0           , 0
-0.167966485, -0.08547895 , 9.795908    , 0.0001284922, -0.000219571346, -0.0001926661, 3.133036    , -0.0171929449, -0.000125013728, 918.1571    , 31.9567471  , 823.7649    , 2.42        , 3           , 255         , 0           , 0
-0.166645736, -0.08720658 , 9.796012    , 0.0004002693, -0.000128701475, -0.0006789347, 3.13304     , -0.0171916  , -0.000118234821, 918.159668  , 31.9559326  , 823.7647    , 2.43        , 3           , 255         , 0           , 0
-0.167801365, -0.07969579 , 9.803556    , 0.000328815047, -0.000141236582, -0.00037435838, 3.133043    , -0.0171901546, -0.000114502975, 918.159668  , 31.9559326  , 823.7645    , 2.44        , 3           , 255         , 0           , 0
-0.170711681, -0.0798168  , 9.80676     , 0.0004428854, 0.000459078437, 4.76150453E-05, 3.13304758  , -0.01719475 , -0.000114939932, 918.159668  , 31.9559326  , 823.764343  , 2.45        , 3           , 255         , 0           , 0
-0.178316355, -0.0866621  , 9.797139    , 0.00016763508, 0.00024383454, -0.000174776127, 3.13304925  , -0.0171971731, -0.000113171176, 918.159668  , 31.9559326  , 823.76416   , 2.46        , 3           , 255         , 0           , 0
-0.180929139, -0.0826952457, 9.801111    , -0.0002896026, -0.000148556544, -0.000183365628, 3.13304615  , -0.0171956718, -0.000111350062, 918.159668  , 31.9559326  , 823.764     , 2.47        , 3           , 255         , 0           , 0
-0.157788336, -0.08826834 , 9.792178    , 7.619336E-05, -8.063993E-05, 5.52062047E-05, 3.133047    , -0.017194869, -0.000111909074, 918.159668  , 31.9559326  , 823.7638    , 2.48        , 3           , 255         , 0           , 0
-0.157227352, -0.0901287645, 9.793215    , -0.000371614122, 0.000120969853, 0.00018527417, 3.13304329  , -0.0171960946, -0.000113751623, 918.159668  , 31.9559326  , 823.7636    , 2.49        , 3           , 255         , 0           , 0
-0.1600332  , -0.08555876 , 9.80190849  , -0.000289130374, -0.000138639356, 0.000241195434, 3.13304043  , -0.01719473 , -0.000116175652, 918.159668  , 31.9559326  , 823.7634    , 2.5         , 3           , 255         , 0           , 0
-0.167048424, -0.08741671 , 9.798503    , -0.000136497692, -0.000240935129, 0.000206982208, 3.13303757  , -0.0171907451, -0.000118239695, 918.159668  , 31.9559326  , 823.739868  , 2.51        , 3           , 255         , 0           , 0
-0.172418863, -0.0850446  , 9.799505    , 0.000510485261, -3.149864E-05, 0.0002099481, 3.13304281  , -0.0171904489, -0.000120342062, 918.159668  , 31.9559326  , 823.739563  , 2.52        , 3           , 255         , 0           , 0
-0.166446939, -0.07618326 , 9.795626    , 0.000711599947, 0.000166937578, 0.0006034003, 3.13305     , -0.0171921719, -0.000126362327, 918.125244  , 31.9555931  , 823.739258  , 2.53        , 3           , 255         , 0           , 0
-0.171076059, -0.08830136 , 9.793215    , 5.63343929E-05, -0.0002663905, 0.000294588477, 3.13305068  , -0.01718953 , -0.000129331209, 918.125244  , 31.9555931  , 823.738953  , 2.54        , 3           , 255         , 0           , 0
-0.172187164, -0.0850704  , 9.802999    , -2.53414328E-05, -5.49298129E-05, 0.0005507485, 3.13305044  , -0.01718903 , -0.000134843882, 918.125244  , 31.9555931  , 823.738647  , 2.55        , 3           , 255         , 0           , 0
-0.169676   , -0.0798139349, 9.797112    , 0.000377935037, 0.000138478441, 0.000541672867, 3.13305426  , -0.017190462, -0.000140249263, 918.125244  , 31.9555931  , 823.738342  , 2.56        , 3           , 255         , 0           , 0
-0.171342224, -0.08214378 , 9.7994175   , 0.00046849472, 0.000276983745, -7.904459E-05, 3.133059    , -0.0171932224, -0.000139435084, 918.125244  , 31.9555931  , 823.738037  , 2.57        , 3           , 255         , 0           , 0
-0.177250728, -0.0861487  , 9.792176    , 0.000516754459, 0.000395322364, 0.000457982824, 3.13306427  , -0.0171972159, -0.000143981582, 918.125244  , 31.9555931  , 823.737732  , 2.58        , 3           , 255         , 0           , 0
-0.17679593 , -0.08156638 , 9.796495    , 1.01688493E-05, 0.000137441355, -1.80472853E-07, 3.13306427  , -0.01719859 , -0.000143968064, 918.125244  , 31.9555931  , 823.7374    , 2.59        , 3           , 255         , 0           , 0
-0.177841231, -0.08102472 , 9.794808    , -0.000335006771, -7.638329E-06, 0.000240763489, 3.133061    , -0.0171985328, -0.000146376551, 918.125244  , 31.9555931  , 823.7371    , 2.6         , 3           , 255         , 0           , 0
-0.16883187 , -0.0885154456, 9.79871     , -0.000277184939, -0.0005030808, 0.000246165378, 3.133059    , -0.0172001272, -0.0001488939, 918.125244  , 31.9555931  , 823.764038  , 2.61        , 3           , 255         , 0           , 0
-0.166073292, -0.0945421  , 9.793209    , 0.00012060623, 4.48467035E-05, 0.000231519312, 3.13306022  , -0.0172005948, -0.000151205473, 918.125244  , 31.9555931  , 823.7639    , 2.62        , 3           , 255         , 0           , 0
-0.17512393 , -0.080746524, 9.79627     , 0.000303306 , 6.960216E-05, -0.000198486523, 3.13306332  , -0.0172012746, -0.0001492145, 918.1679    , 31.9593925  , 823.7638    , 2.63        , 3           , 255         , 0           , 0
-0.175760671, -0.0872647762, 9.793211    , 0.0003229447, 0.000113617512, -0.0005533418, 3.13306642  , -0.0172023624, -0.000143670914, 918.1679    , 31.9593925  , 823.7637    , 2.64        , 3           , 255         , 0           , 0
-0.160422176, -0.08625293 , 9.787284    , -0.000403048354, -5.24485076E-05, -0.000443167373, 3.13306236  , -0.0172018  , -0.000139243333, 918.1679    , 31.9593925  , 823.76355   , 2.65        , 3           , 255         , 0           , 0
-0.1544892  , -0.0835190862, 9.789152    , -0.000203093572, 0.0004710561, -0.000209909573, 3.13306022  , -0.0172064938, -0.000137103867, 918.1679    , 31.9593925  , 823.7634    , 2.66        , 3           , 255         , 0           , 0
-0.161269963, -0.07072403 , 9.800436    , 0.000812525046, 8.357884E-05, -0.000146333259, 3.13306832  , -0.0172073171, -0.000135633265, 918.1679    , 31.9593925  , 823.7633    , 2.67        , 3           , 255         , 0           , 0
-0.165462255, -0.07874605 , 9.794986    , 0.00109009  , -0.0001652535, -3.498722E-05, 3.13307929  , -0.017205663, -0.000135297436, 918.1679    , 31.9593925  , 823.7632    , 2.68        , 3           , 255         , 0           , 0
-0.167412952, -0.0856209546, 9.801741    , 0.000586034439, -0.0009543098, 0.0008726127, 3.13308525  , -0.0171961952, -0.000144105565, 918.1679    , 31.9593925  , 823.763062  , 2.69        , 3           , 255         , 0           , 0
-0.167656332, -0.0827051252, 9.794018    , -0.000120035518, -8.84576E-05, 1.20825644E-05, 3.133084    , -0.0171953086, -0.000144233913, 918.1679    , 31.9593925  , 823.762939  , 2.7         , 3           , 255         , 0           , 0
-0.162159   , -0.07325713 , 9.793762    , -0.000346271583, -4.517878E-05, -0.0002786732, 3.13307977  , -0.01719043 , -0.000141439989, 918.1679    , 31.9593925  , 823.7277    , 2.71        , 3           , 255         , 0           , 0
-0.154715851, -0.07600709 , 9.796526    , -7.823555E-05, -0.000122013327, 0.000283724279, 3.133079    , -0.0171892326, -0.000144287842, 918.1679    , 31.9593925  , 823.7274    , 2.72        , 3           , 255         , 0           , 0
-0.164386243, -0.0803226  , 9.793866    , 0.000334977783, 0.000120201 , -0.0004356462, 3.13308239  , -0.0171904  , -0.000139920783, 918.1353    , 31.9591217  , 823.7271    , 2.73        , 3           , 255         , 0           , 0
-0.166595578, -0.0834087  , 9.80192852  , 0.0004655557, 0.000266146148, -0.000316799938, 3.133087    , -0.0171930343, -0.000136729868, 918.1353    , 31.9591217  , 823.7268    , 2.74        , 3           , 255         , 0           , 0
-0.169857115, -0.08459599 , 9.790693    , 0.00018494681, -7.406593E-05, -0.000360678328, 3.13308883  , -0.0171922632, -0.000133129113, 918.1353    , 31.9591217  , 823.7265    , 2.75        , 3           , 255         , 0           , 0
-0.169597834, -0.100218557, 9.79512     , 0.0005701085, -0.0003159567, 0.000510652259, 3.13309455  , -0.0171891451, -0.000138262927, 918.1353    , 31.9591217  , 823.7262    , 2.76        , 3           , 255         , 0           , 0
-0.1734508  , -0.09419488 , 9.801552    , 0.0003096549, -0.000443346915, 0.000353314623, 3.13309765  , -0.0171847474, -0.000141834069, 918.1353    , 31.9591217  , 823.7259    , 2.77        , 3           , 255         , 0           , 0
-0.16994454 , -0.08872311 , 9.799734    , 0.000286521536, -6.07708062E-05, 0.0003407587, 3.13310075  , -0.0171841644, -0.000145247119, 918.1353    , 31.9591217  , 823.7256    , 2.78        , 3           , 255         , 0           , 0
-0.161555067, -0.08602925 , 9.79524     , -3.974841E-05, -3.81576538E-05, -3.94984381E-05, 3.13310027  , -0.01718378 , -0.000144855323, 918.1353    , 31.9591217  , 823.7253    , 2.79        , 3           , 255         , 0           , 0
-0.16726847 , -0.09126826 , 9.791528    , 0.000397771422, 0.000107977219, 1.57659524E-05, 3.13310432  , -0.017184861, -0.00014500384, 918.1353    , 31.9591217  , 823.725     , 2.8         , 3           , 255         , 0           , 0
-0.166523129, -0.0910301656, 9.7847805   , 0.000596793252, -0.000199686328, -5.61384441E-05, 3.13310575  , -0.0171784088, -0.000144382779, 918.1353    , 31.9591217  , 823.74      , 2.81        , 3           , 255         , 0           , 0
-0.17219007 , -0.0906818062, 9.793325    , 0.000181033916, 9.458454E-06, 0.0004451651, 3.13310766  , -0.01717854 , -0.000148834035, 918.1353    , 31.9591217  , 823.739746  , 2.82        , 3           , 255         , 0           , 0
-0.167217731, -0.0878930539, 9.81266     , 0.000378295139, -0.000167085265, 0.0008623352, 3.13311148  , -0.01717694 , -0.000157472328, 918.094849  , 31.9555931  , 823.739563  , 2.83        , 3           , 255         , 0           , 0
-0.168884888, -0.07444982 , 9.809794    , 2.24518E-05 , 0.000115830757, 0.000919752638, 3.133112    , -0.017178176, -0.000166660844, 918.094849  , 31.9555931  , 823.7394    , 2.84        , 3           , 255         , 0           , 0
-0.167230561, -0.060552638, 9.804671    , -0.000230209989, -2.02764058E-05, 0.0003554136, 3.13310981  , -0.0171780046, -0.000170217, 918.094849  , 31.9555931  , 823.7392    , 2.85        , 3           , 255         , 0           , 0
-0.165656149, -0.07649109 , 9.79212952  , -0.000124991377, -0.000116125273, -8.86561538E-05, 3.13310838  , -0.0171768349, -0.000169340216, 918.094849  , 31.9555931  , 823.739     , 2.86        , 3           , 255         , 0           , 0
-0.167662188, -0.08600743 , 9.791075    , -0.00022106184, 0.000116817115, 5.158964E-05, 3.13310623  , -0.0171780083, -0.000169846273, 918.094849  , 31.9555931  , 823.738831  , 2.87        , 3           , 255         , 0           , 0
-0.167135209, -0.08683007 , 9.793562    , 0.000243479 , -0.000151030486, 0.0002581661, 3.13310862  , -0.0171765182, -0.000172440981, 918.094849  , 31.9555931  , 823.738647  , 2.88        , 3           , 255         , 0           , 0
-0.16157566 , -0.08899784 , 9.801439    , -8.152274E-05, 0.0002444026, -6.437025E-06, 3.133108    , -0.0171789639, -0.000172355867, 918.094849  , 31.9555931  , 823.738464  , 2.89        , 3           , 255         , 0           , 0
-0.173536152, -0.08236827 , 9.799143    , 0.0004282614, -0.000537719752, 0.00104059349, 3.13311243  , -0.0171736721, -0.000182808319, 918.094849  , 31.9555931  , 823.7383    , 2.9         , 3           , 255         , 0           , 0
-0.181407765, -0.0852292255, 9.795032    , 0.00051578437, -0.000232158927, 0.00111569359, 3.13311863  , -0.0171705429, -0.0001940015, 918.094849  , 31.9555931  , 823.8087    , 2.91        , 3           , 255         , 0           , 0
-0.17927365 , -0.08323612 , 9.793953    , 0.000157860268, -0.000100727426, 0.000311588927, 3.1331203   , -0.017169565, -0.00019712621, 918.094849  , 31.9555931  , 823.80896   , 2.92        , 3           , 255         , 0           , 0
-0.169755071, -0.0920545  , 9.793074    , 0.000249754754, 0.00042674024, 7.063988E-05, 3.13312268  , -0.0171738341, -0.000197796471, 918.165649  , 31.9608173  , 823.8092    , 2.93        , 3           , 255         , 0           , 0
-0.168684721, -0.0832185149, 9.798999    , -0.000456013426, 0.000397485856, 0.0005474801, 3.13311839  , -0.0171778556, -0.000203238073, 918.165649  , 31.9608173  , 823.809448  , 2.94        , 3           , 255         , 0           , 0
-0.176437035, -0.08978357 , 9.797388    , -2.617779E-05, 0.000108201784, 0.0004911474, 3.13311815  , -0.0171789788, -0.000208140773, 918.165649  , 31.9608173  , 823.8097    , 2.95        , 3           , 255         , 0           , 0
-0.165792361, -0.088990666, 9.787497    , 0.000153764719, -0.000174179731, 6.792955E-05, 3.13311958  , -0.0171772428, -0.00020883487, 918.165649  , 31.9608173  , 823.809937  , 2.96        , 3           , 255         , 0           , 0
-0.162974626, -0.07788636 , 9.793867    , -0.000133304973, -0.000192876032, -0.0006116406, 3.13311815  , -0.0171752628, -0.000202734285, 918.165649  , 31.9608173  , 823.8102    , 2.97        , 3           , 255         , 0           , 0
-0.1678117  , -0.08494519 , 9.798453    , 0.000190007617, 6.890218E-05, -0.000180209492, 3.13312     , -0.0171759371, -0.000200926181, 918.165649  , 31.9608173  , 823.8104    , 2.98        , 3           , 255         , 0           , 0
-0.163145334, -0.07990627 , 9.79966     , -8.53073143E-05, -0.000346455781, 0.000466259226, 3.13311934  , -0.0171725117, -0.000205618548, 918.165649  , 31.9608173  , 823.8107    , 2.99        , 3           , 255         , 0           , 0
-0.174314618, -0.07413717 , 9.80901     , 0.000467753445, -1.57023314E-05, -0.000196393143, 3.13312387  , -0.0171723422, -0.000203655785, 918.165649  , 31.9608173  , 823.811035  , 3           , 3           , 0           , 8.577236    , 300
-0.165898263, -0.08007437 , 9.798849    , 0.000661335653, 0.000258820917, -0.0006806741, 3.133129    , -0.0171792656, -0.000196800393, 918.165649  , 31.9608173  , 823.7718    , 3.01        , 3           , 1           , 0           , 0
-0.159463808, -0.08280499 , 9.792082    , -0.0004066753, 0.000256806059, 0.000291997043, 3.13312483  , -0.0171818584, -0.000199698858, 918.165649  , 31.9608173  , 823.771851  , 3.02        , 3           , 2           , 0           , 0
-0.166545331, -0.09128463 , 9.790801    , -5.629126E-05, 0.000135893351, 0.000198992289, 3.13312435  , -0.0171832349, -0.000201677467, 918.136841  , 31.9577637  , 823.7719    , 3.03        , 3           , 3           , 0           , 0
-0.17149061 , -0.0763816461, 9.808068    , 2.64263945E-05, 0.000369669782, -0.0004848853, 3.13312459  , -0.0171868913, -0.000196796886, 918.136841  , 31.9577637  , 823.772     , 3.04        , 3           , 4           , 0           , 0
-0.182909057, -0.08575459 , 9.796687    , -0.0005507566, 0.000152926921, -0.0007537923, 3.13311887  , -0.0171883553, -0.000189245373, 918.136841  , 31.9577637  , 823.772034  , 3.05        , 3           , 5           , 0           , 0
-0.166673556, -0.09641202 , 9.798204    , 0.000241257076, -0.000370704831, 2.9614821E-05, 3.13312125  , -0.0171846524, -0.00018957298, 918.136841  , 31.9577637  , 823.7721    , 3.06        , 3           , 6           , 0           , 0
-0.163830772, -0.0964084  , 9.797733    , -0.000304490182, 0.000486550853, -0.000356769655, 3.13311815  , -0.017189486, -0.000185963727, 918.136841  , 31.9577637  , 823.772156  , 3.07        , 3           , 7           , 0           , 0
-0.16534391 , -0.09006739 , 9.795799    , -2.62091053E-05, 0.000339332037, 6.150553E-05, 3.133118    , -0.0171928834, -0.000186550082, 918.136841  , 31.9577637  , 823.7722    , 3.08        , 3           , 8           , 5           , 5
-0.158294648, -0.08146192 , 9.799088    , 0.00032730063, 4.59452567E-05, 0.000944542233, 3.13312149  , -0.0171934217, -0.0001959924, 918.136841  , 31.9577637  , 823.7723    , 3.09        , 3           , 9           , 5           , 0.1
-0.16609025 , -0.07210081 , 9.790227    , 0.00035733293, -6.723302E-05, 0.000720724056, 3.133125    , -0.01719281 , -0.000203205986, 918.136841  , 31.9577637  , 823.772339  , 3.1         , 3           , 10          , 0.1         , 0.1
-0.174316645, -0.0767604262, 9.792671    , 0.000125261024, -0.000104101055, 0.0004334248, 3.13312268  , -0.0171889327, -0.0002074852, 918.136841  , 31.9577637  , 823.7791    , 3.11        , 3           , 11          , 0.0077925683, 0.00779256551
-0.1713488  , -0.07299651 , 9.798339    , 0.000334789569, -0.000367611385, 0.000104469524, 3.133126    , -0.0171852671, -0.00020856112, 918.136841  , 31.9577637  , 823.779236  , 3.12        , 3           , 12          , 0.174645633 , 0
-0.1625567  , -0.06973686 , 9.798919    , -7.009378E-05, -0.000235014391, -0.000224667892, 3.13312531  , -0.0171828978, -0.000206334153, 918.1704    , 31.9576969  , 823.779358  , 3.13        , 3           , 13          , 0           , 0
-0.1700483  , -0.0755934343, 9.80515     , -0.000405818428, -3.272851E-05, 0.0003456419, 3.13312125  , -0.0171826016, -0.000209793638, 918.1704    , 31.9576969  , 823.7795    , 3.14        , 3           , 14          , -0.000316979625, -0.000349092443
-0.171678782, -0.0817919448, 9.79115     , 0.000642311 , -0.0001930373, 7.440319E-05, 3.13312769  , -0.0171806775, -0.000210554077, 918.1704    , 31.9576969  , 823.7796    , 3.15        , 3           , 15          , 0           , -7.090135E-05
-0.164970085, -0.0814500153, 9.790594    , 1.11188274E-06, 7.26365251E-05, -0.0003322526, 3.13312769  , -0.0171813741, -0.000207225123, 918.1704    , 31.9576969  , 823.7797    , 3.16        , 3           , 16          , 0           , 1.401298E-45
-0.17166537 , -0.08194955 , 9.804082    , -0.000177612266, -0.000437620416, -0.000292052166, 3.133126    , -0.0171769727, -0.000204341384, 918.1704    , 31.9576969  , 823.779846  , 3.17        , 3           , 20          , 0           , 0
-0.170897126, -0.0911540538, 9.797445    , 5.49755932E-05, -0.000334387849, -0.0002465509, 3.1331265   , -0.01717361 , -0.000201903968, 918.1704    , 31.9576969  , 823.779968  , 3.18        , 3           , 21          , 0           , 0
-0.166392222, -0.09186171 , 9.800016    , 0.000252305967, 0.000285806134, -0.000337046047, 3.133129    , -0.0171764363, -0.00019850902, 918.1704    , 31.9576969  , 823.7801    , 3.19        , 3           , 22          , 0           , 0
-0.165780231, -0.08591415 , 9.800472    , -0.000144582591, -0.000199617847, 5.06700162E-05, 3.13312745  , -0.0171744451, -0.000199032671, 918.1704    , 31.9576969  , 823.7802    , 3.2         , 3           , 40          , 0           , 0
-0.172833174, -0.09824853 , 9.802565    , -0.000269620563, -0.00012597983, 7.370421E-05, 3.133128    , -0.0171741042, -0.00019983387, 918.1704    , 31.9576969  , 823.7385    , 3.21        , 3           , 41          , 0           , 0
-0.174473792, -0.09571629 , 9.80855751  , -0.000121442281, 0.000135535258, -2.34610561E-05, 3.13312674  , -0.0171754584, -0.000199587739, 918.1704    , 31.9576969  , 823.7384    , 3.22        , 3           , 42          , 0           , 0
-0.1679324  , -0.09222096 , 9.793478    , 0.000186727339, -0.000163224555, 0.000808089331, 3.13312864  , -0.0171738937, -0.000207683144, 918.1708    , 31.9608841  , 823.7383    , 3.23        , 3           , 255         , 0           , 0
-0.1717721  , -0.0865457356, 9.797699    , 0.000117987162, -0.000244705152, -0.000161052973, 3.13312984  , -0.0171714332, -0.0002060932, 918.1708    , 31.9608841  , 823.738159  , 3.24        , 3           , 255         , 0           , 0
-0.176711187, -0.08779973 , 9.799623    , -0.0003347111, -0.000301243825, 0.000306117552, 3.1331265   , -0.0171684511, -0.0002091801, 918.1708    , 31.9608841  , 823.738037  , 3.25        , 3           , 255         , 0           , 0
-0.170432538, -0.08243927 , 9.798912    , -0.0003516695, 0.000294450321, -0.000477501075, 3.133123    , -0.0171713531, -0.000204379758, 918.1708    , 31.9608841  , 823.7379    , 3.26        , 3           , 255         , 0           , 0
-0.16381903 , -0.08374659 , 9.804689    , -4.34343528E-05, -0.00026998276, -0.000143912941, 3.13312244  , -0.017168643, -0.000202963362, 918.1708    , 31.9608841  , 823.7378    , 3.27        , 3           , 255         , 0           , 0
-0.1781559  , -0.080784604, 9.795385    , -0.000115711708, 0.000224166288, 0.0006412487, 3.13312149  , -0.0171709377, -0.000209357429, 918.1708    , 31.9608841  , 823.7377    , 3.28        , 3           , 255         , 0           , 0
-0.1733582  , -0.07743745 , 9.796793    , 0.000285212533, 0.000341745035, -8.75759652E-05, 3.13312435  , -0.0171743464, -0.00020845262, 918.1708    , 31.9608841  , 823.737549  , 3.29        , 3           , 255         , 0           , 0
-0.169943213, -0.0762964338, 9.794891    , 0.000594925 , 0.000111283211, -0.000265533, 3.13313     , -0.0171754379, -0.000205787655, 918.1708    , 31.9608841  , 823.7374    , 3.3         , 3           , 255         , 0           , 0
-0.172492325, -0.07949241 , 9.793293    , -0.0002532379, -7.09789456E-05, -0.000397671771, 3.13312316  , -0.0171798132, -0.00020174055, 918.1708    , 31.9608841  , 823.7013    , 3.31        , 3           , 255         , 0           , 0
-0.16695714 , -0.07537501 , 9.799921    , 0.000205244272, -0.000113907183, 1.58024268E-05, 3.13312531  , -0.0171786752, -0.000201908217, 918.1708    , 31.9608841  , 823.7009    , 3.32        , 3           , 255         , 0           , 0
-0.165966526, -0.08437437 , 9.793043    , 0.000321031577, -0.000113996619, 0.0007623039, 3.13312864  , -0.0171776  , -0.000209541584, 918.0885    , 31.9591885  , 823.700562  , 3.33        , 3           , 255         , 0           , 0
-0.177671775, -0.0860777646, 9.80234051  , 0.000136929943, -6.09000563E-06, 0.000192811276, 3.13312984  , -0.0171775576, -0.0002114704, 918.0885    , 31.9591885  , 823.7002    , 3.34        , 3           , 255         , 0           , 0
-0.174032182, -0.08062722 , 9.801822    , -0.000243503309, -0.000234369538, -0.000530740537, 3.13312745  , -0.0171751678, -0.000206182376, 918.0885    , 31.9591885  , 823.6998    , 3.35        , 3           , 255         , 0           , 0
-0.169894844, -0.08278808 , 9.80584     , -5.197167E-05, 0.00031591233, -0.0008408812, 3.13312674  , -0.0171782579, -0.000197746078, 918.0885    , 31.9591885  , 823.699463  , 3.36        , 3           , 255         , 0           , 0
-0.169198   , -0.0804566741, 9.802387    , -0.000315212761, 0.00051430153, -0.000168175888, 3.13312364  , -0.0171833858, -0.0001960206, 918.0885    , 31.9591885  , 823.6991    , 3.37        , 3           , 255         , 0           , 0
-0.171593815, -0.08426706 , 9.810078    , -0.000331544376, 0.0002864532, 0.0005302731, 3.1331203   , -0.0171862952, -0.000201299539, 918.0885    , 31.9591885  , 823.6987    , 3.38        , 3           , 255         , 0           , 0
-0.167966321, -0.08984549 , 9.795212    , -0.000100743375, -2.729526E-05, 0.000244002862, 3.13311934  , -0.0171860438, -0.000203742093, 918.0885    , 31.9591885  , 823.6984    , 3.39        , 3           , 255         , 0           , 0
-0.167321071, -0.07975109 , 9.794803    , -0.000441440148, -0.000128624437, -6.13804E-05, 3.133115    , -0.017184753, -0.000203139134, 918.0885    , 31.9591885  , 823.6981    , 3.4         , 3           , 255         , 0           , 0
-0.167422116, -0.08499991 , 9.798138    , -0.000554644736, -0.000206786848, -0.000264517352, 3.13311028  , -0.0171852987, -0.000200526134, 918.0885    , 31.9591885  , 823.784546  , 3.41        , 3           , 255         , 0           , 0
-0.164751515, -0.08367045 , 9.803448    , -0.0005484617, -0.000156598748, -0.0003640352, 3.13310456  , -0.0171837024, -0.000196898793, 918.0885    , 31.9591885  , 823.7848    , 3.42        , 3           , 255         , 0           , 0
-0.168915048, -0.0816517  , 9.796327    , -9.247061E-05, 0.000592444558, -7.52504347E-05, 3.13310385  , -0.0171896163, -0.000196095862, 918.1644    , 31.9575615  , 823.785034  , 3.43        , 3           , 255         , 0           , 0
-0.167960137, -0.08564906 , 9.805979    , -0.000255468825, 0.0005345199, 0.000477096153, 3.13310122  , -0.0171950031, -0.000200821858, 918.1644    , 31.9575615  , 823.7853    , 3.44        , 3           , 255         , 0           , 0
-0.168439463, -0.0866985545, 9.792338    , -0.000110958441, -0.00017602602, 0.000586468 , 3.13310027  , -0.0171932932, -0.000206701981, 918.1644    , 31.9575615  , 823.7855    , 3.45        , 3           , 255         , 0           , 0
-0.162917167, -0.08511558 , 9.793295    , 0.000470596773, -0.000259932945, 0.000896710262, 3.133105    , -0.01719077 , -0.000215691965, 918.1644    , 31.9575615  , 823.785767  , 3.46        , 3           , 255         , 0           , 0
-0.163252041, -0.08422378 , 9.793334    , -7.30385655E-05, -0.000298149476, 0.00022794804, 3.13310432  , -0.017187804, -0.000217996974, 918.1644    , 31.9575615  , 823.786     , 3.47        , 3           , 255         , 0           , 0
-0.1616389  , -0.09205726 , 9.797884    , -0.0002829666, -0.000107719243, 0.0001481034, 3.1331017   , -0.01718674 , -0.000219487221, 918.1644    , 31.9575615  , 823.786255  , 3.48        , 3           , 255         , 0           , 0
-0.167385355, -0.0878051743, 9.797481    , 0.00017444446, 7.993542E-06, 0.000636073935, 3.13310337  , -0.0171868745, -0.000225847834, 918.1644    , 31.9575615  , 823.7865    , 3.49        , 3           , 255         , 0           , 0
-0.163469091, -0.07919641 , 9.789108    , 7.132848E-05, 0.000105971019, -0.0004224845, 3.133104    , -0.0171878971, -0.00022161362, 918.1644    , 31.9575615  , 823.786743  , 3.5         , 3           , 255         , 0           , 0
-0.17276217 , -0.07589577 , 9.797556    , 0.00016996458, -0.000239171815, 0.000443224 , 3.133103    , -0.0171811022, -0.000226015429, 918.1644    , 31.9575615  , 823.752441  , 3.51        , 3           , 255         , 0           , 0
-0.181082919, -0.07654345 , 9.792597    , 0.000291519944, 0.000120863668, 0.0009897307, 3.133106    , -0.0171823986, -0.000235903324, 918.1644    , 31.9575615  , 823.752441  , 3.52        , 3           , 255         , 0           , 0
-0.163178444, -0.08585557 , 9.80028     , -2.04247772E-05, 0.000150327 , 0.000469506718, 3.133106    , -0.01718394 , -0.000240586043, 918.1368    , 31.959053   , 823.752441  , 3.53        , 3           , 255         , 0           , 0
-0.162524372, -0.08628533 , 9.801615    , -0.000277638115, 0.000117008356, 0.000219130772, 3.13310313  , -0.0171851274, -0.000242767637, 918.1368    , 31.959053   , 823.752441  , 3.54        , 3           , 255         , 0           , 0
-0.169757277, -0.08309681 , 9.793744    , -0.0002188794, -0.000420713943, 0.000122019526, 3.133101    , -0.01718093 , -0.000244023628, 918.1368    , 31.959053   , 823.752441  , 3.55        , 3           , 255         , 0           , 0
-0.174827367, -0.07277447 , 9.797308    , -8.39128043E-05, 0.000336910656, 0.000480264425, 3.13310027  , -0.0171843413, -0.000248798082, 918.1368    , 31.959053   , 823.752441  , 3.56        , 3           , 255         , 0           , 0
-0.162264511, -0.07920817 , 9.795163    , -2.027984E-05, 0.000128750384, 0.000522778369, 3.1331      , -0.0171856731, -0.00025401538, 918.1368    , 31.959053   , 823.7525    , 3.57        , 3           , 255         , 0           , 0
-0.169143885, -0.08426421 , 9.80106     , -0.00046175954, -6.707941E-05, 4.878139E-05, 3.1330955   , -0.0171850063, -0.000254508923, 918.1368    , 31.959053   , 823.752563  , 3.58        , 3           , 255         , 0           , 0
-0.174002439, -0.09240083 , 9.796763    , -0.0002808275, 0.0001405594, -0.0001111207, 3.13309264  , -0.0171864033, -0.0002533857, 918.1368    , 31.959053   , 823.7526    , 3.59        , 3           , 255         , 0           , 0
-0.16997084 , -0.09159388 , 9.80363     , -0.0004932303, 0.000196632915, -3.53012365E-05, 3.13308764  , -0.0171883665, -0.0002530159, 918.1368    , 31.959053   , 823.7527    , 3.6         , 3           , 255         , 0           , 0
-0.178220227, -0.08588179 , 9.806097    , 3.48591129E-06, -0.00013499544, 0.0005770045, 3.13308835  , -0.01718932 , -0.000258807879, 918.1368    , 31.959053   , 823.763     , 3.61        , 3           , 255         , 0           , 0
-0.177761286, -0.0923238546, 9.802645    , 0.00036714648, 6.553478E-05, 0.00022599267, 3.13309216  , -0.0171899963, -0.0002610624, 918.1368    , 31.959053   , 823.7631    , 3.62        , 3           , 255         , 0           , 0
-0.168683082, -0.09016906 , 9.798464    , 4.93793923E-05, -0.000190278661, -0.0005685064, 3.13309264  , -0.0171880443, -0.000255393, 918.113342  , 31.9601383  , 823.763245  , 3.63        , 3           , 255         , 0           , 0
-0.166086152, -0.08509214 , 9.789642    , -0.0003377572, 0.000113922069, 0.000127256877, 3.1330893   , -0.0171891935, -0.000256656029, 918.113342  , 31.9601383  , 823.763367  , 3.64        , 3           , 255         , 0           , 0
-0.165390477, -0.07930119 , 9.793852    , 0.000180642892, 8.103627E-05, 0.001020858 , 3.13309121  , -0.0171900932, -0.0002668586, 918.113342  , 31.9601383  , 823.7635    , 3.65        , 3           , 255         , 0           , 0
-0.159844518, -0.08372152 , 9.80336     , -0.0002792765, 4.1870313E-05, 1.70444218E-05, 3.13308835  , -0.01719051 , -0.00026702552, 918.113342  , 31.9601383  , 823.7636    , 3.66        , 3           , 255         , 0           , 0
-0.157145232, -0.07352437 , 9.799231    , -0.000416679162, -0.000198767375, -3.335473E-05, 3.1330843   , -0.0171885174, -0.000266708841, 918.113342  , 31.9601383  , 823.763733  , 3.67        , 3           , 255         , 0           , 0
-0.152745172, -0.07227346 , 9.789784    , 0.000141534023, -7.342547E-05, 0.0001447345, 3.13308573  , -0.0171877947, -0.000268162519, 918.113342  , 31.9601383  , 823.763855  , 3.68        , 3           , 255         , 0           , 0
-0.167235538, -0.07840684 , 9.792037    , -9.789801E-05, -0.000135259237, 0.000890992931, 3.13308477  , -0.0171865188, -0.000277084764, 918.113342  , 31.9601383  , 823.764     , 3.69        , 3           , 255         , 0           , 0
-0.169873536, -0.08427941 , 9.799149    , 0.000285870919, 1.96905166E-05, 0.000119468408, 3.13308764  , -0.0171867255, -0.000278277847, 918.113342  , 31.9601383  , 823.7641    , 3.7         , 3           , 255         , 0           , 0
-0.161424547, -0.08639852 , 9.80287552  , 7.917888E-05, -3.25980072E-05, 0.000105600695, 3.13308978  , -0.0171832852, -0.000279357, 918.113342  , 31.9601383  , 823.806152  , 3.71        , 3           , 255         , 0           , 0
-0.162753046, -0.0898296  , 9.798728    , -0.0004679846, 0.000151861313, -0.000284240552, 3.133085    , -0.017184779, -0.000276501378, 918.113342  , 31.9601383  , 823.8065    , 3.72        , 3           , 255         , 0           , 0
-0.165149331, -0.08855106 , 9.799574    , -3.69937043E-05, -0.000245664763, 9.73624847E-05, 3.13308454  , -0.01718233 , -0.000277496, 918.116943  , 31.9611568  , 823.8069    , 3.73        , 3           , 255         , 0           , 0
-0.16617845 , -0.09404858 , 9.788342    , 3.51071358E-05, -0.000265590061, -0.0004244946, 3.13308477  , -0.0171796419, -0.000273273239, 918.116943  , 31.9611568  , 823.807251  , 3.74        , 3           , 255         , 0           , 0
-0.171435863, -0.09581856 , 9.796769    , 0.000125503982, -0.000119783828, 6.21471845E-05, 3.1330862   , -0.0171784442, -0.000273904938, 918.116943  , 31.9611568  , 823.8077    , 3.75        , 3           , 255         , 0           , 0
-0.1652666  , -0.09147937 , 9.804268    , 7.82392744E-05, 0.0001945802, 0.0002469084, 3.133087    , -0.0171804111, -0.000276357663, 918.116943  , 31.9611568  , 823.8081    , 3.76        , 3           , 255         , 0           , 0
-0.1609862  , -0.09127553 , 9.806414    , 0.0006711435, -0.0001338564, 0.000114238239, 3.1330936   , -0.0171790831, -0.0002775116, 918.116943  , 31.9611568  , 823.808533  , 3.77        , 3           , 255         , 0           , 0
-0.1625739  , -0.07590679 , 9.798404    , 7.31758046E-05, -3.088775E-05, 0.000521964161, 3.13309455  , -0.0171788186, -0.000282734283, 918.116943  , 31.9611568  , 823.80896   , 3.78        , 3           , 255         , 0           , 0
-0.170892924, -0.08536054 , 9.800152    , -0.000204483629, 2.44453258E-05, -0.0003701276, 3.1330924   , -0.01717903 , -0.0002790306, 918.116943  , 31.9611568  , 823.8094    , 3.79        , 3           , 255         , 0           , 0
-0.16889216 , -0.09382307 , 9.803492    , 0.00048139767, 0.000167892707, 0.000144550286, 3.13309717  , -0.0171807222, -0.000280461943, 918.116943  , 31.9611568  , 823.8098    , 3.8         , 3           , 255         , 0           , 0
-0.163547426, -0.08535922 , 9.793964    , 0.0008206151, -0.000136756164, 0.0004952903, 3.13309813  , -0.0171758048, -0.000285298156, 918.116943  , 31.9611568  , 823.839966  , 3.81        , 3           , 255         , 0           , 0
-0.17499952 , -0.0827827752, 9.801134    , 0.000149358282, 4.4592598E-05, 0.000495001557, 3.13309956  , -0.0171762928, -0.0002902448, 918.116943  , 31.9611568  , 823.8406    , 3.82        , 3           , 255         , 0           , 0
-0.1801296  , -0.0847597644, 9.793339    , -0.000207035075, -7.42236443E-05, 0.0002487665, 3.13309765  , -0.017175572, -0.000292739016, 918.137634  , 31.9577637  , 823.8412    , 3.83        , 3           , 255         , 0           , 0
-0.173436388, -0.08737482 , 9.793521    , 0.000111572081, -0.000134647009, -9.30318856E-05, 3.1330986   , -0.0171742178, -0.000291820063, 918.137634  , 31.9577637  , 823.8418    , 3.84        , 3           , 255         , 0           , 0
-0.1774702  , -0.0927826539, 9.800004    , 0.000126222731, 0.000245727977, -2.48195356E-05, 3.1331      , -0.0171766728, -0.000291550969, 918.137634  , 31.9577637  , 823.8424    , 3.85        , 3           , 255         , 0           , 0
-0.16861859 , -0.07988549 , 9.796255    , 0.000226771517, 0.000364713371, 0.000523862662, 3.13310242  , -0.0171803664, -0.000296759041, 918.137634  , 31.9577637  , 823.843     , 3.86        , 3           , 255         , 0           , 0
-0.161322   , -0.08683662 , 9.799158    , 2.54681217E-05, -8.488278E-06, 0.000252661324, 3.13310266  , -0.0171803012, -0.000299286621, 918.137634  , 31.9577637  , 823.8436    , 3.87        , 3           , 255         , 0           , 0
-0.162011534, -0.0940424  , 9.804719    , -0.000476239977, -7.845092E-05, -0.000562569941, 3.133098    , -0.0171794668, -0.000293667079, 918.137634  , 31.9577637  , 823.844238  , 3.88        , 3           , 255         , 0           , 0
-0.172522724, -0.09564476 , 9.793241    , -2.83535337E-05, 0.000178524759, 0.000137506519, 3.13309741  , -0.0171812624, -0.00029502713, 918.137634  , 31.9577637  , 823.844849  , 3.89        , 3           , 255         , 0           , 0
-0.176104024, -0.08588002 , 9.797432    , -0.000331414078, -9.593129E-05, 0.000286364258, 3.13309431  , -0.0171803273, -0.000297899154, 918.137634  , 31.9577637  , 823.845459  , 3.9         , 3           , 255         , 0           , 0
-0.164679527, -0.08510162 , 9.794711    , -0.000202143128, 0.000186003657, -0.000306174858, 3.133086    , -0.0171860438, -0.0002947152, 918.137634  , 31.9577637  , 823.8413    , 3.91        , 3           , 255         , 0           , 0
-0.169756681, -0.07677994 , 9.795076    , -0.000503702555, 1.70836865E-05, 0.000463491248, 3.133081    , -0.01718625 , -0.000299349078, 918.137634  , 31.9577637  , 823.8419    , 3.92        , 3           , 255         , 0           , 0
-0.175856113, -0.0839527845, 9.800298    , -0.0002652141, -0.000325247674, 0.00112936157, 3.13307858  , -0.0171830971, -0.00031067137, 918.179     , 31.9617672  , 823.8425    , 3.93        , 3           , 255         , 0           , 0
-0.166305766, -0.08169247 , 9.799145    , -0.000381454331, 0.000194258479, 0.000311242446, 3.13307476  , -0.0171850659, -0.0003137675, 918.179     , 31.9617672  , 823.84314   , 3.94        , 3           , 255         , 0           , 0
-0.1682599  , -0.07768138 , 9.791335    , 2.31892918E-05, 0.000218340108, 0.000109372275, 3.133075    , -0.0171872564, -0.000314842735, 918.179     , 31.9617672  , 823.84375   , 3.95        , 3           , 255         , 0           , 0
-0.17581442 , -0.0728294849, 9.79653     , -1.00520265E-05, -0.000132659159, 0.000595173 , 3.133075    , -0.01718598 , -0.0003208063, 918.179     , 31.9617672  , 823.84436   , 3.96        , 3           , 255         , 0           , 0
-0.1727954  , -0.07404114 , 9.799475    , -0.000200811221, 0.0002580661, -0.000228235876, 3.133073    , -0.0171885416, -0.000318501785, 918.179     , 31.9617672  , 823.845     , 3.97        , 3           , 255         , 0           , 0
-0.171478659, -0.08115369 , 9.797022    , -0.00039207036, 0.000433848356, 0.000108828412, 3.133069    , -0.017192889, -0.000319553161, 918.179     , 31.9617672  , 823.8456    , 3.98        , 3           , 255         , 0           , 0
-0.173698723, -0.07391835 , 9.802524    , -0.000444739737, 0.000316883816, 0.0006235291, 3.13306475  , -0.0171961114, -0.000325761968, 918.179     , 31.9617672  , 823.8462    , 3.99        , 3           , 255         , 0           , 0
-0.164716959, -0.076384604, 9.803648    , 3.08034068E-05, 0.000510963146, 0.0006313565, 3.13306522  , -0.0172012746, -0.000332032447, 918.179     , 31.9617672  , 823.8468    , 4           , 3           , 0           , 9.577236    , 400
-0.156553924, -0.0866758451, 9.795542    , 0.0007845432, -0.000203873613, 0.000611810246, 3.13308024  , -0.0172019135, -0.0003382886, 918.179     , 31.9617672  , 823.783142  , 4.01        , 3           , 1           , 0           , 0
-0.159577429, -0.08828455 , 9.790288    , 0.000339972816, 0.0003855458, 0.000240914087, 3.13308358  , -0.01720579 , -0.0003406651, 918.179     , 31.9617672  , 823.7833    , 4.02        , 3           , 2           , 0           , 0
-0.171699822, -0.0922852755, 9.795866    , -0.000175517373, 0.0002540372, 0.000239035959, 3.133082    , -0.017208349, -0.000343034073, 918.1562    , 31.958849   , 823.783569  , 4.03        , 3           , 3           , 0           , 0
-0.172652438, -0.0865382  , 9.802514    , -0.000449368526, -0.000354060961, -0.000210290309, 3.13307738  , -0.0172047913, -0.000340961124, 918.1562    , 31.958849   , 823.7838    , 4.04        , 3           , 4           , 0           , 0
-0.170440629, -0.0833799243, 9.795472    , 0.0001999899, 0.0003530866, -0.000326395326, 3.13307929  , -0.0172082931, -0.000337666832, 918.1562    , 31.958849   , 823.784058  , 4.05        , 3           , 5           , 0           , 0
-0.176042825, -0.08579431 , 9.792119    , 0.000235461179, -0.000187142752, 0.000358281657, 3.13308167  , -0.0172064528, -0.00034126587, 918.1562    , 31.958849   , 823.7843    , 4.06        , 3           , 6           , 0           , 0
-0.166991666, -0.0728529543, 9.793906    , 0.000139331649, -0.000386048749, 0.001320943 , 3.13308334  , -0.017202707, -0.0003545093, 918.1562    , 31.958849   , 823.784546  , 4.07        , 3           , 7           , 0           , 0
-0.164058715, -0.0895322  , 9.789423    , -0.000176876871, -0.0001035867, 0.000558488362, 3.13308167  , -0.0172017142, -0.000360103528, 918.1562    , 31.958849   , 823.7848    , 4.08        , 3           , 8           , 5           , 5
-0.1717438  , -0.08200699 , 9.787358    , -0.0005314705, -0.00023935223, 0.000323949876, 3.13307643  , -0.0171993487, -0.000363363681, 918.1562    , 31.958849   , 823.785034  , 4.09        , 3           , 9           , 5           , 0.1
-0.175323635, -0.08099492 , 9.790622    , -9.686977E-06, -7.9528545E-05, 0.0004997641, 3.13307643  , -0.0171985961, -0.000368368521, 918.1562    , 31.958849   , 823.7853    , 4.1         , 3           , 10          , 0.1         , 0.1
-0.165226445, -0.08689509 , 9.79874     , 8.802248E-05, 0.000235803775, 0.000432561676, 3.13307476  , -0.0172009431, -0.000372630282, 918.1562    , 31.958849   , 823.762939  , 4.11        , 3           , 11          , 0.0072987997, 0.00729879644
-0.169115037, -0.08425704 , 9.797697    , 0.0005640254, 0.0006864113, 0.000209282181, 3.13308048  , -0.0172078237, -0.000374664844, 918.1562    , 31.958849   , 823.763062  , 4.12        , 3           , 12          , 0.174648076 , 0
-0.166496381, -0.08306611 , 9.789461    , 0.000394632283, 4.38853749E-06, 0.0004220864, 3.13308454  , -0.0172079038, -0.000378885685, 918.0954    , 31.9627838  , 823.7632    , 4.13        , 3           , 13          , 0           , 0
-0.1647898  , -0.07910131 , 9.796267    , 0.000392518035, -0.000163163641, 0.0002462793, 3.13308835  , -0.0172062926, -0.000381362537, 918.0954    , 31.9627838  , 823.7633    , 4.14        , 3           , 14          , -0.000316915219, -0.000349125825
-0.160036534, -0.0857256651, 9.79299     , 3.84079176E-05, -0.000458712981, 0.000405131665, 3.13308883  , -0.01720174 , -0.000385453226, 918.0954    , 31.9627838  , 823.7634    , 4.15        , 3           , 15          , 0           , -7.09005253E-05
-0.1667144  , -0.09328737 , 9.797263    , -0.000142805628, 2.9577408E-05, 0.000364724838, 3.1330874   , -0.0172020681, -0.000389098248, 918.0954    , 31.9627838  , 823.76355   , 4.16        , 3           , 16          , 0           , 1.401298E-45
-0.162347347, -0.0880427  , 9.797728    , -0.000398838834, -5.46433148E-06, 0.000584576046, 3.13308358  , -0.0172020644, -0.000394945, 918.0954    , 31.9627838  , 823.7637    , 4.17        , 3           , 20          , 0           , 0
-0.163062692, -0.08511331 , 9.809646    , -0.000412049238, 0.000285798567, 0.000529189 , 3.13307953  , -0.0172049664, -0.000400213059, 918.0954    , 31.9627838  , 823.7638    , 4.18        , 3           , 21          , 0           , 0
-0.161862507, -0.07555748 , 9.800521    , -2.6020658E-05, 0.000345345383, 0.000170428742, 3.13307929  , -0.0172084346, -0.000401888072, 918.0954    , 31.9627838  , 823.7639    , 4.19        , 3           , 22          , 0           , 0
-0.162737966, -0.07585399 , 9.799724    , 5.76092E-05 , 0.000435027876, -0.0006482495, 3.13307977  , -0.017212728, -0.00039536797, 918.0954    , 31.9627838  , 823.764038  , 4.2         , 3           , 40          , 0           , 0
-0.15597567 , -0.07452538 , 9.798464    , -0.000304736459, 0.000234533756, -0.000239851535, 3.13307619  , -0.0172092672, -0.000392940943, 918.0954    , 31.9627838  , 823.8314    , 4.21        , 3           , 41          , 0           , 0
-0.164343536, -0.08267107 , 9.788175    , 0.000393236754, -0.000546436058, 0.000219624344, 3.13308024  , -0.0172038227, -0.000395183946, 918.0954    , 31.9627838  , 823.832     , 4.22        , 3           , 42          , 0           , 0
-0.164964765, -0.07890904 , 9.793181    , 0.000209317615, -0.000340984116, -2.24458927E-05, 3.13308239  , -0.0172004122, -0.000394988485, 918.110657  , 31.9608841  , 823.8325    , 4.23        , 3           , 255         , 0           , 0
-0.16703102 , -0.07898011 , 9.799487    , 0.000121209188, 6.03667577E-05, 4.99952475E-05, 3.13308358  , -0.0172010176, -0.000395483337, 918.110657  , 31.9608841  , 823.833069  , 4.24        , 3           , 255         , 0           , 0
-0.1697267  , -0.07961394 , 9.799195    , 0.000260025583, 1.23220088E-05, -9.893573E-05, 3.1330862   , -0.0172011312, -0.000394492876, 918.110657  , 31.9608841  , 823.8336    , 4.25        , 3           , 255         , 0           , 0
-0.181622341, -0.08649762 , 9.805769    , -0.000335407181, 0.000227441138, 0.000172433 , 3.13308287  , -0.0172034223, -0.000396197982, 918.110657  , 31.9608841  , 823.834167  , 4.26        , 3           , 255         , 0           , 0
-0.179249376, -0.08582114 , 9.80334949  , 0.000192881678, 6.722109E-05, 0.0007678568, 3.13308477  , -0.017204158, -0.000403871527, 918.110657  , 31.9608841  , 823.8347    , 4.27        , 3           , 255         , 0           , 0
-0.171320215, -0.0899319649, 9.799456    , -0.000163390592, -5.09751553E-05, 0.0001017531, 3.13308334  , -0.017203657, -0.00040489345, 918.110657  , 31.9608841  , 823.835266  , 4.28        , 3           , 255         , 0           , 0
-0.164334238, -0.08747027 , 9.798644    , -0.000515891938, 2.35480838E-05, 0.000511528458, 3.133078    , -0.0172039345, -0.000410007226, 918.110657  , 31.9608841  , 823.8358    , 4.29        , 3           , 255         , 0           , 0
-0.161890686, -0.0885133  , 9.80945     , 0.000164075755, -0.000187967467, 0.000700929959, 3.13308     , -0.0172021147, -0.000417033152, 918.110657  , 31.9608841  , 823.836365  , 4.3         , 3           , 255         , 0           , 0
-0.167842135, -0.09111975 , 9.800114    , 0.000425486476, -0.000416244176, -5.761227E-06, 3.1330843   , -0.017197296, -0.000417012576, 918.110657  , 31.9608841  , 823.871765  , 4.31        , 3           , 255         , 0           , 0
-0.165072531, -0.09349553 , 9.799711    , 0.000263104273, 0.000233070066, 0.000940659549, 3.13308716  , -0.0171997063, -0.000426400075, 918.110657  , 31.9608841  , 823.872559  , 4.32        , 3           , 255         , 0           , 0
-0.176270813, -0.09290403 , 9.796414    , -0.00017171356, 0.000117802367, 0.000330275885, 3.13308549  , -0.0172009114, -0.000429693115, 918.1247    , 31.9617672  , 823.873352  , 4.33        , 3           , 255         , 0           , 0
-0.177413434, -0.0918916  , 9.800563    , -0.000316097023, -0.0005126047, -0.0007124146, 3.13308215  , -0.017195724, -0.000422612036, 918.1247    , 31.9617672  , 823.874146  , 4.34        , 3           , 255         , 0           , 0
-0.165133566, -0.08449807 , 9.799135    , 0.000330551178, -0.00068895903, -0.000455605768, 3.13308525  , -0.0171887968, -0.0004181142, 918.1247    , 31.9617672  , 823.874939  , 4.35        , 3           , 255         , 0           , 0
-0.161610335, -0.08815048 , 9.787543    , -0.000551558565, -0.000336054974, -0.0002060651, 3.13307977  , -0.0171854179, -0.0004160819, 918.1247    , 31.9617672  , 823.875732  , 4.36        , 3           , 255         , 0           , 0
