Acc X       , Acc Y       , Acc Z       , Gyro X      , Gyro Y      , Gyro Z      , Euler X     , Euler Y     , Euler Z     , Pres X      , Pres Y      , Pres Z      , Time        , Status      , LowRate X   , LowRate Y   , LowRate Z    
-0.138208061, 9.78684     , 0.103230596 , 0           , 0           , 0           , -1.58134389 , -0.0141201019, 2.1615324   , 918.6185    , 30.88301    , 819.473145  , 0           , 2           , 0           , 5.00923157  , 0
-0.146865457, 9.804197    , 0.112131715 , 0.0002938322, -0.000129189226, -9.763389E-06, -1.58134091 , -0.0141205713, 2.16153383  , 918.6185    , 30.88301    , 819.473145  , 0.01        , 7           , 1           , 0           , 0
-0.136457   , 9.799857    , 0.103549458 , 0.00044810705, -5.58793545E-08, 0.000657155062, -1.58133638 , -0.0141140437, 2.16153359  , 918.6185    , 30.88301    , 819.473145  , 0.02        , 7           , 2           , 0           , 0
-0.141261116, 9.794157    , 0.09914605  , -0.0005820275, -0.0001256924, 0.00102067075, -1.58134234 , -0.0141038205, 2.16153479  , 918.5832    , 30.4426479  , 819.473145  , 0.03        , 7           , 3           , 0           , 0
-0.138364717, 9.793347    , 0.105194435 , -4.987762E-05, 0.000131118752, 0.000198704729, -1.58134282 , -0.0141018536, 2.16153336  , 918.5832    , 30.4426479  , 819.473145  , 0.04        , 7           , 4           , 0           , 0
-0.1367655  , 9.794349    , 0.09811323  , 0.000377610559, -7.863733E-05, -0.000777523732, -1.58133912 , -0.0141096329, 2.16153431  , 918.5832    , 30.4426479  , 819.473145  , 0.05        , 7           , 5           , 0           , 0
-0.133591145, 9.802475    , 0.09782482  , 0.000227876546, -0.000318672479, -0.000359437021, -1.58133686 , -0.0141131794, 2.16153765  , 918.5832    , 30.4426479  , 819.473145  , 0.06        , 7           , 6           , 0           , 0
-0.140893668, 9.798827    , 0.1057324   , 0.000416890864, 8.23509763E-05, 0.0001682871, -1.58133268 , -0.0141114807, 2.16153646  , 918.5832    , 30.4426479  , 819.473145  , 0.07        , 7           , 7           , 0           , 0
-0.1431854  , 9.78917     , 0.109397128 , 0.0005013944, -0.00035268013, 0.00029023923, -1.5813278  , -0.01410859 , 2.16154     , 918.5832    , 30.4426479  , 819.473145  , 0.08        , 7           , 8           , 5           , 5
-0.134437844, 9.796079    , 0.10762433  , 0.0003848082, -2.43787072E-05, -3.33947537E-06, -1.58132386 , -0.01410859 , 2.16154027  , 918.5832    , 30.4426479  , 819.473145  , 0.09        , 7           , 9           , 5           , 0.1
-0.133079976, 9.797303    , 0.100692846 , 0.000296568032, 0.0005750064, 0.0002923673, -1.58132088 , -0.0141057577, 2.16153455  , 918.5832    , 30.4426479  , 819.473145  , 0.1         , 7           , 10          , 0.1         , 0.1
-0.137801439, 9.795326    , 0.0927666   , -0.000360856124, 8.002482E-05, -0.000186896475, -1.5813266  , -0.01410853 , 2.16153383  , 918.5832    , 30.4426479  , 819.7904    , 0.11        , 7           , 11          , 0.0109544508, 0.0109544508
-0.140464365, 9.801385    , 0.09183822  , -8.831073E-05, -0.000156634953, 0.0007349204, -1.58132756 , -0.0141011681, 2.16153526  , 918.5832    , 30.4426479  , 819.7904    , 0.12        , 7           , 12          , 0.0346410163, 0
-0.131037563, 9.802042    , 0.0930794254, 5.353747E-05, 7.125019E-05, -2.04668468E-05, -1.58132708 , -0.0141014066, 2.16153479  , 918.595764  , 30.480505   , 819.7904    , 0.13        , 7           , 13          , 0           , 0
-0.132296756, 9.796056    , 0.101505853 , -0.000141592711, 0.000195043453, -6.700143E-05, -1.58132839 , -0.0141021218, 2.16153264  , 918.595764  , 30.480505   , 819.7904    , 0.14        , 7           , 14          , -0.000135954746, 0.0007736127
-0.137910992, 9.791278    , 0.107920393 , 0.000284344831, 8.702697E-05, 0.0007013232, -1.58132553 , -0.0140950875, 2.16153169  , 918.595764  , 30.480505   , 819.790466  , 0.15        , 7           , 15          , 0           , 0.0002211003
-0.1344268  , 9.790993    , 0.103693224 , 0.000390270143, 0.000233483443, -0.00011264746, -1.5813216  , -0.0140963094, 2.1615293   , 918.595764  , 30.480505   , 819.7905    , 0.16        , 7           , 16          , 0           , 1.401298E-45
-0.134038031, 9.7917      , 0.103173457 , 0.000421458972, -4.38363641E-05, -0.00014393669, -1.58131742 , -0.01409777 , 2.16152978  , 918.595764  , 30.480505   , 819.7906    , 0.17        , 7           , 20          , 0           , 0
-0.150559872, 9.79432     , 0.09721874  , -0.0002845375, -7.84759759E-05, 0.00024154612, -1.58132029 , -0.014095326, 2.16153049  , 918.595764  , 30.480505   , 819.790649  , 0.18        , 7           , 21          , 0           , 0
-0.148762032, 9.799997    , 0.111161567 , -0.0005240496, -0.000248084427, -3.10022733E-06, -1.58132565 , -0.0140953558, 2.161533    , 918.595764  , 30.480505   , 819.7907    , 0.19        , 7           , 22          , 0           , 0
-0.138208479, 9.791483    , 0.107921563 , -4.595521E-05, -0.000299651176, 0.000501696253, -1.58132613 , -0.01409026 , 2.161536    , 918.595764  , 30.480505   , 819.7908    , 0.2         , 7           , 40          , 0           , 0
-0.142558038, 9.78622     , 0.107011117 , 2.95681821E-06, 0.000217211142, 0.0006794832, -1.581319   , -0.0140850134, 2.16153359  , 918.595764  , 30.480505   , 819.7338    , 0.21        , 7           , 41          , 0           , 0
-0.1365874  , 9.795793    , 0.1102676   , -0.0001512733, 0.000590784533, 0.000135934839, -1.58132052 , -0.0140837617, 2.16152763  , 918.595764  , 30.480505   , 819.7339    , 0.22        , 7           , 42          , 1           , 0
-0.138142213, 9.806597    , 0.107265219 , 0.000104775187, 0.000161188073, -0.000175633861, -1.58131945 , -0.01408555 , 2.1615262   , 918.573547  , 30.5057411  , 819.733948  , 0.23        , 7           , 255         , 0           , 0
-0.141764283, 9.796671    , 0.114110053 , -0.000468373444, 0.000138165953, 0.0005030922, -1.581324   , -0.0140805729, 2.16152477  , 918.573547  , 30.5057411  , 819.734     , 0.24        , 7           , 255         , 0           , 0
-0.1423384  , 9.798762    , 0.100273147 , -0.000549720949, 0.000215482258, 0.000627973233, -1.58132946 , -0.0140743433, 2.16152239  , 918.573547  , 30.5057411  , 819.7341    , 0.25        , 7           , 255         , 0           , 0
-0.140525818, 9.80264     , 0.104810342 , -0.000247546122, -4.154857E-05, 0.000716447365, -1.581332   , -0.01406716 , 2.16152287  , 918.573547  , 30.5057411  , 819.734131  , 0.26        , 7           , 255         , 0           , 0
-0.129465058, 9.79062748  , 0.103141174 , -0.000322458916, -0.000344060652, 0.0002835407, -1.58133531 , -0.0140643883, 2.1615262   , 918.573547  , 30.5057411  , 819.7342    , 0.27        , 7           , 255         , 0           , 0
-0.143652856, 9.798237    , 0.102319241 , 7.54172943E-05, -0.000146928593, -5.43786155E-06, -1.58133459 , -0.0140643883, 2.16152763  , 918.573547  , 30.5057411  , 819.734253  , 0.28        , 7           , 255         , 0           , 0
-0.14050138 , 9.79258     , 0.09791455  , -0.0005044438, 0.000214356638, 0.000184631164, -1.58133948 , -0.01406263 , 2.16152549  , 918.573547  , 30.5057411  , 819.7343    , 0.29        , 7           , 255         , 0           , 0
-0.14009507 , 9.798919    , 0.09794525  , -0.000347146735, 3.27702728E-05, 0.000352379051, -1.58134294 , -0.0140590528, 2.16152525  , 918.573547  , 30.5057411  , 819.7344    , 0.3         , 7           , 255         , 0           , 0
-0.140108183, 9.812121    , 0.09492539  , 4.85877754E-05, -0.000107927539, 0.000309668336, -1.58134639 , -0.01406093 , 2.16152644  , 918.573547  , 30.5057411  , 819.782654  , 0.31        , 7           , 255         , 0           , 0
-0.132322192, 9.792324    , 0.0905541   , 0.0005144916, -0.000210093916, 0.0001574069, -1.58134139 , -0.0140593508, 2.16152835  , 918.573547  , 30.5057411  , 819.7827    , 0.32        , 7           , 255         , 0           , 0
-0.13170214 , 9.791207    , 0.100583836 , -0.0003160312, 0.000124029175, -0.0005669603, -1.58134449 , -0.0140649546, 2.16152716  , 918.5971    , 30.5201912  , 819.7828    , 0.33        , 7           , 255         , 0           , 0
-0.127974868, 9.79893     , 0.09832366  , -0.000306548172, 0.000307892042, 0.000443316152, -1.58134747 , -0.0140605727, 2.161524    , 918.5971    , 30.5201912  , 819.782837  , 0.34        , 7           , 255         , 0           , 0
-0.128522724, 9.793956    , 0.09389249  , 0.000206146331, -6.613898E-05, 0.000394438131, -1.58134532 , -0.0140565792, 2.16152477  , 918.5971    , 30.5201912  , 819.7829    , 0.35        , 7           , 255         , 0           , 0
-0.136008859, 9.792628    , 0.103124581 , 5.97111939E-05, -0.000195714354, 0.000277965 , -1.58134484 , -0.0140537778, 2.16152668  , 918.5971    , 30.5201912  , 819.782959  , 0.36        , 7           , 255         , 0           , 0
-0.149652749, 9.803207    , 0.104797244 , 0.0003369734, 0.000144251622, -0.0003105899, -1.58134151 , -0.0140569368, 2.16152525  , 918.5971    , 30.5201912  , 819.783     , 0.37        , 7           , 255         , 0           , 0
-0.139299124, 9.798814    , 0.10411185  , 1.91140061E-05, -0.000140227377, -0.000210913771, -1.58134139 , -0.0140590528, 2.16152668  , 918.5971    , 30.5201912  , 819.7831    , 0.38        , 7           , 255         , 0           , 0
-0.141045481, 9.799031    , 0.09698167  , 2.82810215E-05, 0.0004003542, -0.000656717, -1.58134115 , -0.01406567 , 2.16152287  , 918.5971    , 30.5201912  , 819.783142  , 0.39        , 7           , 255         , 0           , 0
-0.135645062, 9.793472    , 0.100041009 , 0.000261978 , -0.000140134071, -0.00030429 , -1.58133841 , -0.01406871 , 2.161524    , 918.5971    , 30.5201912  , 819.7832    , 0.4         , 7           , 255         , 0           , 0
-0.130776778, 9.793219    , 0.09930362  , 0.000577634666, -0.000185912126, -0.000182869568, -1.58131945 , -0.0140661169, 2.16152573  , 918.5971    , 30.5201912  , 819.7537    , 0.41        , 7           , 255         , 0           , 0
-0.136138469, 9.789862    , 0.110384263 , 0.000375171832, -0.0005655155, 1.90825522E-05, -1.58131576 , -0.0140658785, 2.16153145  , 918.5971    , 30.5201912  , 819.7538    , 0.42        , 7           , 255         , 0           , 0
-0.136358023, 9.791235    , 0.112041332 , 0.0002004055, -0.0004227976, -0.000332551717, -1.58131385 , -0.0140691269, 2.16153574  , 918.5887    , 30.5303688  , 819.753845  , 0.43        , 7           , 255         , 0           , 0
-0.140106216, 9.799695    , 0.108630836 , 0.000534432242, -0.0003543565, -0.000118539945, -1.58130848 , -0.0140702892, 2.16153932  , 918.5887    , 30.5303688  , 819.7539    , 0.44        , 7           , 255         , 0           , 0
-0.144777685, 9.810228    , 0.100526    , -0.000360708247, -5.09274541E-05, 0.000779223 , -1.58131218 , -0.0140625108, 2.16153979  , 918.5887    , 30.5303688  , 819.753967  , 0.45        , 7           , 255         , 0           , 0
-0.134879634, 9.797949    , 0.102166578 , -0.000543284, 9.341823E-05, -0.000110558212, -1.58131754 , -0.0140636135, 2.16153884  , 918.5887    , 30.5303688  , 819.7541    , 0.46        , 7           , 255         , 0           , 0
-0.132849485, 9.795549    , 0.103401423 , -0.000594467041, 0.000136041432, -0.000140333286, -1.58132339 , -0.0140650142, 2.16153765  , 918.5887    , 30.5303688  , 819.7542    , 0.47        , 7           , 255         , 0           , 0
-0.142007753, 9.793546    , 0.09777169  , -0.0001648363, 0.0007323292, -0.000327139627, -1.58132493 , -0.0140684117, 2.16153026  , 918.5887    , 30.5303688  , 819.754333  , 0.48        , 7           , 255         , 0           , 0
-0.143822312, 9.790565    , 0.100111231 , 0.0007955674, -0.000330218056, -0.0001797099, -1.58131707 , -0.01407017 , 2.16153359  , 918.5887    , 30.5303688  , 819.754456  , 0.49        , 7           , 255         , 0           , 0
-0.14438571 , 9.801794    , 0.107252344 , 4.46996855E-05, 1.76932081E-05, 0.000188556267, -1.58131659 , -0.0140682627, 2.16153336  , 918.5887    , 30.5303688  , 819.7546    , 0.5         , 7           , 255         , 0           , 0
-0.141599134, 9.798662    , 0.1135935   , -7.8178884E-05, 0.000416578725, -0.0002572144, -1.58132064 , -0.01407327 , 2.1615293   , 918.5887    , 30.5303688  , 819.752441  , 0.51        , 7           , 255         , 0           , 0
-0.134490728, 9.791115    , 0.107930049 , -0.000129648688, -0.000155989313, -0.0005304938, -1.581322   , -0.0140785752, 2.16153073  , 918.5887    , 30.5303688  , 819.752563  , 0.52        , 7           , 255         , 0           , 0
-0.138917908, 9.787193    , 0.105926313 , -4.82588221E-05, 0.000395552721, 0.000195982415, -1.58132243 , -0.014076638, 2.161527    , 918.573364  , 30.5399342  , 819.7527    , 0.53        , 7           , 255         , 0           , 0
-0.131149963, 9.792794    , 0.106178567 , -0.0003620862, 0.0002628807, 6.212357E-05, -1.581326   , -0.0140761016, 2.1615243   , 918.573364  , 30.5399342  , 819.7528    , 0.54        , 7           , 255         , 0           , 0
-0.146157429, 9.796762    , 0.103994727 , -4.424824E-05, 0.000121661054, 0.000567025854, -1.58132637 , -0.014070469, 2.16152287  , 918.573364  , 30.5399342  , 819.7529    , 0.55        , 7           , 255         , 0           , 0
-0.147844911, 9.79334     , 0.1050324   , 0.000279484375, 0.000173209468, -4.93303669E-05, -1.58132362 , -0.014070916, 2.1615212   , 918.573364  , 30.5399342  , 819.753052  , 0.56        , 7           , 255         , 0           , 0
-0.142165229, 9.792143    , 0.101503909 , 3.86289248E-05, -0.000183137716, 6.777198E-05, -1.58132315 , -0.0140702594, 2.161523    , 918.573364  , 30.5399342  , 819.7532    , 0.57        , 7           , 255         , 0           , 0
-0.138251454, 9.792007    , 0.105674483 , -0.000710958964, -0.00050404924, 0.000337716017, -1.58133042 , -0.0140668023, 2.161528    , 918.573364  , 30.5399342  , 819.7533    , 0.58        , 7           , 255         , 0           , 0
-0.132760614, 9.784219    , 0.09979163  , 8.944193E-05, -1.58690382E-05, -5.936454E-06, -1.58132946 , -0.0140669215, 2.161528    , 918.573364  , 30.5399342  , 819.7534    , 0.59        , 7           , 255         , 0           , 0
-0.138248   , 9.786913    , 0.106184185 , 0.000207298028, 0.0005490829, -0.00112585363, -1.58132732 , -0.0140782474, 2.16152287  , 918.573364  , 30.5399342  , 819.75354   , 0.6         , 7           , 255         , 0           , 0
-0.139825955, 9.790106    , 0.107551157 , 0.000142508157, -0.000199206232, -0.00065731816, -1.58133554 , -0.0140899913, 2.161525    , 918.573364  , 30.5399342  , 819.77594   , 0.61        , 7           , 255         , 0           , 0
-0.141592234, 9.793449    , 0.1079527   , 0.000247345655, -0.000168210187, -0.000290244556, -1.581333   , -0.0140928524, 2.161527    , 918.573364  , 30.5399342  , 819.776062  , 0.62        , 7           , 255         , 0           , 0
-0.144916579, 9.798014    , 0.102377675 , -9.613804E-05, -0.000150304928, 0.000659974234, -1.581334   , -0.0140862651, 2.16152835  , 918.5768    , 30.54258    , 819.7762    , 0.63        , 7           , 255         , 0           , 0
-0.14271462 , 9.793604    , 0.10509441  , -0.000203536925, 0.0004626087, 0.000577422 , -1.5813359  , -0.0140805729, 2.16152358  , 918.5768    , 30.54258    , 819.7763    , 0.64        , 7           , 255         , 0           , 0
-0.148523986, 9.795521    , 0.101396784 , 0.0001876569, 0.000262883434, 0.0005844462, -1.581334   , -0.0140747009, 2.161521    , 918.5768    , 30.54258    , 819.7764    , 0.65        , 7           , 255         , 0           , 0
-0.142141148, 9.794589    , 0.09662217  , -1.48984254E-05, -0.000308769435, -0.0002274084, -1.58133423 , -0.0140769659, 2.161524    , 918.5768    , 30.54258    , 819.77655   , 0.66        , 7           , 255         , 0           , 0
-0.1407795  , 9.798488    , 0.09922814  , -0.00018925358, 1.32334535E-05, -0.000377459044, -1.58133614 , -0.0140807517, 2.16152382  , 918.5768    , 30.54258    , 819.7767    , 0.67        , 7           , 255         , 0           , 0
-0.142175466, 9.801683    , 0.0990153   , 0.000164584635, -9.687245E-05, -0.000261988869, -1.58133447 , -0.0140833445, 2.161525    , 918.5768    , 30.54258    , 819.7768    , 0.68        , 7           , 255         , 0           , 0
-0.1390563  , 9.788333    , 0.102770291 , -0.000764775148, -0.000280777283, -0.000233587314, -1.5813421  , -0.0140856393, 2.16152787  , 918.5768    , 30.54258    , 819.7769    , 0.69        , 7           , 255         , 0           , 0
-0.135520965, 9.799426    , 0.106166109 , -0.00031519006, 0.000234487758, -0.000207324934, -1.5813452  , -0.0140877552, 2.16152549  , 918.5768    , 30.54258    , 819.777039  , 0.7         , 7           , 255         , 0           , 0
-0.146996349, 9.805685    , 0.112079382 , -0.000128547879, -0.000220673915, -0.0003373127, -1.58134508 , -0.0141021814, 2.16152763  , 918.5768    , 30.54258    , 819.788269  , 0.71        , 7           , 255         , 0           , 0
-0.138435   , 9.79505348  , 0.10713055  , 2.61175373E-05, 0.0004935535, 0.000373985735, -1.58134484 , -0.0140985446, 2.16152287  , 918.5768    , 30.54258    , 819.788452  , 0.72        , 7           , 255         , 0           , 0
-0.132126361, 9.792391    , 0.09460436  , 0.000153202418, -3.70037742E-05, -0.000105584782, -1.58134329 , -0.0140995886, 2.161523    , 918.6256    , 30.5492287  , 819.788635  , 0.73        , 7           , 255         , 0           , 0
-0.138669953, 9.801011    , 0.110878229 , 0.0005815632, 0.000390168338, 0.000570636 , -1.58133745 , -0.0140939252, 2.16151929  , 918.6256    , 30.5492287  , 819.7888    , 0.74        , 7           , 255         , 0           , 0
-0.130933017, 9.789567    , 0.103142664 , 0.000232905542, -8.435827E-05, 0.0007592058, -1.58133519 , -0.0140863247, 2.16152     , 918.6256    , 30.5492287  , 819.789     , 0.75        , 7           , 255         , 0           , 0
-0.130554244, 9.786753    , 0.0979704261, 0.000212417886, 5.314994E-05, 0.000345325039, -1.581333   , -0.0140829273, 2.16151953  , 918.6256    , 30.5492287  , 819.7892    , 0.76        , 7           , 255         , 0           , 0
-0.143613145, 9.795488    , 0.110396072 , -0.0002709431, 0.00011001667, 0.000317208469, -1.58133566 , -0.0140797971, 2.16151834  , 918.6256    , 30.5492287  , 819.789368  , 0.77        , 7           , 255         , 0           , 0
-0.143380329, 9.812683    , 0.109799385 , 0.000261368346, -0.0002463726, -0.0005690704, -1.581333   , -0.0140854307, 2.161521    , 918.6256    , 30.5492287  , 819.789551  , 0.78        , 7           , 255         , 0           , 0
-0.131712317, 9.81134     , 0.107481912 , 0.000242839538, -0.0002854608, -0.000473044056, -1.58133066 , -0.01409014 , 2.16152382  , 918.6256    , 30.5492287  , 819.789734  , 0.79        , 7           , 255         , 0           , 0
-0.1282517  , 9.797682    , 0.09891634  , 0.000101235215, -0.00027593557, 0.000195277142, -1.5813297  , -0.0140882321, 2.16152644  , 918.6256    , 30.5492287  , 819.7899    , 0.8         , 7           , 255         , 0           , 0
-0.138048455, 9.793776    , 0.105380341 , 0.000194804074, 0.000391965732, 0.000418813433, -1.58133221 , -0.0140802749, 2.16152263  , 918.6256    , 30.5492287  , 819.7376    , 0.81        , 7           , 255         , 0           , 0
-0.139580756, 9.789952    , 0.101437137 , 2.13696112E-05, 0.0004384875, -0.000124385959, -1.581332   , -0.0140815862, 2.16151834  , 918.6256    , 30.5492287  , 819.737732  , 0.82        , 7           , 255         , 0           , 0
-0.154264241, 9.794622    , 0.110142291 , -6.16388861E-05, 0.000141607481, -0.000272097124, -1.58133256 , -0.0140843578, 2.161517    , 918.617249  , 30.5512638  , 819.737854  , 0.83        , 7           , 255         , 0           , 0
-0.140250459, 9.796122    , 0.102287747 , 0.000185808822, 0.0001375493, -0.00041174324, -1.58133078 , -0.0140885  , 2.16151547  , 918.617249  , 30.5512638  , 819.738     , 0.84        , 7           , 255         , 0           , 0
-0.1357026  , 9.800001    , 0.115513884 , 0.000438933668, 6.58181962E-05, -0.000409150671, -1.58132637 , -0.0140925245, 2.16151476  , 918.617249  , 30.5512638  , 819.7381    , 0.85        , 7           , 255         , 0           , 0
-0.132256359, 9.797335    , 0.10303203  , 0.000294079771, 0.0005693608, 3.660898E-06, -1.58132339 , -0.0140925841, 2.16150928  , 918.617249  , 30.5512638  , 819.7382    , 0.86        , 7           , 255         , 0           , 0
-0.129242808, 9.790276    , 0.102749705 , 0.0004081   , 0.000117159972, -4.95242566E-05, -1.58131921 , -0.0140931206, 2.161508    , 918.617249  , 30.5512638  , 819.738342  , 0.87        , 7           , 255         , 0           , 0
-0.139519185, 9.789241    , 0.10366521  , -0.00021116584, -9.04329354E-05, -3.915251E-06, -1.58132148 , -0.0140930908, 2.161509    , 918.617249  , 30.5512638  , 819.738464  , 0.88        , 7           , 255         , 0           , 0
-0.138581544, 9.801421    , 0.101588465 , 0.000145167185, -0.0005463113, 9.722532E-05, -1.58132    , -0.0140920179, 2.16151452  , 918.617249  , 30.5512638  , 819.7386    , 0.89        , 7           , 255         , 0           , 0
-0.1384427  , 9.799463    , 0.104779959 , 8.38339838E-05, -0.000110533088, 8.299672E-05, -1.58131921 , -0.0140911536, 2.16151571  , 918.617249  , 30.5512638  , 819.7387    , 0.9         , 7           , 255         , 0           , 0
-0.138920754, 9.797839    , 0.09909208  , 0.000199414149, -0.000129204884, 4.244753E-05, -1.58132255 , -0.0140922563, 2.161517    , 918.617249  , 30.5512638  , 819.7063    , 0.91        , 7           , 255         , 0           , 0
-0.136259243, 9.801817    , 0.108699895 , -0.000190589446, -2.48855213E-05, -0.0004465935, -1.58132446 , -0.0140966969, 2.16151738  , 918.617249  , 30.5512638  , 819.7064    , 0.92        , 7           , 255         , 0           , 0
-0.13647835 , 9.805525    , 0.0958874   , -6.94402552E-05, -0.000133833382, -0.0006289312, -1.58132529 , -0.0141029563, 2.16151857  , 918.68396   , 30.550993   , 819.706543  , 0.93        , 7           , 255         , 0           , 0
-0.13846983 , 9.793414    , 0.100270942 , 0.000219405891, -0.00013184885, -0.0006497434, -1.58132315 , -0.0141094839, 2.16152024  , 918.68396   , 30.550993   , 819.706665  , 0.94        , 7           , 255         , 0           , 0
-0.142994612, 9.784835    , 0.10310737  , 0.000387957378, -8.429808E-06, 0.0005576538, -1.58131933 , -0.01410391 , 2.16152024  , 918.68396   , 30.550993   , 819.7068    , 0.95        , 7           , 255         , 0           , 0
-0.1350243  , 9.790361    , 0.09496046  , 0.0002680731, -0.0003997767, 0.0006710818, -1.58131671 , -0.0140971439, 2.161524    , 918.68396   , 30.550993   , 819.7069    , 0.96        , 7           , 255         , 0           , 0
-0.142154977, 9.793934    , 0.0984417647, 0.000139249081, 0.0001532496, -6.45309046E-06, -1.5813154  , -0.0140972631, 2.16152263  , 918.68396   , 30.550993   , 819.707031  , 0.97        , 7           , 255         , 0           , 0
-0.133522   , 9.785298    , 0.107804082 , -0.0003484221, 0.000350762566, 0.000149421074, -1.58131874 , -0.0140958028, 2.161519    , 918.68396   , 30.550993   , 819.707153  , 0.98        , 7           , 255         , 0           , 0
-0.1314151  , 9.801699    , 0.105733171 , -0.000280097767, 0.00013438164, -0.0002806475, -1.5813216  , -0.0140986349, 2.16151786  , 918.68396   , 30.550993   , 819.7073    , 0.99        , 7           , 255         , 0           , 0
-0.132952377, 9.798141    , 0.09982096  , 0.000486305216, 0.000121384917, -3.34698416E-06, -1.58131683 , -0.0140986647, 2.16151667  , 918.68396   , 30.550993   , 819.7074    , 1           , 7           , 0           , 6.00923634  , 100
-0.133367389, 9.791105    , 0.103672221 , 0.000245445175, 1.1736236E-05, 0.0008640943, -1.58130968 , -0.0140863545, 2.16151619  , 918.68396   , 30.550993   , 819.607666  , 1.01        , 7           , 1           , 0           , 0
-0.1293944  , 9.7879      , 0.101165786 , 0.0007116765, 0.0005601149, -0.000191805128, -1.58130252 , -0.0140883215, 2.16151071  , 918.68396   , 30.550993   , 819.6076    , 1.02        , 7           , 2           , 0           , 0
-0.125026852, 9.805742    , 0.104016088 , 0.000325654284, 0.000178129238, 0.000102284946, -1.58129919 , -0.0140872784, 2.161509    , 918.5585    , 30.55486    , 819.607544  , 1.03        , 7           , 3           , 0           , 0
-0.134279877, 9.797277    , 0.111584127 , -0.0005006043, -0.000163814926, -1.38083124E-07, -1.58130431 , -0.0140873082, 2.16151071  , 918.5585    , 30.55486    , 819.6075    , 1.04        , 7           , 4           , 0           , 0
-0.136602074, 9.801213    , 0.112787284 , -7.65649E-07, -0.000392360671, 0.0007088657, -1.58130431 , -0.0140801556, 2.16151452  , 918.5585    , 30.55486    , 819.6074    , 1.05        , 7           , 5           , 0           , 0
-0.140694588, 9.790492    , 0.109635174 , -0.00012607644, 0.000428376545, -0.0001505804, -1.5813055  , -0.014081765, 2.16151023  , 918.5585    , 30.55486    , 819.607361  , 1.06        , 7           , 6           , 0           , 0
-0.135388941, 9.781343    , 0.0962805   , -0.000613313459, -5.218276E-05, -0.0009005627, -1.5813117  , -0.014090647, 2.16151071  , 918.5585    , 30.55486    , 819.6073    , 1.07        , 7           , 7           , 0           , 0
-0.1406463  , 9.800866    , 0.108411647 , -0.000536577, -1.64859812E-05, -0.0004989046, -1.581317   , -0.0140956836, 2.16151118  , 918.5585    , 30.55486    , 819.607239  , 1.08        , 7           , 8           , 5           , 5
-0.145981863, 9.792241    , 0.106567658 , -0.000181922878, 0.000195664237, -0.000458722468, -1.58131874 , -0.0141002741, 2.161509    , 918.5585    , 30.55486    , 819.6072    , 1.09        , 7           , 9           , 5           , 0.1
-0.143330187, 9.795035    , 0.104467168 , 3.843152E-05, 5.287584E-05, -0.00019204893, -1.58131838 , -0.014102241, 2.16150856  , 918.5585    , 30.55486    , 819.6071    , 1.1         , 7           , 10          , 0.1         , 0.1
-0.14357397 , 9.792734    , 0.103199519 , -0.0005585329, -0.0003164908, 5.309908E-05, -1.58133209 , -0.0140975015, 2.161512    , 918.5585    , 30.55486    , 819.6547    , 1.11        , 7           , 11          , 0.009443959 , 0.009443959
-0.138613313, 9.796659    , 0.102953658 , -0.000515518943, -0.0004211249, 9.044701E-05, -1.58133721 , -0.0140965777, 2.161516    , 918.5585    , 30.55486    , 819.6548    , 1.12        , 7           , 12          , 0.0346428268, 0
-0.138747439, 9.787061    , 0.107189104 , -0.000140012911, -0.000322634121, -7.68249447E-06, -1.58133876 , -0.0140965478, 2.16151929  , 918.617     , 30.556284   , 819.654846  , 1.13        , 7           , 13          , 0           , 0
-0.136643827, 9.792631    , 0.101918437 , -0.000474286819, 2.75176135E-05, 1.74567685E-06, -1.58134353 , -0.0140966075, 2.161519    , 918.617     , 30.556284   , 819.6549    , 1.14        , 7           , 14          , -0.000135938957, 0.000773612934
-0.133110732, 9.802293    , 0.09663407  , 0.000465745048, 6.37375051E-05, 0.000217406763, -1.58133888 , -0.0140943723, 2.16151834  , 918.617     , 30.556284   , 819.654968  , 1.15        , 7           , 15          , 0           , 0.000221101582
-0.1343575  , 9.801233    , 0.0958917663, -1.0276417E-05, 0.0002524049, -0.000134445028, -1.581339   , -0.014095773, 2.16151571  , 918.617     , 30.556284   , 819.655     , 1.16        , 7           , 16          , 0           , 1.401298E-45
-0.137329131, 9.793929    , 0.103130579 , 0.000452478445, -0.000126059807, 3.86669562E-05, -1.58133447 , -0.0140953856, 2.16151714  , 918.617     , 30.556284   , 819.6551    , 1.17        , 7           , 20          , 0           , 0
-0.14060685 , 9.793506    , 0.108061835 , 6.07256225E-05, 0.000411615882, -0.000120343575, -1.58133388 , -0.0140965777, 2.16151285  , 918.617     , 30.556284   , 819.655151  , 1.18        , 7           , 21          , 0           , 0
-0.14248319 , 9.797518    , 0.109171115 , 5.01359536E-05, 7.68356258E-05, -0.000666950946, -1.5813334  , -0.0141032245, 2.16151214  , 918.617     , 30.556284   , 819.6552    , 1.19        , 7           , 22          , 0           , 0
-0.143178582, 9.803151    , 0.09952254  , 6.682327E-05, 1.99362985E-05, -0.000346696645, -1.58133268 , -0.0141067412, 2.16151214  , 918.617     , 30.556284   , 819.6553    , 1.2         , 7           , 40          , 0           , 0
-0.131180763, 9.801408    , 0.102721885 , 0.00027594014, 0.000110894907, 0.000170217681, -1.58132875 , -0.0141070094, 2.161511    , 918.617     , 30.556284   , 819.636047  , 1.21        , 7           , 41          , 0           , 0
-0.144929752, 9.798435    , 0.104645446 , 0.00028671528, -8.299475E-05, -2.260608E-05, -1.58132589 , -0.0141071882, 2.161512    , 918.617     , 30.556284   , 819.636047  , 1.22        , 7           , 42          , 1           , 0
-0.1409773  , 9.786461    , 0.09983547  , 0.000193497981, -0.0001810643, -0.0006872248, -1.581324   , -0.0141140437, 2.16151357  , 918.631653  , 30.555809   , 819.636047  , 1.23        , 7           , 255         , 0           , 0
-0.135994777, 9.79243     , 0.108791269 , 2.50437E-06 , 0.0006288745, -0.0008134489, -1.58132386 , -0.01412224 , 2.16150761  , 918.631653  , 30.555809   , 819.636047  , 1.24        , 7           , 255         , 0           , 0
-0.127025083, 9.79462051  , 0.105837546 , 0.000260459 , 0.000533281 , 0.000173495617, -1.58132112 , -0.0141205117, 2.16150236  , 918.631653  , 30.555809   , 819.636047  , 1.25        , 7           , 255         , 0           , 0
-0.129799992, 9.786725    , 0.10231638  , 3.74994124E-05, 0.0002744886, -0.0002797091, -1.58132064 , -0.0141233429, 2.1614995   , 918.631653  , 30.555809   , 819.636047  , 1.26        , 7           , 255         , 0           , 0
-0.138192862, 9.790926    , 0.0990944952, 0.00019055442, -0.000101762242, -0.000439454656, -1.58131862 , -0.0141277546, 2.16150069  , 918.631653  , 30.555809   , 819.636047  , 1.27        , 7           , 255         , 0           , 0
-0.146222353, 9.796455    , 0.100240946 , 8.32506048E-05, -0.000180222909, -0.00086336513, -1.5813179  , -0.014136428, 2.1615026   , 918.631653  , 30.555809   , 819.636047  , 1.28        , 7           , 255         , 0           , 0
-0.134615719, 9.784864    , 0.101395562 , -1.39938638E-05, 0.0004360507, -0.00017411889, -1.581318   , -0.0141382162, 2.16149831  , 918.631653  , 30.555809   , 819.636047  , 1.29        , 7           , 255         , 0           , 0
-0.121947385, 9.783586    , 0.105225943 , -0.000255766034, -6.966584E-05, 0.000248544442, -1.58132064 , -0.0141357714, 2.16149879  , 918.631653  , 30.555809   , 819.636047  , 1.3         , 7           , 255         , 0           , 0
-0.136450469, 9.78710651  , 0.103987552 , -0.000255655381, 0.000371601025, -8.312127E-05, -1.58132279 , -0.0141263232, 2.16149521  , 918.631653  , 30.555809   , 819.603943  , 1.31        , 7           , 255         , 0           , 0
-0.139433473, 9.80043     , 0.09514103  , 3.13196579E-05, -3.08438321E-05, -0.0002324944, -1.58132243 , -0.0141286189, 2.16149545  , 918.631653  , 30.555809   , 819.6039    , 1.32        , 7           , 255         , 0           , 0
-0.14277932 , 9.804629    , 0.103389405 , 0.000468600163, 8.47636838E-05, 0.000188739476, -1.58131766 , -0.0141266817, 2.16149473  , 918.612244  , 30.5559444  , 819.6038    , 1.33        , 7           , 255         , 0           , 0
-0.144459531, 9.798725    , 0.099405095 , -0.000317791739, -0.000238729583, 0.000299441628, -1.58132088 , -0.014123641, 2.16149688  , 918.612244  , 30.5559444  , 819.60376   , 1.34        , 7           , 255         , 0           , 0
-0.15068534 , 9.786123    , 0.105210379 , 5.366892E-06, -0.00029075428, -0.00033339212, -1.58132088 , -0.01412689 , 2.16149974  , 918.612244  , 30.5559444  , 819.6037    , 1.35        , 7           , 255         , 0           , 0
-0.145834714, 9.780723    , 0.103942111 , -0.000286401773, -0.000197933114, -0.000287321542, -1.58132374 , -0.0141297812, 2.161502    , 918.612244  , 30.5559444  , 819.603638  , 1.36        , 7           , 255         , 0           , 0
-0.135466188, 9.792812    , 0.104628637 , -0.0005948357, -5.285378E-05, -8.54245445E-05, -1.58132982 , -0.0141306454, 2.16150236  , 918.612244  , 30.5559444  , 819.6036    , 1.37        , 7           , 255         , 0           , 0
-0.126589656, 9.795543    , 0.109201491 , -3.912908E-05, -0.000462716358, 0.0006192755, -1.58133018 , -0.0141244158, 2.16150713  , 918.612244  , 30.5559444  , 819.6035    , 1.38        , 7           , 255         , 0           , 0
-0.133175164, 9.799329    , 0.100139856 , 0.000347172259, 0.000242386654, -0.000432313071, -1.58132672 , -0.0141288573, 2.16150451  , 918.612244  , 30.5559444  , 819.603455  , 1.39        , 7           , 255         , 0           , 0
-0.144950315, 9.791711    , 0.102680586 , 0.0002511624, -0.000156065624, -0.000400313933, -1.58132422 , -0.0141328508, 2.16150618  , 918.612244  , 30.5559444  , 819.6034    , 1.4         , 7           , 255         , 0           , 0
-0.135849819, 9.792448    , 0.092216894 , 0.000277947984, -2.99791573E-05, 0.00070651283, -1.58132064 , -0.0141300494, 2.16150618  , 918.612244  , 30.5559444  , 819.594666  , 1.41        , 7           , 255         , 0           , 0
-0.135299638, 9.779918    , 0.1020931   , -0.0005274215, -1.86031684E-07, -0.000120014432, -1.58132577 , -0.0141312117, 2.16150641  , 918.612244  , 30.5559444  , 819.594543  , 1.42        , 7           , 255         , 0           , 0
-0.1474388  , 9.798914    , 0.0973319039, -0.00028735504, -0.0004237045, -0.000247100077, -1.58132875 , -0.0141336555, 2.16151047  , 918.5807    , 30.55703    , 819.5944    , 1.43        , 7           , 255         , 0           , 0
-0.145656958, 9.805887    , 0.105015755 , 0.000103902719, 0.000125654624, -5.736704E-05, -1.5813278  , -0.0141342813, 2.16150928  , 918.5807    , 30.55703    , 819.5943    , 1.44        , 7           , 255         , 0           , 0
-0.132632941, 9.801931    , 0.109397113 , -0.000180083356, -0.00017669634, 0.000667667249, -1.58132958 , -0.014127546, 2.161511    , 918.5807    , 30.55703    , 819.5942    , 1.45        , 7           , 255         , 0           , 0
-0.133554563, 9.779139    , 0.09353995  , -0.000127319188, 0.000157425937, 0.000236293185, -1.58133078 , -0.0141251907, 2.16150951  , 918.5807    , 30.55703    , 819.594055  , 1.46        , 7           , 255         , 0           , 0
-0.134459212, 9.778875    , 0.103519559 , 0.000226701814, -9.916205E-05, 0.0006280459, -1.58132851 , -0.0141189322, 2.16151023  , 918.5807    , 30.55703    , 819.593933  , 1.47        , 7           , 255         , 0           , 0
-0.1344797  , 9.797529    , 0.09844855  , 0.000317396072, -4.95640561E-05, -0.000426076178, -1.58132529 , -0.0141232237, 2.16151071  , 918.5807    , 30.55703    , 819.5938    , 1.48        , 7           , 255         , 0           , 0
-0.148929328, 9.8097105   , 0.097785376 , 0.000225363852, -0.000278960622, -0.000411515881, -1.581323   , -0.0141273076, 2.16151357  , 918.5807    , 30.55703    , 819.59375   , 1.49        , 7           , 255         , 0           , 0
-0.144272953, 9.801069    , 0.107622184 , 0.000435700669, 0.000225757423, 0.000211132021, -1.58131862 , -0.0141252205, 2.16151142  , 918.5807    , 30.55703    , 819.5937    , 1.5         , 7           , 255         , 0           , 0
-0.131469578, 9.791385    , 0.104467012 , 0.0005258666, 0.000220149814, 0.000335169316, -1.58130717 , -0.0141240582, 2.161509    , 918.5807    , 30.55703    , 819.619263  , 1.51        , 7           , 255         , 0           , 0
-0.141194358, 9.77958     , 0.101066664 , 0.000692376 , 0.0004925597, 5.704559E-05, -1.58130026 , -0.0141234919, 2.16150427  , 918.5807    , 30.55703    , 819.6193    , 1.52        , 7           , 255         , 0           , 0
-0.139838427, 9.788464    , 0.1022151   , -0.0005418079, 0.000363048923, -0.000165392092, -1.58130562 , -0.0141251311, 2.16150069  , 918.574463  , 30.5602188  , 819.6194    , 1.53        , 7           , 255         , 0           , 0
-0.141491443, 9.805629    , 0.105710842 , -0.0006496549, 7.22822733E-06, -0.0006299263, -1.58131206 , -0.01413142 , 2.16150069  , 918.574463  , 30.5602188  , 819.619446  , 1.54        , 7           , 255         , 0           , 0
-0.139577121, 9.804033    , 0.1053497   , 0.0001888562, 0.000152544177, -0.00013181314, -1.58131015 , -0.0141327316, 2.161499    , 918.574463  , 30.5602188  , 819.6195    , 1.55        , 7           , 255         , 0           , 0
-0.138954341, 9.794977    , 0.107577637 , 0.000245005736, -0.000100297388, 0.000195270244, -1.58130765 , -0.0141307348, 2.1615      , 918.574463  , 30.5602188  , 819.619568  , 1.56        , 7           , 255         , 0           , 0
-0.142340541, 9.782599    , 0.09659782  , 3.49220136E-05, -0.000182649528, -3.663692E-06, -1.58130729 , -0.0141307348, 2.161502    , 918.574463  , 30.5602188  , 819.6196    , 1.57        , 7           , 255         , 0           , 0
-0.142808437, 9.788495    , 0.103857718 , 4.1915453E-05, -0.0002394634, -0.000504980853, -1.58130693 , -0.0141357118, 2.16150427  , 918.574463  , 30.5602188  , 819.6197    , 1.58        , 7           , 255         , 0           , 0
-0.137106225, 9.785886    , 0.109207854 , 0.00013674701, -0.00018566614, -0.000142562931, -1.58130562 , -0.0141371433, 2.16150618  , 918.574463  , 30.5602188  , 819.619751  , 1.59        , 7           , 255         , 0           , 0
-0.141316369, 9.794698    , 0.106969818 , 0.000469677936, 0.0001283192, 0.000388447545, -1.581301   , -0.0141333276, 2.16150475  , 918.574463  , 30.5602188  , 819.6198    , 1.6         , 7           , 255         , 0           , 0
-0.1456367  , 9.7908535   , 0.10308931  , 0.000354346063, 1.57654285E-05, 0.000739832467, -1.58130133 , -0.0141295427, 2.16150451  , 918.574463  , 30.5602188  , 819.6497    , 1.61        , 7           , 255         , 0           , 0
-0.137641653, 9.7966      , 0.10499499  , 0.000645214168, 8.370803E-05, 0.000602537533, -1.58129489 , -0.0141235217, 2.16150379  , 918.574463  , 30.5602188  , 819.6499    , 1.62        , 7           , 255         , 0           , 0
-0.139458328, 9.781733    , 0.111955106 , 0.000481368275, -8.239335E-05, -0.000142282777, -1.58129    , -0.0141249225, 2.16150451  , 918.591858  , 30.55988    , 819.6501    , 1.63        , 7           , 255         , 0           , 0
-0.138710976, 9.789828    , 0.107380554 , 0.000313340628, 0.000136915769, 0.0008043879, -1.58128691 , -0.0141169345, 2.161503    , 918.591858  , 30.55988    , 819.650269  , 1.64        , 7           , 255         , 0           , 0
-0.142168432, 9.794806    , 0.108198509 , -4.13431553E-05, 0.0001476524, -0.000137426483, -1.58128726 , -0.0141183957, 2.16150165  , 918.591858  , 30.55988    , 819.650452  , 1.65        , 7           , 255         , 0           , 0
-0.146998256, 9.797342    , 0.102325775 , 0.00072304823, -0.00013996195, -0.000485749915, -1.58128011 , -0.0141232237, 2.161503    , 918.591858  , 30.55988    , 819.650635  , 1.66        , 7           , 255         , 0           , 0
-0.137591019, 9.793722    , 0.0948995352, 0.0002374403, 0.000423457532, -0.000132831483, -1.58127773 , -0.0141246542, 2.161499    , 918.591858  , 30.55988    , 819.6508    , 1.67        , 7           , 255         , 0           , 0
-0.139173   , 9.794856    , 0.0942741   , -0.000427063322, -0.000138509786, 6.30445E-05 , -1.581282   , -0.0141239092, 2.16150022  , 918.591858  , 30.55988    , 819.651     , 1.68        , 7           , 255         , 0           , 0
-0.134597719, 9.786798    , 0.101492427 , 0.000247505464, 0.000198516354, 8.71618249E-05, -1.58127952 , -0.0141230747, 2.16149831  , 918.591858  , 30.55988    , 819.6512    , 1.69        , 7           , 255         , 0           , 0
-0.145135567, 9.79446     , 0.1034114   , -0.0002085255, -2.00530048E-05, 0.000128483181, -1.58128166 , -0.0141217634, 2.16149855  , 918.591858  , 30.55988    , 819.6514    , 1.7         , 7           , 255         , 0           , 0
-0.1501547  , 9.813722    , 0.09906025  , 0.000204455748, 0.0001065355, 0.000463656266, -1.58128083 , -0.0141238794, 2.16149735  , 918.591858  , 30.55988    , 819.6595    , 1.71        , 7           , 255         , 0           , 0
-0.141377181, 9.806517    , 0.09945067  , 0.0007306596, 0.000134270347, 0.000734812056, -1.58127356 , -0.0141164875, 2.16149616  , 918.591858  , 30.55988    , 819.6597    , 1.72        , 7           , 255         , 0           , 0
-0.139395818, 9.792852    , 0.101554178 , 0.0005653471, 0.000226699922, 0.000396010641, -1.581268   , -0.0141125536, 2.16149378  , 918.605042  , 30.556488   , 819.66      , 1.73        , 7           , 255         , 0           , 0
-0.134082049, 9.791113    , 0.100292325 , 0.000441378535, -0.000317343976, 0.0009561276, -1.58126342 , -0.0141029265, 2.16149688  , 918.605042  , 30.556488   , 819.6602    , 1.74        , 7           , 255         , 0           , 0
-0.127594352, 9.789853    , 0.09276681  , 0.000637486461, -0.000307536015, 0.000718169846, -1.58125722 , -0.014095773, 2.16149974  , 918.605042  , 30.556488   , 819.660461  , 1.75        , 7           , 255         , 0           , 0
-0.122683212, 9.79431248  , 0.09514208  , -0.000324459077, -0.000445112324, 0.0004064163, -1.58126044 , -0.0140916305, 2.16150427  , 918.605042  , 30.556488   , 819.6607    , 1.76        , 7           , 255         , 0           , 0
-0.132554024, 9.797315    , 0.09539603  , -0.000182699674, -0.000345959823, 0.000525212963, -1.58126223 , -0.0140863545, 2.16150761  , 918.605042  , 30.556488   , 819.66095   , 1.77        , 7           , 255         , 0           , 0
-0.134867609, 9.801596    , 0.1001488   , -4.032858E-05, -0.0003223126, 0.0001696219, -1.58126259 , -0.0140845664, 2.161511    , 918.605042  , 30.556488   , 819.661255  , 1.78        , 7           , 255         , 0           , 0
-0.142882168, 9.790743    , 0.104494311 , -0.000152076071, -3.43400752E-05, -0.000544447335, -1.58126414 , -0.0140899615, 2.16151118  , 918.605042  , 30.556488   , 819.66156   , 1.79        , 7           , 255         , 0           , 0
-0.145566672, 9.790598    , 0.10128627  , -0.0003186386, 0.000353573181, -0.0008513926, -1.58126736 , -0.0140985148, 2.16150784  , 918.605042  , 30.556488   , 819.661865  , 1.8         , 7           , 255         , 0           , 0
-0.132347152, 9.798225    , 0.104056023 , 4.85418423E-05, 8.802995E-05, -0.000606054033, -1.58125985 , -0.0141026285, 2.161507    , 918.605042  , 30.556488   , 819.654     , 1.81        , 7           , 255         , 0           , 0
-0.130295545, 9.796772    , 0.106612027 , 0.000706224353, -0.000420492754, -0.000702630437, -1.58125281 , -0.0141096031, 2.16151118  , 918.605042  , 30.556488   , 819.654236  , 1.82        , 7           , 255         , 0           , 0
-0.133718461, 9.797312    , 0.113125004 , 0.0001756715, -0.00015829131, 0.000630962662, -1.58125114 , -0.0141033139, 2.16151261  , 918.6047    , 30.5605583  , 819.6545    , 1.83        , 7           , 255         , 0           , 0
-0.134295255, 9.804927    , 0.106676124 , -0.00032975903, 6.663479E-05, 0.0007353461, -1.58125448 , -0.0140959816, 2.161512    , 918.6047    , 30.5605583  , 819.6547    , 1.84        , 7           , 255         , 0           , 0
-0.14030695 , 9.79265     , 0.108914018 , 0.000311524316, 0.00016379758, 0.0007827345, -1.58125138 , -0.0140881725, 2.16151023  , 918.6047    , 30.5605583  , 819.654968  , 1.85        , 7           , 255         , 0           , 0
-0.142202348, 9.788615    , 0.1084459   , -7.491748E-06, -0.000109554443, 0.000891790143, -1.58125138 , -0.0140792308, 2.161511    , 918.6047    , 30.5605583  , 819.6552    , 1.86        , 7           , 255         , 0           , 0
-0.133401424, 9.796566    , 0.105894729 , -1.70776621E-05, -2.04344979E-05, 0.000600247353, -1.5812515  , -0.0140732406, 2.16151118  , 918.6047    , 30.5605583  , 819.655457  , 1.87        , 7           , 255         , 0           , 0
-0.144794688, 9.804083    , 0.115154959 , -0.00021013229, 0.0002378127, 0.000473005 , -1.58125353 , -0.0140684713, 2.1615088   , 918.6047    , 30.5605583  , 819.6557    , 1.88        , 7           , 255         , 0           , 0
-0.145715922, 9.800929    , 0.102868833 , -0.000333899981, 0.000372615468, -0.000149234067, -1.58125687 , -0.0140699614, 2.16150522  , 918.6047    , 30.5605583  , 819.655945  , 1.89        , 7           , 255         , 0           , 0
-0.145287246, 9.799535    , 0.103087842 , 3.88006956E-05, 7.705699E-05, -4.38858842E-05, -1.58125639 , -0.0140704392, 2.16150427  , 918.6047    , 30.5605583  , 819.6562    , 1.9         , 7           , 255         , 0           , 0
-0.133526757, 9.792378    , 0.09956892  , 0.0003485969, -0.000234078092, 0.0002717452, -1.58126235 , -0.0140679646, 2.161507    , 918.6047    , 30.5605583  , 819.6491    , 1.91        , 7           , 255         , 0           , 0
-0.136902869, 9.792202    , 0.102326967 , 0.00105953007, 0.00010908884, 4.63661272E-05, -1.58125174 , -0.0140675772, 2.1615057   , 918.6047    , 30.5605583  , 819.6493    , 1.92        , 7           , 255         , 0           , 0
-0.140504479, 9.798604    , 0.09770407  , 0.000166016558, 0.0004542194, -0.000271523779, -1.58125    , -0.014070319, 2.16150117  , 918.664063  , 30.55988    , 819.649536  , 1.93        , 7           , 255         , 0           , 0
-0.140125543, 9.79690552  , 0.10031949  , -0.0001348713, 9.68829845E-05, 2.424873E-05, -1.58125138 , -0.0140700508, 2.16150022  , 918.664063  , 30.55988    , 819.6498    , 1.94        , 7           , 255         , 0           , 0
-0.13022688 , 9.798391    , 0.09706469  , -0.000261502282, -1.13564311E-05, 0.000550747965, -1.581254   , -0.0140645672, 2.16150045  , 918.664063  , 30.55988    , 819.65      , 1.95        , 7           , 255         , 0           , 0
-0.134564251, 9.796367    , 0.09411703  , -0.000101733385, -3.08054732E-05, 0.000333302829, -1.581255   , -0.0140611995, 2.16150069  , 918.664063  , 30.55988    , 819.650269  , 1.96        , 7           , 255         , 0           , 0
-0.1432117  , 9.790342    , 0.09141344  , -0.000674023468, 0.000272491248, 1.79540366E-05, -1.58126175 , -0.01406111 , 2.16149783  , 918.664063  , 30.55988    , 819.6505    , 1.97        , 7           , 255         , 0           , 0
-0.1385726  , 9.79392052  , 0.0888450742, -0.00032057974, 9.894895E-05, -0.0005055036, -1.581265   , -0.0140661169, 2.161497    , 918.664063  , 30.55988    , 819.650757  , 1.98        , 7           , 255         , 0           , 0
-0.142602757, 9.801371    , 0.1065781   , 1.26589875E-05, 0.000177204551, -0.000837838335, -1.58126473 , -0.0140745519, 2.16149521  , 918.664063  , 30.55988    , 819.651     , 1.99        , 7           , 255         , 0           , 0
-0.138103828, 9.801987    , 0.106958285 , 0.000152500827, 0.0002005623, 0.000373610819, -1.58126318 , -0.0140707968, 2.1614933   , 918.664063  , 30.55988    , 819.651245  , 2           , 7           , 0           , 7.00923634  , 200
-0.146639526, 9.794346    , 0.104065254 , 0.0001504372, -6.76780473E-06, 0.00020128621, -1.58125389 , -0.0140688587, 2.1614933   , 918.664063  , 30.55988    , 819.5729    , 2.01        , 7           , 1           , 0           , 0
-0.139168665, 9.780533    , 0.108607352 , -1.618106E-05, -1.38911419E-05, -0.000210790837, -1.581254   , -0.0140709458, 2.1614933   , 918.664063  , 30.55988    , 819.572632  , 2.02        , 7           , 2           , 0           , 0
-0.135862246, 9.799824    , 0.111054525 , -0.000279378321, -1.29962573E-05, 0.0002040972, -1.58125675 , -0.0140689183, 2.1614933   , 918.649231  , 30.558115   , 819.5724    , 2.03        , 7           , 3           , 0           , 0
-0.143152684, 9.800604    , 0.1170946   , -0.000278619176, 0.0001927478, -0.0003866013, -1.58125949 , -0.0140727637, 2.16149139  , 918.649231  , 30.558115   , 819.572144  , 2.04        , 7           , 4           , 0           , 0
-0.139610082, 9.802023    , 0.106702007 , 0.0001817124, 0.000163297052, -0.000404113729, -1.5812577  , -0.0140768168, 2.16149     , 918.649231  , 30.558115   , 819.5719    , 2.05        , 7           , 5           , 0           , 0
-0.136704013, 9.800273    , 0.108976528 , 4.964025E-05, -0.000181140669, 0.000244593422, -1.5812571  , -0.0140743433, 2.16149163  , 918.649231  , 30.558115   , 819.571655  , 2.06        , 7           , 6           , 0           , 0
-0.1437605  , 9.791339    , 0.10269542  , 0.000307803275, -9.524333E-05, 0.0008844263, -1.581254   , -0.014065491, 2.16149259  , 918.649231  , 30.558115   , 819.5714    , 2.07        , 7           , 7           , 0           , 0
-0.14894934 , 9.797563    , 0.102628425 , 0.000262584741, -0.0002594189, 0.00108227588, -1.58125126 , -0.0140546421, 2.161495    , 918.649231  , 30.558115   , 819.571167  , 2.08        , 7           , 8           , 5           , 5
-0.148950741, 9.793959    , 0.101431787 , 8.41242363E-05, 0.000200660608, 0.000494903245, -1.58125043 , -0.0140497535, 2.16149282  , 918.649231  , 30.558115   , 819.5709    , 2.09        , 7           , 9           , 5           , 0.1
-0.132547781, 9.790884    , 0.111863829 , 0.000550337543, 6.730505E-05, -0.0002429728, -1.581245   , -0.0140521983, 2.16149235  , 918.649231  , 30.558115   , 819.5707    , 2.1         , 7           , 10          , 0.1         , 0.1
-0.124826632, 9.785606    , 0.106333613 , 0.001005663 , -0.000238479872, 3.85173335E-05, -1.58124542 , -0.01405944 , 2.161495    , 918.649231  , 30.558115   , 819.5186    , 2.11        , 7           , 11          , 0.00835218  , 0.008352182
-0.132323474, 9.784434    , 0.103730105 , 0.000207128964, -0.000338090322, -0.000430909946, -1.5812434  , -0.0140636731, 2.16149831  , 918.649231  , 30.558115   , 819.518066  , 2.12        , 7           , 12          , 0.03464815  , 0
-0.12783727 , 9.785881    , 0.106620453 , -0.000238724388, -0.000309873983, -2.57541251E-05, -1.58124566 , -0.0140639413, 2.16150141  , 918.615845  , 30.556963   , 819.5175    , 2.13        , 7           , 13          , 0           , 0
-0.128638119, 9.797846    , 0.100534178 , -0.000253648032, -0.00018330582, 0.000137741517, -1.58124816 , -0.0140625108, 2.161503    , 918.615845  , 30.556963   , 819.516968  , 2.14        , 7           , 14          , -0.00013592797, 0.0007736127
-0.139985442, 9.800224    , 0.104934052 , 0.000624950044, -3.26613081E-05, -0.000236713735, -1.581242   , -0.0140649248, 2.16150331  , 918.615845  , 30.556963   , 819.5164    , 2.15        , 7           , 15          , 0           , 0.0002211388
-0.15018867 , 9.807734    , 0.09178285  , 0.0005475879, 7.822743E-05, -0.0003887944, -1.58123648 , -0.0140687991, 2.16150284  , 918.615845  , 30.556963   , 819.515869  , 2.16        , 7           , 16          , 0           , 1.401298E-45
-0.1410529  , 9.79965     , 0.09408437  , 2.829801E-05, -0.000111669651, -0.0007467529, -1.58123624 , -0.01407628 , 2.161504    , 918.615845  , 30.556963   , 819.5153    , 2.17        , 7           , 20          , 0           , 0
-0.135568112, 9.784553    , 0.107083023 , -4.01883881E-05, -3.69910267E-05, -0.0004110757, -1.5812366  , -0.0140804239, 2.16150427  , 918.615845  , 30.556963   , 819.5148    , 2.18        , 7           , 21          , 0           , 0
-0.13457638 , 9.782988    , 0.109474219 , -0.000288854761, -0.000124525977, -7.415678E-05, -1.58123958 , -0.0140811987, 2.1615057   , 918.615845  , 30.556963   , 819.5142    , 2.19        , 7           , 22          , 0           , 0
-0.131286919, 9.788008    , 0.110108115 , -0.000368792331, 0.000265715935, 0.0004444857, -1.58124316 , -0.0140767572, 2.16150284  , 918.615845  , 30.556963   , 819.5137    , 2.2         , 7           , 40          , 0           , 0
-0.139545232, 9.8027      , 0.102968514 , -4.07427433E-06, 0.000256689731, 6.079863E-06, -1.58124626 , -0.01406868 , 2.16150045  , 918.615845  , 30.556963   , 819.5101    , 2.21        , 7           , 41          , 0           , 0
-0.14267005 , 9.808014    , 0.103061691 , 0.000230199163, 0.000278512947, -0.0004643894, -1.58124387 , -0.01407336 , 2.16149759  , 918.615845  , 30.556963   , 819.5095    , 2.22        , 7           , 42          , 1           , 0
-0.151058167, 9.796766    , 0.09155792  , 0.0008220203, -0.00011394266, -0.000340620172, -1.58123577 , -0.0140767572, 2.16149879  , 918.5989    , 30.5596771  , 819.509     , 2.23        , 7           , 255         , 0           , 0
-0.1428502  , 9.79463     , 0.103052989 , 0.0004115235, -1.13383285E-05, -0.000338330283, -1.58123159 , -0.0140801556, 2.161499    , 918.5989    , 30.5596771  , 819.5084    , 2.24        , 7           , 255         , 0           , 0
-0.142799184, 9.799614    , 0.102004074 , -0.000653970754, -0.000166304992, 0.00043628522, -1.58123827 , -0.0140758036, 2.16150045  , 918.5989    , 30.5596771  , 819.5079    , 2.25        , 7           , 255         , 0           , 0
-0.137824491, 9.80347     , 0.09989996  , -0.000279526663, -0.0003024481, -0.0001345989, -1.581241   , -0.0140770851, 2.16150355  , 918.5989    , 30.5596771  , 819.5073    , 2.26        , 7           , 255         , 0           , 0
-0.1305555  , 9.802197    , 0.107664444 , -0.000493878033, -5.1631243E-05, -0.0005604743, -1.5812459  , -0.0140826888, 2.16150427  , 918.5989    , 30.5596771  , 819.5068    , 2.27        , 7           , 255         , 0           , 0
-0.136927113, 9.79637     , 0.1007563   , 5.3638636E-05, 0.000289014541, 7.982609E-05, -1.58124542 , -0.0140819438, 2.16150117  , 918.5989    , 30.5596771  , 819.5062    , 2.28        , 7           , 255         , 0           , 0
-0.123223662, 9.79326     , 0.109448448 , -0.000246640644, -1.41937053E-05, 0.000161314834, -1.58124793 , -0.0140803345, 2.16150141  , 918.5989    , 30.5596771  , 819.5057    , 2.29        , 7           , 255         , 0           , 0
-0.126822948, 9.79221     , 0.112000868 , 1.081769E-05, -8.469098E-05, -0.000683444552, -1.58124769 , -0.0140871294, 2.16150212  , 918.5989    , 30.5596771  , 819.5051    , 2.3         , 7           , 255         , 0           , 0
-0.147067577, 9.80689049  , 0.113549948 , -0.000108337539, 0.000336292374, -0.00034099436, -1.58125031 , -0.0140897827, 2.161499    , 918.5989    , 30.5596771  , 819.524658  , 2.31        , 7           , 255         , 0           , 0
-0.1443739  , 9.807077    , 0.105423771 , 0.0002357415, 0.000125947234, 7.657173E-05, -1.581248   , -0.0140890367, 2.16149759  , 918.5989    , 30.5596771  , 819.524231  , 2.32        , 7           , 255         , 0           , 0
-0.141727179, 9.7926      , 0.10585165  , 0.000107151878, -0.000170580053, -0.000217486289, -1.581247   , -0.0140911834, 2.1614995   , 918.6169    , 30.5575047  , 819.5238    , 2.33        , 7           , 255         , 0           , 0
-0.138479754, 9.795245    , 0.10410241  , -0.00015059374, 0.000257014355, 0.000353498966, -1.5812484  , -0.0140876956, 2.16149688  , 918.6169    , 30.5575047  , 819.5234    , 2.34        , 7           , 255         , 0           , 0
-0.142964751, 9.789489    , 0.1084682   , 0.0003172991, 0.000303301669, 8.89190851E-05, -1.58124518 , -0.0140869208, 2.16149378  , 918.6169    , 30.5575047  , 819.522949  , 2.35        , 7           , 255         , 0           , 0
-0.134096026, 9.797221    , 0.103222206 , 0.000220980524, 3.22886626E-05, 0.000492868363, -1.58124292 , -0.0140819736, 2.16149354  , 918.6169    , 30.5575047  , 819.5225    , 2.36        , 7           , 255         , 0           , 0
-0.130747378, 9.809538    , 0.09898434  , 0.000130568078, -0.0002162421, -0.000255611434, -1.58124161 , -0.0140844174, 2.16149569  , 918.6169    , 30.5575047  , 819.522156  , 2.37        , 7           , 255         , 0           , 0
-0.141015828, 9.789212    , 0.09976693  , 2.06526965E-05, -0.000188029313, -0.0005277673, -1.58124149 , -0.0140897529, 2.16149759  , 918.6169    , 30.5575047  , 819.5218    , 2.38        , 7           , 255         , 0           , 0
-0.140011668, 9.788542    , 0.09981878  , 5.87942632E-05, -7.216906E-05, -0.0009821354, -1.58124089 , -0.014099529, 2.16149855  , 918.6169    , 30.5575047  , 819.5214    , 2.39        , 7           , 255         , 0           , 0
-0.131619349, 9.793655    , 0.11196015  , -0.000355646, -0.000203252479, -0.0007282219, -1.58124447 , -0.0141068306, 2.16150045  , 918.6169    , 30.5575047  , 819.521057  , 2.4         , 7           , 255         , 0           , 0
-0.1286699  , 9.790335    , 0.101410568 , -0.000205449061, 0.0003882363, 0.0005234768, -1.58125138 , -0.0141038205, 2.16149664  , 918.6169    , 30.5575047  , 819.5154    , 2.41        , 7           , 255         , 0           , 0
-0.140732318, 9.788001    , 0.108979784 , -0.000130015047, 0.000228102144, 0.000598808459, -1.58125257 , -0.014097889, 2.16149426  , 918.6169    , 30.5575047  , 819.514954  , 2.42        , 7           , 255         , 0           , 0
-0.142903388, 9.78954     , 0.110753596 , -0.000316220947, 0.000185154553, 9.53726849E-05, -1.58125567 , -0.0140969055, 2.16149235  , 918.6133    , 30.5590649  , 819.5145    , 2.43        , 7           , 255         , 0           , 0
-0.145265281, 9.794147    , 0.111047767 , 0.000210509883, 0.000352106348, -9.656382E-05, -1.58125353 , -0.0140978592, 2.16148877  , 918.6133    , 30.5590649  , 819.5141    , 2.44        , 7           , 255         , 0           , 0
-0.146922052, 9.785303    , 0.108525194 , -0.0001487509, 0.000288639043, -6.928091E-05, -1.58125508 , -0.0140986349, 2.161486    , 918.6133    , 30.5590649  , 819.5137    , 2.45        , 7           , 255         , 0           , 0
-0.139755592, 9.787844    , 0.10553956  , 6.851135E-05, 0.000275680039, 0.00016236298, -1.58125424 , -0.0140969949, 2.16148329  , 918.6133    , 30.5590649  , 819.513245  , 2.46        , 7           , 255         , 0           , 0
-0.1400183  , 9.798308    , 0.113886096 , 4.65407065E-05, 0.0003887539, -0.000145543789, -1.58125377 , -0.0140985148, 2.16147947  , 918.6133    , 30.5590649  , 819.5128    , 2.47        , 7           , 255         , 0           , 0
-0.144013017, 9.799583    , 0.107246839 , -0.000473095541, 8.489768E-05, 3.69074842E-05, -1.58125854 , -0.0140981572, 2.16147852  , 918.6133    , 30.5590649  , 819.5124    , 2.48        , 7           , 255         , 0           , 0
-0.142317444, 9.794025    , 0.107937142 , 0.000141363184, -0.0001763131, -0.000150778389, -1.5812571  , -0.0140996482, 2.16148043  , 918.6133    , 30.5590649  , 819.511963  , 2.49        , 7           , 255         , 0           , 0
-0.153227583, 9.791113    , 0.100284614 , 0.00044144658, 6.328517E-05, -0.00055790483, -1.58125269 , -0.0141052213, 2.16147971  , 918.6133    , 30.5590649  , 819.511536  , 2.5         , 7           , 255         , 0           , 0
-0.15334931 , 9.784658    , 0.102556966 , 0.0009732732, 0.000161169213, 0.000114391936, -1.58125544 , -0.0141144609, 2.16147828  , 918.6133    , 30.5590649  , 819.5119    , 2.51        , 7           , 255         , 0           , 0
-0.140653774, 9.780787    , 0.101903938 , -0.000114139519, -0.0006420648, -2.61703535E-05, -1.58125663 , -0.0141147291, 2.16148472  , 918.6133    , 30.5590649  , 819.5115    , 2.52        , 7           , 255         , 0           , 0
-0.134322748, 9.792858    , 0.100984037 , -0.00011834898, -0.00045310217, -2.60167726E-05, -1.58125782 , -0.0141148781, 2.16148925  , 918.5844    , 30.558115   , 819.511047  , 2.53        , 7           , 255         , 0           , 0
-0.13530007 , 9.792665    , 0.104126237 , -8.563601E-05, 7.972878E-06, 3.004534E-06, -1.58125877 , -0.0141148483, 2.16148925  , 918.5844    , 30.558115   , 819.5106    , 2.54        , 7           , 255         , 0           , 0
-0.130500585, 9.79283     , 0.09816869  , -6.71858143E-05, 0.0001962161, -0.0005613758, -1.58125937 , -0.0141204819, 2.161487    , 918.5844    , 30.558115   , 819.5102    , 2.55        , 7           , 255         , 0           , 0
-0.129085585, 9.793294    , 0.09918805  , 0.000265047129, -0.000101971847, -0.000203010379, -1.58125663 , -0.0141224787, 2.16148829  , 918.5844    , 30.558115   , 819.5098    , 2.56        , 7           , 255         , 0           , 0
-0.146828324, 9.79349     , 0.09520093  , -9.25864151E-06, -0.000410909182, 0.0004002055, -1.58125675 , -0.0141183957, 2.16149235  , 918.5844    , 30.558115   , 819.50946   , 2.57        , 7           , 255         , 0           , 0
-0.147603065, 9.803386    , 0.09180452  , -0.0004136173, 0.00039549527, -4.610374E-05, -1.58126068 , -0.0141189024, 2.16148829  , 918.5844    , 30.558115   , 819.5091    , 2.58        , 7           , 255         , 0           , 0
-0.1429924  , 9.794993    , 0.0982231   , 0.000145775673, 0.000454406079, -0.000114602022, -1.58125925 , -0.0141200349, 2.16148376  , 918.5844    , 30.558115   , 819.5087    , 2.59        , 7           , 255         , 0           , 0
-0.146197364, 9.801428    , 0.103688635 , 8.271993E-06, 0.000363219471, -0.000407902757, -1.58125913 , -0.014124088, 2.16148019  , 918.5844    , 30.558115   , 819.508362  , 2.6         , 7           , 255         , 0           , 0
-0.133702263, 9.809167    , 0.106683411 , -0.000207330915, 0.000414459617, -0.000447464437, -1.58125484 , -0.0141337747, 2.16147614  , 918.5844    , 30.558115   , 819.5484    , 2.61        , 7           , 255         , 0           , 0
-0.135895282, 9.797813    , 0.112388268 , 0.000134659087, 0.000145729049, 6.14099E-05 , -1.58125341 , -0.0141331786, 2.1614747   , 918.5844    , 30.558115   , 819.5483    , 2.62        , 7           , 255         , 0           , 0
-0.129173964, 9.800613    , 0.109831646 , 0.00010200098, 0.000216961373, 0.0008684445, -1.58125246 , -0.014124535, 2.16147232  , 918.624146  , 30.5596085  , 819.548157  , 2.63        , 7           , 255         , 0           , 0
-0.136344522, 9.789766    , 0.0946652442, 0.000160374169, -1.40415505E-05, 0.0004477448, -1.58125091 , -0.0141200945, 2.16147232  , 918.624146  , 30.5596085  , 819.548035  , 2.64        , 7           , 255         , 0           , 0
-0.149801821, 9.790331    , 0.102411188 , 0.0005052718, 0.000212234212, 0.000112585927, -1.5812459  , -0.014118962, 2.16147017  , 918.624146  , 30.5596085  , 819.5479    , 2.65        , 7           , 255         , 0           , 0
-0.13859047 , 9.779825    , 0.109291926 , 0.000135761424, 0.000237539527, -0.000416359981, -1.58124447 , -0.0141231641, 2.161468    , 918.624146  , 30.5596085  , 819.5478    , 2.66        , 7           , 255         , 0           , 0
-0.142561167, 9.789943    , 0.1139123   , 2.360197E-05, -8.642627E-05, 0.000215944892, -1.58124423 , -0.0141209885, 2.16146874  , 918.624146  , 30.5596085  , 819.547668  , 2.67        , 7           , 255         , 0           , 0
-0.1336936  , 9.791767    , 0.1071676   , -0.000156441878, -9.580341E-05, 0.0007718604, -1.58124578 , -0.0141132092, 2.16146946  , 918.624146  , 30.5596085  , 819.547546  , 2.68        , 7           , 255         , 0           , 0
-0.130010679, 9.795466    , 0.1088383   , -5.40849E-05, -0.000100325909, 0.000376471027, -1.58124626 , -0.0141093647, 2.16147041  , 918.624146  , 30.5596085  , 819.5474    , 2.69        , 7           , 255         , 0           , 0
-0.136481315, 9.8049      , 0.10963589  , 0.000216780652, 0.0003149074, 0.000531095662, -1.58124411 , -0.0141040292, 2.16146731  , 918.624146  , 30.5596085  , 819.5473    , 2.7         , 7           , 255         , 0           , 0
-0.134776026, 9.79818249  , 0.114058495 , 8.89338044E-05, 0.0003628264, -0.000316061429, -1.58125269 , -0.0141039994, 2.16146374  , 918.624146  , 30.5596085  , 819.528     , 2.71        , 7           , 255         , 0           , 0
-0.142038912, 9.790812    , 0.107260868 , -0.000420765078, -0.000219904527, -0.000444203382, -1.58125687 , -0.0141084408, 2.16146612  , 918.624146  , 30.5596085  , 819.5278    , 2.72        , 7           , 255         , 0           , 0
-0.141468391, 9.799624    , 0.106478728 , 0.0003952111, -0.00065142056, 7.866022E-05, -1.581253   , -0.0141076054, 2.16147256  , 918.6216    , 30.5565548  , 819.5275    , 2.73        , 7           , 255         , 0           , 0
-0.148093134, 9.805292    , 0.104444623 , -0.000250485085, 9.270967E-05, -0.0008493726, -1.58125556 , -0.01411613 , 2.16147184  , 918.6216    , 30.5565548  , 819.5273    , 2.74        , 7           , 255         , 0           , 0
-0.139701441, 9.798173    , 0.0991504639, -0.0003242222, -0.000137457449, -9.581896E-05, -1.58125889 , -0.0141170835, 2.16147327  , 918.6216    , 30.5565548  , 819.527039  , 2.75        , 7           , 255         , 0           , 0
-0.13754487 , 9.793406    , 0.11353527  , 0.000407543033, -0.0004538912, 0.00035461504, -1.58125484 , -0.014113537, 2.16147757  , 918.6216    , 30.5565548  , 819.5268    , 2.76        , 7           , 255         , 0           , 0
-0.125655368, 9.802335    , 0.097302936 , 0.000358145975, 0.000278078835, 1.09197863E-05, -1.58125126 , -0.0141134178, 2.1614747   , 918.6216    , 30.5565548  , 819.52655   , 2.77        , 7           , 255         , 0           , 0
-0.146923378, 9.805328    , 0.09639629  , -1.48719846E-05, 0.000203405856, 0.000872088538, -1.58125138 , -0.0141047146, 2.1614728   , 918.6216    , 30.5565548  , 819.526367  , 2.78        , 7           , 255         , 0           , 0
-0.144462958, 9.800754    , 0.09836878  , 0.000133256472, -0.000240573427, 0.00037265307, -1.58125007 , -0.0141009595, 2.16147518  , 918.6216    , 30.5565548  , 819.5262    , 2.79        , 7           , 255         , 0           , 0
-0.145430148, 9.80551     , 0.09893849  , -0.000204145836, -0.00042570167, -4.11329966E-05, -1.5812521  , -0.0141013172, 2.16147947  , 918.6216    , 30.5565548  , 819.526     , 2.8         , 7           , 255         , 0           , 0
-0.139915809, 9.811914    , 0.105051    , 0.000295013655, -0.000531458645, -0.000277186482, -1.58125091 , -0.0141073074, 2.16148472  , 918.6216    , 30.5565548  , 819.5128    , 2.81        , 7           , 255         , 0           , 0
-0.133187428, 9.803059    , 0.103343509 , -0.000597481441, 9.833183E-05, 0.000104926352, -1.58125687 , -0.0141062345, 2.16148376  , 918.6216    , 30.5565548  , 819.5125    , 2.82        , 7           , 255         , 0           , 0
-0.135675   , 9.78964     , 0.109843805 , -0.000239774628, -0.000121606921, 0.000335081335, -1.58125913 , -0.0141028669, 2.161485    , 918.5935    , 30.5602875  , 819.5122    , 2.83        , 7           , 255         , 0           , 0
-0.146116465, 9.796871    , 0.105555639 , -0.000485475524, 4.25105682E-05, 0.000736610265, -1.5812639  , -0.0140955048, 2.16148448  , 918.5935    , 30.5602875  , 819.5119    , 2.84        , 7           , 255         , 0           , 0
-0.136196479, 9.799133    , 0.103547312 , 0.000104429171, 6.423454E-05, -5.105493E-05, -1.581263   , -0.0140960412, 2.161484    , 918.5935    , 30.5602875  , 819.5116    , 2.85        , 7           , 255         , 0           , 0
-0.138076678, 9.793394    , 0.101403333 , -0.000366718974, -0.000299983716, 1.94477325E-05, -1.58126676 , -0.0140958326, 2.16148686  , 918.5935    , 30.5602875  , 819.5113    , 2.86        , 7           , 255         , 0           , 0
-0.144073486, 9.787191    , 0.09566408  , -0.0006291832, 4.1264866E-05, 0.00032978275, -1.58127308 , -0.0140925841, 2.16148639  , 918.5935    , 30.5602875  , 819.511     , 2.87        , 7           , 255         , 0           , 0
-0.135674208, 9.78975     , 0.10265325  , -0.000166625614, 8.111197E-05, 0.000512008555, -1.58127475 , -0.0140875764, 2.16148567  , 918.5935    , 30.5602875  , 819.510742  , 2.88        , 7           , 255         , 0           , 0
-0.133034259, 9.802511    , 0.090001    , 0.0002614861, -0.000250010635, 0.000227265 , -1.58127224 , -0.0140852518, 2.161488    , 918.5935    , 30.5602875  , 819.5105    , 2.89        , 7           , 255         , 0           , 0
-0.134741575, 9.803531    , 0.0988332555, 0.0006617724, -0.0002626516, -0.0003154419, -1.58126569 , -0.0140884109, 2.16149068  , 918.5935    , 30.5602875  , 819.510254  , 2.9         , 7           , 255         , 0           , 0
-0.1370963  , 9.796331    , 0.092451036 , 0.000281137938, -6.760727E-05, -0.000330091047, -1.5812614  , -0.0140909748, 2.16149139  , 918.5935    , 30.5602875  , 819.538757  , 2.91        , 7           , 255         , 0           , 0
-0.1476843  , 9.795609    , 0.0951888859, 0.000669361732, -0.0001139745, 0.0006321538, -1.58125472 , -0.0140846558, 2.16149259  , 918.5935    , 30.5602875  , 819.5387    , 2.92        , 7           , 255         , 0           , 0
-0.14530164 , 9.793453    , 0.09620039  , 0.000132202447, 2.31049489E-05, 0.000241679838, -1.58125341 , -0.014082212, 2.161492    , 918.6161    , 30.5596771  , 819.538635  , 2.93        , 7           , 255         , 0           , 0
-0.143881768, 9.789543    , 0.09091178  , 2.15388718E-05, -0.0005535248, 0.0004808534, -1.58125329 , -0.0140773235, 2.16149759  , 918.6161    , 30.5596771  , 819.5386    , 2.94        , 7           , 255         , 0           , 0
-0.133384019, 9.783468    , 0.103136167 , 0.000357758167, -0.000145471073, 0.000469678576, -1.58124971 , -0.0140725551, 2.161499    , 918.6161    , 30.5596771  , 819.5385    , 2.95        , 7           , 255         , 0           , 0
-0.1290023  , 9.786706    , 0.0941388   , 0.0005032504, -5.20861358E-05, 0.0002025629, -1.58124471 , -0.0140705286, 2.1614995   , 918.6161    , 30.5596771  , 819.538452  , 2.96        , 7           , 255         , 0           , 0
-0.138009161, 9.796205    , 0.09912356  , -6.22254E-05, 0.0004565278, 0.000306065049, -1.58124518 , -0.0140675176, 2.161495    , 918.6161    , 30.5596771  , 819.5384    , 2.97        , 7           , 255         , 0           , 0
-0.136311591, 9.784607    , 0.09957837  , 0.0002487737, 3.4516328E-05, 0.0008347627, -1.58124268 , -0.0140591422, 2.16149449  , 918.6161    , 30.5596771  , 819.5383    , 2.98        , 7           , 255         , 0           , 0
