Acc X       , Acc Y       , Acc Z       , Gyro X      , Gyro Y      , Gyro Z      , Euler X     , Euler Y     , Euler Z     , Pres X      , Pres Y      , Pres Z      , Time        , Status      , LowRate X   , LowRate Y   , LowRate Z    
-0.162829548, 9.786529    , 0.0597746   , 0           , 0           , 0           , -1.576904   , -0.0166362859, 1.99992847  , 918.5595    , 30.9349785  , 820.0042    , 0           , 2           , 0           , 5.93223143  , 0
-0.167223126, 9.790078    , 0.0478454642, 0.0002835468, -0.000238145352, 0.0005039837, -1.5769012  , -0.0166313872, 1.99993062  , 918.5595    , 30.9349785  , 820.0042    , 0.01        , 7           , 1           , 0           , 0
-0.160423368, 9.785851    , 0.0457386   , 0.000349849521, -0.000288746553, 0.000239184388, -1.57689774 , -0.0166290011, 1.99993348  , 918.5595    , 30.9349785  , 820.0042    , 0.02        , 7           , 2           , 0           , 0
-0.163190588, 9.793615    , 0.0555722825, 0.00033486585, -7.189228E-06, -0.0005253572, -1.5768944  , -0.0166342482, 1.9999336   , 918.5928    , 30.48064    , 820.0042    , 0.03        , 7           , 3           , 0           , 0
-0.159755558, 9.801038    , 0.0628813   , 0.000411673 , -0.000311176642, -0.00040095087, -1.57689023 , -0.0166382715, 1.99993682  , 918.5928    , 30.48064    , 820.0042    , 0.04        , 7           , 4           , 0           , 0
-0.15931651 , 9.79919     , 0.0672242641, 5.00174E-05 , 9.114621E-05, -0.000294243626, -1.57688975 , -0.0166412219, 1.999936    , 918.5928    , 30.48064    , 820.0042    , 0.05        , 7           , 5           , 0           , 0
-0.164155841, 9.795939    , 0.06403376  , -0.000221243128, 0.000199149828, -0.0007307095, -1.576892   , -0.0166485552, 1.999934    , 918.5928    , 30.48064    , 820.0042    , 0.06        , 7           , 6           , 0           , 0
-0.173356146, 9.797268    , 0.0645426959, -0.000128956366, 0.000680342433, -0.000122589787, -1.57689309 , -0.0166498069, 1.99992716  , 918.5928    , 30.48064    , 820.0042    , 0.07        , 7           , 7           , 0           , 0
-0.172222883, 9.796692    , 0.06420421  , 0.000179931987, 0.000150135253, -0.000458305352, -1.57689142 , -0.0166543964, 1.99992573  , 918.5928    , 30.48064    , 820.0042    , 0.08        , 7           , 8           , 5           , 5
-0.166528955, 9.789612    , 0.0578949526, -0.00020161728, -8.594338E-05, 1.0986143E-05, -1.57689333 , -0.0166542772, 1.99992669  , 918.5928    , 30.48064    , 820.0042    , 0.09        , 7           , 9           , 5           , 0.1
-0.169923931, 9.807051    , 0.06358816  , -0.000149463041, -0.0002901858, -7.41427648E-05, -1.576895   , -0.0166549925, 1.99992955  , 918.5928    , 30.48064    , 820.0042    , 0.1         , 7           , 10          , 0.1         , 0.1
-0.177229777, 9.805743    , 0.06302777  , 0.000371850125, -0.0002283653, -0.000575347862, -1.57689011 , -0.0166697167, 1.99993181  , 918.5928    , 30.48064    , 819.7059    , 0.11        , 7           , 11          , 0.0109544508, 0.0109544508
-0.183271691, 9.791487    , 0.0602076873, 0.000107297739, -0.000546191353, -6.525841E-05, -1.57688916 , -0.0166703444, 1.9999373   , 918.5928    , 30.48064    , 819.7059    , 0.12        , 7           , 12          , 0.0346410163, 0
-0.173034832, 9.788382    , 0.06515522  , 0.000135943439, -0.000136901625, -0.000264067785, -1.57688773 , -0.0166729968, 1.99993885  , 918.584     , 30.52148    , 819.7059    , 0.13        , 7           , 13          , 0           , 0
-0.161465317, 9.795427    , 0.06956303  , 0.000513372943, -0.000391475682, -0.000137611351, -1.5768826  , -0.0166743975, 1.99994278  , 918.584     , 30.52148    , 819.7059    , 0.14        , 7           , 14          , 9.711418E-05, 0.00130074949
-0.155973718, 9.799309    , 0.07355217  , 0.000353573356, -0.000190046732, 0.000105743151, -1.57687926 , -0.0166733842, 1.99994457  , 918.584     , 30.52148    , 819.7059    , 0.15        , 7           , 15          , 0           , 0.000358027843
-0.164430767, 9.79603     , 0.0731578   , 0.00036430097, -0.000410880661, -0.000111696427, -1.57687557 , -0.0166744869, 1.99994874  , 918.584     , 30.52148    , 819.705933  , 0.16        , 7           , 16          , 0           , 1.401298E-45
-0.170840666, 9.793215    , 0.06631174  , -2.90826574E-06, 0.0003626463, 0.000668152 , -1.57687557 , -0.0166678689, 1.999945    , 918.584     , 30.52148    , 819.706     , 0.17        , 7           , 20          , 0           , 0
-0.171137124, 9.797686    , 0.0524233356, 0.000816592248, 0.0002631615, 9.036501E-05, -1.57686734 , -0.0166669749, 1.99994254  , 918.584     , 30.52148    , 819.706055  , 0.18        , 7           , 21          , 0           , 0
-0.173895121, 9.792989    , 0.0487786829, -0.0002189106, -0.000251457677, -0.0008317891, -1.57686961 , -0.0166753512, 1.99994516  , 918.584     , 30.52148    , 819.7061    , 0.19        , 7           , 22          , 0           , 0
-0.162988365, 9.78784     , 0.0536645651, 3.228357E-06, 1.83307566E-05, -0.000469341176, -1.57686961 , -0.01668    , 1.99994493  , 918.584     , 30.52148    , 819.7062    , 0.2         , 7           , 40          , 0           , 0
-0.166734546, 9.79908848  , 0.0590856969, -4.8939808E-05, 0.0001348157, 6.07635E-05 , -1.57688046 , -0.0167005081, 1.99994373  , 918.584     , 30.52148    , 819.74585   , 0.21        , 7           , 41          , 0           , 0
-0.154617459, 9.805511    , 0.05931016  , 0.00054900063, -0.000136090792, 7.453092E-05, -1.576875   , -0.016699763, 1.99994493  , 918.584     , 30.52148    , 819.7459    , 0.22        , 7           , 42          , 1           , 0
-0.15252617 , 9.799576    , 0.0545731   , -4.949783E-06, -0.000269848271, -0.000278074731, -1.57687509 , -0.0167025942, 1.99994767  , 918.561     , 30.5476     , 819.746     , 0.23        , 7           , 255         , 0           , 0
-0.162572712, 9.788909    , 0.0490391254, 0.000523415 , 0.000290846685, -0.0009065525, -1.57686973 , -0.016711656, 1.99994469  , 918.561     , 30.5476     , 819.746033  , 0.24        , 7           , 255         , 0           , 0
-0.163027376, 9.784367    , 0.0523196459, 0.000409148 , 0.000388010638, -0.000792160048, -1.57686567 , -0.0167195834, 1.99994087  , 918.561     , 30.5476     , 819.7461    , 0.25        , 7           , 255         , 0           , 0
-0.1546836  , 9.796469    , 0.04600634  , 4.75631023E-05, -0.000309463, -0.000185640674, -1.5768652  , -0.016721461, 1.999944    , 918.561     , 30.5476     , 819.746155  , 0.26        , 7           , 255         , 0           , 0
-0.159698427, 9.798506    , 0.0479369573, -5.650176E-05, -0.000147217768, 3.00988322E-05, -1.57686591 , -0.0167211629, 1.99994552  , 918.561     , 30.5476     , 819.7462    , 0.27        , 7           , 255         , 0           , 0
-0.158959657, 9.797605    , 0.0609212   , 0.000270549644, -0.0004474477, -0.000273247948, -1.57686329 , -0.0167238768, 1.99995017  , 918.561     , 30.5476     , 819.7463    , 0.28        , 7           , 255         , 0           , 0
-0.160819009, 9.790062    , 0.066911824 , 0.00120848662, -0.000150099513, 9.838818E-05, -1.57685113 , -0.0167228915, 1.9999516   , 918.561     , 30.5476     , 819.746338  , 0.29        , 7           , 255         , 0           , 0
-0.156186387, 9.792534    , 0.0690607   , 0.000264319038, 9.193842E-05, 0.0001652051, -1.57684851 , -0.0167212524, 1.99995065  , 918.561     , 30.5476     , 819.7464    , 0.3         , 7           , 255         , 0           , 0
-0.160281867, 9.798704    , 0.06763445  , -0.000158536335, 5.55178849E-05, -0.000107823987, -1.57684028 , -0.0167065579, 1.99994993  , 918.561     , 30.5476     , 819.828735  , 0.31        , 7           , 255         , 0           , 0
-0.15829803 , 9.797373    , 0.06535985  , -0.00072134065, -0.00062540127, -0.0001253084, -1.57684767 , -0.01670778 , 1.99995613  , 918.561     , 30.5476     , 819.8288    , 0.32        , 7           , 255         , 0           , 0
-0.1704378  , 9.797066    , 0.06453496  , 0.000147714047, 7.76106E-05 , 2.53704784E-05, -1.57684624 , -0.0167075116, 1.99995542  , 918.5464    , 30.5635433  , 819.828857  , 0.33        , 7           , 255         , 0           , 0
-0.1733222  , 9.791043    , 0.0546261556, 0.000290161261, 9.86499945E-05, -0.0005345935, -1.57684338 , -0.0167129077, 1.99995446  , 918.5464    , 30.5635433  , 819.8289    , 0.34        , 7           , 255         , 0           , 0
-0.175032765, 9.795538    , 0.05521577  , -0.0003427347, -0.000400447752, -0.0005998757, -1.57684684 , -0.0167188682, 1.99995863  , 918.5464    , 30.5635433  , 819.829     , 0.35        , 7           , 255         , 0           , 0
-0.167973518, 9.792077    , 0.0604678281, 6.245181E-05, -5.241239E-05, 0.00041887816, -1.57684624 , -0.0167146958, 1.999959    , 918.5464    , 30.5635433  , 819.829041  , 0.36        , 7           , 255         , 0           , 0
-0.16034694 , 9.801462    , 0.06435154  , 0.000106785759, 6.04168745E-05, 0.0003258094, -1.57684517 , -0.0167114772, 1.9999584   , 918.5464    , 30.5635433  , 819.8291    , 0.37        , 7           , 255         , 0           , 0
-0.1478143  , 9.797064    , 0.0578448772, -0.000282406516, 0.000167751336, -0.0005415209, -1.576848   , -0.016716931, 1.99995673  , 918.5464    , 30.5635433  , 819.829163  , 0.38        , 7           , 255         , 0           , 0
-0.157994777, 9.796938    , 0.0601184256, -0.000224623684, 0.000522834365, -0.0006063051, -1.57685018 , -0.01672304 , 1.99995148  , 918.5464    , 30.5635433  , 819.8292    , 0.39        , 7           , 255         , 0           , 0
-0.164242119, 9.792918    , 0.0511512533, 0.000361934537, 0.000456061331, -0.000171325257, -1.57684648 , -0.0167248  , 1.99994683  , 918.5464    , 30.5635433  , 819.8293    , 0.4         , 7           , 255         , 0           , 0
-0.163016632, 9.800241    , 0.051888    , 0.000597437553, -0.000378170167, 0.000137534837, -1.57684338 , -0.0167228021, 1.99995065  , 918.5464    , 30.5635433  , 819.9041    , 0.41        , 7           , 255         , 0           , 0
-0.16324611 , 9.800637    , 0.04936241  , 0.0004635962, 3.48514877E-05, -0.000228571211, -1.57683861 , -0.0167250987, 1.99995029  , 918.5464    , 30.5635433  , 819.9042    , 0.42        , 7           , 255         , 0           , 0
-0.1598347  , 9.802784    , 0.0461809933, 0.000292771525, -0.000370509282, -6.00527565E-05, -1.57683575 , -0.0167257246, 1.9999541   , 918.5665    , 30.5723629  , 819.904236  , 0.43        , 7           , 255         , 0           , 0
-0.155440956, 9.801237    , 0.0412242822, 0.0001273556, -3.84814339E-05, -0.00015564551, -1.57683444 , -0.0167272445, 1.99995446  , 918.5665    , 30.5723629  , 819.904358  , 0.44        , 7           , 255         , 0           , 0
-0.160369009, 9.7982645   , 0.0473249778, 0.00058973  , 5.39375469E-05, -3.545056E-05, -1.57682848 , -0.0167276021, 1.999954    , 918.5665    , 30.5723629  , 819.9045    , 0.45        , 7           , 255         , 0           , 0
-0.156751946, 9.791996    , 0.05070319  , 0.000932707859, -0.000313202618, 0.000378479628, -1.5768193  , -0.0167237874, 1.99995708  , 918.5665    , 30.5723629  , 819.9046    , 0.46        , 7           , 255         , 0           , 0
-0.157364726, 9.788597    , 0.05788845  , 0.000147836108, -0.000299469451, 0.0002294441, -1.57681787 , -0.01672149 , 1.99996006  , 918.5665    , 30.5723629  , 819.9047    , 0.47        , 7           , 255         , 0           , 0
-0.154177278, 9.786958    , 0.0612215921, 0.000309331372, -0.000150984153, 3.32107E-05 , -1.57681477 , -0.0167212225, 1.9999615   , 918.5665    , 30.5723629  , 819.904846  , 0.48        , 7           , 255         , 0           , 0
-0.159225762, 9.79233     , 0.05009692  , 0.000325591769, 0.0004157127, 0.000314136938, -1.57681155 , -0.0167181827, 1.99995732  , 918.5665    , 30.5723629  , 819.904968  , 0.49        , 7           , 255         , 0           , 0
-0.164312214, 9.797299    , 0.0536317453, -7.085058E-05, 8.6713E-05  , -2.3570843E-05, -1.57681227 , -0.0167183913, 1.99995649  , 918.5665    , 30.5723629  , 819.9051    , 0.5         , 7           , 255         , 0           , 0
-0.158329874, 9.796898    , 0.0523710027, 0.000142870267, -4.43111639E-06, -0.000522793853, -1.57678664 , -0.0167102851, 1.99995589  , 918.5665    , 30.5723629  , 819.9128    , 0.51        , 7           , 255         , 0           , 0
-0.178982779, 9.796564    , 0.0515859723, 0.000106131178, -0.00014681241, -0.000217187873, -1.57678568 , -0.01671246 , 1.99995744  , 918.5665    , 30.5723629  , 819.9129    , 0.52        , 7           , 255         , 0           , 0
-0.178688526, 9.796498    , 0.06535345  , -1.68524712E-05, -2.53368635E-05, -0.000295425649, -1.57678592 , -0.01671544 , 1.9999578   , 918.577     , 30.5795536  , 819.913     , 0.53        , 7           , 255         , 0           , 0
-0.17070736 , 9.792224    , 0.05991757  , -0.000328146765, -0.000111373025, -0.00011186098, -1.57678914 , -0.0167165436, 1.99995887  , 918.577     , 30.5795536  , 819.913147  , 0.54        , 7           , 255         , 0           , 0
-0.161955953, 9.78477     , 0.072273545 , -1.92257721E-05, 1.82313379E-05, -0.0005302101, -1.57678938 , -0.0167218484, 1.99995863  , 918.577     , 30.5795536  , 819.913269  , 0.55        , 7           , 255         , 0           , 0
-0.159415245, 9.79375648  , 0.0789934546, 0.000226009666, -0.000222119852, 0.00027158804, -1.57678723 , -0.016719196, 1.9999609   , 918.577     , 30.5795536  , 819.9134    , 0.56        , 7           , 255         , 0           , 0
-0.164625913, 9.790913    , 0.0760462955, 0.0005327609, 0.00020950858, -0.000480306684, -1.57678175 , -0.0167239662, 1.99995887  , 918.577     , 30.5795536  , 819.9135    , 0.57        , 7           , 255         , 0           , 0
-0.175637111, 9.797025    , 0.0817165449, -0.000401026831, -0.000182867167, -0.000153999528, -1.5767858  , -0.0167255159, 1.99996066  , 918.577     , 30.5795536  , 819.913635  , 0.58        , 7           , 255         , 0           , 0
-0.172970071, 9.80192     , 0.07114754  , -0.000317619153, -6.161549E-05, 0.000350196846, -1.576789   , -0.016722057, 1.99996126  , 918.577     , 30.5795536  , 819.913757  , 0.59        , 7           , 255         , 0           , 0
-0.171382621, 9.792197    , 0.07249839  , -0.000203482879, 0.0004707945, -0.000152530629, -1.576791   , -0.016723549, 1.99995661  , 918.577     , 30.5795536  , 819.9139    , 0.6         , 7           , 255         , 0           , 0
-0.174350455, 9.790331    , 0.0746945   , 0.000311483745, 0.000312700751, 0.000288887066, -1.576818   , -0.0167380944, 1.999954    , 918.577     , 30.5795536  , 819.9023    , 0.61        , 7           , 255         , 0           , 0
-0.170765072, 9.78648949  , 0.073191084 , 0.000314688659, 0.00022383756, -0.0005591203, -1.57681477 , -0.0167436376, 1.99995184  , 918.577     , 30.5795536  , 819.9024    , 0.62        , 7           , 255         , 0           , 0
-0.175605372, 9.788183    , 0.07045677  , 0.000363504 , 0.00025114743, -0.000288024574, -1.576811   , -0.0167465582, 1.99994922  , 918.5302    , 30.5855236  , 819.9025    , 0.63        , 7           , 255         , 0           , 0
-0.167384386, 9.796377    , 0.06643969  , -0.000181848533, -0.0002575157, -0.0005689078, -1.57681286 , -0.0167521033, 1.99995184  , 918.5302    , 30.5855236  , 819.902649  , 0.64        , 7           , 255         , 0           , 0
-0.170825288, 9.793957    , 0.0576174371, -3.833137E-05, -0.000209861086, -0.000462451018, -1.57681322 , -0.0167567823, 1.999954    , 918.5302    , 30.5855236  , 819.9028    , 0.65        , 7           , 255         , 0           , 0
-0.164042637, 9.797626    , 0.05747797  , 0.000181624244, -7.341255E-05, -6.204247E-05, -1.57681143 , -0.0167574082, 1.99995458  , 918.5302    , 30.5855236  , 819.9029    , 0.66        , 7           , 255         , 0           , 0
-0.1655756  , 9.793804    , 0.05327464  , 0.000124801751, -0.00023992348, -0.0007454942, -1.57681012 , -0.01676486 , 1.99995708  , 918.5302    , 30.5855236  , 819.903     , 0.67        , 7           , 255         , 0           , 0
-0.167512849, 9.78914452  , 0.05832381  , 0.000332918775, -0.000199785689, -0.000168886079, -1.5768069  , -0.01676659 , 1.99995911  , 918.5302    , 30.5855236  , 819.903137  , 0.68        , 7           , 255         , 0           , 0
-0.167871565, 9.793457    , 0.04930339  , 0.0004480424, -0.0004012519, 3.6370242E-05, -1.57680249 , -0.0167662017, 1.99996316  , 918.5302    , 30.5855236  , 819.903259  , 0.69        , 7           , 255         , 0           , 0
-0.162912667, 9.799559    , 0.0487090163, 0.00038027775, 0.000114150112, 0.000518205867, -1.57679868 , -0.0167610738, 1.999962    , 918.5302    , 30.5855236  , 819.9034    , 0.7         , 7           , 255         , 0           , 0
-0.156191409, 9.798163    , 0.05294426  , -0.000116450334, -0.000130295521, 0.000483999233, -1.57680678 , -0.0167716853, 1.99996328  , 918.5302    , 30.5855236  , 819.9597    , 0.71        , 7           , 255         , 0           , 0
-0.15745528 , 9.794316    , 0.05232629  , 5.31409023E-05, 4.36021946E-05, 0.0004775079, -1.57680607 , -0.0167668276, 1.99996281  , 918.5302    , 30.5855236  , 819.9599    , 0.72        , 7           , 255         , 0           , 0
-0.155322745, 9.783751    , 0.0484342463, -0.000336244528, -0.000157227623, 0.000170929736, -1.57680953 , -0.0167651288, 1.99996436  , 918.5635    , 30.590477   , 819.9601    , 0.73        , 7           , 255         , 0           , 0
-0.16238375 , 9.793456    , 0.0435481668, -0.000441536075, 0.0003099047, 0.000898130471, -1.57681382 , -0.0167561267, 1.99996114  , 918.5635    , 30.590477   , 819.960266  , 0.74        , 7           , 255         , 0           , 0
-0.16233772 , 9.7957325   , 0.0400038362, 5.009437E-05, -3.48198228E-07, 0.000424188067, -1.57681346 , -0.0167519245, 1.99996126  , 918.5635    , 30.590477   , 819.960449  , 0.75        , 7           , 255         , 0           , 0
-0.154617891, 9.801583    , 0.0358716771, -3.28522874E-05, 0.000154518289, -0.0005406501, -1.5768137  , -0.0167573784, 1.99995971  , 918.5635    , 30.590477   , 819.960632  , 0.76        , 7           , 255         , 0           , 0
-0.151509166, 9.795416    , 0.0441752821, 1.62787182E-05, 0.00012874126, -0.000154821028, -1.57681358 , -0.0167589281, 1.9999584   , 918.5635    , 30.590477   , 819.9608    , 0.77        , 7           , 255         , 0           , 0
-0.151016682, 9.788253    , 0.0391238146, 0.0005121849, 9.22005856E-05, 0.000197128713, -1.57680845 , -0.0167569611, 1.99995744  , 918.5635    , 30.590477   , 819.961     , 0.78        , 7           , 255         , 0           , 0
-0.153215513, 9.797323    , 0.0384792164, 0.0006874545, -0.00016617903, -0.000211423947, -1.57680166 , -0.0167590771, 1.99995911  , 918.5635    , 30.590477   , 819.9612    , 0.79        , 7           , 255         , 0           , 0
-0.1556294  , 9.799456    , 0.0398832448, -9.524634E-05, -3.633299E-05, 0.00029549  , -1.57680261 , -0.0167561565, 1.99995947  , 918.5635    , 30.590477   , 819.961365  , 0.8         , 7           , 255         , 0           , 0
-0.152224287, 9.793865    , 0.0478714332, -0.000366975379, -7.13537447E-05, 9.492517E-05, -1.57676053 , -0.0167311486, 1.99995935  , 918.5635    , 30.590477   , 819.962952  , 0.81        , 7           , 255         , 0           , 0
-0.154189318, 9.795698    , 0.0503328256, -1.62268479E-05, 0.00020056183, -0.000239032888, -1.57676065 , -0.0167335626, 1.99995732  , 918.5635    , 30.590477   , 819.963135  , 0.82        , 7           , 255         , 0           , 0
-0.158522248, 9.796478    , 0.0572016127, -9.184768E-05, 0.000171301188, -0.000194467808, -1.5767616  , -0.01673553 , 1.99995577  , 918.577637  , 30.5910187  , 819.9633    , 0.83        , 7           , 255         , 0           , 0
-0.1628795  , 9.798435    , 0.0619546957, -0.0001807527, 9.17891739E-05, -0.000540516048, -1.57676351 , -0.0167409554, 1.99995482  , 918.577637  , 30.5910187  , 819.9635    , 0.84        , 7           , 255         , 0           , 0
-0.169434488, 9.794856    , 0.06397043  , -0.000169818537, -2.680556E-05, -0.000419990072, -1.57676506 , -0.0167450979, 1.999955    , 918.577637  , 30.5910187  , 819.9637    , 0.85        , 7           , 255         , 0           , 0
-0.173795432, 9.792598    , 0.06650368  , 0.000196991139, -0.000111680245, 0.000190308812, -1.57676315 , -0.01674319 , 1.99995613  , 918.577637  , 30.5910187  , 819.963867  , 0.86        , 7           , 255         , 0           , 0
-0.175450146, 9.799675    , 0.06756302  , -3.98968841E-05, -9.859004E-05, -0.000374513853, -1.57676351 , -0.0167469159, 1.9999572   , 918.577637  , 30.5910187  , 819.96405   , 0.87        , 7           , 255         , 0           , 0
-0.165157929, 9.794806    , 0.07204224  , -2.89594755E-06, -0.000186332269, -0.0003898491, -1.57676363 , -0.0167507622, 1.999959    , 918.577637  , 30.5910187  , 819.964233  , 0.88        , 7           , 255         , 0           , 0
-0.174429759, 9.808169    , 0.0682469755, 7.143916E-05, 0.000461728079, -0.000114778552, -1.5767628  , -0.0167519543, 1.99995446  , 918.577637  , 30.5910187  , 819.9644    , 0.89        , 7           , 255         , 0           , 0
-0.170511335, 9.7922      , 0.071548596 , 0.000442096381, -0.000128946966, -0.000652052637, -1.57675838 , -0.01675854 , 1.99995577  , 918.577637  , 30.5910187  , 819.9646    , 0.9         , 7           , 255         , 0           , 0
-0.175681517, 9.800299    , 0.07183847  , 0.000152512876, -4.295958E-06, -0.000426187384, -1.57676756 , -0.0167668276, 1.99995589  , 918.577637  , 30.5910187  , 819.9491    , 0.91        , 7           , 255         , 0           , 0
-0.178110868, 9.7931      , 0.07287017  , 0.0002713587, 0.000245810021, -0.000280894921, -1.57676482 , -0.0167697184, 1.99995351  , 918.577637  , 30.5910187  , 819.9493    , 0.92        , 7           , 255         , 0           , 0
-0.173882872, 9.791478    , 0.06852689  , 3.056899E-05, 2.1751388E-05, -0.000109814107, -1.57676446 , -0.0167707913, 1.99995327  , 918.5538    , 30.5948181  , 819.949463  , 0.93        , 7           , 255         , 0           , 0
-0.173830912, 9.786313    , 0.05857534  , -0.000221085676, 0.000117631629, 1.05845393E-05, -1.57676673 , -0.0167707615, 1.99995208  , 918.5538    , 30.5948181  , 819.949646  , 0.94        , 7           , 255         , 0           , 0
-0.178598762, 9.793993    , 0.0636386   , 0.000105570594, 0.00013498473, 8.46083E-05 , -1.57676566 , -0.0167699568, 1.99995077  , 918.5538    , 30.5948181  , 819.9498    , 0.95        , 7           , 255         , 0           , 0
-0.174212188, 9.802582    , 0.06505753  , -6.865872E-05, 0.000435094582, -0.000254019571, -1.57676613 , -0.01677252 , 1.99994636  , 918.5538    , 30.5948181  , 819.95      , 0.96        , 7           , 255         , 0           , 0
-0.1692389  , 9.80302     , 0.06179434  , -3.349429E-05, 0.00045381696, -0.000276881561, -1.57676649 , -0.016775351, 1.99994183  , 918.5538    , 30.5948181  , 819.9502    , 0.97        , 7           , 255         , 0           , 0
-0.157824844, 9.799035    , 0.06155307  , -0.0003441946, -0.000118513592, -0.000192665553, -1.57677    , -0.01677726 , 1.99994314  , 918.5538    , 30.5948181  , 819.9504    , 0.98        , 7           , 255         , 0           , 0
-0.157028526, 9.798144    , 0.05266761  , 0.0003505139, 1.96838519E-05, 0.000327852817, -1.57676637 , -0.01677401 , 1.999943    , 918.5538    , 30.5948181  , 819.950562  , 0.99        , 7           , 255         , 0           , 0
-0.159584627, 9.801269    , 0.0418107435, 0.00020550577, 0.000141262542, -0.00010347119, -1.57676435 , -0.0167750232, 1.99994159  , 918.5538    , 30.5948181  , 819.950745  , 1           , 7           , 0           , 6.932236    , 100
-0.163348451, 9.78959     , 0.0436354764, 0.0005537621, -0.000418400974, 0.000271052064, -1.57676709 , -0.0167855155, 1.99994588  , 918.5538    , 30.5948181  , 819.9641    , 1.01        , 7           , 1           , 0           , 0
-0.160935789, 9.786717    , 0.0491419658, 0.000322755222, -0.000115043018, -0.000229133439, -1.57676387 , -0.01678778 , 1.99994707  , 918.5538    , 30.5948181  , 819.964355  , 1.02        , 7           , 2           , 0           , 0
-0.157742426, 9.782025    , 0.05434543  , 0.000187803409, -8.0583035E-05, -0.000180939329, -1.57676208 , -0.0167895984, 1.99994779  , 918.60675   , 30.5925121  , 819.9646    , 1.03        , 7           , 3           , 0           , 0
-0.146666631, 9.785902    , 0.05397265  , -0.0007325988, 0.000219834037, -0.0002253645, -1.57676923 , -0.0167918652, 1.99994564  , 918.60675   , 30.5925121  , 819.964844  , 1.04        , 7           , 4           , 0           , 0
-0.151457861, 9.785094    , 0.0556366853, -0.00123763282, 0.000263278256, 0.00023315713, -1.57678163 , -0.016789509, 1.9999429   , 918.60675   , 30.5925121  , 819.9651    , 1.05        , 7           , 5           , 0           , 0
-0.1669753  , 9.818747    , 0.06284319  , -0.00020856176, 0.000838709762, 0.000242432114, -1.57678342 , -0.016787095, 1.99993443  , 918.60675   , 30.5925121  , 819.965332  , 1.06        , 7           , 6           , 0           , 0
-0.166229963, 9.81852     , 0.0560217   , 0.00101622322, 0.000400541583, -0.000124084836, -1.57677329 , -0.0167883467, 1.9999305   , 918.60675   , 30.5925121  , 819.9656    , 1.07        , 7           , 7           , 0           , 0
-0.160240158, 9.770624    , 0.0570780151, 0.000691638561, -2.47794669E-05, 0.0005423385, -1.57676649 , -0.0167829525, 1.99993062  , 918.60675   , 30.5925121  , 819.9658    , 1.08        , 7           , 8           , 5           , 5
-0.162079424, 9.804622    , 0.06334048  , 0.00111722841, -0.000343455817, -0.000511271763, -1.5767554  , -0.0167879891, 1.99993408  , 918.60675   , 30.5925121  , 819.966064  , 1.09        , 7           , 9           , 5           , 0.1
-0.15387091 , 9.751577    , 0.07378244  , 0.000296878425, 8.7669E-05  , -0.000436829461, -1.57675242 , -0.0167923123, 1.99993312  , 918.60675   , 30.5925121  , 819.9663    , 1.1         , 7           , 10          , 0.1         , 0.1
-0.164747   , 9.793654    , 0.0801772   , -0.0006977333, 0.000116425217, 0.0003062587, -1.576753   , -0.0167673342, 1.99993181  , 918.60675   , 30.5925121  , 819.921448  , 1.11        , 7           , 11          , 0.009413706 , 0.009413706
-0.174610347, 9.796591    , 0.07591587  , -0.00111473456, 0.0001517022, 0.0002762952, -1.57676411 , -0.0167645626, 1.99993014  , 918.60675   , 30.5925121  , 819.9216    , 1.12        , 7           , 12          , 0.0346428268, 0
-0.178976566, 9.832186    , 0.08285689  , 0.0004943456, -0.000373176823, -5.326292E-07, -1.57675922 , -0.016764503, 1.999934    , 918.5707    , 30.5963783  , 819.9217    , 1.13        , 7           , 13          , 0           , 0
-0.170014024, 9.777173    , 0.06709398  , 0.0005322682, 0.0005618724, 9.79561E-05 , -1.57675385 , -0.01676358 , 1.99992824  , 918.5707    , 30.5963783  , 819.9218    , 1.14        , 7           , 14          , 9.70981E-05 , 0.00130074914
-0.162040681, 9.773536    , 0.0585936122, -0.000360079, 0.000556495041, 0.000171548076, -1.57675743 , -0.0167619083, 1.99992275  , 918.5707    , 30.5963783  , 819.921936  , 1.15        , 7           , 15          , 0           , 0.000358012534
-0.174599931, 9.774173    , 0.0687157959, 0.0003816804, 0.000199669623, 0.000149953965, -1.57675362 , -0.0167604182, 1.99992073  , 918.5707    , 30.5963783  , 819.922058  , 1.16        , 7           , 16          , 0           , 1.401298E-45
-0.171881884, 9.794533    , 0.0664285645, 0.000200564653, 0.000205781311, -0.0004207915, -1.57675147 , -0.0167646818, 1.9999187   , 918.5707    , 30.5963783  , 819.9222    , 1.17        , 7           , 20          , 0           , 0
-0.172788635, 9.800269    , 0.06906262  , -0.0005926262, -0.000239002868, -2.74294871E-06, -1.57675743 , -0.0167646818, 1.9999212   , 918.5707    , 30.5963783  , 819.9223    , 1.18        , 7           , 21          , 0           , 0
-0.176786408, 9.806547    , 0.069587335 , 0.000416020252, 0.000406757463, 0.00100855378, -1.57675314 , -0.0167545769, 1.999917    , 918.5707    , 30.5963783  , 819.9224    , 1.19        , 7           , 22          , 0           , 0
-0.1673089  , 9.781118    , 0.0567273   , 0.0007310719, 0.0003474555, 0.000185406563, -1.57674575 , -0.01675273 , 1.99991345  , 918.5707    , 30.5963783  , 819.922546  , 1.2         , 7           , 40          , 0           , 0
-0.148516342, 9.773459    , 0.0479685   , 0.00015827053, -2.216117E-05, -0.0002230244, -1.57677627 , -0.0167757086, 1.999914    , 918.5707    , 30.5963783  , 819.9207    , 1.21        , 7           , 41          , 0           , 0
-0.156593129, 9.785799    , 0.046193406 , -4.69980041E-05, -0.000224384479, 6.808038E-05, -1.57677674 , -0.0167749636, 1.99991632  , 918.5707    , 30.5963783  , 819.920837  , 1.22        , 7           , 42          , 1           , 0
-0.162473962, 9.804268    , 0.0465251431, 0.000140171585, -0.000156746362, -0.000678113662, -1.57677543 , -0.01678173 , 1.99991786  , 918.534     , 30.5982113  , 819.920959  , 1.23        , 7           , 255         , 0           , 0
-0.162114412, 9.802721    , 0.04884363  , 0.000310208328, -0.000353016367, -0.000116289651, -1.57677245 , -0.0167829227, 1.99992132  , 918.534     , 30.5982113  , 819.9211    , 1.24        , 7           , 255         , 0           , 0
-0.157805845, 9.792694    , 0.04556041  , 0.00023338836, -0.000256167026, 0.000179008435, -1.57677019 , -0.0167810749, 1.999924    , 918.534     , 30.5982113  , 819.9212    , 1.25        , 7           , 255         , 0           , 0
-0.153751284, 9.788106    , 0.0457451232, 0.0005156764, -8.219236E-05, 0.000154825364, -1.576765   , -0.0167794954, 1.99992466  , 918.534     , 30.5982113  , 819.9214    , 1.26        , 7           , 255         , 0           , 0
-0.149350673, 9.78427     , 0.05070579  , 0.000224880438, -0.0001837319, 0.0005479964, -1.5767628  , -0.01677404 , 1.99992657  , 918.534     , 30.5982113  , 819.9216    , 1.27        , 7           , 255         , 0           , 0
-0.151893467, 9.784172    , 0.05219842  , -0.000172339787, -0.000169043313, -2.77745421E-05, -1.57676446 , -0.0167743377, 1.99992824  , 918.534     , 30.5982113  , 819.921753  , 1.28        , 7           , 255         , 0           , 0
-0.1642874  , 9.791611    , 0.06270589  , 0.000256512722, 9.740051E-05, -0.000125830484, -1.57676184 , -0.01677556 , 1.99992728  , 918.534     , 30.5982113  , 819.921936  , 1.29        , 7           , 255         , 0           , 0
-0.165047452, 9.79982     , 0.0649545044, 9.6051E-05  , 0.000206021941, -0.000165973732, -1.57676089 , -0.01677729 , 1.99992514  , 918.534     , 30.5982113  , 819.9221    , 1.3         , 7           , 255         , 0           , 0
-0.160493433, 9.79399     , 0.06394622  , -5.25075448E-05, 0.0003911279, 0.0005605045, -1.57673645 , -0.0167475417, 1.999921    , 918.534     , 30.5982113  , 819.9581    , 1.31        , 7           , 255         , 0           , 0
-0.153643131, 9.794413    , 0.06052963  , -0.000210842874, 0.000472409185, 0.0001918216, -1.57673848 , -0.0167456642, 1.9999162   , 918.534     , 30.5982113  , 819.958435  , 1.32        , 7           , 255         , 0           , 0
-0.161375478, 9.794498    , 0.0606235266, 0.0003781186, 0.00013263023, -0.000111259316, -1.57673466 , -0.0167467073, 1.99991465  , 918.5514    , 30.5965824  , 819.95874   , 1.33        , 7           , 255         , 0           , 0
-0.16209814 , 9.795014    , 0.0541045554, -0.000292264478, -8.820626E-05, -0.000315065641, -1.57673752 , -0.0167498663, 1.99991584  , 918.5514    , 30.5965824  , 819.959045  , 1.34        , 7           , 255         , 0           , 0
-0.172084659, 9.797262    , 0.06758674  , -0.0003545781, -0.000224370626, -0.000606142334, -1.5767411  , -0.0167558882, 1.999918    , 918.5514    , 30.5965824  , 819.959351  , 1.35        , 7           , 255         , 0           , 0
-0.168221161, 9.794648    , 0.06601085  , 5.1397823E-05, -0.0002826904, -0.000294516241, -1.57674062 , -0.0167587791, 1.99992085  , 918.5514    , 30.5965824  , 819.959656  , 1.36        , 7           , 255         , 0           , 0
-0.160637334, 9.801291    , 0.07468282  , 0.000327899324, 0.000449044164, 0.000300714979, -1.57673728 , -0.0167557988, 1.99991632  , 918.5514    , 30.5965824  , 819.959961  , 1.37        , 7           , 255         , 0           , 0
-0.16583471 , 9.790702    , 0.06071975  , -0.00026475545, -2.967997E-05, 0.000129998283, -1.57673991 , -0.0167544875, 1.99991667  , 918.5514    , 30.5965824  , 819.960266  , 1.38        , 7           , 255         , 0           , 0
-0.160440773, 9.78392     , 0.0534085035, -0.000342767657, -0.000151732937, -9.604951E-05, -1.57674336 , -0.0167555  , 1.9999181   , 918.5514    , 30.5965824  , 819.9606    , 1.39        , 7           , 255         , 0           , 0
-0.162744462, 9.798686    , 0.04892976  , 0.000215852575, -0.000205526943, 0.000440278323, -1.57674122 , -0.01675106 , 1.99992013  , 918.5514    , 30.5965824  , 819.9609    , 1.4         , 7           , 255         , 0           , 0
-0.165251791, 9.78764248  , 0.0403102562, 0.000324852444, -0.000135928276, -9.55956639E-05, -1.576745   , -0.0167485848, 1.99992168  , 918.5514    , 30.5965824  , 819.975037  , 1.41        , 7           , 255         , 0           , 0
-0.16214101 , 9.791341    , 0.05116129  , 6.64006438E-05, -0.0003720087, 0.000288649666, -1.57674444 , -0.016745694, 1.99992537  , 918.5514    , 30.5965824  , 819.9754    , 1.42        , 7           , 255         , 0           , 0
-0.161467522, 9.795462    , 0.0536208041, -0.0003380633, 0.00043406256, 3.441368E-05, -1.57674778 , -0.0167454854, 1.999921    , 918.566345  , 30.5984135  , 819.975769  , 1.43        , 7           , 255         , 0           , 0
-0.16002968 , 9.792429    , 0.0557662845, 0.000160882308, 0.0005935625, -0.000467860547, -1.57674611 , -0.016750196, 1.99991512  , 918.566345  , 30.5984135  , 819.976135  , 1.44        , 7           , 255         , 0           , 0
-0.1620236  , 9.792005    , 0.0536521971, 0.000197849091, 0.000148860971, -0.000103429542, -1.57674408 , -0.01675118 , 1.99991357  , 918.566345  , 30.5984135  , 819.9765    , 1.45        , 7           , 255         , 0           , 0
-0.163683325, 9.800665    , 0.0529682338, -0.0001030819, -3.70806083E-06, -0.000250201265, -1.57674515 , -0.0167536233, 1.99991357  , 918.566345  , 30.5984135  , 819.976868  , 1.46        , 7           , 255         , 0           , 0
-0.167311743, 9.794794    , 0.0504196063, -0.000145251455, 0.0005095281, -9.925364E-05, -1.57674658 , -0.0167546961, 1.99990845  , 918.566345  , 30.5984135  , 819.977234  , 1.47        , 7           , 255         , 0           , 0
-0.165232688, 9.811783    , 0.0597585626, 0.00012334541, 0.000362706021, -0.00026480158, -1.57674527 , -0.016757438, 1.99990487  , 918.566345  , 30.5984135  , 819.9776    , 1.48        , 7           , 255         , 0           , 0
-0.157477334, 9.798392    , 0.06667916  , 0.000150678883, -6.487954E-05, -0.000225934244, -1.57674372 , -0.0167597029, 1.99990559  , 918.566345  , 30.5984135  , 819.977966  , 1.49        , 7           , 255         , 0           , 0
-0.152588233, 9.784331    , 0.06444522  , 8.209702E-05, 3.42985149E-05, -0.00039150237, -1.576743   , -0.01676358 , 1.99990523  , 918.566345  , 30.5984135  , 819.978333  , 1.5         , 7           , 255         , 0           , 0
-0.168849513, 9.781824    , 0.0652612   , 0.0002838465, 0.0001268317, -7.494382E-06, -1.57673216 , -0.0167580042, 1.99990368  , 918.566345  , 30.5984135  , 819.9751    , 1.51        , 7           , 255         , 0           , 0
-0.175297648, 9.787855    , 0.06705504  , -1.30533008E-05, 2.870534E-05, 0.0007622199, -1.57673228 , -0.0167504344, 1.99990344  , 918.566345  , 30.5984135  , 819.975464  , 1.52        , 7           , 255         , 0           , 0
-0.170818061, 9.803485    , 0.06973325  , -0.00108864508, -0.00015770935, 0.000313525117, -1.57674325 , -0.0167473033, 1.99990487  , 918.552734  , 30.599432   , 819.9758    , 1.53        , 7           , 255         , 0           , 0
-0.162452012, 9.807653    , 0.07105872  , -0.000235996558, 0.0003597706, -2.8990471E-05, -1.57674551 , -0.0167476311, 1.99990129  , 918.552734  , 30.599432   , 819.9762    , 1.54        , 7           , 255         , 0           , 0
-0.169274852, 9.785387    , 0.0592309   , 1.23665523E-05, 0.000381605118, -0.000500646536, -1.57674539 , -0.01675264 , 1.99989748  , 918.552734  , 30.599432   , 819.976563  , 1.55        , 7           , 255         , 0           , 0
-0.162243053, 9.797242    , 0.06354857  , -0.000307399081, 6.778899E-05, -0.000464820681, -1.57674849 , -0.0167573188, 1.99989676  , 918.552734  , 30.599432   , 819.9769    , 1.56        , 7           , 255         , 0           , 0
-0.17631948 , 9.787127    , 0.0596052036, -0.000341212319, 0.000629953 , -0.000483664742, -1.57675183 , -0.0167622063, 1.99989057  , 918.552734  , 30.599432   , 819.9773    , 1.57        , 7           , 255         , 0           , 0
-0.17643398 , 9.809315    , 0.0622342   , -8.635958E-05, 0.000305986148, -0.0005474445, -1.57675254 , -0.0167676918, 1.99988747  , 918.552734  , 30.599432   , 819.977661  , 1.58        , 7           , 255         , 0           , 0
-0.1693347  , 9.791859    , 0.06623083  , 6.70802547E-05, 0.000338097 , -0.0007021839, -1.57675183 , -0.0167747252, 1.99988425  , 918.552734  , 30.599432   , 819.978     , 1.59        , 7           , 255         , 0           , 0
-0.16349411 , 9.810625    , 0.06357944  , 4.517162E-05, 0.000564203132, -2.50399171E-05, -1.57675123 , -0.016775053, 1.99987864  , 918.552734  , 30.599432   , 819.9784    , 1.6         , 7           , 255         , 0           , 0
-0.159253582, 9.787549    , 0.0605852231, -0.000330304727, 0.000186853227, -0.000664996041, -1.57676828 , -0.0167930871, 1.999877    , 918.552734  , 30.599432   , 819.989563  , 1.61        , 7           , 255         , 0           , 0
-0.161082745, 9.799372    , 0.05957379  , -0.000140076838, 0.000101907179, 1.0497839E-05, -1.57676959 , -0.0167929679, 1.999876    , 918.552734  , 30.599432   , 819.99      , 1.62        , 7           , 255         , 0           , 0
-0.154464051, 9.798869    , 0.0450074   , 0.0006055031, 0.000298250583, 0.000223571347, -1.57676351 , -0.0167907029, 1.999873    , 918.5701    , 30.5978031  , 819.9904    , 1.63        , 7           , 255         , 0           , 0
-0.166089848, 9.798479    , 0.0490677729, 0.000798976 , 8.670241E-05, -0.000175009438, -1.57675552 , -0.0167924315, 1.99987209  , 918.5701    , 30.5978031  , 819.990845  , 1.64        , 7           , 255         , 0           , 0
-0.154160172, 9.79069     , 0.0537412353, -8.685594E-06, -0.000214362168, -0.000345934735, -1.57675564 , -0.0167958289, 1.99987423  , 918.5701    , 30.5978031  , 819.9913    , 1.65        , 7           , 255         , 0           , 0
-0.155037165, 9.795654    , 0.0532334559, 0.000269292563, -1.44118676E-05, 0.000258245185, -1.576753   , -0.0167932361, 1.99987435  , 918.5701    , 30.5978031  , 819.9917    , 1.66        , 7           , 255         , 0           , 0
-0.1649354  , 9.773066    , 0.0605322942, -7.880796E-05, 0.000181681244, 0.000575587153, -1.57675374 , -0.0167874824, 1.99987257  , 918.5701    , 30.5978031  , 819.9921    , 1.67        , 7           , 255         , 0           , 0
-0.1679956  , 9.794848    , 0.0595260076, -0.000251187157, -7.67447054E-05, -7.911582E-05, -1.57675624 , -0.0167882871, 1.99987328  , 918.5701    , 30.5978031  , 819.992554  , 1.68        , 7           , 255         , 0           , 0
-0.169646114, 9.792501    , 0.0606587119, 0.000302742847, -0.000119727687, 0.000228260149, -1.57675338 , -0.0167860221, 1.99987447  , 918.5701    , 30.5978031  , 819.993     , 1.69        , 7           , 255         , 0           , 0
-0.169159055, 9.810242    , 0.0577399135, -8.646056E-05, -0.000228001154, 1.36922172E-05, -1.57675421 , -0.0167859029, 1.99987674  , 918.5701    , 30.5978031  , 819.993469  , 1.7         , 7           , 255         , 0           , 0
-0.161837012, 9.792749    , 0.06160584  , -0.0006098667, -0.0004257399, 0.000817553955, -1.57675469 , -0.016772192, 1.99988079  , 918.5701    , 30.5978031  , 819.984131  , 1.71        , 7           , 255         , 0           , 0
-0.153272   , 9.786331    , 0.05887685  , -0.000399002078, -0.0004298949, 0.00107556337, -1.57675874 , -0.0167614911, 1.99988484  , 918.5701    , 30.5978031  , 819.984558  , 1.72        , 7           , 255         , 0           , 0
-0.160388425, 9.786081    , 0.059934698 , 0.000158536073, -0.000273977173, -0.000414667884, -1.57675719 , -0.0167656057, 1.99988759  , 918.5954    , 30.6007214  , 819.985     , 1.73        , 7           , 255         , 0           , 0
-0.162341177, 9.796263    , 0.0612799339, 4.54565234E-05, 3.77080869E-06, 0.0004453213, -1.57675672 , -0.0167611334, 1.99988759  , 918.5954    , 30.6007214  , 819.9854    , 1.74        , 7           , 255         , 0           , 0
-0.159384683, 9.794       , 0.06883021  , -0.000219936337, -0.00010062044, 0.0004308915, -1.576759   , -0.0167569015, 1.99988866  , 918.5954    , 30.6007214  , 819.98584   , 1.75        , 7           , 255         , 0           , 0
-0.1631157  , 9.785349    , 0.06189101  , 0.0006593607, -0.000218493748, 0.00051298365, -1.57675242 , -0.0167517457, 1.9998908   , 918.5954    , 30.6007214  , 819.986267  , 1.76        , 7           , 255         , 0           , 0
-0.170415118, 9.786024    , 0.0567452535, 0.000546958356, -0.000214013155, 0.0008832036, -1.576747   , -0.0167428628, 1.99989283  , 918.5954    , 30.6007214  , 819.9867    , 1.77        , 7           , 255         , 0           , 0
-0.171923488, 9.781217    , 0.0698571056, 0.0005537443, -0.000225290423, 0.000308723858, -1.57674146 , -0.0167397335, 1.9998951   , 918.5954    , 30.6007214  , 819.9871    , 1.78        , 7           , 255         , 0           , 0
-0.173699051, 9.796944    , 0.06864923  , 0.000397164142, -0.000218331, -7.817289E-05, -1.57673752 , -0.016740568, 1.99989724  , 918.5954    , 30.6007214  , 819.987549  , 1.79        , 7           , 255         , 0           , 0
-0.164453745, 9.804263    , 0.0652781   , -0.000166169833, -0.000319262384, 0.0005173272, -1.57673931 , -0.01673532 , 1.99990046  , 918.5954    , 30.6007214  , 819.988     , 1.8         , 7           , 255         , 0           , 0
-0.160898924, 9.799655    , 0.0663187355, 0.000141191151, 0.00072247663, 0.000150059554, -1.57675207 , -0.016733801, 1.99989331  , 918.5954    , 30.6007214  , 819.950256  , 1.81        , 7           , 255         , 0           , 0
-0.1596468  , 9.801137    , 0.0693101659, -0.0001344263, 0.000288206153, 0.000203895179, -1.5767535  , -0.0167317148, 1.99989057  , 918.5954    , 30.6007214  , 819.950439  , 1.82        , 7           , 255         , 0           , 0
-0.161185622, 9.793421    , 0.0695767552, -0.000257803244, 0.000479114 , -1.65857782E-05, -1.576756   , -0.0167319831, 1.99988568  , 918.5657    , 30.6027565  , 819.9506    , 1.83        , 7           , 255         , 0           , 0
-0.168358639, 9.792834    , 0.0627186447, -0.00034722 , 0.00020889577, 9.57330049E-05, -1.57675934 , -0.016731   , 1.99988353  , 918.5657    , 30.6027565  , 819.9508    , 1.84        , 7           , 255         , 0           , 0
-0.1718266  , 9.792322    , 0.06584785  , -0.000211899314, -0.00018964184, 0.000352343515, -1.57676148 , -0.0167274829, 1.99988532  , 918.5657    , 30.6027565  , 819.951     , 1.85        , 7           , 255         , 0           , 0
-0.170409471, 9.783996    , 0.06621723  , 0.000389044348, 0.000107379281, -0.0001903403, -1.57675755 , -0.01672939 , 1.99988437  , 918.5657    , 30.6027565  , 819.9512    , 1.86        , 7           , 255         , 0           , 0
-0.162280917, 9.780856    , 0.0604303   , -2.46709969E-05, 9.599805E-05, -0.0005588149, -1.57675779 , -0.0167349633, 1.99988341  , 918.5657    , 30.6027565  , 819.9514    , 1.87        , 7           , 255         , 0           , 0
-0.158346146, 9.787575    , 0.06675182  , 0.0004202674, 0.000223914045, -0.00012528243, -1.57675362 , -0.0167362448, 1.99988115  , 918.5657    , 30.6027565  , 819.95166   , 1.88        , 7           , 255         , 0           , 0
-0.16454187 , 9.800894    , 0.0591210946, 0.0005285914, 0.000109179877, 0.000196582085, -1.57674825 , -0.0167342778, 1.99988008  , 918.5657    , 30.6027565  , 819.9519    , 1.89        , 7           , 255         , 0           , 0
-0.174173623, 9.791915    , 0.06377184  , -0.000317370635, -0.0001990106, -2.876643E-05, -1.57675147 , -0.0167345759, 1.999882    , 918.5657    , 30.6027565  , 819.952148  , 1.9         , 7           , 255         , 0           , 0
-0.175731868, 9.795067    , 0.0580594   , -0.000478296366, -0.000138875446, -1.33249268E-05, -1.57677293 , -0.0167380348, 1.99988365  , 918.5657    , 30.6027565  , 819.9522    , 1.91        , 7           , 255         , 0           , 0
-0.163731173, 9.797274    , 0.0480560064, 0.00028050004, -7.934752E-06, -0.000163382982, -1.57677007 , -0.0167396143, 1.99988365  , 918.5657    , 30.6027565  , 819.952454  , 1.92        , 7           , 255         , 0           , 0
-0.157751322, 9.796449    , 0.0457166955, 0.0008957696, 3.558118E-05, 3.62451538E-05, -1.57676113 , -0.0167392865, 1.99988329  , 918.5923    , 30.5990925  , 819.9527    , 1.93        , 7           , 255         , 0           , 0
-0.150092825, 9.795452    , 0.045658268 , 0.000787003955, -0.000208334182, -0.000302883738, -1.57675338 , -0.0167422965, 1.99988532  , 918.5923    , 30.5990925  , 819.952942  , 1.94        , 7           , 255         , 0           , 0
-0.155955359, 9.796029    , 0.0427755639, -0.000290268974, -0.000319746672, 0.000232858525, -1.57675624 , -0.0167399719, 1.99988854  , 918.5923    , 30.5990925  , 819.9532    , 1.95        , 7           , 255         , 0           , 0
-0.159957409, 9.796532    , 0.0405755341, 0.000150505788, 0.000214542379, 0.000496309367, -1.57675469 , -0.0167350825, 1.99988627  , 918.5923    , 30.5990925  , 819.9534    , 1.96        , 7           , 255         , 0           , 0
-0.157955572, 9.799695    , 0.03130526  , 0.0006994176, 1.1878903E-05, -6.01795036E-05, -1.57674766 , -0.0167356487, 1.99988627  , 918.5923    , 30.5990925  , 819.9537    , 1.97        , 7           , 255         , 0           , 0
-0.171715423, 9.79278     , 0.043198552 , 0.000302555563, -0.000444549019, 0.0005787761, -1.57674468 , -0.0167298671, 1.9998908   , 918.5923    , 30.5990925  , 819.9539    , 1.98        , 7           , 255         , 0           , 0
-0.161432192, 9.78582     , 0.0512038171, -6.877486E-05, -4.34333924E-06, 0.0005818746, -1.57674539 , -0.0167240258, 1.99989069  , 918.5923    , 30.5990925  , 819.954163  , 1.99        , 7           , 255         , 0           , 0
-0.158196837, 9.786249    , 0.0517168529, -0.0005711862, 1.02082267E-05, -2.7159258E-05, -1.57675111 , -0.0167243239, 1.99989057  , 918.5923    , 30.5990925  , 819.9544    , 2           , 7           , 0           , 7.932236    , 200
-0.160958663, 9.791498    , 0.05576668  , -0.000148432038, -0.000298115774, 0.0005706209, -1.57672477 , -0.01671261 , 1.99989307  , 918.5923    , 30.5990925  , 819.922058  , 2.01        , 7           , 1           , 0           , 0
-0.16886358 , 9.793837    , 0.0541190878, 0.0005298836, -0.0004332508, 0.000116520765, -1.57671952 , -0.0167114176, 1.99989748  , 918.5923    , 30.5990925  , 819.9221    , 2.02        , 7           , 2           , 0           , 0
-0.170198724, 9.787851    , 0.0618953779, 0.000135754934, -0.000219204463, -0.000121211284, -1.57671821 , -0.01671261 , 1.99989963  , 918.561     , 30.6020088  , 819.9222    , 2.03        , 7           , 3           , 0           , 0
-0.16752544 , 9.786634    , 0.0678505749, -5.41308546E-05, 0.000112287817, -0.0006085369, -1.57671881 , -0.01671869 , 1.99989855  , 918.561     , 30.6020088  , 819.922241  , 2.04        , 7           , 4           , 0           , 0
-0.170422569, 9.793297    , 0.0625203848, -0.000346505083, -0.000151869957, -0.0006447296, -1.57672215 , -0.0167251285, 1.9999001   , 918.561     , 30.6020088  , 819.9223    , 2.05        , 7           , 5           , 0           , 0
-0.170080066, 9.799757    , 0.06684365  , -0.000261566718, -0.000155662419, -2.46867712E-05, -1.57672489 , -0.0167252775, 1.99990165  , 918.561     , 30.6020088  , 819.922363  , 2.06        , 7           , 6           , 0           , 0
-0.16583854 , 9.79287     , 0.08212931  , 0.000214059837, -9.247917E-06, -0.000228294884, -1.57672274 , -0.0167276021, 1.99990177  , 918.561     , 30.6020088  , 819.9224    , 2.07        , 7           , 7           , 0           , 0
-0.173076123, 9.797455    , 0.0725878552, -0.000151149739, 0.00041356578, 0.000338705839, -1.57672417 , -0.0167242046, 1.9998976   , 918.561     , 30.6020088  , 819.9225    , 2.08        , 7           , 8           , 5           , 5
-0.174036875, 9.795703    , 0.0746490955, -0.0004053449, 0.000308899442, 0.0001064243, -1.57672822 , -0.01672316 , 1.9998945   , 918.561     , 30.6020088  , 819.922546  , 2.09        , 7           , 9           , 5           , 0.1
-0.178399041, 9.79426     , 0.0692872   , 0.000185997225, -9.818701E-05, -0.0006663551, -1.57672632 , -0.0167297777, 1.99989557  , 918.561     , 30.6020088  , 819.9226    , 2.1         , 7           , 10          , 0.1         , 0.1
-0.171478346, 9.801731    , 0.07302006  , 0.0003989553, -0.000678277342, -0.0006085278, -1.576742   , -0.0167496279, 1.99990249  , 918.561     , 30.6020088  , 819.9321    , 2.11        , 7           , 11          , 0.008235601 , 0.008235604
-0.171138853, 9.80492     , 0.0680276   , -0.0001840525, -0.000247437973, -1.96140027E-05, -1.57674408 , -0.0167498067, 1.999905    , 918.561     , 30.6020088  , 819.932251  , 2.12        , 7           , 12          , 0.03464815  , 0
-0.173578531, 9.791674    , 0.06384418  , 5.249084E-05, -0.000150748878, -0.0005058377, -1.57674348 , -0.0167548154, 1.99990642  , 918.5663    , 30.6005173  , 819.9324    , 2.13        , 7           , 13          , 0           , 0
-0.165157363, 9.792387    , 0.06432621  , 0.000808048644, -0.000444793259, -0.000397396652, -1.5767355  , -0.01675872 , 1.99991083  , 918.5663    , 30.6005173  , 819.9325    , 2.14        , 7           , 14          , 9.71734844E-05, 0.00130075007
-0.164182588, 9.796354    , 0.0608016364, 9.09749651E-05, -0.00015492423, -0.0001463314, -1.57673466 , -0.01676015 , 1.9999125   , 918.5663    , 30.6005173  , 819.9326    , 2.15        , 7           , 15          , 0           , 0.000358030258
-0.159240633, 9.787107    , 0.05822452  , 0.000264714472, 2.01959629E-05, 0.0003308708, -1.576732   , -0.0167568419, 1.99991226  , 918.5663    , 30.6005173  , 819.932739  , 2.16        , 7           , 16          , 0           , 1.401298E-45
-0.156456858, 9.794786    , 0.050243713 , -0.000468255836, 0.000135027221, 6.00551721E-05, -1.57673669 , -0.0167563055, 1.999911    , 918.5663    , 30.6005173  , 819.932861  , 2.17        , 7           , 20          , 0           , 0
-0.158581942, 9.798618    , 0.0559798665, -0.000421225326, 0.000178401708, 9.10738E-05 , -1.57674086 , -0.0167554114, 1.99990916  , 918.5663    , 30.6005173  , 819.933     , 2.18        , 7           , 21          , 0           , 0
-0.15376687 , 9.798156    , 0.04870175  , -0.000465505582, -0.0004639448, 0.001031073 , -1.57674563 , -0.0167450085, 1.99991369  , 918.5663    , 30.6005173  , 819.9331    , 2.19        , 7           , 22          , 0           , 0
-0.163538486, 9.786266    , 0.0413807966, -0.000145586746, 0.000147174345, 0.000182097428, -1.576747   , -0.01674316 , 1.99991214  , 918.5663    , 30.6005173  , 819.9332    , 2.2         , 7           , 40          , 0           , 0
-0.155514583, 9.780596    , 0.04547385  , -0.000170619867, 0.000145788537, 3.455818E-05, -1.57674909 , -0.0167419389, 1.99991071  , 918.5663    , 30.6005173  , 819.934937  , 2.21        , 7           , 41          , 0           , 0
-0.1490595  , 9.788534    , 0.0564367659, -0.000197701476, 0.000199565548, 1.76483591E-05, -1.57675111 , -0.01674173 , 1.99990869  , 918.5663    , 30.6005173  , 819.935059  , 2.22        , 7           , 42          , 1           , 0
-0.158085868, 9.796045    , 0.0607113838, -0.000383561157, 8.68540956E-05, -0.0005965192, -1.57675493 , -0.0167476609, 1.99990773  , 918.5776    , 30.601263   , 819.9352    , 2.23        , 7           , 255         , 0           , 0
-0.160767481, 9.794336    , 0.0584105551, -0.000296986429, 0.0001426877, -1.39089534E-05, -1.57675791 , -0.01674784 , 1.99990642  , 918.5776    , 30.601263   , 819.9353    , 2.24        , 7           , 255         , 0           , 0
-0.17536366 , 9.792395    , 0.0561577   , -0.0003062992, -7.352175E-05, -0.000260602334, -1.576761   , -0.016750494, 1.99990714  , 918.5776    , 30.601263   , 819.9354    , 2.25        , 7           , 255         , 0           , 0
-0.1741678  , 9.788801    , 0.05053587  , -0.0009311294, 1.48718245E-05, 0.000203942618, -1.57677031 , -0.0167484358, 1.9999069   , 918.5776    , 30.601263   , 819.935547  , 2.26        , 7           , 255         , 0           , 0
-0.1787506  , 9.77759     , 0.0595172159, -0.0007080253, -0.000108393375, 0.000634593656, -1.57677746 , -0.0167420879, 1.99990785  , 918.5776    , 30.601263   , 819.935669  , 2.27        , 7           , 255         , 0           , 0
-0.178544208, 9.789389    , 0.06987207  , -0.0006505745, 0.000126243569, 0.000177955342, -1.5767839  , -0.0167403  , 1.99990654  , 918.5776    , 30.601263   , 819.9358    , 2.28        , 7           , 255         , 0           , 0
-0.170369074, 9.809523    , 0.0719371662, -0.000375755015, -0.000421777135, 0.00100465876, -1.57678771 , -0.0167303141, 1.99991071  , 918.5776    , 30.601263   , 819.936     , 2.29        , 7           , 255         , 0           , 0
-0.167213723, 9.803806    , 0.06909313  , -0.000127791514, -5.34660649E-05, -0.000256098458, -1.576789   , -0.0167328771, 1.99991119  , 918.5776    , 30.601263   , 819.936157  , 2.3         , 7           , 255         , 0           , 0
-0.164133   , 9.802902    , 0.06696533  , -0.000245932868, 0.000132466434, -0.000258770859, -1.57679474 , -0.0167419985, 1.99990988  , 918.5776    , 30.601263   , 819.9227    , 2.31        , 7           , 255         , 0           , 0
-0.162195578, 9.798365    , 0.0603920445, -0.00029639664, -3.91097274E-06, -0.00027346253, -1.57679772 , -0.01674477 , 1.99991     , 918.5776    , 30.601263   , 819.9228    , 2.32        , 7           , 255         , 0           , 0
-0.162300423, 9.793178    , 0.06972769  , -0.000134246482, -0.00059184467, -0.000363114261, -1.57679927 , -0.016748406, 1.99991608  , 918.5899    , 30.6008568  , 819.922852  , 2.33        , 7           , 255         , 0           , 0
-0.164896235, 9.795601    , 0.06524267  , 8.922327E-05, -0.0002321885, -0.000621907529, -1.57679844 , -0.0167546961, 1.99991846  , 918.5899    , 30.6008568  , 819.9229    , 2.34        , 7           , 255         , 0           , 0
-0.160053626, 9.784945    , 0.05229481  , -3.02081753E-06, -9.299372E-05, -0.000146197432, -1.57679844 , -0.0167561565, 1.99991941  , 918.5899    , 30.6008568  , 819.923     , 2.35        , 7           , 255         , 0           , 0
-0.164556861, 9.795703    , 0.05214259  , 0.000414304319, 5.47579257E-05, -0.0001828472, -1.57679427 , -0.0167580042, 1.9999187   , 918.5899    , 30.6008568  , 819.923035  , 2.36        , 7           , 255         , 0           , 0
-0.158275157, 9.795338    , 0.0516801476, 0.000184921955, -0.000111781643, 0.0005685857, -1.57679248 , -0.0167523716, 1.99991989  , 918.5899    , 30.6008568  , 819.9231    , 2.37        , 7           , 255         , 0           , 0
-0.1622096  , 9.792952    , 0.05376611  , -0.000111464651, 0.000415821327, -0.000198965456, -1.57679355 , -0.0167544279, 1.99991572  , 918.5899    , 30.6008568  , 819.923157  , 2.38        , 7           , 255         , 0           , 0
-0.158074737, 9.797851    , 0.0504770949, -5.454257E-05, -0.000239288085, -0.000584862544, -1.576794   , -0.016760299, 1.9999181   , 918.5899    , 30.6008568  , 819.9232    , 2.39        , 7           , 255         , 0           , 0
-0.160036132, 9.794459    , 0.05350365  , 0.000140650111, -0.000622290361, -0.0005678118, -1.57679284 , -0.0167659335, 1.99992442  , 918.5899    , 30.6008568  , 819.9233    , 2.4         , 7           , 255         , 0           , 0
-0.1583476  , 9.80028     , 0.0533070937, -3.253422E-05, -4.63171164E-05, -0.0006690434, -1.57679093 , -0.0167679  , 1.9999249   , 918.5899    , 30.6008568  , 819.8951    , 2.41        , 7           , 255         , 0           , 0
-0.163624436, 9.798155    , 0.0537990145, 5.63994181E-05, -0.000113060465, 0.0001260367, -1.57679033 , -0.0167666189, 1.99992609  , 918.5899    , 30.6008568  , 819.895     , 2.42        , 7           , 255         , 0           , 0
-0.159396559, 9.787784    , 0.0554206148, -0.000168755942, -0.000640045, 0.000380015175, -1.57679224 , -0.0167627726, 1.99993241  , 918.594849  , 30.6008568  , 819.894958  , 2.43        , 7           , 255         , 0           , 0
-0.153297335, 9.79102     , 0.0569542274, 0.000257711567, -2.63610855E-06, -0.000122973623, -1.57678962 , -0.0167639963, 1.99993241  , 918.594849  , 30.6008568  , 819.8949    , 2.44        , 7           , 255         , 0           , 0
-0.161653548, 9.786057    , 0.0444042981, 0.000103993305, -0.000222404953, 0.000583829 , -1.57678866 , -0.016758183, 1.99993467  , 918.594849  , 30.6008568  , 819.894836  , 2.45        , 7           , 255         , 0           , 0
-0.161470547, 9.787716    , 0.0510591939, 0.0001747972, 0.000123044359, -0.000144450067, -1.57678688 , -0.0167596135, 1.99993336  , 918.594849  , 30.6008568  , 819.8948    , 2.46        , 7           , 255         , 0           , 0
-0.16933988 , 9.795277    , 0.0496638827, 0.000197950314, -6.465078E-05, -8.3136576E-05, -1.576785   , -0.0167604778, 1.999934    , 918.594849  , 30.6008568  , 819.8947    , 2.47        , 7           , 255         , 0           , 0
-0.168336958, 9.794482    , 0.0567204133, 0.0007649873, -4.25948529E-05, -0.000155185844, -1.57677722 , -0.0167619977, 1.99993443  , 918.594849  , 30.6008568  , 819.894653  , 2.48        , 7           , 255         , 0           , 0
-0.162984937, 9.795329    , 0.07140614  , 0.000308497722, -0.000109560206, -0.000499062357, -1.57677412 , -0.0167669766, 1.99993551  , 918.594849  , 30.6008568  , 819.8946    , 2.49        , 7           , 255         , 0           , 0
-0.165279418, 9.78584     , 0.06644974  , 0.000289173971, -0.000252587255, 0.000194769818, -1.57677126 , -0.01676501 , 1.999938    , 918.594849  , 30.6008568  , 819.894531  , 2.5         , 7           , 255         , 0           , 0
-0.16762276 , 9.794347    , 0.0598770678, 0.0006782499, 0.000363558531, 0.000456014532, -1.57675815 , -0.0167564545, 1.9999342   , 918.594849  , 30.6008568  , 819.863     , 2.51        , 7           , 255         , 0           , 0
-0.175463825, 9.788133    , 0.0675577149, -0.000168655009, -7.359078E-05, -0.000406556268, -1.5767597  , -0.0167604778, 1.99993491  , 918.594849  , 30.6008568  , 819.8627    , 2.52        , 7           , 255         , 0           , 0
-0.174822778, 9.791188    , 0.0642179   , -5.92078468E-05, -0.000311826821, -0.000131051944, -1.57676029 , -0.0167617  , 1.999938    , 918.568     , 30.5997028  , 819.8624    , 2.53        , 7           , 255         , 0           , 0
-0.178290322, 9.794467    , 0.0681910962, 0.000177343347, -0.000359898433, 0.0005262667, -1.57675862 , -0.0167564247, 1.99994159  , 918.568     , 30.5997028  , 819.8622    , 2.54        , 7           , 255         , 0           , 0
-0.168913409, 9.788579    , 0.07066378  , 0.000342899031, 0.000187111436, 0.000862058369, -1.57675517 , -0.01674784 , 1.99993968  , 918.568     , 30.5997028  , 819.861938  , 2.55        , 7           , 255         , 0           , 0
-0.17103602 , 9.784271    , 0.07599287  , -6.06146932E-05, 0.00041397207, -0.0003055695, -1.57675576 , -0.0167509411, 1.99993551  , 918.568     , 30.5997028  , 819.8617    , 2.56        , 7           , 255         , 0           , 0
-0.1665312  , 9.787725    , 0.07924035  , -0.000357507524, -0.000403663726, 8.177332E-05, -1.57675934 , -0.0167500749, 1.99993944  , 918.568     , 30.5997028  , 819.86145   , 2.57        , 7           , 255         , 0           , 0
-0.172424942, 9.802366    , 0.08874308  , -0.000880457636, -0.000440285774, 0.00016957341, -1.57676828 , -0.016748406, 1.99994385  , 918.568     , 30.5997028  , 819.8612    , 2.58        , 7           , 255         , 0           , 0
-0.174121827, 9.798746    , 0.08593415  , -0.0005675403, 0.0002581305, 0.000761810341, -1.57677388 , -0.0167407468, 1.99994111  , 918.568     , 30.5997028  , 819.860962  , 2.59        , 7           , 255         , 0           , 0
-0.1795666  , 9.808975    , 0.08076638  , 0.000396007817, 9.798189E-05, -0.0002231679, -1.57676983 , -0.0167429522, 1.99994016  , 918.568     , 30.5997028  , 819.8607    , 2.6         , 7           , 255         , 0           , 0
-0.173938558, 9.800825    , 0.0701815039, 0.000702590449, 0.000220655231, -0.000123924357, -1.57679379 , -0.0167614613, 1.99993837  , 918.568     , 30.5997028  , 819.8702    , 2.61        , 7           , 255         , 0           , 0
-0.169919133, 9.787851    , 0.06221055  , -0.000232212129, -5.11164544E-05, -0.000176983041, -1.576796   , -0.01676322 , 1.99993885  , 918.568     , 30.5997028  , 819.87      , 2.62        , 7           , 255         , 0           , 0
-0.165206954, 9.795682    , 0.04480477  , -0.000252352562, 0.000186363352, -0.000197269255, -1.57679844 , -0.016765248, 1.99993694  , 918.591064  , 30.600584   , 819.8698    , 2.63        , 7           , 255         , 0           , 0
-0.157521889, 9.788357    , 0.0393633172, -0.000673540169, -0.000144985272, 0.000368027482, -1.57680511 , -0.0167614613, 1.99993849  , 918.591064  , 30.600584   , 819.8696    , 2.64        , 7           , 255         , 0           , 0
-0.15002048 , 9.804335    , 0.0463825651, -0.000217714609, 0.000235268963, 4.45796468E-05, -1.57680726 , -0.0167611036, 1.9999361   , 918.591064  , 30.600584   , 819.869446  , 2.65        , 7           , 255         , 0           , 0
-0.1421888  , 9.806917    , 0.04181598  , 0.0006037069, 0.000167163089, -0.0006971498, -1.57680118 , -0.01676805 , 1.99993443  , 918.591064  , 30.600584   , 819.869263  , 2.66        , 7           , 255         , 0           , 0
-0.146569148, 9.796463    , 0.035060484 , 0.0006608381, 4.85952478E-05, 0.000752028 , -1.57679462 , -0.0167605374, 1.99993384  , 918.591064  , 30.600584   , 819.8691    , 2.67        , 7           , 255         , 0           , 0
-0.15746507 , 9.77362251  , 0.0372330137, 0.000328332651, -4.47686762E-06, 0.000211267732, -1.57679129 , -0.0167584214, 1.99993384  , 918.591064  , 30.600584   , 819.8689    , 2.68        , 7           , 255         , 0           , 0
-0.16525951 , 9.772768    , 0.0421375334, -0.0004042417, 0.000483916141, 0.000176738715, -1.57679534 , -0.0167566929, 1.999929    , 918.591064  , 30.600584   , 819.8687    , 2.69        , 7           , 255         , 0           , 0
-0.160200864, 9.80798149  , 0.0493514165, -0.000361793442, 0.000535483239, -0.00068115606, -1.5767988  , -0.01676352 , 1.99992371  , 918.591064  , 30.600584   , 819.8685    , 2.7         , 7           , 255         , 0           , 0
-0.170546085, 9.812589    , 0.0459494628, -0.000318916631, 0.0006996682, 2.167697E-05, -1.5767777  , -0.01675264 , 1.99991632  , 918.591064  , 30.600584   , 819.8452    , 2.71        , 7           , 255         , 0           , 0
-0.166986436, 9.80678749  , 0.04873421  , 0.000756910245, 0.00021027599, -4.60656E-05, -1.57677007 , -0.0167531762, 1.99991417  , 918.591064  , 30.600584   , 819.8449    , 2.72        , 7           , 255         , 0           , 0
-0.164896578, 9.792664    , 0.0570610464, 0.000795739645, 9.857735E-05, -3.975496E-05, -1.57676208 , -0.0167535637, 1.99991345  , 918.5619    , 30.6020775  , 819.8446    , 2.73        , 7           , 255         , 0           , 0
-0.159372419, 9.779643    , 0.06378361  , 0.0005190951, 0.0004578801, -0.000228897974, -1.57675683 , -0.0167558882, 1.99990869  , 918.5619    , 30.6020775  , 819.8443    , 2.74        , 7           , 255         , 0           , 0
-0.163564473, 9.77796     , 0.06706086  , 0.0001980757, 0.00054953387, -0.00060793414, -1.57675469 , -0.0167619679, 1.9999032   , 918.5619    , 30.6020775  , 819.844     , 2.75        , 7           , 255         , 0           , 0
-0.158560917, 9.80425     , 0.06546767  , 0.000427690626, 0.000653692754, 0.0005935249, -1.57675028 , -0.0167560671, 1.99989665  , 918.5619    , 30.6020775  , 819.8437    , 2.76        , 7           , 255         , 0           , 0
-0.163417473, 9.81808949  , 0.05826204  , 0.0002955542, 0.000195357949, 0.0004902453, -1.57674718 , -0.01675118 , 1.99989462  , 918.5619    , 30.6020775  , 819.8434    , 2.77        , 7           , 255         , 0           , 0
-0.171562821, 9.794661    , 0.06769152  , 0.00103968848, 0.000274461927, -0.000366058433, -1.57673681 , -0.016754875, 1.99989188  , 918.5619    , 30.6020775  , 819.8431    , 2.78        , 7           , 255         , 0           , 0
