Acc X       , Acc Y       , Acc Z       , Gyro X      , Gyro Y      , Gyro Z      , Euler X     , Euler Y     , Euler Z     , Pres X      , Pres Y      , Pres Z      , Time        , Status      , LowRate X   , LowRate Y   , LowRate Z    
-0.178704888, 0.0893911645, -9.785787   , 0           , 0           , 0           , -0.009134542, -0.0182588864, 0           , 923.5732    , 31.5313778  , 774.9104    , 0           , 2           , 0           , 6.93623161  , 0
-0.181260809, 0.0803000554, -9.78969    , 7.69447943E-05, 3.217155E-05, -0.000477460853, -0.009133333, -0.0182584971, -4.77803E-06, 923.5732    , 31.5313778  , 774.9104    , 0.01        , 3           , 1           , 0           , 0
-0.185475245, 0.09082188  , -9.800899   , 0.000115654286, 0.00021097406, -0.000223801486, -0.009132135, -0.0182564072, -7.03554633E-06, 923.5732    , 31.5313778  , 774.9104    , 0.02        , 3           , 2           , 0           , 0
-0.17712681 , 0.100510456 , -9.79068    , 0.00107059011, -0.000134500558, 0.000236320178, -0.009121472, -0.0182577316, -4.659841E-06, 923.4932    , 31.0891838  , 774.9104    , 0.03        , 3           , 3           , 0           , 0
-0.192195937, 0.09987857  , -9.788507   , 0.0005722997, -0.000479557551, -0.0006786822, -0.009115626, -0.0182625856, -1.14036256E-05, 923.4932    , 31.0891838  , 774.9104    , 0.04        , 3           , 4           , 0           , 0
-0.191570759, 0.100814044 , -9.791108   , 0.0003141496, -0.000108967768, -0.000749547849, -0.009112347, -0.0182637423, -1.888993E-05, 923.4932    , 31.0891838  , 774.9104    , 0.05        , 3           , 5           , 0           , 0
-0.189500168, 0.100326538 , -9.788215   , -0.0002552773, -5.46656374E-05, -0.0004443702, -0.009114819, -0.0182643291, -2.33291E-05, 923.4932    , 31.0891838  , 774.9104    , 0.06        , 3           , 6           , 0           , 0
-0.178751424, 0.09557553  , -9.787025   , -0.000173568056, 9.02756E-05 , -0.0006124107, -0.009116444, -0.0182634816, -2.946205E-05, 923.4932    , 31.0891838  , 774.9104    , 0.07        , 3           , 7           , 0           , 0
-0.1809986  , 0.0804420859, -9.803923   , 8.21905851E-05, -0.0001752536, 0.0001659348, -0.009115652, -0.01826522 , -2.77865547E-05, 923.4932    , 31.0891838  , 774.9104    , 0.08        , 3           , 8           , 5           , 5
-0.179801643, 0.085066    , -9.792619   , 7.623562E-05, 0.000237232787, -0.0002489178, -0.009114844, -0.01826287 , -3.029761E-05, 923.4932    , 31.0891838  , 774.9104    , 0.09        , 3           , 9           , 5           , 0.1
-0.175107449, 0.0812924   , -9.781675   , 0.00035278406, -2.43924733E-05, -7.726482E-05, -0.009111301, -0.01826312 , -3.10681171E-05, 923.4932    , 31.0891838  , 774.9104    , 0.1         , 3           , 10          , 0.1         , 0.1
-0.176470712, 0.08309634  , -9.79146    , -0.000788570731, -0.000158449111, 0.000187403 , -0.009129035, -0.0182834379, -2.90000116E-05, 923.4932    , 31.0891838  , 775.6265    , 0.11        , 3           , 11          , 0.0109544508, 0.0109544508
-0.180243924, 0.07679396  , -9.792505   , -0.0004236591, -0.0001743997, -0.000178420582, -0.009133238, -0.0182851981, -3.07684677E-05, 923.4932    , 31.0891838  , 775.6265    , 0.12        , 3           , 12          , 0.174642488 , 0
-0.1797852  , 0.0790477544, -9.794527   , -0.000107492262, 2.73227924E-05, -3.33832249E-05, -0.0091343075, -0.0182849281, -3.110483E-05, 923.521362  , 31.1286     , 775.6265    , 0.13        , 3           , 13          , 0           , 0
-0.170119718, 0.07965143  , -9.794512   , -0.000159376184, 3.24333378E-05, -0.000116475989, -0.00913588051, -0.0182846151, -3.22726664E-05, 923.521362  , 31.1286     , 775.6265    , 0.14        , 3           , 14          , -0.000397111173, -0.000413479225
-0.1753894  , 0.08881737  , -9.789166   , 0.0003230395, 0.000282578461, -0.00063447305, -0.009132534, -0.01828185 , -3.86438442E-05, 923.521362  , 31.1286     , 775.6265    , 0.15        , 3           , 15          , 0           , -2.29792058E-05
-0.171087414, 0.0845965   , -9.786584   , -1.33425347E-05, -0.000140469, -0.000457587361, -0.009132584, -0.0182832964, -4.32073539E-05, 923.521362  , 31.1286     , 775.6265    , 0.16        , 3           , 16          , 0           , 1.401298E-45
-0.179495454, 0.0968919545, -9.794546   , -0.0009415011, 0.0003962947, -0.0005024035, -0.009141907, -0.01827938 , -4.826812E-05, 923.521362  , 31.1286     , 775.6265    , 0.17        , 3           , 20          , 0           , 0
-0.1761568  , 0.10073135  , -9.789251   , 0.000211669409, -8.458574E-05, 6.924106E-05, -0.009139802, -0.0182802174, -4.7567908E-05, 923.521362  , 31.1286     , 775.6265    , 0.18        , 3           , 21          , 0           , 0
-0.17925258 , 0.103412881 , -9.792916   , 0.0006195711, -0.000276548322, 0.000184587436, -0.009133641, -0.0182829648, -4.56965754E-05, 923.521362  , 31.1286     , 775.6265    , 0.19        , 3           , 22          , 0           , 0
-0.183523178, 0.102438785 , -9.791216   , 0.000115834118, -0.000219636771, -0.000242294467, -0.009132437, -0.0182851814, -4.8099726E-05, 923.521362  , 31.1286     , 775.6266    , 0.2         , 3           , 40          , 0           , 0
-0.172560155, 0.101061188 , -9.78547    , 0.0001311975, -0.0001984761, 0.000268926582, -0.009131625, -0.0182793234, -4.53838147E-05, 923.521362  , 31.1286     , 775.501     , 0.21        , 3           , 41          , 0           , 0
-0.1847645  , 0.100873373 , -9.789843   , 0.0007158378, 0.0004430054, 8.842603E-05, -0.009124484, -0.0182748865, -4.45399019E-05, 923.521362  , 31.1286     , 775.501038  , 0.22        , 3           , 42          , 0           , 0
-0.183322757, 0.09192329  , -9.802202   , 0.0003443276, 0.000534368 , 0.000414496142, -0.009121115, -0.0182695054, -4.04432831E-05, 923.4984    , 31.1529541  , 775.5011    , 0.23        , 3           , 255         , 0           , 0
-0.176102668, 0.08010584  , -9.801019   , 0.000110852823, -0.000248712633, 0.000340937142, -0.00912006851, -0.0182719585, -3.70108828E-05, 923.4984    , 31.1529541  , 775.50116   , 0.24        , 3           , 255         , 0           , 0
-0.180838123, 0.0951292962, -9.79661    , -0.000467666017, 1.961441E-05, 0.0005777793, -0.009124851, -0.01827171 , -3.12343072E-05, 923.4984    , 31.1529541  , 775.5012    , 0.25        , 3           , 255         , 0           , 0
-0.18360123 , 0.09043888  , -9.794791   , -9.36068245E-05, -9.21232E-05, 0.000327231566, -0.009125847, -0.0182726029, -2.795325E-05, 923.4984    , 31.1529541  , 775.5013    , 0.26        , 3           , 255         , 0           , 0
-0.172866419, 0.09742418  , -9.797218   , -0.00016538112, -3.31820338E-05, -0.0001832785, -0.009127468, -0.0182729512, -2.978319E-05, 923.4984    , 31.1529541  , 775.501343  , 0.27        , 3           , 255         , 0           , 0
-0.180784792, 0.0864966363, -9.784029   , 0.000601146 , -0.0001874798, -0.000587717048, -0.009121349, -0.01827488 , -3.564384E-05, 923.4984    , 31.1529541  , 775.5014    , 0.28        , 3           , 255         , 0           , 0
-0.17053175 , 0.08229472  , -9.787781   , -1.88189442E-05, -8.787631E-05, -5.46529845E-05, -0.009121527, -0.0182757638, -3.61824023E-05, 923.4984    , 31.1529541  , 775.501465  , 0.29        , 3           , 255         , 0           , 0
-0.1798953  , 0.07874915  , -9.794007   , 0.000281585177, -0.000182785763, 0.000532874954, -0.00911881 , -0.01827754 , -3.08364542E-05, 923.4984    , 31.1529541  , 775.5015    , 0.3         , 3           , 255         , 0           , 0
-0.181850031, 0.08958239  , -9.793347   , 0.000269745535, 0.000104792794, 0.0007896038, -0.009120164, -0.0182748586, -2.28777371E-05, 923.4984    , 31.1529541  , 775.5286    , 0.31        , 3           , 255         , 0           , 0
-0.1810201  , 0.0863      , -9.796553   , 0.0003771374, 0.000318115723, 0.000106268482, -0.009116413, -0.0182716679, -2.184394E-05, 923.4984    , 31.1529541  , 775.5287    , 0.32        , 3           , 255         , 0           , 0
-0.178002089, 0.0844760761, -9.79413    , -0.000421819917, -6.929849E-05, 0.000109185639, -0.00912065 , -0.0182723515, -2.07456542E-05, 923.501465  , 31.172493   , 775.528748  , 0.33        , 3           , 255         , 0           , 0
-0.177431017, 0.09527633  , -9.794351   , 0.0006067991, -0.0003599144, -0.000476596848, -0.009114496, -0.0182759929, -2.547929E-05, 923.501465  , 31.172493   , 775.5288    , 0.34        , 3           , 255         , 0           , 0
-0.1817052  , 0.09036624  , -9.794778   , 4.54276742E-05, 1.1456199E-05, -0.0006390657, -0.009113925, -0.0182759371, -3.187165E-05, 923.501465  , 31.172493   , 775.5289    , 0.35        , 3           , 255         , 0           , 0
-0.183374017, 0.0901753753, -9.793157   , 5.81273052E-05, 0.0008180603, -0.000322810054, -0.009113282, -0.0182677861, -3.517465E-05, 923.501465  , 31.172493   , 775.528931  , 0.36        , 3           , 255         , 0           , 0
-0.176665217, 0.0964444056, -9.792641   , 0.000196239533, -4.842863E-05, -0.000455988862, -0.009111236, -0.0182683133, -3.97305957E-05, 923.501465  , 31.172493   , 775.529     , 0.37        , 3           , 255         , 0           , 0
-0.179340109, 0.100472413 , -9.791232   , 1.72767323E-05, 1.47104438E-05, 7.77317546E-05, -0.009111078, -0.0182681587, -3.89545348E-05, 923.501465  , 31.172493   , 775.529053  , 0.38        , 3           , 255         , 0           , 0
-0.1884938  , 0.09824418  , -9.787517   , -4.21882723E-05, -0.000158643263, -2.18898713E-05, -0.009111497, -0.0182697456, -3.91590074E-05, 923.501465  , 31.172493   , 775.5291    , 0.39        , 3           , 255         , 0           , 0
-0.18290174 , 0.0944428   , -9.789339   , 0.0004636625, -0.000190819177, 8.234831E-05, -0.009106876, -0.0182716455, -3.831806E-05, 923.501465  , 31.172493   , 775.5292    , 0.4         , 3           , 255         , 0           , 0
-0.190165326, 0.083632    , -9.804544   , -0.000184694247, -0.0001589254, 0.000754761044, -0.009120635, -0.0182805322, -3.05399553E-05, 923.501465  , 31.172493   , 775.535339  , 0.41        , 3           , 255         , 0           , 0
-0.174513251, 0.08231282  , -9.789274   , -0.00011846394, 0.000322964159, 0.0005729491, -0.009121924, -0.0182772484, -2.48393426E-05, 923.501465  , 31.172493   , 775.5354    , 0.42        , 3           , 255         , 0           , 0
-0.1686301  , 0.08446292  , -9.79263    , -0.000330085342, 0.000615837751, 0.000541791145, -0.009125324, -0.018271042, -1.94770837E-05, 923.5219    , 31.1805668  , 775.535461  , 0.43        , 3           , 255         , 0           , 0
-0.179191649, 0.0842147842, -9.794146   , 9.50210961E-05, 4.44399775E-05, -5.46740339E-05, -0.009124364, -0.0182706024, -2.0027921E-05, 923.5219    , 31.1805668  , 775.5355    , 0.44        , 3           , 255         , 0           , 0
-0.176362544, 0.07754632  , -9.786252   , 0.00014793  , -0.0001325167, -0.000301405758, -0.00912283 , -0.0182719547, -2.30302E-05, 923.5219    , 31.1805668  , 775.5356    , 0.45        , 3           , 255         , 0           , 0
-0.177298   , 0.07987325  , -9.788306   , 0.0005954942, 6.724786E-05, 0.000492320571, -0.009116964, -0.0182712376, -1.81126343E-05, 923.5219    , 31.1805668  , 775.535645  , 0.46        , 3           , 255         , 0           , 0
-0.174938112, 0.08830908  , -9.794687   , -5.398231E-05, -0.0002751062, 0.0004037562, -0.009117579, -0.0182739515, -1.40495795E-05, 923.5219    , 31.1805668  , 775.5357    , 0.47        , 3           , 255         , 0           , 0
-0.164927244, 0.09207843  , -9.797268   , -7.005062E-05, -8.15037347E-05, 0.000827309152, -0.009118431, -0.018274691, -5.768229E-06, 923.5219    , 31.1805668  , 775.535767  , 0.48        , 3           , 255         , 0           , 0
-0.178036138, 0.101177238 , -9.78997    , -0.0002202157, 0.000185821962, 9.02855754E-06, -0.009120633, -0.018272832, -5.69488975E-06, 923.5219    , 31.1805668  , 775.5358    , 0.49        , 3           , 255         , 0           , 0
-0.175587326, 0.09808065  , -9.792435   , -6.98379E-05, -5.42236376E-05, 0.000215387452, -0.009121371, -0.0182733554, -3.53584733E-06, 923.5219    , 31.1805668  , 775.5359    , 0.5         , 3           , 255         , 0           , 0
-0.175940022, 0.094289504 , -9.792907   , -0.0002138131, -8.015588E-05, 0.000163407909, -0.009116127, -0.018263964, -2.029676E-06, 923.5219    , 31.1805668  , 775.502     , 0.51        , 3           , 255         , 0           , 0
-0.1743022  , 0.08602089  , -9.793505   , -0.0002027229, -0.0002129921, 0.0005773041, -0.00911826 , -0.01826604 , 3.7633672E-06, 923.5219    , 31.1805668  , 775.5021    , 0.52        , 3           , 255         , 0           , 0
-0.174885228, 0.0884628147, -9.788296   , 0.0008796527, 0.000294259 , 0.0007557026, -0.009109601, -0.01826303 , 1.12943362E-05, 923.510254  , 31.1881638  , 775.502136  , 0.53        , 3           , 255         , 0           , 0
-0.18645899 , 0.08770081  , -9.79334    , -3.98561824E-05, -5.24199568E-05, 0.000228238816, -0.00911004 , -0.01826353 , 1.358172E-05, 923.510254  , 31.1881638  , 775.5022    , 0.54        , 3           , 255         , 0           , 0
-0.179221511, 0.08145596  , -9.799187   , -3.233133E-05, 8.354534E-05, -0.0004890117, -0.009110275, -0.0182627384, 8.6835E-06  , 923.510254  , 31.1881638  , 775.502258  , 0.55        , 3           , 255         , 0           , 0
-0.172207117, 0.0746586844, -9.790094   , -0.0007934159, -0.00024978767, 0.000578511448, -0.009118316, -0.0182651859, 1.4491975E-05, 923.510254  , 31.1881638  , 775.5023    , 0.56        , 3           , 255         , 0           , 0
-0.1791094  , 0.08212705  , -9.791307   , -7.030903E-05, -0.0005270267, -0.0003073323, -0.009118962, -0.0182704832, 1.1466399E-05, 923.510254  , 31.1881638  , 775.5024    , 0.57        , 3           , 255         , 0           , 0
-0.175883919, 0.07957347  , -9.795316   , -0.0006959448, -0.000277570362, -0.0005992421, -0.009125811, -0.01827331 , 5.49869E-06 , 923.510254  , 31.1881638  , 775.502441  , 0.58        , 3           , 255         , 0           , 0
-0.174028382, 0.089553155 , -9.802435   , -0.000295217615, 0.0002317648, -0.000153647052, -0.009128735, -0.0182710085, 3.94092376E-06, 923.510254  , 31.1881638  , 775.502563  , 0.59        , 3           , 255         , 0           , 0
-0.18090792 , 0.08821334  , -9.795954   , -0.000302994449, 0.000222626681, 2.14461652E-05, -0.009131769, -0.0182687789, 4.135064E-06, 923.510254  , 31.1881638  , 775.5027    , 0.6         , 3           , 255         , 0           , 0
-0.172103122, 0.08223011  , -9.784301   , 0.000377369928, 0.0001619918, 0.000163533012, -0.009115819, -0.0182622783, 5.532848E-06, 923.510254  , 31.1881638  , 775.4978    , 0.61        , 3           , 255         , 0           , 0
-0.184479639, 0.0953474343, -9.795874   , -9.50864051E-05, -9.25594941E-05, 0.000437324023, -0.00911685 , -0.018263163, 9.914971E-06, 923.510254  , 31.1881638  , 775.4979    , 0.62        , 3           , 255         , 0           , 0
-0.183880284, 0.0885064453, -9.795221   , -3.32693162E-05, 0.0009082364, 0.000243628485, -0.009117226, -0.01825406 , 1.22686824E-05, 923.5073    , 31.1939316  , 775.498047  , 0.63        , 3           , 255         , 0           , 0
-0.168364882, 0.100639917 , -9.795329   , -0.0004669928, -0.0002656345, 0.000315794285, -0.009121952, -0.0182566866, 1.54511781E-05, 923.5073    , 31.1939316  , 775.498169  , 0.64        , 3           , 255         , 0           , 0
-0.182084069, 0.101241626 , -9.795776   , -0.000232460676, -8.890551E-05, -0.000252934, -0.009124231, -0.0182575956, 1.29296914E-05, 923.5073    , 31.1939316  , 775.4983    , 0.65        , 3           , 255         , 0           , 0
-0.184182525, 0.09869247  , -9.795423   , -1.21219782E-05, 0.000235534259, -0.000596663158, -0.009124244, -0.0182552934, 6.940973E-06, 923.5073    , 31.1939316  , 775.4984    , 0.66        , 3           , 255         , 0           , 0
-0.188422322, 0.102241553 , -9.787992   , -0.0001434238, -0.000318643, -0.000621550134, -0.009125564, -0.0182585381, 7.53922166E-07, 923.5073    , 31.1939316  , 775.498535  , 0.67        , 3           , 255         , 0           , 0
-0.187044308, 0.09963938  , -9.787424   , 0.000542186841, 0.000229339843, 0.000104259874, -0.009120161, -0.0182562321, 1.77570246E-06, 923.5073    , 31.1939316  , 775.498657  , 0.68        , 3           , 255         , 0           , 0
-0.171764225, 0.08389638  , -9.789799   , 0.0003256112, 0.0003394938, -6.757861E-05, -0.009116892, -0.01825285 , 1.0688924E-06, 923.5073    , 31.1939316  , 775.4988    , 0.69        , 3           , 255         , 0           , 0
-0.174044237, 0.08303417  , -9.787397   , 0.000165624646, 0.000475282664, 8.730086E-05, -0.009115253, -0.0182480849, 1.89865727E-06, 923.5073    , 31.1939316  , 775.4989    , 0.7         , 3           , 255         , 0           , 0
-0.170294046, 0.08313445  , -9.789228   , -0.000521912531, 0.000491901068, -0.00104973256, -0.009135109, -0.0182462335, -8.373969E-06, 923.5073    , 31.1939316  , 775.4997    , 0.71        , 3           , 255         , 0           , 0
-0.167145014, 0.08487471  , -9.793339   , -0.000145873637, 9.356195E-05, -0.0008050981, -0.009136421, -0.01824537 , -1.64343E-05, 923.5073    , 31.1939316  , 775.4998    , 0.72        , 3           , 255         , 0           , 0
-0.180087835, 0.08971463  , -9.802327   , 0.0006495612, 1.60776544E-05, -0.0002028763, -0.009129887, -0.0182452258, -1.846473E-05, 923.5465    , 31.1984768  , 775.499939  , 0.73        , 3           , 255         , 0           , 0
-0.175723672, 0.096803844 , -9.795187   , 0.0006233653, -0.000107609842, -0.0003721809, -0.009123585, -0.0182463378, -2.21770933E-05, 923.5465    , 31.1984768  , 775.500061  , 0.74        , 3           , 255         , 0           , 0
-0.173132032, 0.08968563  , -9.785677   , 0.0004171195, -0.000107531319, 0.000273953774, -0.009119467, -0.0182473883, -1.94274671E-05, 923.5465    , 31.1984768  , 775.5002    , 0.75        , 3           , 255         , 0           , 0
-0.179507524, 0.0913307443, -9.792867   , 0.0006641937, -0.0001360277, 0.000682987447, -0.009112949, -0.0182486884, -1.258451E-05, 923.5465    , 31.1984768  , 775.5003    , 0.76        , 3           , 255         , 0           , 0
-0.183955491, 0.09250192  , -9.794879   , 0.000404111634, -0.000166109472, 0.0002259034, -0.009108949, -0.0182503276, -1.03101256E-05, 923.5465    , 31.1984768  , 775.5004    , 0.77        , 3           , 255         , 0           , 0
-0.184854418, 0.0913548842, -9.797796   , -0.000335528282, 0.000101311976, -0.0005659617, -0.009112201, -0.0182493627, -1.59795381E-05, 923.5465    , 31.1984768  , 775.500549  , 0.78        , 3           , 255         , 0           , 0
-0.184019357, 0.08925982  , -9.791187   , 0.000233754414, -0.0005054336, -0.000107963526, -0.009109843, -0.0182544272, -1.70132462E-05, 923.5465    , 31.1984768  , 775.5007    , 0.79        , 3           , 255         , 0           , 0
-0.188662633, 0.0874872357, -9.7900095  , -1.98711932E-05, 9.154086E-05, -0.000200322553, -0.009110004, -0.01825353 , -1.902501E-05, 923.5465    , 31.1984768  , 775.5008    , 0.8         , 3           , 255         , 0           , 0
-0.1875645  , 0.09012543  , -9.788966   , -0.000160143914, 0.000227494747, -0.000379251782, -0.009112403, -0.01825133 , -2.28228346E-05, 923.5465    , 31.1984768  , 775.4522    , 0.81        , 3           , 255         , 0           , 0
-0.177117273, 0.0850086659, -9.781979   , 0.000142942619, -0.000180067436, -0.0004267543, -0.009110895, -0.01825317 , -2.70744131E-05, 923.5465    , 31.1984768  , 775.4523    , 0.82        , 3           , 255         , 0           , 0
-0.173480377, 0.0857952461, -9.791927   , -0.0005135647, -0.000718709663, 0.000152108667, -0.009116059, -0.018260343, -2.548766E-05, 923.562134  , 31.2006474  , 775.452332  , 0.83        , 3           , 255         , 0           , 0
-0.172288954, 0.08185314  , -9.799408   , -0.00035037045, -0.0007750171, 0.000824729 , -0.009119716, -0.0182680171, -1.71688789E-05, 923.562134  , 31.2006474  , 775.4524    , 0.84        , 3           , 255         , 0           , 0
-0.173504263, 0.08745603  , -9.786257   , 0.000384111481, -0.0003411477, -0.000293046469, -0.00911582 , -0.0182714574, -2.00685336E-05, 923.562134  , 31.2006474  , 775.452454  , 0.85        , 3           , 255         , 0           , 0
-0.1790361  , 0.08917003  , -9.790513   , -7.63546E-05, -0.000161957869, -0.000298253872, -0.00911652949, -0.0182731  , -2.303661E-05, 923.562134  , 31.2006474  , 775.4525    , 0.86        , 3           , 255         , 0           , 0
-0.18165414 , 0.08174898  , -9.798178   , -0.0003918175, 0.000203742442, -4.34714566E-05, -0.009120438, -0.0182710662, -2.34899344E-05, 923.562134  , 31.2006474  , 775.4526    , 0.87        , 3           , 255         , 0           , 0
-0.177988619, 0.08117315  , -9.796775   , -0.000108903478, 9.539531E-05, 0.000123025064, -0.00912155 , -0.0182701033, -2.2268272E-05, 923.562134  , 31.2006474  , 775.4527    , 0.88        , 3           , 255         , 0           , 0
-0.179092869, 0.09058556  , -9.783152   , 0.000132136076, 0.000137253635, -0.0006888372, -0.009120102, -0.018268792, -2.91698616E-05, 923.562134  , 31.2006474  , 775.4528    , 0.89        , 3           , 255         , 0           , 0
-0.1792319  , 0.08399702  , -9.787903   , 0.000252951926, -7.310716E-05, -0.00102526555, -0.009117386, -0.018269619, -3.94169037E-05, 923.562134  , 31.2006474  , 775.452942  , 0.9         , 3           , 255         , 0           , 0
-0.179969355, 0.08707292  , -9.792448   , -0.000191993284, -0.000145074155, -0.0002846448, -0.00910645 , -0.0182682145, -4.24843056E-05, 923.562134  , 31.2006474  , 775.396057  , 0.91        , 3           , 255         , 0           , 0
-0.184068829, 0.09380405  , -9.795397   , -0.000181136216, -6.38787751E-05, -0.000387071224, -0.00910818949, -0.0182688888, -4.634959E-05, 923.562134  , 31.2006474  , 775.396057  , 0.92        , 3           , 255         , 0           , 0
-0.182753548, 0.09351437  , -9.789714   , -0.0004318724, -5.763833E-05, 8.051185E-05, -0.009112522, -0.0182694569, -4.553914E-05, 923.563843  , 31.2075     , 775.396057  , 0.93        , 3           , 255         , 0           , 0
-0.178589165, 0.09537564  , -9.789107   , -0.000503535033, 7.977738E-05, -0.000369035057, -0.009117491, -0.0182686932, -4.92371328E-05, 923.563843  , 31.2075     , 775.396057  , 0.94        , 3           , 255         , 0           , 0
-0.170117185, 0.0889580846, -9.791874   , -0.000146095437, -4.867511E-05, 0.0004766495, -0.009119039, -0.0182691384, -4.44657162E-05, 923.563843  , 31.2075     , 775.396057  , 0.95        , 3           , 255         , 0           , 0
-0.177238986, 0.0891582   , -9.792913   , 9.2923E-05  , 0.000127362349, -0.000176409521, -0.009118078, -0.01826788 , -4.624159E-05, 923.563843  , 31.2075     , 775.396057  , 0.96        , 3           , 255         , 0           , 0
-0.18290247 , 0.09185816  , -9.797613   , 0.0004543023, -0.0007379657, -2.17224278E-05, -0.00911353249, -0.0182752591, -4.63915749E-05, 923.563843  , 31.2075     , 775.396057  , 0.97        , 3           , 255         , 0           , 0
-0.188303873, 0.0965474844, -9.793708   , 4.20622528E-05, -0.000262612652, -0.000402699137, -0.009113037, -0.0182779226, -5.03950432E-05, 923.563843  , 31.2075     , 775.396057  , 0.98        , 3           , 255         , 0           , 0
-0.189324111, 0.09537416  , -9.79305649 , -7.22272671E-06, 0.000229542551, 0.000184505683, -0.009113143, -0.0182756111, -4.85707023E-05, 923.563843  , 31.2075     , 775.396057  , 0.99        , 3           , 255         , 0           , 0
-0.187161937, 0.08816177  , -9.791887   , -9.074359E-05, -8.399144E-05, -0.000171103457, -0.00911402 , -0.0182764661, -5.027426E-05, 923.563843  , 31.2075     , 775.396057  , 1           , 3           , 0           , 7.93623638  , 100
-0.178730324, 0.08353319  , -9.788092   , 0.000607070862, -4.52191452E-05, -6.760628E-05, -0.009115744, -0.0182859637, -5.08035337E-05, 923.563843  , 31.2075     , 775.3474    , 1.01        , 3           , 1           , 0           , 0
-0.180944934, 0.08208418  , -9.789427   , -0.00018388388, -2.31314334E-05, -0.000534019549, -0.009117486, -0.0182862431, -5.61421475E-05, 923.563843  , 31.2075     , 775.347351  , 1.02        , 3           , 2           , 0           , 0
-0.176082775, 0.07947299  , -9.800592   , -0.000246299955, 6.288901E-06, -0.000362934836, -0.009119882, -0.0182862133, -5.97724465E-05, 923.528564  , 31.2083817  , 775.3473    , 1.03        , 3           , 3           , 0           , 0
-0.17766206 , 0.07417808  , -9.793706   , -0.000636476267, -4.191234E-05, -0.000719168165, -0.009126114, -0.0182867013, -6.696103E-05, 923.528564  , 31.2083817  , 775.3472    , 1.04        , 3           , 4           , 0           , 0
-0.171597689, 0.08870955  , -9.789269   , 0.000184515739, 0.000202616662, -0.000394876639, -0.009124195, -0.0182847083, -7.092868E-05, 923.528564  , 31.2083817  , 775.347168  , 1.05        , 3           , 5           , 0           , 0
-0.177927658, 0.09935907  , -9.791516   , -0.0003593475, 0.000177797643, -0.000215106018, -0.009127749, -0.0182829536, -7.30961838E-05, 923.528564  , 31.2083817  , 775.3471    , 1.06        , 3           , 6           , 0           , 0
-0.18459478 , 0.08479928  , -9.791641   , -4.27400519E-05, -5.092472E-05, 0.000483560929, -0.009128265, -0.01828342 , -6.825544E-05, 923.528564  , 31.2083817  , 775.347046  , 1.07        , 3           , 7           , 0           , 0
-0.172456533, 0.09402607  , -9.789888   , -5.22173359E-05, 0.0003310999, -0.000405640749, -0.009128713, -0.0182801448, -7.234248E-05, 923.528564  , 31.2083817  , 775.347     , 1.08        , 3           , 8           , 5           , 5
-0.1775906  , 0.0979611352, -9.798284   , -0.00030550576, 0.000156991067, -5.70720731E-05, -0.009131756, -0.0182785783, -7.292759E-05, 923.528564  , 31.2083817  , 775.3469    , 1.09        , 3           , 9           , 5           , 0.1
-0.178610519, 0.0964742452, -9.790034   , 0.000223503434, 0.000110897439, -0.000321207335, -0.009129463, -0.0182775  , -7.615011E-05, 923.528564  , 31.2083817  , 775.346863  , 1.1         , 3           , 10          , 0.1         , 0.1
-0.174119025, 0.09928728  , -9.799812   , 0.0004360795, -0.00043957337, -0.000433723471, -0.00912119 , -0.01827761 , -8.051772E-05, 923.528564  , 31.2083817  , 775.342346  , 1.11        , 3           , 11          , 0.009208518 , 0.009208518
-0.184335008, 0.100519039 , -9.789101   , -6.140946E-05, -0.000290890981, -0.0009255406, -0.009121634, -0.018280603, -8.974752E-05, 923.528564  , 31.2083817  , 775.3423    , 1.12        , 3           , 12          , 0.174642846 , 0
-0.18431583 , 0.09041074  , -9.790609   , 0.000218529836, -0.000130599015, 0.000218522968, -0.009119491, -0.0182818882, -8.75501646E-05, 923.5296    , 31.2102127  , 775.3422    , 1.13        , 3           , 13          , 0           , 0
-0.1797641  , 0.09281123  , -9.79866    , -0.000466741942, 0.000573608 , -0.000343505846, -0.009124092, -0.0182761829, -9.103791E-05, 923.5296    , 31.2102127  , 775.342163  , 1.14        , 3           , 14          , -0.000397113938, -0.0004134819
-0.186764643, 0.09744383  , -9.79499149 , -0.000250874349, 0.0003299655, -0.000247898774, -0.009126555, -0.01827291 , -9.354725E-05, 923.5296    , 31.2102127  , 775.3421    , 1.15        , 3           , 15          , 0           , -2.29791822E-05
-0.176526353, 0.0971218944, -9.796504   , -0.0007718749, 4.64903424E-05, -0.000137457086, -0.009134248, -0.0182724558, -9.492619E-05, 923.5296    , 31.2102127  , 775.342041  , 1.16        , 3           , 16          , 0           , 1.401298E-45
-0.171437755, 0.089180544 , -9.792166   , -0.0002767004, -0.000182376767, -0.0001171017, -0.009136994, -0.01827429 , -9.608065E-05, 923.5296    , 31.2102127  , 775.342     , 1.17        , 3           , 20          , 0           , 0
-0.171833366, 0.08145521  , -9.795638   , -0.0002380452, 3.52985226E-05, -0.000111116788, -0.009139354, -0.0182739459, -9.719517E-05, 923.5296    , 31.2102127  , 775.3419    , 1.18        , 3           , 21          , 0           , 0
-0.177402377, 0.09054823  , -9.79109    , -3.763099E-05, -4.528498E-06, -0.000281190471, -0.00913968 , -0.0182740167, -0.000100006946, 923.5296    , 31.2102127  , 775.341858  , 1.19        , 3           , 22          , 0           , 0
-0.177795917, 0.09235293  , -9.79207    , -4.13466769E-05, -6.35965262E-06, 0.000109987253, -0.009140113, -0.01827407 , -9.890637E-05, 923.5296    , 31.2102127  , 775.3418    , 1.2         , 3           , 40          , 0           , 0
-0.1833922  , 0.0788780451, -9.794946   , -0.000720190466, -1.127919E-06, 9.668527E-05, -0.009156813, -0.0182726085, -9.77661E-05, 923.5296    , 31.2102127  , 775.3371    , 1.21        , 3           , 41          , 0           , 0
-0.176606208, 0.0842156857, -9.793447   , -0.0002477571, 0.000298721454, -0.000879194, -0.009159129, -0.0182697028, -0.000106586282, 923.5296    , 31.2102127  , 775.337036  , 1.22        , 3           , 42          , 0           , 0
-0.184550315, 0.08698555  , -9.78831    , -0.000492627965, -1.37247844E-06, -0.0002443798, -0.00916401 , -0.0182697363, -0.00010903021, 923.5105    , 31.209671   , 775.337     , 1.23        , 3           , 255         , 0           , 0
-0.182314187, 0.0902689844, -9.793012   , -0.000654691947, 0.0007156844, 0.000608984963, -0.009170666, -0.0182625223, -0.000103005375, 923.5105    , 31.209671   , 775.3369    , 1.24        , 3           , 255         , 0           , 0
-0.177273363, 0.09129251  , -9.791405   , -0.0003038269, 0.000128622138, 0.000609892537, -0.009173816, -0.0182611812, -9.691763E-05, 923.5105    , 31.209671   , 775.336853  , 1.25        , 3           , 255         , 0           , 0
-0.168634847, 0.100573733 , -9.799286   , -0.000142688776, 0.000167795981, 0.000482672447, -0.00917533 , -0.0182594582, -9.210582E-05, 923.5105    , 31.209671   , 775.3368    , 1.26        , 3           , 255         , 0           , 0
-0.173523217, 0.09919665  , -9.791899   , 9.411585E-05, -0.0001631846, -0.000457137881, -0.009174306, -0.01826113 , -9.66627E-05, 923.5105    , 31.209671   , 775.336731  , 1.27        , 3           , 255         , 0           , 0
-0.175489128, 0.08687217  , -9.792254   , 0.0002663075, 0.000224750693, -8.400002E-05, -0.009171627, -0.018258892, -9.752338E-05, 923.5105    , 31.209671   , 775.3367    , 1.28        , 3           , 255         , 0           , 0
-0.181695327, 0.0873291343, -9.791309   , -6.550632E-06, 0.000352763338, 1.71232132E-05, -0.009171696, -0.0182553623, -9.738447E-05, 923.5105    , 31.209671   , 775.3366    , 1.29        , 3           , 255         , 0           , 0
-0.171830729, 0.09191637  , -9.785231   , 0.000387194828, 1.32852E-05 , 7.6152166E-05, -0.009167838, -0.0182552226, -9.66241E-05, 923.5105    , 31.209671   , 775.336548  , 1.3         , 3           , 255         , 0           , 0
-0.178918749, 0.08658244  , -9.788605   , 1.48394611E-05, -0.00028906943, -0.00048584363, -0.009167409, -0.0182544366, -0.000101460042, 923.5105    , 31.209671   , 775.352051  , 1.31        , 3           , 255         , 0           , 0
-0.173546821, 0.08400464  , -9.789032   , 0.000172735177, 9.141787E-05, -0.0004295009, -0.009165602, -0.0182535611, -0.000105763858, 923.5105    , 31.209671   , 775.352051  , 1.32        , 3           , 255         , 0           , 0
-0.176006421, 0.08776083  , -9.790821   , 0.000169050792, 0.0001469239, -0.0004821563, -0.009163824, -0.0182521362, -0.000110599351, 923.548157  , 31.2096024  , 775.352051  , 1.33        , 3           , 255         , 0           , 0
-0.18025215 , 0.09209539  , -9.785654   , -1.05949293E-05, -0.000106300286, -0.000287156116, -0.009163878, -0.0182532258, -0.000113461465, 923.548157  , 31.2096024  , 775.352051  , 1.34        , 3           , 255         , 0           , 0
-0.182216853, 0.0938487351, -9.798132   , 0.0005941224, 0.000220450616, -2.05350443E-05, -0.009157932, -0.0182510223, -0.000113687027, 923.548157  , 31.2096024  , 775.352051  , 1.35        , 3           , 255         , 0           , 0
-0.180958241, 0.09056835  , -9.793348   , 0.000649628753, -0.000268283125, -0.0002335511, -0.009151394, -0.018253725, -0.000115998228, 923.548157  , 31.2096024  , 775.352051  , 1.36        , 3           , 255         , 0           , 0
-0.188018   , 0.08966686  , -9.792032   , 0.0005767199, 0.000144778081, 0.000282760855, -0.009145679, -0.0182522517, -0.000113183574, 923.548157  , 31.2096024  , 775.352051  , 1.37        , 3           , 255         , 0           , 0
-0.180389851, 0.08050754  , -9.790732   , -0.00013629286, -0.000380553945, 0.000342276937, -0.009147104, -0.0182560254, -0.000109725661, 923.548157  , 31.2096024  , 775.352051  , 1.38        , 3           , 255         , 0           , 0
-0.178343341, 0.09615266  , -9.787286   , 0.0006201472, -0.000345590524, 0.000169892854, -0.009140935, -0.0182594676, -0.000107994951, 923.548157  , 31.2096024  , 775.352051  , 1.39        , 3           , 255         , 0           , 0
-0.182203859, 0.09614157  , -9.792479   , 0.000339150225, -0.0003240765, -0.0001869914, -0.009137509, -0.0182627235, -0.000109835433, 923.548157  , 31.2096024  , 775.3521    , 1.4         , 3           , 255         , 0           , 0
-0.181699872, 0.08614388  , -9.793355   , 0.00024756894, -0.000156202877, -0.000143424419, -0.009135139, -0.0182683971, -0.000111253161, 923.548157  , 31.2096024  , 775.3272    , 1.41        , 3           , 255         , 0           , 0
-0.191364482, 0.08827082  , -9.792546   , 8.814386E-06, -0.000242595561, 0.000165377161, -0.0091350805, -0.0182708055, -0.000109577064, 923.548157  , 31.2096024  , 775.327148  , 1.42        , 3           , 255         , 0           , 0
-0.179449037, 0.0992969051, -9.797904   , -1.6857899E-05, -0.0003958539, 0.000198663343, -0.009135284, -0.018274745, -0.000107554071, 923.5102    , 31.21252    , 775.3271    , 1.43        , 3           , 255         , 0           , 0
-0.183984473, 0.0952819362, -9.791082   , 0.000171887164, -0.0003408792, -0.000390020577, -0.009133496, -0.018278189, -0.000111423535, 923.5102    , 31.21252    , 775.327     , 1.44        , 3           , 255         , 0           , 0
-0.171728328, 0.09198004  , -9.788908   , 4.75619454E-05, 0.0002741347, -0.000197324844, -0.009132985, -0.0182754658, -0.000113422022, 923.5102    , 31.21252    , 775.326965  , 1.45        , 3           , 255         , 0           , 0
-0.1768497  , 0.08336492  , -9.786814   , -0.0003171771, -0.000431677676, -0.000148289764, -0.009136127, -0.0182797983, -0.000114865645, 923.5102    , 31.21252    , 775.3269    , 1.46        , 3           , 255         , 0           , 0
-0.175309777, 0.09994266  , -9.78511    , 0.000230907957, 1.6607024E-05, 3.943468E-05, -0.009133826, -0.018279627, -0.000114472772, 923.5102    , 31.21252    , 775.326843  , 1.47        , 3           , 255         , 0           , 0
-0.1787333  , 0.0883667   , -9.788471   , 0.00016645134, 0.0002664702, -0.0003227784, -0.009132102, -0.01827699 , -0.000117725212, 923.5102    , 31.21252    , 775.3268    , 1.48        , 3           , 255         , 0           , 0
-0.1813023  , 0.0886649638, -9.789988   , -0.000364038919, 0.000331713934, -0.000176915913, -0.009135712, -0.01827369 , -0.000119524848, 923.5102    , 31.21252    , 775.3267    , 1.49        , 3           , 255         , 0           , 0
-0.174069792, 0.09076707  , -9.796412   , 9.18443E-05 , 2.26383563E-05, -0.0006215401, -0.009134679, -0.0182735212, -0.000125742939, 923.5102    , 31.21252    , 775.32666   , 1.5         , 3           , 255         , 0           , 0
-0.168903261, 0.08759533  , -9.797323   , 0.000367623055, 0.000303702865, -0.000170716783, -0.009136102, -0.0182718672, -0.000127384264, 923.5102    , 31.21252    , 775.343933  , 1.51        , 3           , 255         , 0           , 0
-0.173837855, 0.08141361  , -9.794425   , 5.90184936E-05, -0.000125663122, 7.64042852E-05, -0.009135525, -0.018273117, -0.000126608677, 923.5102    , 31.21252    , 775.343933  , 1.52        , 3           , 255         , 0           , 0
-0.181809917, 0.08478612  , -9.792986   , -0.0002791072, -0.000117691932, 0.000585076341, -0.009138422, -0.01827424 , -0.000120746583, 923.5615    , 31.2127228  , 775.343933  , 1.53        , 3           , 255         , 0           , 0
-0.185348555, 0.08744843  , -9.78780651 , -0.000450425025, 7.180497E-07, 0.0004325191, -0.009143004, -0.0182741955, -0.000116421019, 923.5615    , 31.2127228  , 775.343933  , 1.54        , 3           , 255         , 0           , 0
-0.180202112, 0.09100412  , -9.788165   , -0.000412460766, -0.000297497725, 0.0005230089, -0.009147224, -0.0182771217, -0.0001111632, 923.5615    , 31.2127228  , 775.344     , 1.55        , 3           , 255         , 0           , 0
-0.175410047, 0.09725467  , -9.788535   , -0.00019785593, -4.78669535E-05, 0.0006869349, -0.009149328, -0.0182775371, -0.000104288789, 923.5615    , 31.2127228  , 775.344055  , 1.56        , 3           , 255         , 0           , 0
-0.174417853, 0.09293629  , -9.793973   , -7.374672E-05, 0.000319521554, 0.000146001243, -0.009150092, -0.01827433 , -0.00010285787, 923.5615    , 31.2127228  , 775.3441    , 1.57        , 3           , 255         , 0           , 0
-0.178664714, 0.08807443  , -9.790851   , -0.000545631163, -0.000222368515, 0.000353393349, -0.009155613, -0.0182765219, -9.930322E-05, 923.5615    , 31.2127228  , 775.3442    , 1.58        , 3           , 255         , 0           , 0
-0.177892581, 0.0931018442, -9.785918   , 0.000136924471, 8.037867E-06, 0.0002626419, -0.009154293, -0.0182764158, -9.66772641E-05, 923.5615    , 31.2127228  , 775.344238  , 1.59        , 3           , 255         , 0           , 0
-0.171604961, 0.09848918  , -9.79053    , 0.0004824771, -0.000288200972, 0.000313559751, -0.009149525, -0.0182792675, -9.351498E-05, 923.5615    , 31.2127228  , 775.3443    , 1.6         , 3           , 255         , 0           , 0
-0.178651571, 0.08882495  , -9.785405   , 0.000297535444, 3.20420659E-05, 0.0001576632, -0.009148446, -0.0182728544, -9.1907E-05 , 923.5615    , 31.2127228  , 775.3049    , 1.61        , 3           , 255         , 0           , 0
-0.177619785, 0.08511765  , -9.789745   , -0.0001212045, 8.368617E-05, -0.000328461261, -0.009149597, -0.0182720479, -9.51996044E-05, 923.5615    , 31.2127228  , 775.3047    , 1.62        , 3           , 255         , 0           , 0
-0.18804346 , 0.0861822   , -9.787894   , -5.94210869E-05, 5.162225E-05, -0.000284049631, -0.009150139, -0.018271558, -9.804511E-05, 923.514832  , 31.21408    , 775.3045    , 1.63        , 3           , 255         , 0           , 0
-0.184601456, 0.08984034  , -9.79347    , 0.000209730308, 0.0001713839, 0.000296069338, -0.009148097, -0.0182698183, -9.509981E-05, 923.514832  , 31.21408    , 775.3043    , 1.64        , 3           , 255         , 0           , 0
-0.183144   , 0.09540931  , -9.789431   , -0.000192931417, 0.000174309753, 0.000123180216, -0.009150048, -0.0182680618, -9.38838348E-05, 923.514832  , 31.21408    , 775.304138  , 1.65        , 3           , 255         , 0           , 0
-0.175454989, 0.0866358355, -9.785993   , 3.213936E-05, 3.591046E-05, 0.000164400146, -0.009149756, -0.0182676874, -9.224297E-05, 923.514832  , 31.21408    , 775.303955  , 1.66        , 3           , 255         , 0           , 0
-0.179173052, 0.08298848  , -9.794353   , 0.000257159933, -0.00036588186, -0.0003380163, -0.009147123, -0.0182713773, -9.558999E-05, 923.514832  , 31.21408    , 775.3038    , 1.67        , 3           , 255         , 0           , 0
-0.185913414, 0.0801334   , -9.792001   , -0.000272732665, -0.00019471164, -0.000165719335, -0.00914982 , -0.0182733387, -9.72295456E-05, 923.514832  , 31.21408    , 775.30365   , 1.68        , 3           , 255         , 0           , 0
-0.182978436, 0.08829459  , -9.79136    , -0.000272304023, -2.068418E-05, 4.17167175E-05, -0.009152551, -0.0182735417, -9.681044E-05, 923.514832  , 31.21408    , 775.3035    , 1.69        , 3           , 255         , 0           , 0
-0.168582737, 0.08987711  , -9.795091   , -4.57230781E-05, -9.92169662E-05, 0.000229380035, -0.00915305 , -0.018274514, -9.450732E-05, 923.514832  , 31.21408    , 775.3034    , 1.7         , 3           , 255         , 0           , 0
-0.172417268, 0.0802189857, -9.791439   , -6.442491E-05, 5.87697432E-05, -0.00017629 , -0.009147238, -0.0182783138, -9.639318E-05, 923.514832  , 31.21408    , 775.319031  , 1.71        , 3           , 255         , 0           , 0
-0.179345012, 0.0891796649, -9.795176   , -0.000196042092, -6.952166E-05, 0.000230739883, -0.009149241, -0.0182789881, -9.407917E-05, 923.514832  , 31.21408    , 775.319     , 1.72        , 3           , 255         , 0           , 0
-0.1800948  , 0.0868618041, -9.798114   , 1.5130383E-05, -0.0006628357, 1.9812238E-05, -0.009149096, -0.0182856154, -9.382038E-05, 923.505737  , 31.2148933  , 775.3189    , 1.73        , 3           , 255         , 0           , 0
-0.174659014, 0.09349306  , -9.79367352 , 0.000725909369, -0.000413686445, -0.00052010396, -0.009141741, -0.0182897989, -9.898411E-05, 923.505737  , 31.2148933  , 775.318848  , 1.74        , 3           , 255         , 0           , 0
-0.174218088, 0.09708656  , -9.787628   , 0.000506741053, 0.000203702628, -0.0006827559, -0.009136549, -0.0182878226, -0.000105830986, 923.505737  , 31.2148933  , 775.3188    , 1.75        , 3           , 255         , 0           , 0
-0.177360773, 0.09210522  , -9.789025   , 0.0004538117, -3.92149377E-05, -0.000298155559, -0.009131958, -0.0182882417, -0.000108809247, 923.505737  , 31.2148933  , 775.3187    , 1.76        , 3           , 255         , 0           , 0
-0.177424341, 0.0833418742, -9.793707   , -0.00016062989, -3.0772906E-05, 0.000310957461, -0.009133621, -0.018288523, -0.000105696541, 923.505737  , 31.2148933  , 775.318665  , 1.77        , 3           , 255         , 0           , 0
-0.1851479  , 0.0867060944, -9.797007   , -0.00017472342, -0.000414952578, 0.000464095065, -0.009135453, -0.01829263 , -0.00010101722, 923.505737  , 31.2148933  , 775.3186    , 1.78        , 3           , 255         , 0           , 0
-0.178285062, 0.08830696  , -9.795142   , -0.0005777449, 0.000181452 , 3.81131031E-05, -0.009141238, -0.0182908121, -0.000100652607, 923.505737  , 31.2148933  , 775.318542  , 1.79        , 3           , 255         , 0           , 0
-0.178177476, 0.0982907861, -9.787486   , -0.000155631948, -0.000341992534, -0.000571194, -0.009142689, -0.0182942841, -0.000106333864, 923.505737  , 31.2148933  , 775.3185    , 1.8         , 3           , 255         , 0           , 0
-0.173770458, 0.100634538 , -9.786397   , 0.0002840337, 8.173613E-05, -0.00030431457, -0.009139942, -0.0182901844, -0.000109382061, 923.505737  , 31.2148933  , 775.343262  , 1.81        , 3           , 255         , 0           , 0
-0.176453426, 0.0881328   , -9.791117   , 1.29019609E-05, 0.000253593142, -0.0006763165, -0.00913969 , -0.01828771 , -0.000116169096, 923.505737  , 31.2148933  , 775.3434    , 1.82        , 3           , 255         , 0           , 0
-0.1745694  , 0.0820504   , -9.797005   , 0.000232964463, -0.000287530827, 9.30671158E-05, -0.009137377, -0.01829058 , -0.000115212046, 923.494446  , 31.2158432  , 775.3435    , 1.83        , 3           , 255         , 0           , 0
-0.173096418, 0.08035958  , -9.787927   , 0.000377710268, -0.000147663639, 0.000474823551, -0.009133687, -0.0182920117, -0.000110449844, 923.494446  , 31.2158432  , 775.3436    , 1.84        , 3           , 255         , 0           , 0
-0.17481187 , 0.08331693  , -9.789588   , 0.0004920913, -0.00016434642, -0.000279557367, -0.009128718, -0.0182936788, -0.000113230686, 923.494446  , 31.2158432  , 775.34375   , 1.85        , 3           , 255         , 0           , 0
-0.176548958, 0.08718733  , -9.792326   , 0.0006860418, -1.8060673E-05, 5.588818E-05, -0.009121866, -0.0182938538, -0.000112670125, 923.494446  , 31.2158432  , 775.3439    , 1.86        , 3           , 255         , 0           , 0
-0.181463525, 0.09755709  , -9.793518   , -0.00028371712, -0.0003561551, -0.000136555143, -0.009124679, -0.0182974283, -0.00011400332, 923.494446  , 31.2158432  , 775.344     , 1.87        , 3           , 255         , 0           , 0
-0.172295779, 0.0911518559, -9.793035   , 0.0003186937, -0.0006096482, -0.0006773339, -0.009121368, -0.0183035824, -0.000120721736, 923.494446  , 31.2158432  , 775.3441    , 1.88        , 3           , 255         , 0           , 0
-0.182914421, 0.09571978  , -9.78673649 , 0.0001494762, -7.14169E-05, 0.000329908362, -0.00911993347, -0.018304266, -0.00011741581, 923.494446  , 31.2158432  , 775.344238  , 1.89        , 3           , 255         , 0           , 0
-0.17778635 , 0.09078394  , -9.788468   , 8.02404538E-05, 0.000630142051, -0.000438343821, -0.009119051, -0.0182980075, -0.000121857156, 923.494446  , 31.2158432  , 775.34436   , 1.9         , 3           , 255         , 0           , 0
-0.173551768, 0.08913715  , -9.790155   , -0.000309271272, 0.000141128519, 0.000315356156, -0.009122987, -0.0182891171, -0.000118701733, 923.494446  , 31.2158432  , 775.3799    , 1.91        , 3           , 255         , 0           , 0
-0.177386209, 0.08726416  , -9.785113   , 0.000305723166, -0.000108068227, 0.000812820566, -0.00912008 , -0.018290123, -0.000110562833, 923.494446  , 31.2158432  , 775.3802    , 1.92        , 3           , 255         , 0           , 0
-0.176947311, 0.0854287148, -9.795877   , 0.0002920414, 2.55018822E-05, 6.806856E-05, -0.009117172, -0.01828986 , -0.000109884422, 923.505859  , 31.217947   , 775.3805    , 1.93        , 3           , 255         , 0           , 0
-0.1766496  , 0.09826528  , -9.801054   , -0.00029225077, 1.7606013E-05, -0.0006504001, -0.009119974, -0.018289743, -0.000116390678, 923.505859  , 31.217947   , 775.3808    , 1.94        , 3           , 255         , 0           , 0
-0.175120413, 0.09579118  , -9.799464   , 8.562408E-05, 0.000109979854, -0.000507273769, -0.009119027, -0.0182886887, -0.000121473968, 923.505859  , 31.217947   , 775.3811    , 1.95        , 3           , 255         , 0           , 0
-0.169027478, 0.09318288  , -9.793967   , -0.000386783679, 3.20165418E-06, -0.00041724203, -0.009122817, -0.0182886962, -0.0001256471, 923.505859  , 31.217947   , 775.3814    , 1.96        , 3           , 255         , 0           , 0
-0.175413191, 0.08157541  , -9.792524   , -0.000385502, 0.000171516862, -0.00010499057, -0.009126653, -0.0182869919, -0.000126712766, 923.505859  , 31.217947   , 775.3817    , 1.97        , 3           , 255         , 0           , 0
-0.173482925, 0.09073986  , -9.792103   , 0.000506778364, 5.07647637E-05, 3.43689317E-06, -0.009121587, -0.0182864815, -0.000126683037, 923.505859  , 31.217947   , 775.3821    , 1.98        , 3           , 255         , 0           , 0
-0.174130246, 0.08626113  , -9.784029   , 0.0001542014, -0.000184934237, -0.000150371081, -0.009120016, -0.0182883441, -0.000128170053, 923.505859  , 31.217947   , 775.382446  , 1.99        , 3           , 255         , 0           , 0
-0.183148772, 0.08657165  , -9.78536    , 0.000234658684, -0.000109337678, 0.000338568672, -0.009117733, -0.0182894059, -0.000124774029, 923.505859  , 31.217947   , 775.3828    , 2           , 3           , 0           , 8.936236    , 200
-0.178349242, 0.09602764  , -9.789682   , 0.0003247424, -0.0001524108, 0.00042686  , -0.009114855, -0.0182822552, -0.000120485791, 923.505859  , 31.217947   , 775.40094   , 2.01        , 3           , 1           , 0           , 0
-0.186714277, 0.09826865  , -9.789508   , 0.000111045549, -0.000109274552, 0.000452309876, -0.009113827, -0.0182833076, -0.000115952265, 923.505859  , 31.217947   , 775.401367  , 2.02        , 3           , 2           , 0           , 0
-0.179786444, 0.09201805  , -9.79279    , -0.000168652943, 8.404607E-05, -5.31805345E-05, -0.009115504, -0.0182824712, -0.000116491778, 923.485535  , 31.2146225  , 775.4018    , 2.03        , 3           , 3           , 0           , 0
-0.179449245, 0.09015806  , -9.792051   , -7.259403E-05, 5.99843042E-05, -0.0006225001, -0.009116116, -0.0182819273, -0.0001227229, 923.485535  , 31.2146225  , 775.4022    , 2.04        , 3           , 4           , 0           , 0
-0.178867638, 0.09596966  , -9.788864   , 0.000126071071, -3.68802575E-05, -0.0005654075, -0.009114752, -0.0182823483, -0.000128374159, 923.485535  , 31.2146225  , 775.402649  , 2.05        , 3           , 5           , 0           , 0
-0.181132555, 0.093379885 , -9.795701   , 0.0005506911, -0.000157874863, -0.000324706925, -0.009109185, -0.0182839539, -0.0001316072, 923.485535  , 31.2146225  , 775.4031    , 2.06        , 3           , 6           , 0           , 0
-0.171863154, 0.09391635  , -9.790484   , 0.000123210659, 0.0004119735, -0.0009093781, -0.009107785, -0.0182799213, -0.000140739416, 923.485535  , 31.2146225  , 775.403564  , 2.07        , 3           , 7           , 0           , 0
-0.186376423, 0.09051547  , -9.79705    , 7.806774E-05, 0.000107418658, -0.000242579961, -0.00910696 , -0.0182788633, -0.000143175261, 923.485535  , 31.2146225  , 775.404053  , 2.08        , 3           , 8           , 5           , 5
-0.1790053  , 0.09186973  , -9.792625   , 0.000134863454, 0.000155063753, -0.0005313014, -0.009105516, -0.01827736 , -0.000148502921, 923.485535  , 31.2146225  , 775.404541  , 2.09        , 3           , 9           , 5           , 0.1
-0.176057249, 0.09267779  , -9.795492   , 1.44256337E-05, 0.000293922029, -0.000293309247, -0.009105316, -0.0182744488, -0.000151463071, 923.485535  , 31.2146225  , 775.405     , 2.1         , 3           , 10          , 0.1         , 0.1
-0.170220464, 0.09942774  , -9.794249   , -0.0005144315, -6.74696057E-05, 0.000191273022, -0.009119926, -0.018276684, -0.000149371626, 923.485535  , 31.2146225  , 775.446     , 2.11        , 3           , 11          , 0.008058664 , 0.008058663
-0.168836981, 0.089630194 , -9.792711   , -0.00032349673, -7.223745E-05, -5.11423968E-06, -0.009123159, -0.0182774067, -0.0001494162, 923.485535  , 31.2146225  , 775.4467    , 2.12        , 3           , 12          , 0.174643889 , 0
-0.181749031, 0.09170973  , -9.797246   , 1.64426165E-05, -6.992457E-05, -0.0002567056, -0.009122947, -0.01827813 , -0.000151977147, 923.528564  , 31.21693    , 775.447449  , 2.13        , 3           , 13          , 0           , 0
-0.173835874, 0.085982725 , -9.792836   , -0.0005015312, -0.000319715444, -0.000337143545, -0.0091279  , -0.01828136 , -0.000155319736, 923.528564  , 31.21693    , 775.4482    , 2.14        , 3           , 14          , -0.000397070049, -0.000413529546
-0.180394262, 0.0852122158, -9.791707   , -0.000141020544, -0.0002839895, -0.000105618317, -0.009129291, -0.0182842072, -0.000156350114, 923.528564  , 31.21693    , 775.4489    , 2.15        , 3           , 15          , 0           , -2.298042E-05
-0.190037087, 0.08664895  , -9.789728   , -2.484981E-05, -0.000545182149, 0.0005048197, -0.009129634, -0.01828961 , -0.000151251617, 923.528564  , 31.21693    , 775.449646  , 2.16        , 3           , 16          , 0           , 1.401298E-45
-0.176544309, 0.08878125  , -9.790167   , 0.00062061206, -0.000310180039, 0.000374878116, -0.009123496, -0.01829268 , -0.000147474144, 923.528564  , 31.21693    , 775.4504    , 2.17        , 3           , 20          , 0           , 0
-0.181934267, 0.08921923  , -9.797418   , 0.0001948041, -0.0002637919, 0.000347275374, -0.009121611, -0.0182952844, -0.000143976984, 923.528564  , 31.21693    , 775.4511    , 2.18        , 3           , 21          , 0           , 0
-0.18816416 , 0.08620598  , -9.799136   , -0.000136557646, 0.00025987433, 0.0006174252, -0.00912309 , -0.01829263 , -0.000137825817, 923.528564  , 31.21693    , 775.451843  , 2.19        , 3           , 22          , 0           , 0
-0.178863123, 0.09146929  , -9.787814   , 7.08120642E-05, 0.000532472157, 8.396678E-06, -0.009122382, -0.0182873067, -0.000137790441, 923.528564  , 31.21693    , 775.4526    , 2.2         , 3           , 40          , 0           , 0
-0.174210548, 0.08605922  , -9.794006   , 8.508339E-05, 0.000185557175, 6.93631046E-06, -0.009121586, -0.018285403, -0.000137737, 923.528564  , 31.21693    , 775.434143  , 2.21        , 3           , 41          , 0           , 0
-0.1828329  , 0.0862536058, -9.792999   , 0.000119709992, 0.00044568404, -0.000179700422, -0.009120354, -0.0182809662, -0.00013957487, 923.528564  , 31.21693    , 775.434753  , 2.22        , 3           , 42          , 0           , 0
-0.180546284, 0.09676944  , -9.798576   , 0.00028906326, 5.62203059E-05, -0.000164968646, -0.009117435, -0.0182804186, -0.000141229859, 923.5135    , 31.2180824  , 775.435364  , 2.23        , 3           , 255         , 0           , 0
-0.179902986, 0.09049865  , -9.795079   , 0.00080169877, -0.000338879036, 0.000227086988, -0.009109458, -0.0182837825, -0.000138927877, 923.5135    , 31.2180824  , 775.436     , 2.24        , 3           , 255         , 0           , 0
-0.179724008, 0.0914921   , -9.790172   , 0.000316846446, 0.0002874658, -0.0005109015, -0.009106196, -0.01828096 , -0.000144063582, 923.5135    , 31.2180824  , 775.4366    , 2.25        , 3           , 255         , 0           , 0
-0.185445935, 0.0860374644, -9.797378   , -0.000123812788, -0.000152796536, -6.568902E-06, -0.009107433, -0.0182824843, -0.000144115373, 923.5135    , 31.2180824  , 775.4372    , 2.26        , 3           , 255         , 0           , 0
-0.188001439, 0.08734348  , -9.800787   , -0.000284455746, -0.0007035079, -0.00049169577, -0.009110187, -0.0182895623, -0.000148968757, 923.5135    , 31.2180824  , 775.4378    , 2.27        , 3           , 255         , 0           , 0
-0.17376712 , 0.09436485  , -9.80118    , 7.296409E-05, -0.000410629233, 0.000434546935, -0.009109539, -0.01829363 , -0.000144585414, 923.5135    , 31.2180824  , 775.4384    , 2.28        , 3           , 255         , 0           , 0
-0.181967422, 0.08605961  , -9.788803   , 3.99790879E-05, -0.000103790982, 0.0002240123, -0.00910918 , -0.01829465 , -0.000142335615, 923.5135    , 31.2180824  , 775.439     , 2.29        , 3           , 255         , 0           , 0
-0.1787159  , 0.08507899  , -9.789518   , 8.091025E-05, 0.000128143 , -0.0004984697, -0.009108281, -0.0182934124, -0.0001473325, 923.5135    , 31.2180824  , 775.439636  , 2.3         , 3           , 255         , 0           , 0
-0.170895845, 0.08949188  , -9.798486   , -0.0004777251, -3.223421E-05, -0.0006186127, -0.009112551, -0.0182963945, -0.000153523521, 923.5135    , 31.2180824  , 775.441833  , 2.31        , 3           , 255         , 0           , 0
-0.181327671, 0.08861503  , -9.792738   , 2.25374242E-05, -2.27177225E-05, -0.000392532354, -0.009112254, -0.018296659, -0.000157447168, 923.5135    , 31.2180824  , 775.4425    , 2.32        , 3           , 255         , 0           , 0
-0.1740179  , 0.08917511  , -9.79072952 , 2.82814726E-05, 0.000133439142, -0.0008790421, -0.00911181 , -0.0182954054, -0.000166250626, 923.5472    , 31.2167931  , 775.4432    , 2.33        , 3           , 255         , 0           , 0
-0.173892274, 0.08124776  , -9.78638    , -0.0006131843, 0.000242475653, -0.00072248216, -0.009117809, -0.0182930455, -0.0001734983, 923.5472    , 31.2167931  , 775.443848  , 2.34        , 3           , 255         , 0           , 0
-0.181713536, 0.079543516 , -9.792496   , 0.000134402886, 0.0001615393, -0.000937110337, -0.009116294, -0.0182915162, -0.000182885036, 923.5472    , 31.2167931  , 775.4445    , 2.35        , 3           , 255         , 0           , 0
-0.181095362, 0.08379494  , -9.789831   , 0.000440911157, -0.000300746033, -0.000334067736, -0.009111823, -0.0182945523, -0.000186198653, 923.5472    , 31.2167931  , 775.4452    , 2.36        , 3           , 255         , 0           , 0
-0.1763804  , 0.08785528  , -9.791693   , 7.769442E-06, 0.000517637 , -0.000548443059, -0.009111644, -0.0182894263, -0.000191730825, 923.5472    , 31.2167931  , 775.445862  , 2.37        , 3           , 255         , 0           , 0
-0.182626382, 0.08485849  , -9.792408   , -0.0003565592, -7.239837E-05, -0.0005455788, -0.00911511 , -0.0182902012, -0.000197180547, 923.5472    , 31.2167931  , 775.446533  , 2.38        , 3           , 255         , 0           , 0
-0.184242636, 0.07985808  , -9.792916   , -5.90865675E-05, -0.0004414577, 0.000220341622, -0.009115742, -0.0182945952, -0.000194936656, 923.5472    , 31.2167931  , 775.4472    , 2.39        , 3           , 255         , 0           , 0
-0.1860427  , 0.09056967  , -9.804911   , -0.00101088849, 3.941328E-06, 0.0005625554, -0.009125952, -0.018294502, -0.000189310886, 923.5472    , 31.2167931  , 775.4479    , 2.4         , 3           , 255         , 0           , 0
-0.177858487, 0.08762069  , -9.795648   , -0.0001019616, -0.000109680986, 0.000743583 , -0.009119509, -0.0182956476, -0.000182003292, 923.5472    , 31.2167931  , 775.4047    , 2.41        , 3           , 255         , 0           , 0
-0.184720352, 0.09646126  , -9.795314   , 0.000107060419, 4.0248502E-05, -0.000168880448, -0.009118408, -0.01829526 , -0.000183695942, 923.5472    , 31.2167931  , 775.4051    , 2.42        , 3           , 255         , 0           , 0
-0.179679811, 0.09053591  , -9.795024   , 0.000454685243, -0.000222220318, -0.000689475448, -0.009113734, -0.0182975437, -0.000190571154, 923.539856  , 31.2189655  , 775.405457  , 2.43        , 3           , 255         , 0           , 0
-0.1845522  , 0.09627229  , -9.802525   , -0.000290999073, -0.000398665841, -4.23672645E-06, -0.009116644, -0.01830153 , -0.000190577164, 923.539856  , 31.2189655  , 775.4058    , 2.44        , 3           , 255         , 0           , 0
-0.184366733, 0.09099851  , -9.796069   , 4.724425E-06, 6.701873E-05, 0.000239410627, -0.009116641, -0.0183008369, -0.000188188948, 923.539856  , 31.2189655  , 775.4062    , 2.45        , 3           , 255         , 0           , 0
-0.174027041, 0.0849466   , -9.79516    , 0.0003364314, 8.397657E-05, 0.0004545561, -0.00911336 , -0.018299954, -0.0001836506, 923.539856  , 31.2189655  , 775.406555  , 2.46        , 3           , 255         , 0           , 0
-0.172264725, 0.08339308  , -9.789334   , -7.30746251E-05, -0.000233072031, 0.0007633641, -0.009114231, -0.018302219, -0.000175994937, 923.539856  , 31.2189655  , 775.4069    , 2.47        , 3           , 255         , 0           , 0
-0.179419011, 0.09393589  , -9.794199   , -0.000358164019, 0.000158013485, 0.0007253373, -0.009117946, -0.01830057 , -0.000168755243, 923.539856  , 31.2189655  , 775.4073    , 2.48        , 3           , 255         , 0           , 0
-0.16946134 , 0.08919312  , -9.797225   , -0.000497552566, 0.000223871029, 0.000181528449, -0.009122954, -0.0182983186, -0.000166960177, 923.539856  , 31.2189655  , 775.407654  , 2.49        , 3           , 255         , 0           , 0
-0.17109184 , 0.0895215645, -9.795047   , -0.0005534757, -0.000358856923, -0.000699013239, -0.00912836 , -0.0183019713, -0.000173918263, 923.539856  , 31.2189655  , 775.4081    , 2.5         , 3           , 255         , 0           , 0
-0.172138885, 0.0882649645, -9.790216   , -0.000318800041, -0.000312481279, -0.000298690458, -0.009133173, -0.01830247 , -0.0001768462, 923.539856  , 31.2189655  , 775.379333  , 2.51        , 3           , 255         , 0           , 0
-0.174784809, 0.0891599655, -9.792679   , -0.000473909953, -0.0001739754, -0.000306023081, -0.009137856, -0.0183042362, -0.000179890834, 923.539856  , 31.2189655  , 775.3795    , 2.52        , 3           , 255         , 0           , 0
-0.176366016, 0.08622383  , -9.793684   , 9.947157E-05, -0.000153978268, 0.000278952473, -0.009136912, -0.0183057524, -0.000177086986, 923.539734  , 31.2188969  , 775.379761  , 2.53        , 3           , 255         , 0           , 0
-0.179084376, 0.089606896 , -9.794934   , -0.0004669933, -0.000281377666, 0.000322224281, -0.009141642, -0.0183085371, -0.000173838693, 923.539734  , 31.2188969  , 775.38      , 2.54        , 3           , 255         , 0           , 0
-0.181101725, 0.08235113  , -9.792659   , -0.000555801962, 5.49278629E-05, -0.00013241735, -0.009147175, -0.018308   , -0.00017516801, 923.539734  , 31.2188969  , 775.380249  , 2.55        , 3           , 255         , 0           , 0
-0.188934967, 0.08790618  , -9.794838   , -3.55890952E-05, 1.82241783E-05, 7.837909E-05, -0.009147544, -0.01830781 , -0.00017438583, 923.539734  , 31.2188969  , 775.3805    , 2.56        , 3           , 255         , 0           , 0
-0.172901884, 0.08964     , -9.790341   , -0.000426746381, -0.0004436104, -0.000287548668, -0.00915176049, -0.018312268, -0.000177221, 923.539734  , 31.2188969  , 775.380737  , 2.57        , 3           , 255         , 0           , 0
-0.18579568 , 0.09835309  , -9.793859   , -0.0002754946, -0.000652853632, -0.00113113178, -0.00915430952, -0.0183189027, -0.00018847367, 923.539734  , 31.2188969  , 775.381     , 2.58        , 3           , 255         , 0           , 0
-0.171543166, 0.09569696  , -9.788567   , 2.16822955E-05, -0.000404686056, -0.000353598181, -0.009154027, -0.0183229782, -0.00019197294, 923.539734  , 31.2188969  , 775.3812    , 2.59        , 3           , 255         , 0           , 0
-0.178493   , 0.09360521  , -9.795633   , -0.000213386724, -4.74123226E-05, 0.000113073125, -0.009156182, -0.018323442, -0.000190837731, 923.539734  , 31.2188969  , 775.3815    , 2.6         , 3           , 255         , 0           , 0
-0.184874564, 0.09336547  , -9.790545   , -0.000258414948, -0.0002521622, 0.000145754559, -0.00915984251, -0.0183235444, -0.000189337748, 923.539734  , 31.2188969  , 775.355957  , 2.61        , 3           , 255         , 0           , 0
-0.178284839, 0.08009418  , -9.796479   , -0.000417913659, -0.000404897815, 0.0006687431, -0.009164144, -0.01832753 , -0.000182612537, 923.539734  , 31.2188969  , 775.356     , 2.62        , 3           , 255         , 0           , 0
-0.17041257 , 0.0851630643, -9.799238   , -0.000104670471, -0.0005613683, -0.000193130327, -0.009165157, -0.0183331612, -0.000184492572, 923.4918    , 31.2170658  , 775.3561    , 2.63        , 3           , 255         , 0           , 0
-0.181152865, 0.08565186  , -9.797743   , 0.000341273582, -0.000408988766, -0.000289538468, -0.009161692, -0.0183372777, -0.000187350714, 923.4918    , 31.2170658  , 775.35614   , 2.64        , 3           , 255         , 0           , 0
-0.1796039  , 0.09188845  , -9.801692   , -0.000110912137, -0.000267798634, -0.000278973952, -0.009162751, -0.0183399767, -0.0001901162, 923.4918    , 31.2170658  , 775.3562    , 2.65        , 3           , 255         , 0           , 0
-0.182763666, 0.08960001  , -9.802023   , -0.000182871416, 9.420549E-05, -0.000331312534, -0.009164517, -0.0183390658, -0.000193438333, 923.4918    , 31.2170658  , 775.356262  , 2.66        , 3           , 255         , 0           , 0
-0.178501487, 0.09695959  , -9.790962   , -0.000163142919, 8.704883E-05, -0.000895264442, -0.009165985, -0.0183382779, -0.000202399853, 923.4918    , 31.2170658  , 775.3563    , 2.67        , 3           , 255         , 0           , 0
-0.180246979, 0.09407648  , -9.790741   , -0.000293836521, 0.000104062812, -0.000323569868, -0.009168864, -0.0183372665, -0.000205645425, 923.4918    , 31.2170658  , 775.3564    , 2.68        , 3           , 255         , 0           , 0
-0.175575614, 0.0883344   , -9.789391   , -0.00103886973, -2.90442549E-05, 0.0003962522, -0.009179325, -0.018337518, -0.000201679824, 923.4918    , 31.2170658  , 775.356445  , 2.69        , 3           , 255         , 0           , 0
-0.180062443, 0.09039885  , -9.791919   , 3.47459E-05 , 0.000292353041, -0.0006159935, -0.009178863, -0.0183346551, -0.000207867211, 923.4918    , 31.2170658  , 775.3565    , 2.7         , 3           , 255         , 0           , 0
-0.179755419, 0.0982107   , -9.794209   , 0.000271535624, 6.67597051E-05, -0.0006035492, -0.009175707, -0.01833317 , -0.000213915555, 923.4918    , 31.2170658  , 775.4       , 2.71        , 3           , 255         , 0           , 0
-0.180171132, 0.0831659   , -9.799553   , 0.000119223114, 0.000175657682, -0.00043815872, -0.00917443447, -0.0183314551, -0.0002183137, 923.4918    , 31.2170658  , 775.4004    , 2.72        , 3           , 255         , 0           , 0
-0.180850387, 0.0881164   , -9.802793   , -0.0002124524, 0.0002966012, 0.0005589785, -0.00917666 , -0.0183284376, -0.000212750558, 923.5232    , 31.2201176  , 775.400757  , 2.73        , 3           , 255         , 0           , 0
-0.1798301  , 0.09140785  , -9.803048   , -0.000380875863, 0.00019557208, 0.00081205985, -0.009180619, -0.01832641 , -0.000204647076, 923.5232    , 31.2201176  , 775.4011    , 2.74        , 3           , 255         , 0           , 0
-0.182080314, 0.08583514  , -9.796923   , -0.000384695741, 0.000226122123, 0.000466003665, -0.009184551, -0.0183241069, -0.000200007329, 923.5232    , 31.2201176  , 775.4015    , 2.75        , 3           , 255         , 0           , 0
-0.181984216, 0.08891688  , -9.79511452 , -0.000394024042, -0.000505624339, 0.0005731859, -0.009188595, -0.01832911 , -0.000194228429, 923.5232    , 31.2201176  , 775.401855  , 2.76        , 3           , 255         , 0           , 0
-0.176704273, 0.0860620663, -9.787682   , 5.1703857E-05, -3.941529E-05, 0.000222293136, -0.009188119, -0.0183294825, -0.000192001651, 923.5232    , 31.2201176  , 775.4022    , 2.77        , 3           , 255         , 0           , 0
-0.176681757, 0.0836803839, -9.786497   , -2.10389553E-05, -0.000191038009, -0.000250318437, -0.009188283, -0.018331416, -0.000194487569, 923.5232    , 31.2201176  , 775.4026    , 2.78        , 3           , 255         , 0           , 0
-0.1843737  , 0.0848915353, -9.799967   , -0.000220376736, -3.714807E-05, -9.538148E-05, -0.009190471, -0.0183317978, -0.000195438057, 923.5232    , 31.2201176  , 775.402954  , 2.79        , 3           , 255         , 0           , 0
-0.174545   , 0.08914318  , -9.793423   , -0.00017999686, -0.000387408654, 1.08755821E-05, -0.009192274, -0.0183356721, -0.000195293644, 923.5232    , 31.2201176  , 775.4033    , 2.8         , 3           , 255         , 0           , 0
-0.17348662 , 0.0963171944, -9.79263    , -0.000146319362, 0.0002786457, -0.000240441048, -0.009190484, -0.0183331612, -0.000197782734, 923.5232    , 31.2201176  , 775.3975    , 2.81        , 3           , 255         , 0           , 0
-0.185579509, 0.09386788  , -9.782367   , -0.0006078158, 0.000329473376, 1.89388447E-05, -0.009196567, -0.0183298662, -0.0001976236, 923.5232    , 31.2201176  , 775.3979    , 2.82        , 3           , 255         , 0           , 0
-0.172587484, 0.09504859  , -9.790052   , -0.000360368373, 0.000137288909, 7.41459444E-05, -0.009200183, -0.0183284879, -0.000196894674, 923.53064   , 31.2197113  , 775.398254  , 2.83        , 3           , 255         , 0           , 0
-0.179512158, 0.1018513   , -9.79292    , 8.73096E-05 , 9.918815E-05, 0.000160875832, -0.00919934 , -0.018327482, -0.000195294881, 923.53064   , 31.2197113  , 775.3986    , 2.84        , 3           , 255         , 0           , 0
-0.189088613, 0.09987872  , -9.787232   , -0.000356138771, -0.000187093334, 0.0007560995, -0.009203039, -0.0183292832, -0.000187715937, 923.53064   , 31.2197113  , 775.399     , 2.85        , 3           , 255         , 0           , 0
-0.179003477, 0.08534382  , -9.800555   , -0.0005676028, -0.000254368235, 9.650453E-06, -0.009208716, -0.018331822, -0.000187595972, 923.53064   , 31.2197113  , 775.399353  , 2.86        , 3           , 255         , 0           , 0
-0.181378692, 0.08511777  , -9.791426   , -0.0004584594, -0.000444219972, -0.00029395576, -0.009213248, -0.0183362942, -0.0001904949, 923.53064   , 31.2197113  , 775.3997    , 2.87        , 3           , 255         , 0           , 0
-0.17435649 , 0.09300325  , -9.7992115  , -0.000125338527, -0.000119323027, 8.129743E-05, -0.009214516, -0.01833748 , -0.000189670842, 923.53064   , 31.2197113  , 775.4001    , 2.88        , 3           , 255         , 0           , 0
-0.171263948, 0.0975895151, -9.795606   , 7.98091351E-05, -7.014873E-05, 0.000412554917, -0.009213794, -0.0183381438, -0.000185538433, 923.53064   , 31.2197113  , 775.400452  , 2.89        , 3           , 255         , 0           , 0
-0.178881556, 0.08899278  , -9.803241   , -0.000451662374, -0.000664628053, 0.000262760383, -0.00921836 , -0.0183447637, -0.0001828493, 923.53064   , 31.2197113  , 775.4008    , 2.9         , 3           , 255         , 0           , 0
-0.170684218, 0.09611658  , -9.801965   , -0.000345884153, -0.0002767882, 0.000155201342, -0.009228324, -0.0183456782, -0.000181152747, 923.53064   , 31.2197113  , 775.384644  , 2.91        , 3           , 255         , 0           , 0
-0.176581249, 0.0902117342, -9.78983    , -8.83418252E-05, -0.000180431642, -0.000152441877, -0.009229179, -0.0183474962, -0.000182660675, 923.53064   , 31.2197113  , 775.3849    , 2.92        , 3           , 255         , 0           , 0
-0.175615758, 0.08696453  , -9.783298   , 0.0001986921, -2.133529E-05, 7.399117E-05, -0.009227205, -0.0183477029, -0.000181918731, 923.5242    , 31.21849    , 775.385132  , 2.93        , 3           , 255         , 0           , 0
-0.176411241, 0.08658634  , -9.789355   , -6.01758657E-05, -1.85387034E-05, 0.00104460341, -0.009227999, -0.0183477961, -0.000171469917, 923.5242    , 31.21849    , 775.3854    , 2.94        , 3           , 255         , 0           , 0
-0.1806188  , 0.0979037657, -9.790101   , -0.000353003881, 0.000149803353, 0.000683749 , -0.009231652, -0.0183462314, -0.000164645549, 923.5242    , 31.21849    , 775.3856    , 2.95        , 3           , 255         , 0           , 0
-0.181330189, 0.09350647  , -9.785388   , -0.000582141336, 0.000249292236, 0.00041763566, -0.00923755 , -0.0183437  , -0.000160491822, 923.5242    , 31.21849    , 775.385864  , 2.96        , 3           , 255         , 0           , 0
-0.179660037, 0.094848156 , -9.78626251 , -0.000179865136, 0.000281276065, 0.0004441549, -0.009239431, -0.0183408465, -0.0001560758, 923.5242    , 31.21849    , 775.3861    , 2.97        , 3           , 255         , 0           , 0
-0.1825104  , 0.0916738138, -9.789421   , -0.000183550263, -0.0003470907, -0.0009231066, -0.009241097, -0.0183444023, -0.000165275735, 923.5242    , 31.21849    , 775.386353  , 2.98        , 3           , 255         , 0           , 0
-0.172715455, 0.0935602   , -9.789442   , -0.000295089354, 3.96959658E-05, 0.000105619605, -0.009244065, -0.0183439944, -0.000164223107, 923.5242    , 31.21849    , 775.3866    , 2.99        , 3           , 255         , 0           , 0
-0.186952561, 0.0907564238, -9.796974   , -0.00067222584, -0.0003791093, 0.00042250994, -0.009250866, -0.0183477458, -0.0001599625, 923.5242    , 31.21849    , 775.386841  , 3           , 3           , 0           , 9.936236    , 300
-0.178936213, 0.09385987  , -9.801949   , -0.000329233357, 0.000319397252, 0.0006059732, -0.00925845 , -0.01834146 , -0.000153855042, 923.5242    , 31.21849    , 775.3816    , 3.01        , 3           , 1           , 0           , 0
-0.177628785, 0.09279659  , -9.799594   , 0.000141349388, 9.547663E-05, -4.70705345E-05, -0.009257027, -0.01834051 , -0.00015433463, 923.5242    , 31.21849    , 775.381836  , 3.02        , 3           , 2           , 0           , 0
-0.184240848, 0.0888866857, -9.790631   , 0.0007478644, 0.0003349971, -0.00072098 , -0.009249416, -0.01833723 , -0.000161576158, 923.5509    , 31.22385    , 775.3821    , 3.03        , 3           , 3           , 0           , 0
-0.184063241, 0.09099098  , -9.801143   , 0.000427483261, -7.068194E-05, -0.000247788965, -0.009245096, -0.01833796 , -0.000164047757, 923.5509    , 31.22385    , 775.3823    , 3.04        , 3           , 4           , 0           , 0
-0.177885562, 0.0881508142, -9.791466   , -9.268976E-05, 0.000175849767, -0.0001644532, -0.009245993, -0.018336216, -0.000165708727, 923.5509    , 31.22385    , 775.382568  , 3.05        , 3           , 5           , 0           , 0
-0.172507823, 0.0852893144, -9.78959    , -5.1441486E-05, -0.000123379839, -0.0004036558, -0.009246432, -0.0183374863, -0.000169734281, 923.5509    , 31.22385    , 775.3828    , 3.06        , 3           , 6           , 0           , 0
-0.172096744, 0.08565947  , -9.78866    , 5.23639028E-05, -0.000208207843, -0.0004723513, -0.009245822, -0.01833961 , -0.000174438988, 923.5509    , 31.22385    , 775.383057  , 3.07        , 3           , 7           , 0           , 0
-0.1780695  , 0.0788029656, -9.792302   , -0.000351527939, -0.000137093914, 4.932612E-05, -0.009249346, -0.0183409788, -0.000173933018, 923.5509    , 31.22385    , 775.3833    , 3.08        , 3           , 8           , 5           , 5
-0.177130967, 0.08986738  , -9.794214   , -0.0006013769, -0.000325595232, 0.000127336418, -0.009255384, -0.0183442235, -0.000172629385, 923.5509    , 31.22385    , 775.383545  , 3.09        , 3           , 9           , 5           , 0.1
-0.1833518  , 0.09375574  , -9.79859352 , 0.000104432693, -0.00031852824, 0.000130663568, -0.009254363, -0.0183473937, -0.000171293126, 923.5509    , 31.22385    , 775.3838    , 3.1         , 3           , 10          , 0.1         , 0.1
-0.182706922, 0.08679612  , -9.794577   , 0.000406025239, 3.452541E-05, 0.000578001258, -0.009247581, -0.0183453113, -0.000165567675, 923.5509    , 31.22385    , 775.341248  , 3.11        , 3           , 11          , 0.00735727325, 0.00735727232
-0.180049926, 0.08618375  , -9.80265    , -9.579118E-06, 3.20741674E-06, 0.0006223538, -0.00924779 , -0.01834522 , -0.000159343792, 923.5509    , 31.22385    , 775.341248  , 3.12        , 3           , 12          , 0.174645633 , 0
-0.176511437, 0.09586419  , -9.79069    , -0.000467129081, -0.000116981042, -0.000156073453, -0.009252432, -0.0183464065, -0.000160893862, 923.550537  , 31.22195    , 775.341248  , 3.13        , 3           , 13          , 0           , 0
-0.177765787, 0.08925606  , -9.795458   , 0.000234046922, -8.85108E-05, 0.000111377441, -0.009250113, -0.01834728 , -0.000159771778, 923.550537  , 31.22195    , 775.341248  , 3.14        , 3           , 14          , -0.0003970676, -0.000413573754
-0.181286186, 0.09251072  , -9.797857   , -0.000130530825, 0.000101974583, 0.0001786866, -0.00925145 , -0.0183462445, -0.000157994189, 923.550537  , 31.22195    , 775.341248  , 3.15        , 3           , 15          , 0           , -2.2980872E-05
-0.185698539, 0.09088276  , -9.785921   , -0.000296369515, -6.129514E-05, -0.00018959638, -0.009254378, -0.0183468759, -0.000159884657, 923.550537  , 31.22195    , 775.341248  , 3.16        , 3           , 16          , 0           , 1.401298E-45
-0.185100257, 0.09037866  , -9.784605   , 0.0001300541, 0.0003537732, 0.000180354837, -0.009253112, -0.01834332 , -0.000158113646, 923.550537  , 31.22195    , 775.341248  , 3.17        , 3           , 20          , 0           , 0
-0.186131909, 0.08577518  , -9.796708   , 0.0003083038, 0.000368705834, -0.000153031258, -0.009250002, -0.0183396488, -0.000159678239, 923.550537  , 31.22195    , 775.341248  , 3.18        , 3           , 21          , 0           , 0
-0.178241178, 0.09562198  , -9.79117    , 0.000596374 , -0.000118603813, 0.000116810472, -0.009244058, -0.0183408223, -0.000158499068, 923.550537  , 31.22195    , 775.341248  , 3.19        , 3           , 22          , 0           , 0
-0.182090044, 0.08963651  , -9.792679   , 0.0002676163, 3.7359423E-05, -0.000290861615, -0.00924133 , -0.0183404759, -0.000161411415, 923.550537  , 31.22195    , 775.341248  , 3.2         , 3           , 40          , 0           , 0
-0.182852745, 0.08300565  , -9.78654    , -0.00039905982, 0.000404418417, -0.000534029561, -0.009244682, -0.0183397252, -0.000166799509, 923.550537  , 31.22195    , 775.3054    , 3.21        , 3           , 41          , 0           , 0
-0.183573812, 0.08762307  , -9.799238   , -0.000200758135, 0.0004993079, -0.0005816062, -0.009246582, -0.0183347855, -0.0001726623, 923.550537  , 31.22195    , 775.3052    , 3.22        , 3           , 42          , 0           , 0
-0.183317825, 0.09043777  , -9.785409   , 7.715053E-05, -4.182977E-06, -0.000152485169, -0.009245783, -0.0183348414, -0.000174186964, 923.5357    , 31.2223568  , 775.304932  , 3.23        , 3           , 255         , 0           , 0
-0.182301015, 0.0900161043, -9.787715   , -0.0002657017, -5.29952522E-05, 0.000332723721, -0.009248503, -0.0183353424, -0.000170854459, 923.5357    , 31.2223568  , 775.3047    , 3.24        , 3           , 255         , 0           , 0
-0.1767941  , 0.09475241  , -9.792439   , -0.000132538116, -0.000457621441, -3.78356926E-05, -0.009249821, -0.0183399227, -0.000171190521, 923.5357    , 31.2223568  , 775.304443  , 3.25        , 3           , 255         , 0           , 0
-0.176699564, 0.09072171  , -9.78496    , -0.000397868949, 0.000122420519, 0.000349989743, -0.009253863, -0.0183386654, -0.0001677016, 923.5357    , 31.2223568  , 775.3042    , 3.26        , 3           , 255         , 0           , 0
-0.1794297  , 0.0850315839, -9.785021   , 0.0002884666, 0.0001624689, 8.750586E-05, -0.009250996, -0.0183370337, -0.000166841492, 923.5357    , 31.2223568  , 775.303955  , 3.27        , 3           , 255         , 0           , 0
-0.1748966  , 0.08509094  , -9.793486   , 9.05943161E-05, -0.000213981752, 1.30569779E-05, -0.009250091, -0.018339172, -0.000166691127, 923.5357    , 31.2223568  , 775.3037    , 3.28        , 3           , 255         , 0           , 0
-0.178425536, 0.08846955  , -9.784254   , -0.000154132285, -0.000118464668, -0.000148221341, -0.009251606, -0.01834037 , -0.000168162529, 923.5357    , 31.2223568  , 775.303467  , 3.29        , 3           , 255         , 0           , 0
-0.184799463, 0.09628205  , -9.78974152 , -0.000230218837, 6.824653E-05, -0.000478263828, -0.00925381947, -0.0183397327, -0.000172951972, 923.5357    , 31.2223568  , 775.3032    , 3.3         , 3           , 255         , 0           , 0
-0.179080531, 0.0907184258, -9.793185   , -0.0005014952, 0.000321349915, -0.0008982206, -0.009255291, -0.01833846 , -0.0001820268, 923.5357    , 31.2223568  , 775.29364   , 3.31        , 3           , 255         , 0           , 0
-0.178182989, 0.09383361  , -9.798012   , -0.000108061387, -0.0001832309, 0.0004068171, -0.009256445, -0.0183402561, -0.000177941241, 923.5357    , 31.2223568  , 775.2934    , 3.32        , 3           , 255         , 0           , 0
-0.173363879, 0.0952274054, -9.795809   , -0.000171971536, -6.85686537E-05, -8.125426E-09, -0.009258165, -0.0183409415, -0.000177934984, 923.563538  , 31.2205925  , 775.293152  , 3.33        , 3           , 255         , 0           , 0
-0.185456067, 0.07926686  , -9.795125   , -0.000306150847, 0.000268534961, 0.000185452343, -0.00926126 , -0.01833824 , -0.000176105139, 923.563538  , 31.2205925  , 775.2929    , 3.34        , 3           , 255         , 0           , 0
-0.184532121, 0.0909595639, -9.795307   , -8.286288E-05, 0.0003083295, 0.000489745231, -0.00926218 , -0.0183351133, -0.000171235763, 923.563538  , 31.2205925  , 775.292664  , 3.35        , 3           , 255         , 0           , 0
-0.173416078, 0.08983594  , -9.795301   , 0.000130765053, 0.000177349721, -4.99230373E-05, -0.009260861, -0.0183333457, -0.000171751482, 923.563538  , 31.2205925  , 775.2924    , 3.36        , 3           , 255         , 0           , 0
-0.181494534, 0.08418979  , -9.800866   , 0.0003922195, -0.000104430423, -0.0005159783, -0.009256844, -0.0183344334, -0.000176902162, 923.563538  , 31.2205925  , 775.2922    , 3.37        , 3           , 255         , 0           , 0
-0.177323923, 0.09509443  , -9.796171   , 0.000187533209, -3.2170763E-05, 0.000298861647, -0.009255024, -0.0183347277, -0.000173910259, 923.563538  , 31.2205925  , 775.291931  , 3.38        , 3           , 255         , 0           , 0
-0.171952084, 0.09573372  , -9.78854752 , -0.00018416185, -0.000502136361, -3.48863541E-05, -0.00925686 , -0.0183397532, -0.000174212648, 923.563538  , 31.2205925  , 775.2917    , 3.39        , 3           , 255         , 0           , 0
-0.174485162, 0.0863154754, -9.792257   , 0.000415660121, -0.000464886427, -0.000142095392, -0.009252678, -0.0183444135, -0.000175590729, 923.563538  , 31.2205925  , 775.291443  , 3.4         , 3           , 255         , 0           , 0
-0.174838081, 0.08237587  , -9.792842   , 0.000461157062, -0.000162696291, 0.000500486465, -0.009247247, -0.0183434263, -0.000170587024, 923.563538  , 31.2205925  , 775.2444    , 3.41        , 3           , 255         , 0           , 0
-0.177234441, 0.0950974748, -9.797566   , -7.132432E-05, -0.000216341112, 0.0009981978, -0.009248144, -0.0183454938, -0.000160584023, 923.563538  , 31.2205925  , 775.243835  , 3.42        , 3           , 255         , 0           , 0
-0.175066128, 0.101443574 , -9.791556   , 0.000200745184, -0.0006049004, 0.000293710968, -0.009246192, -0.0183515176, -0.000157590664, 923.490845  , 31.2191     , 775.2433    , 3.43        , 3           , 255         , 0           , 0
-0.180164039, 0.09982912  , -9.78627    , -8.884797E-05, -7.881597E-05, 0.0005954387, -0.009247189, -0.01835225 , -0.000151628381, 923.490845  , 31.2191     , 775.242737  , 3.44        , 3           , 255         , 0           , 0
-0.182410344, 0.09005128  , -9.786824   , -0.000517965644, 4.46197228E-05, 0.000434971123, -0.009252448, -0.0183517653, -0.000147282364, 923.490845  , 31.2191     , 775.2422    , 3.45        , 3           , 255         , 0           , 0
-0.176708058, 0.0971393   , -9.787288   , 5.898965E-05, 9.298595E-05, 0.000343606953, -0.009251922, -0.0183508024, -0.000143854544, 923.490845  , 31.2191     , 775.241638  , 3.46        , 3           , 255         , 0           , 0
-0.175206363, 0.08686904  , -9.790657   , 0.0002470411, 6.923839E-05, 0.000398426666, -0.009249524, -0.0183500722, -0.000139876283, 923.490845  , 31.2191     , 775.2411    , 3.47        , 3           , 255         , 0           , 0
-0.192064792, 0.0829323754, -9.791032   , 0.0002217322, 0.000305575522, -4.40662261E-05, -0.009247299, -0.0183470212, -0.000140345248, 923.490845  , 31.2191     , 775.24054   , 3.48        , 3           , 255         , 0           , 0
-0.1887083  , 0.09186093  , -9.792694   , -0.0003664431, -0.000618871767, -0.000161850854, -0.009250935, -0.0183532238, -0.000141906683, 923.490845  , 31.2191     , 775.24      , 3.49        , 3           , 255         , 0           , 0
-0.179729372, 0.09742133  , -9.798856   , -0.0003407355, -0.0003400849, -0.000388868881, -0.00925427 , -0.01835666 , -0.000145764279, 923.490845  , 31.2191     , 775.239441  , 3.5         , 3           , 255         , 0           , 0
-0.181342572, 0.0922139   , -9.798156   , -0.0003602422, -0.0003571063, 3.27653179E-05, -0.009261465, -0.0183611419, -0.00014533769, 923.490845  , 31.2191     , 775.3026    , 3.51        , 3           , 255         , 0           , 0
-0.17107819 , 0.09255187  , -9.804052   , -0.0003976333, -0.000231558777, -0.0005679113, -0.009265336, -0.01836351 , -0.000150995926, 923.490845  , 31.2191     , 775.3025    , 3.52        , 3           , 255         , 0           , 0
-0.1815357  , 0.08495498  , -9.802351   , -0.000393942522, 3.50273331E-06, -0.000217546432, -0.009269237, -0.0183634963, -0.000153171917, 923.4898    , 31.2198467  , 775.302368  , 3.53        , 3           , 255         , 0           , 0
-0.175281912, 0.07752397  , -9.792757   , -6.27379632E-06, 0.0001619423, 0.000332607335, -0.00926936 , -0.018361846, -0.000149860542, 923.4898    , 31.2198467  , 775.302246  , 3.54        , 3           , 255         , 0           , 0
-0.1754225  , 0.08635862  , -9.79547    , -0.000160365948, -0.000257909851, 0.00014564248, -0.00927099 , -0.0183644071, -0.000148380059, 923.4898    , 31.2198467  , 775.3021    , 3.55        , 3           , 255         , 0           , 0
-0.17373088 , 0.08476215  , -9.7957     , 6.829749E-05, -0.000220403977, 0.0004856487, -0.009270397, -0.0183665659, -0.000143502635, 923.4898    , 31.2198467  , 775.302     , 3.56        , 3           , 255         , 0           , 0
-0.164303333, 0.08358123  , -9.786957   , -8.32009246E-05, 0.000211027742, 0.00034092908, -0.009271291, -0.0183644257, -0.000140112577, 923.4898    , 31.2198467  , 775.3019    , 3.57        , 3           , 255         , 0           , 0
-0.164807633, 0.0946382657, -9.786022   , -0.000108423643, -0.000466331, 0.0004434869, -0.009272459, -0.0183690488, -0.000135634, 923.4898    , 31.2198467  , 775.301758  , 3.58        , 3           , 255         , 0           , 0
-0.177207246, 0.08702614  , -9.795483   , 0.00019948688, -0.000683020335, 0.000954783754, -0.00927064 , -0.01837579 , -0.000126021871, 923.4898    , 31.2198467  , 775.301636  , 3.59        , 3           , 255         , 0           , 0
-0.175149009, 0.08677739  , -9.7825     , 0.0001554717, -0.000391676469, 8.897226E-05, -0.009269102, -0.0183796939, -0.000125095758, 923.4898    , 31.2198467  , 775.3015    , 3.6         , 3           , 255         , 0           , 0
-0.1743955  , 0.09743212  , -9.784134   , 0.000318232749, 0.00013875094, 0.000229167286, -0.009260047, -0.0183690153, -0.000122925339, 923.4898    , 31.2198467  , 775.3576    , 3.61        , 3           , 255         , 0           , 0
-0.176028252, 0.09456408  , -9.790955   , 5.866075E-05, -0.000711451634, 0.000740004354, -0.009259597, -0.01837606 , -0.000115458693, 923.4898    , 31.2198467  , 775.357849  , 3.62        , 3           , 255         , 0           , 0
-0.173864   , 0.10182412  , -9.78643    , -9.063454E-05, -0.0005182976, 1.88724953E-05, -0.009260508, -0.0183812436, -0.000115221934, 923.515     , 31.2235775  , 775.3581    , 3.63        , 3           , 255         , 0           , 0
-0.185993761, 0.101317726 , -9.798292   , -0.000186183635, -7.32694753E-05, -5.679835E-05, -0.009262358, -0.01838198 , -0.000115783187, 923.515     , 31.2235775  , 775.358337  , 3.64        , 3           , 255         , 0           , 0
-0.177678257, 0.0988111943, -9.795996   , 0.000379012345, -2.93255434E-05, -0.000389416673, -0.00925849751, -0.0183823071, -0.000119675024, 923.515     , 31.2235775  , 775.3586    , 3.65        , 3           , 255         , 0           , 0
-0.180781275, 0.0897054747, -9.789578   , 0.000715023256, -0.000262170157, -0.000617765356, -0.009251233, -0.0183849875, -0.000125829087, 923.515     , 31.2235775  , 775.3588    , 3.66        , 3           , 255         , 0           , 0
-0.1836929  , 0.08332394  , -9.787986   , 0.0003906588, -0.0001841078, 0.000241716058, -0.009247372, -0.0183868036, -0.000123394639, 923.515     , 31.2235775  , 775.3591    , 3.67        , 3           , 255         , 0           , 0
-0.172900021, 0.0870768651, -9.782506   , -0.000233526371, 0.000139785872, -0.000392707676, -0.009249634, -0.018385442, -0.000127335064, 923.515     , 31.2235775  , 775.3593    , 3.68        , 3           , 255         , 0           , 0
-0.177951768, 0.08364726  , -9.788948   , -0.0004545493, -0.000364389038, -0.0005937194, -0.009254069, -0.0183891375, -0.00013323914, 923.515     , 31.2235775  , 775.359558  , 3.69        , 3           , 255         , 0           , 0
-0.178952724, 0.08663541  , -9.787304   , -0.000130687578, 0.0002657076, -0.0008026357, -0.009255229, -0.0183865558, -0.000141290919, 923.515     , 31.2235775  , 775.3598    , 3.7         , 3           , 255         , 0           , 0
-0.170864373, 0.0897595361, -9.793226   , -2.19328213E-05, -7.3510746E-06, -0.000332154625, -0.00925929751, -0.0183828231, -0.000144540187, 923.515     , 31.2235775  , 775.371643  , 3.71        , 3           , 255         , 0           , 0
-0.1794739  , 0.08048537  , -9.788653   , 8.81771E-05 , -1.032665E-05, -0.000445297454, -0.009258334, -0.0183829684, -0.000148992665, 923.515     , 31.2235775  , 775.371948  , 3.72        , 3           , 255         , 0           , 0
-0.1737953  , 0.0839174   , -9.791819   , 5.378155E-06, 0.000238640947, 0.000307474984, -0.009258335, -0.0183805525, -0.000145939717, 923.524536  , 31.2216778  , 775.372253  , 3.73        , 3           , 255         , 0           , 0
-0.1760478  , 0.0871166661, -9.785099   , -7.52202759E-05, 0.0004813741, 0.000765687553, -0.009259228, -0.01837567 , -0.000138326621, 923.524536  , 31.2216778  , 775.372559  , 3.74        , 3           , 255         , 0           , 0
-0.179044813, 0.09152125  , -9.786104   , -0.000189819577, 8.941867E-05, 0.00041063648, -0.009261202, -0.0183747374, -0.000134228132, 923.524536  , 31.2216778  , 775.372864  , 3.75        , 3           , 255         , 0           , 0
-0.183751389, 0.09415611  , -9.794745   , -0.0001080675, -0.00012261598, -0.0002835465, -0.009262231, -0.018375989, -0.000137052528, 923.524536  , 31.2216778  , 775.373169  , 3.76        , 3           , 255         , 0           , 0
-0.180922911, 0.0951619446, -9.785776   , -4.61428426E-05, -0.000240072928, -0.000669026456, -0.009262568, -0.0183784515, -0.000143721263, 923.524536  , 31.2216778  , 775.3735    , 3.77        , 3           , 255         , 0           , 0
-0.179455966, 0.0933411   , -9.794219   , -1.7824379E-05, -7.49811E-05, -0.00104956189, -0.00926255248, -0.0183792971, -0.000154211, 923.524536  , 31.2216778  , 775.3738    , 3.78        , 3           , 255         , 0           , 0
-0.16952768 , 0.09011519  , -9.793823   , 0.000262802467, 0.000136832648, -0.00032298523, -0.009259864, -0.018377956, -0.000157453847, 923.524536  , 31.2216778  , 775.3741    , 3.79        , 3           , 255         , 0           , 0
-0.176441431, 0.09687133  , -9.792269   , -0.00015718842, 0.000341507141, -0.000105106752, -0.009261418, -0.0183745511, -0.000158536626, 923.524536  , 31.2216778  , 775.3744    , 3.8         , 3           , 255         , 0           , 0
-0.177281812, 0.09293486  , -9.794542   , 0.000247884745, 0.000193244574, 0.000294289261, -0.009258181, -0.0183668248, -0.000155626316, 923.524536  , 31.2216778  , 775.3708    , 3.81        , 3           , 255         , 0           , 0
-0.178582728, 0.0820401162, -9.811396   , 0.000478985836, -0.000364345236, 0.0005448139, -0.00925349 , -0.0183704179, -0.0001501439, 923.524536  , 31.2216778  , 775.3711    , 3.82        , 3           , 255         , 0           , 0
-0.176400378, 0.08854653  , -9.784613   , 0.0001516146, -0.000234296982, 0.000450411258, -0.009252057, -0.01837272 , -0.000145617654, 923.514038  , 31.22005    , 775.3714    , 3.83        , 3           , 255         , 0           , 0
-0.174282223, 0.0867629   , -9.792796   , -0.000210486614, -0.000338709826, 3.84714367E-05, -0.009254169, -0.0183761027, -0.000145201571, 923.514038  , 31.22005    , 775.3717    , 3.84        , 3           , 255         , 0           , 0
-0.179463074, 0.07813233  , -9.792208   , 3.15129873E-05, -0.0003402102, 6.865445E-05, -0.009253866, -0.0183795  , -0.000144483449, 923.514038  , 31.22005    , 775.372     , 3.85        , 3           , 255         , 0           , 0
-0.17266193 , 0.08624402  , -9.784086   , 0.000155465721, -0.0001780004, -0.0003436106, -0.00925225 , -0.0183813125, -0.00014790344, 923.514038  , 31.22005    , 775.3723    , 3.86        , 3           , 255         , 0           , 0
-0.169138253, 0.08736641  , -9.794665   , 2.84107227E-05, -0.000380649959, 0.000462143362, -0.009252051, -0.018385075, -0.000143246318, 923.514038  , 31.22005    , 775.3726    , 3.87        , 3           , 255         , 0           , 0
-0.1760807  , 0.08319246  , -9.784048   , -0.000302302331, 4.178108E-05, 0.0002672532, -0.009255121, -0.01838463 , -0.000140577409, 923.514038  , 31.22005    , 775.3729    , 3.88        , 3           , 255         , 0           , 0
-0.171636611, 0.08189197  , -9.791161   , -0.000239197951, -4.175905E-05, -0.000577305, -0.009257408, -0.0183851011, -0.000146347156, 923.514038  , 31.22005    , 775.3732    , 3.89        , 3           , 255         , 0           , 0
-0.184303537, 0.0810515955, -9.794789   , 0.000123903912, -0.0002312334, -0.000764658, -0.009256029, -0.0183874834, -0.0001539731, 923.514038  , 31.22005    , 775.373535  , 3.9         , 3           , 255         , 0           , 0
-0.177985311, 0.08969876  , -9.793951   , -0.000376287382, -0.0003258328, -0.0007723806, -0.009250056, -0.0183841884, -0.000161843913, 923.514038  , 31.22005    , 775.385132  , 3.91        , 3           , 255         , 0           , 0
-0.175459072, 0.09414331  , -9.793875   , -0.0003347164, -0.000180087809, 0.000147066981, -0.009253429, -0.0183859728, -0.000160356416, 923.514038  , 31.22005    , 775.385559  , 3.92        , 3           , 255         , 0           , 0
-0.185345322, 0.09426213  , -9.792847   , 2.60619563E-05, -0.00024108612, 0.000230946622, -0.00925321 , -0.01838836 , -0.000158024413, 923.488037  , 31.2223568  , 775.386     , 3.93        , 3           , 255         , 0           , 0
-0.186617479, 0.09447241  , -9.79613    , -0.0004472967, -0.000326709822, -5.378238E-05, -0.009257674, -0.0183916353, -0.000158532057, 923.488037  , 31.2223568  , 775.3864    , 3.94        , 3           , 255         , 0           , 0
-0.18087101 , 0.0833109245, -9.789387   , 0.000110213005, -0.000290379, 5.9236816E-05, -0.009256584, -0.0183945317, -0.000157912757, 923.488037  , 31.2223568  , 775.386841  , 3.95        , 3           , 255         , 0           , 0
-0.178243473, 0.08988254  , -9.793077   , 0.0004493401, -7.10484455E-05, 0.000231785554, -0.009252135, -0.01839522 , -0.000155588074, 923.488037  , 31.2223568  , 775.387268  , 3.96        , 3           , 255         , 0           , 0
-0.1729435  , 0.09385898  , -9.798937   , 0.000670653943, 7.13206537E-05, 0.000238681067, -0.009245472, -0.0183944833, -0.000153207642, 923.488037  , 31.2223568  , 775.3877    , 3.97        , 3           , 255         , 0           , 0
-0.180657357, 0.0895251259, -9.792124   , 0.00046351325, -0.000226320815, 0.0009337716, -0.009241007, -0.01839666 , -0.000143848069, 923.488037  , 31.2223568  , 775.3881    , 3.98        , 3           , 255         , 0           , 0
-0.181236327, 0.0948224   , -9.792316   , 0.0008631384, -0.000290190568, 0.000585439731, -0.009232484, -0.0183995049, -0.000137966257, 923.488037  , 31.2223568  , 775.38855   , 3.99        , 3           , 255         , 0           , 0
-0.173994124, 0.08723572  , -9.796494   , 0.000130313565, 0.000254248735, 0.000461945252, -0.009231266, -0.0183969215, -0.000133369816, 923.488037  , 31.2223568  , 775.389     , 4           , 3           , 0           , -1          , 400
-0.177227259, 0.08050559  , -9.797188   , -0.000629886752, -1.4994439E-05, -0.000912398, -0.009238065, -0.0183959324, -0.000142481047, 923.488037  , 31.2223568  , 775.435     , 4.01        , 3           , 1           , 0           , 0
-0.168809623, 0.09523398  , -9.788184   , 0.000222266652, -0.0004132684, -0.000941173348, -0.00923567 , -0.01840015 , -0.000151855551, 923.488037  , 31.2223568  , 775.435669  , 4.02        , 3           , 2           , 0           , 0
-0.18040663 , 0.0913756   , -9.788126   , 0.000225751151, -0.000410887762, -1.945457E-05, -0.00923341 , -0.0184042584, -0.000152012173, 923.5261    , 31.2224922  , 775.43634   , 4.03        , 3           , 3           , 0           , 0
-0.180937439, 0.08753785  , -9.792982   , 0.000109551416, -6.4800086E-05, 0.000312976568, -0.009232372, -0.0184048787, -0.0001488761, 923.5261    , 31.2224922  , 775.4371    , 4.04        , 3           , 4           , 0           , 0
-0.1757879  , 0.0942892656, -9.783989   , 6.170862E-05, 0.000530712 , -0.00014209139, -0.009231728, -0.018399585, -0.000150346154, 923.5261    , 31.2224922  , 775.4378    , 4.05        , 3           , 5           , 0           , 0
-0.1799542  , 0.0943966   , -9.79256248 , 6.842316E-05, -0.000121334975, 5.707385E-05, -0.009231053, -0.0184007939, -0.000149764164, 923.5261    , 31.2224922  , 775.438538  , 4.06        , 3           , 6           , 0           , 0
-0.177486271, 0.09845309  , -9.793582   , 0.0007275279, -0.000564240851, -0.00086279423, -0.009223621, -0.01840651 , -0.000158340918, 923.5261    , 31.2224922  , 775.4393    , 4.07        , 3           , 7           , 0           , 0
-0.178089529, 0.09682729  , -9.789756   , 0.000159122 , 0.000220335 , 2.78327025E-06, -0.00922203 , -0.01840431 , -0.000158333423, 923.5261    , 31.2224922  , 775.44      , 4.08        , 3           , 8           , 5           , 5
-0.184136182, 0.0941138   , -9.792497   , -0.000419075135, 6.604049E-05, 0.0005133487, -0.009226315, -0.0184036  , -0.0001532055, 923.5261    , 31.2224922  , 775.440735  , 4.09        , 3           , 9           , 5           , 0.1
-0.1715593  , 0.08944918  , -9.796181   , 4.95445274E-05, 0.000251956575, 0.000100137135, -0.009225838, -0.0184010714, -0.00015222728, 923.5261    , 31.2224922  , 775.441467  , 4.1         , 3           , 10          , 0.1         , 0.1
-0.178207427, 0.0822841153, -9.794859   , -7.209607E-05, -0.00021775777, 0.000208235986, -0.009229707, -0.0183985028, -0.000150067412, 923.5261    , 31.2224922  , 775.4262    , 4.11        , 3           , 11          , 0.006775029 , 0.006775026
-0.180278122, 0.08556137  , -9.789774   , 4.871268E-05, 4.90617822E-05, -0.0007333177, -0.009229085, -0.01839808 , -0.000157405884, 923.5261    , 31.2224922  , 775.4268    , 4.12        , 3           , 12          , 0.174648076 , 0
-0.171601042, 0.097965546 , -9.789027   , 0.000213368156, -0.000126195664, -0.000205433855, -0.0092269145, -0.0183993615, -0.000159448755, 923.5307    , 31.2214756  , 775.4274    , 4.13        , 3           , 13          , 0           , 0
-0.1736997  , 0.09244369  , -9.789274   , -0.000281088316, -0.000144519028, -0.0004596359, -0.009229641, -0.01840085 , -0.000164032259, 923.5307    , 31.2214756  , 775.42804   , 4.14        , 3           , 14          , -0.0003971279, -0.000413764967
-0.173341185, 0.08335094  , -9.79620552 , 0.000255202584, 8.46156E-05 , 0.000364466658, -0.009227156, -0.01839997 , -0.000160395, 923.5307    , 31.2214756  , 775.42865   , 4.15        , 3           , 15          , 0           , -2.29815287E-05
-0.178144723, 0.09173312  , -9.797942   , 0.0002433252, 6.11910946E-06, 0.0002947325, -0.009224778, -0.0183998812, -0.000157447939, 923.5307    , 31.2214756  , 775.42926   , 4.16        , 3           , 16          , 0           , 1.401298E-45
-0.186279476, 0.0900290161, -9.795509   , 0.000269183132, -0.000176178117, -0.000437428971, -0.009222005, -0.0184016861, -0.000161806427, 923.5307    , 31.2214756  , 775.4299    , 4.17        , 3           , 20          , 0           , 0
-0.175213009, 0.08629874  , -9.793446   , -0.000273614976, 0.000120247627, 0.0002344904, -0.009224785, -0.01840046 , -0.000159472373, 923.5307    , 31.2214756  , 775.4305    , 4.18        , 3           , 21          , 0           , 0
-0.173894763, 0.08765763  , -9.79381752 , -0.000516905, 8.42055E-05 , -0.000318068283, -0.009229897, -0.0183996484, -0.000162661119, 923.5307    , 31.2214756  , 775.4311    , 4.19        , 3           , 22          , 0           , 0
-0.174519256, 0.09242322  , -9.797485   , 0.000282648834, -7.695332E-05, 0.0002700288, -0.009227119, -0.0184003916, -0.000159953473, 923.5307    , 31.2214756  , 775.4317    , 4.2         , 3           , 40          , 0           , 0
-0.1730605  , 0.09741248  , -9.800545   , 0.000211896753, 4.2245927E-05, 0.000173578257, -0.009222999, -0.0183945782, -0.000158258816, 923.5307    , 31.2214756  , 775.4111    , 4.21        , 3           , 41          , 0           , 0
-0.1777458  , 0.09261797  , -9.794317   , 0.000103698432, 0.00012424594, -0.0005734526, -0.009221856, -0.0183933917, -0.0001640054, 923.5307    , 31.2214756  , 775.41156   , 4.22        , 3           , 42          , 0           , 0
-0.1724057  , 0.09659448  , -9.791443   , -0.0001629834, 0.000107544358, -0.00108380755, -0.009223286, -0.0183924139, -0.000174854489, 923.5651    , 31.2226963  , 775.412048  , 4.23        , 3           , 255         , 0           , 0
-0.177604631, 0.08564088  , -9.791044   , 0.000166744445, 7.879833E-05, -2.83722256E-05, -0.009221614, -0.01839163 , -0.000175145484, 923.5651    , 31.2226963  , 775.412537  , 4.24        , 3           , 255         , 0           , 0
-0.176125735, 0.0890309   , -9.793753   , 0.000167251987, -0.000395808136, 0.0003085537, -0.00921999849, -0.018395558, -0.000172023138, 923.5651    , 31.2226963  , 775.413     , 4.25        , 3           , 255         , 0           , 0
-0.175416172, 0.09144423  , -9.792023   , 0.0002379487, -8.758879E-05, -0.0007043543, -0.009217489, -0.0183964986, -0.000179059338, 923.5651    , 31.2226963  , 775.4135    , 4.26        , 3           , 255         , 0           , 0
-0.178644985, 0.09597023  , -9.789031   , 0.000363961764, 0.000292500161, -0.000483425625, -0.00921376 , -0.018393619, -0.000183921031, 923.5651    , 31.2226963  , 775.414     , 4.27        , 3           , 255         , 0           , 0
-0.189489692, 0.082313    , -9.7871     , -0.0003616734, -0.0001832252, -6.137536E-05, -0.009217366, -0.0183954556, -0.000184517965, 923.5651    , 31.2226963  , 775.4145    , 4.28        , 3           , 255         , 0           , 0
-0.178458035, 0.09013517  , -9.789602   , -0.000198797759, -0.000407957239, 0.000214667132, -0.009219393, -0.0183995161, -0.000182333446, 923.5651    , 31.2226963  , 775.415     , 4.29        , 3           , 255         , 0           , 0
-0.179547951, 0.0860963762, -9.787563   , -0.000341068459, 0.000258950866, 0.000286791765, -0.009222857, -0.018396901, -0.000179489129, 923.5651    , 31.2226963  , 775.415466  , 4.3         , 3           , 255         , 0           , 0
-0.174193949, 0.0845745057, -9.795068   , 0.000127095176, 0.000194782246, -0.000358510384, -0.009222239, -0.0183912273, -0.000183079334, 923.5651    , 31.2226963  , 775.34845   , 4.31        , 3           , 255         , 0           , 0
-0.178578869, 0.08774619  , -9.793787   , 0.000160798736, 5.18683228E-05, -6.11797E-05, -0.009220621, -0.0183907151, -0.000183695971, 923.5651    , 31.2226963  , 775.3486    , 4.32        , 3           , 255         , 0           , 0
-0.175614953, 0.08422734  , -9.798503   , -9.93284339E-05, 0.0001584203, -0.000273378857, -0.009221564, -0.0183891524, -0.000186444682, 923.5022    , 31.2233067  , 775.3487    , 4.33        , 3           , 255         , 0           , 0
-0.180320784, 0.08892656  , -9.798945   , 0.000282612746, 0.000432464032, -0.0003438545, -0.009218674, -0.0183848627, -0.000189923463, 923.5022    , 31.2233067  , 775.3488    , 4.34        , 3           , 255         , 0           , 0
-0.1747567  , 0.0858444646, -9.789397   , 0.000122808677, -0.000197087909, -0.000276831735, -0.00921739452, -0.0183868576, -0.0001926739, 923.5022    , 31.2233067  , 775.348938  , 4.35        , 3           , 255         , 0           , 0
-0.177226111, 0.08385167  , -9.788614   , 0.0005529475, -0.000147135026, -0.0008435331, -0.00921171 , -0.0183884073, -0.000201096511, 923.5022    , 31.2233067  , 775.34906   , 4.36        , 3           , 255         , 0           , 0
-0.185102329, 0.097902976 , -9.791669   , 0.000696570147, -0.000204203272, -0.001185136, -0.0092045255, -0.0183905568, -0.000212930274, 923.5022    , 31.2233067  , 775.3492    , 4.37        , 3           , 255         , 0           , 0
-0.191403463, 0.09572055  , -9.799517   , -0.000304680347, -0.000200094277, -4.85680648E-05, -0.00920756347, -0.0183925629, -0.00021339758, 923.5022    , 31.2233067  , 775.3493    , 4.38        , 3           , 255         , 0           , 0
-0.178976715, 0.09289908  , -9.795932   , -0.000270104822, 0.000280931883, 2.49719542E-05, -0.009210268, -0.01838975 , -0.0002131737, 923.5022    , 31.2233067  , 775.3494    , 4.39        , 3           , 255         , 0           , 0
-0.173745722, 0.0933776945, -9.800217   , -0.000197915564, 0.000295942649, 0.000716487644, -0.009212378, -0.0183867272, -0.000206035314, 923.5022    , 31.2233067  , 775.349548  , 4.4         , 3           , 255         , 0           , 0
-0.180693269, 0.09312862  , -9.790983   , 0.00028617034, -0.000129266846, 1.70086132E-05, -0.009208509, -0.0183865633, -0.000205871882, 923.5022    , 31.2233067  , 775.381     , 4.41        , 3           , 255         , 0           , 0
-0.177133456, 0.094068706 , -9.794484   , 0.00045948397, -7.581196E-05, 6.487825E-05, -0.009203926, -0.0183873139, -0.000205216085, 923.5022    , 31.2233067  , 775.3813    , 4.42        , 3           , 255         , 0           , 0
-0.173326656, 0.09414974  , -9.7959795  , -7.49632E-05, -7.480642E-05, 0.00119507383, -0.009204895, -0.0183879547, -0.00019325722, 923.5521    , 31.2223568  , 775.3816    , 4.43        , 3           , 255         , 0           , 0
-0.174331814, 0.08814851  , -9.797587   , 0.000118765573, 7.894199E-05, 0.000975384668, -0.009203886, -0.0183870718, -0.000183509634, 923.5521    , 31.2223568  , 775.3819    , 4.44        , 3           , 255         , 0           , 0
-0.175196141, 0.08752914  , -9.786401   , 7.926003E-05, 0.000192849126, -0.0004708927, -0.009203007, -0.0183851849, -0.000188236751, 923.5521    , 31.2223568  , 775.3822    , 4.45        , 3           , 255         , 0           , 0
-0.179852575, 0.0788558945, -9.79174    , -0.0006796529, 0.000455961825, -0.000519624562, -0.009209708, -0.0183806773, -0.0001934755, 923.5521    , 31.2223568  , 775.3825    , 4.46        , 3           , 255         , 0           , 0
-0.17333582 , 0.0842939243, -9.793863   , -4.282684E-05, 5.58591855E-05, -1.17625914E-05, -0.009210134, -0.0183801185, -0.0001935983, 923.5521    , 31.2223568  , 775.3828    , 4.47        , 3           , 255         , 0           , 0
-0.175930947, 0.091975145 , -9.797167   , -4.80165472E-05, -0.000194531312, 0.000441879063, -0.00921069551, -0.0183820184, -0.000189161146, 923.5521    , 31.2223568  , 775.3831    , 4.48        , 3           , 255         , 0           , 0
-0.18746525 , 0.0907120854, -9.793833   , -0.000398697244, 0.000104682549, -1.42600275E-05, -0.009214681, -0.0183809735, -0.000189313374, 923.5521    , 31.2223568  , 775.3834    , 4.49        , 3           , 255         , 0           , 0
-0.182789639, 0.0928976461, -9.79690552 , -6.086615E-05, -5.932647E-05, 0.00049763103, -0.00921538 , -0.0183815211, -0.000184331089, 923.5521    , 31.2223568  , 775.3837    , 4.5         , 3           , 255         , 0           , 0
-0.169950873, 0.08903083  , -9.799788   , -0.000265840266, -0.00059699954, 0.0005987405, -0.009217373, -0.0183845572, -0.0001783023, 923.5521    , 31.2223568  , 775.3396    , 4.51        , 3           , 255         , 0           , 0
-0.179472119, 0.09300454  , -9.793291   , 0.000210374317, -0.000310778123, -0.000511254359, -0.009215177, -0.01838771 , -0.0001833867, 923.5521    , 31.2223568  , 775.339661  , 4.52        , 3           , 255         , 0           , 0
-0.174538314, 0.08701667  , -9.798612   , 0.000112758949, -2.65334675E-05, -0.00050799473, -0.009213954, -0.0183880236, -0.000188464735, 923.5462    , 31.2239857  , 775.3397    , 4.53        , 3           , 255         , 0           , 0
-0.183782429, 0.08601251  , -9.793666   , 0.000520662637, -0.000213506777, -0.000156651062, -0.009208719, -0.0183901731, -0.000190011735, 923.5462    , 31.2239857  , 775.3398    , 4.54        , 3           , 255         , 0           , 0
-0.184724882, 0.0917271152, -9.797963   , 6.60845544E-05, -0.000103328173, 0.000298355444, -0.009208114, -0.0183911789, -0.000187018377, 923.5462    , 31.2239857  , 775.339844  , 4.55        , 3           , 255         , 0           , 0
-0.182063624, 0.08893974  , -9.797157   , 7.93408253E-05, 0.000175384979, 2.33326227E-05, -0.009207324, -0.01838942 , -0.000186801175, 923.5462    , 31.2239857  , 775.3399    , 4.56        , 3           , 255         , 0           , 0
-0.186531976, 0.09535218  , -9.798991   , 0.0004593859, 0.0005974395, 0.000398610719, -0.00920280349, -0.01838341 , -0.000182869684, 923.5462    , 31.2239857  , 775.339966  , 4.57        , 3           , 255         , 0           , 0
-0.1803935  , 0.08742263  , -9.791015   , 0.000285391579, 0.000209788559, 0.00024331508, -0.009199994, -0.01838129 , -0.0001804556, 923.5462    , 31.2239857  , 775.34      , 4.58        , 3           , 255         , 0           , 0
-0.182048589, 0.08481792  , -9.799303   , 0.000178271264, 3.5726116E-06, 9.980069E-05, -0.00919823 , -0.0183812436, -0.000179457813, 923.5462    , 31.2239857  , 775.3401    , 4.59        , 3           , 255         , 0           , 0
-0.169452265, 0.0859523   , -9.794111   , 4.5296707E-05, -0.0004262198, -9.773596E-05, -0.00919775851, -0.0183855128, -0.000180396077, 923.5462    , 31.2239857  , 775.340149  , 4.6         , 3           , 255         , 0           , 0
-0.165696129, 0.08534142  , -9.793657   , -0.000133448048, -0.0002319375, -0.0003913529, -0.009197516, -0.0183868185, -0.000184316363, 923.5462    , 31.2239857  , 775.310547  , 4.61        , 3           , 255         , 0           , 0
-0.178528979, 0.09516494  , -9.794887   , -0.000210784492, -3.147204E-05, -4.61963427E-05, -0.009199615, -0.018387137, -0.00018477549, 923.5462    , 31.2239857  , 775.3104    , 4.62        , 3           , 255         , 0           , 0
-0.181266636, 0.09358758  , -9.79728    , -2.84395064E-05, 0.000200899274, 0.000362528721, -0.009199966, -0.0183850955, -0.000181168289, 923.482544  , 31.2237816  , 775.3103    , 4.63        , 3           , 255         , 0           , 0
-0.1825716  , 0.0947973952, -9.798613   , 0.000102401071, -0.000395352952, 0.000196192181, -0.009198979, -0.0183890313, -0.000179169787, 923.482544  , 31.2237816  , 775.3102    , 4.64        , 3           , 255         , 0           , 0
-0.176687732, 0.08043393  , -9.789477   , 8.284941E-05, -0.000317630533, 0.000142986188, -0.009198176, -0.0183921978, -0.000177710579, 923.482544  , 31.2237816  , 775.310059  , 4.65        , 3           , 255         , 0           , 0
-0.174886435, 0.08459652  , -9.79698    , -0.000270980527, -0.00012648548, -0.000186746853, -0.009200851, -0.0183934812, -0.000179566574, 923.482544  , 31.2237816  , 775.309937  , 4.66        , 3           , 255         , 0           , 0
-0.185902819, 0.08571446  , -9.794275   , -6.86306739E-05, 0.000270086719, 0.000506683 , -0.009201632, -0.0183907337, -0.000174524073, 923.482544  , 31.2237816  , 775.3098    , 4.67        , 3           , 255         , 0           , 0
-0.1823825  , 0.0955937356, -9.79716    , -6.68811845E-06, 0.0004759172, -0.000506296055, -0.009201604, -0.0183860213, -0.00017963133, 923.482544  , 31.2237816  , 775.3097    , 4.68        , 3           , 255         , 0           , 0
-0.179480731, 0.09819851  , -9.788356   , -0.000159570831, -0.000248189084, -0.000274804246, -0.009203149, -0.0183885284, -0.000182356816, 923.482544  , 31.2237816  , 775.3096    , 4.69        , 3           , 255         , 0           , 0
-0.184101254, 0.09441564  , -9.785826   , 0.000270506716, -6.33377058E-05, -0.000135175971, -0.009200421, -0.0183891729, -0.0001837029, 923.482544  , 31.2237816  , 775.309448  , 4.7         , 3           , 255         , 0           , 0
-0.1721774  , 0.09090711  , -9.782779   , 0.000445004058, 0.00015285259, 0.0004222855, -0.009196998, -0.01838625 , -0.000179476192, 923.482544  , 31.2237816  , 775.374451  , 4.71        , 3           , 255         , 0           , 0
-0.176840812, 0.07772736  , -9.784188   , 5.91507123E-05, -6.49118156E-05, 0.000583576562, -0.009196515, -0.0183868445, -0.000173633889, 923.482544  , 31.2237816  , 775.374756  , 4.72        , 3           , 255         , 0           , 0
-0.176191211, 0.07995589  , -9.791728   , 0.000118237047, -0.000254021579, -1.21841385E-05, -0.00919533 , -0.0183893871, -0.000173732362, 923.516663  , 31.221      , 775.375061  , 4.73        , 3           , 255         , 0           , 0
-0.175219342, 0.08989282  , -9.787863   , 0.000192937063, 2.697666E-05, -0.0003710124, -0.009193333, -0.01838915 , -0.000177445327, 923.516663  , 31.221      , 775.375366  , 4.74        , 3           , 255         , 0           , 0
-0.183916032, 0.0882848054, -9.787158   , 0.000568039133, 0.0005951979, -6.29566639E-05, -0.00918764 , -0.0183832068, -0.0001781297, 923.516663  , 31.221      , 775.3757    , 4.75        , 3           , 255         , 0           , 0
-0.1800788  , 0.08692238  , -9.79163    , 0.0001414755, 0.0006836596, 0.00031938855, -0.009186283, -0.01837634 , -0.000174998291, 923.516663  , 31.221      , 775.376     , 4.76        , 3           , 255         , 0           , 0
-0.1784784  , 0.08861309  , -9.79059    , -6.604142E-05, 0.000621041749, 0.000445469981, -0.009187024, -0.0183700882, -0.0001706002, 923.516663  , 31.221      , 775.3763    , 4.77        , 3           , 255         , 0           , 0
-0.180529267, 0.0875548646, -9.800806   , 0.000380787038, 0.000338384154, -0.00126282952, -0.009182983, -0.01836682 , -0.000183260883, 923.516663  , 31.221      , 775.3766    , 4.78        , 3           , 255         , 0           , 0
-0.181926578, 0.08555224  , -9.794935   , 0.000548064243, 0.000401446217, -0.000576065446, -0.009177396, -0.0183628574, -0.000189058992, 923.516663  , 31.221      , 775.3769    , 4.79        , 3           , 255         , 0           , 0
-0.1771454  , 0.09567951  , -9.791527   , 0.00072000816, -0.000347448775, 0.000162171127, -0.009170228, -0.0183663163, -0.00018740521, 923.516663  , 31.221      , 775.3772    , 4.8         , 3           , 255         , 0           , 0
-0.17724511 , 0.08771674  , -9.788105   , 0.00048982125, 0.000107907719, 2.33108949E-06, -0.009160389, -0.0183621757, -0.000187482525, 923.516663  , 31.221      , 775.3844    , 4.81        , 3           , 255         , 0           , 0
-0.171671316, 0.09520431  , -9.810437   , 0.000268483331, 0.000259544351, -0.0006549247, -0.009157582, -0.0183596443, -0.000194056251, 923.516663  , 31.221      , 775.384766  , 4.82        , 3           , 255         , 0           , 0
-0.177884489, 0.09896375  , -9.789157   , 2.25481926E-05, 0.000101680984, -0.0004146857, -0.00915727951, -0.01835866 , -0.00019821286, 923.5164    , 31.2234421  , 775.385132  , 4.83        , 3           , 255         , 0           , 0
-0.178223819, 0.08928964  , -9.785218   , -0.000268029515, -0.000333613163, -0.000239031346, -0.009159918, -0.01836202 , -0.000200572831, 923.5164    , 31.2234421  , 775.3855    , 4.84        , 3           , 255         , 0           , 0
-0.179531038, 0.102093078 , -9.792994   , -0.000110439607, 0.000131873967, -5.26198965E-05, -0.009161012, -0.0183607042, -0.0002011112, 923.5164    , 31.2234421  , 775.385864  , 4.85        , 3           , 255         , 0           , 0
-0.18473132 , 0.09836847  , -9.791891   , -0.000261656125, -0.000268110743, -0.000259482418, -0.009163581, -0.01836341 , -0.000203681731, 923.5164    , 31.2234421  , 775.3862    , 4.86        , 3           , 255         , 0           , 0
-0.174529478, 0.08846094  , -9.787255   , -0.0001185711, -5.303719E-05, -0.0005241578, -0.009164669, -0.018363988, -0.00020891898, 923.5164    , 31.2234421  , 775.3866    , 4.87        , 3           , 255         , 0           , 0
-0.187981769, 0.08108609  , -9.786382   , 7.014128E-05, 0.000153571775, 0.000310850533, -0.009164026, -0.0183624234, -0.00020582421, 923.5164    , 31.2234421  , 775.386963  , 4.88        , 3           , 255         , 0           , 0
-0.18543838 , 0.08490015  , -9.786993   , -0.000256371684, 3.9985578E-05, -0.000429066829, -0.009166511, -0.0183620639, -0.000210118931, 923.5164    , 31.2234421  , 775.3873    , 4.89        , 3           , 255         , 0           , 0
-0.173160121, 0.08846749  , -9.789748   , -0.000575137266, -0.0001501666, -0.0006713004, -0.009172139, -0.0183636285, -0.000216818866, 923.5164    , 31.2234421  , 775.3877    , 4.9         , 3           , 255         , 0           , 0
