Acc X       , Acc Y       , Acc Z       , Gyro X      , Gyro Y      , Gyro Z      , Euler X     , Euler Y     , Euler Z     , Pres X      , Pres Y      , Pres Z      , Time        , Status      , LowRate X   , LowRate Y   , LowRate Z    
-0.0453713275, 9.788437    , -0.1511684  , 0           , 0           , 0           , -1.555354   , -0.004634611, 0           , 921.0713    , 31.7047138  , 797.3886    , 0           , 2           , 0           , 5.420232    , 0
-0.0326983258, 9.807664    , -0.150545076, 0.0002851592, 4.45452752E-05, 0.000104388921, -1.5553509  , -0.004633791, -4.291115E-07, 921.0713    , 31.7047138  , 797.3886    , 0.01        , 3           , 1           , 0           , 0
-0.04347277 , 9.811007    , -0.162384257, -0.0001449064, 0.0001959097, 0.0002742179, -1.55535245 , -0.00463101827, -2.34556114E-06, 921.0713    , 31.7047138  , 797.3886    , 0.02        , 3           , 2           , 0           , 0
-0.0445732  , 9.802852    , -0.165315554, -0.000641550345, -0.000169659426, -0.0002226902, -1.55535877 , -0.004633271, -6.83598159E-07, 921.054932  , 31.2623844  , 797.3886    , 0.03        , 3           , 3           , 0           , 0
-0.0404216051, 9.79367352  , -0.156742111, -0.000487087964, -0.00016947776, 0.0002579103, -1.55536366 , -0.00463071931, 1.050776E-06, 921.054932  , 31.2623844  , 797.3886    , 0.04        , 3           , 4           , 0           , 0
-0.0458640829, 9.782318    , -0.142128915, -0.0003467123, -0.0003879755, -0.00094405 , -1.55536723 , -0.004640218, 4.78425545E-06, 921.054932  , 31.2623844  , 797.3886    , 0.05        , 3           , 5           , 0           , 0
-0.0341848321, 9.781877    , -0.139743626, -0.0003531832, 0.000145461236, -0.0001343352, -1.55537069 , -0.00464153849, 3.30925786E-06, 921.054932  , 31.2623844  , 797.3886    , 0.06        , 3           , 6           , 0           , 0
-0.0344662443, 9.796722    , -0.1457509  , -0.000516375061, 0.000102900318, -0.000358470454, -1.55537581 , -0.00464510731, 2.22495373E-06, 921.054932  , 31.2623844  , 797.3886    , 0.07        , 3           , 7           , 0           , 0
-0.03474129 , 9.795862    , -0.151902229, 0.000232668739, -7.032015E-05, -1.15909061E-05, -1.55537355 , -0.004645234, 2.9260143E-06, 921.054932  , 31.2623844  , 797.3886    , 0.08        , 3           , 8           , 5           , 5
-0.0456771366, 9.79883     , -0.153893963, 0.0002372096, -5.998125E-06, 0.000407738233, -1.55537117 , -0.004641158, 3.04895E-06 , 921.054932  , 31.2623844  , 797.3886    , 0.09        , 3           , 9           , 5           , 0.1
-0.0501924679, 9.790554    , -0.162242562, 0.000109472225, 2.565884E-05, 0.0009905673, -1.55537009 , -0.00463125 , 2.9453397E-06, 921.054932  , 31.2623844  , 797.3886    , 0.1         , 3           , 10          , 0.1         , 0.1
-0.04692938 , 9.78772449  , -0.158596188, -1.63946388E-05, 0.0005286784, 0.0005448827, -1.55536377 , -0.00460946048, -2.28618865E-06, 921.054932  , 31.2623844  , 797.5341    , 0.11        , 19          , 11          , 0.0109544508, 0.0109544508
-0.0448565781, 9.786122    , -0.147474825, -0.000505088246, 6.35201E-05 , 0.00038753025, -1.5553689  , -0.004605577, -2.86151885E-06, 921.054932  , 31.2623844  , 797.5341    , 0.12        , 19          , 12          , 0.174642488 , 0
-0.03876688 , 9.79256248  , -0.149241924, -0.0003825985, 6.46487752E-05, -0.000173600318, -1.55537271 , -0.0046073026, -3.53463952E-06, 921.076843  , 31.3038349  , 797.5341    , 0.13        , 19          , 13          , 0           , 0
-0.0269331746, 9.793939    , -0.144214779, -0.000357164, -0.000277878, -0.000405792554, -1.55537629 , -0.004611403, -8.19106958E-07, 921.076843  , 31.3038349  , 797.5341    , 0.14        , 19          , 14          , 0.000177764538, 0.000319430023
-0.0316290632, 9.804219    , -0.147191778, -0.00120693434, -0.0007661842, -0.00101776992, -1.55538833 , -0.00462169759, 6.68487246E-06, 921.076843  , 31.3038349  , 797.5341    , 0.15        , 19          , 15          , 0           , 0.00016494772
-0.0335489  , 9.803293    , -0.1494929  , -0.00127465115, -0.000334997254, -6.63550163E-05, -1.55540109 , -0.00462241238, 1.0024165E-05, 921.076843  , 31.3038349  , 797.5341    , 0.16        , 19          , 16          , 0           , 1.401298E-45
-0.0360466652, 9.799246    , -0.153025359, -0.0005784299, -0.0005366762, -0.000418050215, -1.55540693 , -0.00462667458, 1.532601E-05, 921.076843  , 31.3038349  , 797.5342    , 0.17        , 19          , 20          , 0           , 0
-0.0400805548, 9.797697    , -0.160952464, -9.603657E-05, -0.000346482964, -0.000255051738, -1.55540788 , -0.00462927856, 1.87509868E-05, 921.076843  , 31.3038349  , 797.534241  , 0.18        , 19          , 21          , 0           , 0
-0.0505156144, 9.786939    , -0.158235788, 8.12627259E-05, 5.069899E-05, -0.000418899523, -1.555407   , -0.00463345926, 1.81796131E-05, 921.076843  , 31.3038349  , 797.5343    , 0.19        , 19          , 22          , 0           , 0
-0.0460564569, 9.787805    , -0.143807918, 0.0003543294, -0.000269705546, -8.953357E-06, -1.55540359 , -0.00463359058, 2.08751226E-05, 921.076843  , 31.3038349  , 797.534363  , 0.2         , 19          , 40          , 0           , 0
-0.04576725 , 9.787775    , -0.147134662, 0.000472634158, -3.387031E-05, 0.000854267157, -1.55539787 , -0.00460368255, 2.13407839E-05, 921.076843  , 31.3038349  , 797.436462  , 0.21        , 19          , 41          , 0           , 0
-0.0404653251, 9.796354    , -0.158928961, 0.0005105238, -0.00114819477, 0.00050960487, -1.55539274 , -0.00459876424, 3.289932E-05, 921.076843  , 31.3038349  , 797.4365    , 0.22        , 19          , 42          , 0           , 0
-0.0416034348, 9.803603    , -0.159394175, -0.000274796155, -0.000346160145, 0.00011231449, -1.55539536 , -0.004597695, 3.637761E-05, 921.0179    , 31.3271046  , 797.4366    , 0.23        , 19          , 255         , 0           , 0
-0.0441009067, 9.795729    , -0.163473442, 1.770616E-05, -0.000202206953, -5.94724843E-05, -1.55539525 , -0.00459832046, 3.83902225E-05, 921.0179    , 31.3271046  , 797.436646  , 0.24        , 19          , 255         , 0           , 0
-0.043306347, 9.787764    , -0.166762143, -0.0005695629, -0.000119671284, -7.281467E-05, -1.555401   , -0.004599067, 3.95760435E-05, 921.0179    , 31.3271046  , 797.4367    , 0.25        , 19          , 255         , 0           , 0
-0.0446470752, 9.781824    , -0.153708816, -0.000398512115, -0.0004117172, 0.000170958272, -1.5554049  , -0.00459742127, 4.371884E-05, 921.0179    , 31.3271046  , 797.436768  , 0.26        , 19          , 255         , 0           , 0
-0.0426571257, 9.796242    , -0.150785312, -0.000400536926, -0.000206452925, 0.000109049564, -1.555409   , -0.00459636236, 4.57999049E-05, 921.0179    , 31.3271046  , 797.4368    , 0.27        , 19          , 255         , 0           , 0
-0.0462566838, 9.801027    , -0.147328928, -0.0006099921, 0.000809629739, 0.000156928625, -1.555415   , -0.004594669, 3.772898E-05, 921.0179    , 31.3271046  , 797.4369    , 0.28        , 19          , 255         , 0           , 0
-0.03838523 , 9.803255    , -0.15091157 , -0.0003328823, 0.0009845761, 0.000878209947, -1.55541837 , -0.004585738, 2.80198346E-05, 921.0179    , 31.3271046  , 797.436951  , 0.29        , 19          , 255         , 0           , 0
-0.0416897424, 9.795705    , -0.150547311, -0.0005870834, 0.00029849977, 0.0002870874, -1.55542433 , -0.00458282139, 2.50793837E-05, 921.0179    , 31.3271046  , 797.437     , 0.3         , 19          , 255         , 0           , 0
-0.04188639 , 9.79666     , -0.1547441  , -0.000369342219, 0.0001719264, -1.77578768E-05, -1.55541432 , -0.004575641, 2.32947186E-05, 921.0179    , 31.3271046  , 797.581543  , 0.31        , 19          , 255         , 0           , 0
-0.0389819965, 9.791828    , -0.1536837  , 3.841445E-05, 0.0002472935, -0.000372430426, -1.555414   , -0.004579327, 2.07649864E-05, 921.0179    , 31.3271046  , 797.5816    , 0.32        , 19          , 255         , 0           , 0
-0.0404024459, 9.800123    , -0.147865742, 0.000400439632, 0.000181709533, 0.0006759132, -1.55540991 , -0.00457254052, 1.9052266E-05, 921.0435    , 31.3456249  , 797.581665  , 0.33        , 19          , 255         , 0           , 0
-0.0402194634, 9.803711    , -0.148416191, 5.828461E-05, -0.00015615928, 0.0006760238, -1.55540943 , -0.00456580566, 2.071772E-05, 921.0435    , 31.3456249  , 797.5817    , 0.34        , 19          , 255         , 0           , 0
-0.0497833379, 9.798971    , -0.1607025  , 0.000156001741, -6.440497E-05, 8.981148E-05, -1.55540788 , -0.00456491765, 2.13754738E-05, 921.0435    , 31.3456249  , 797.5818    , 0.35        , 19          , 255         , 0           , 0
-0.0442480259, 9.794783    , -0.1554667  , -0.000246095529, -5.77009341E-05, -0.000325510162, -1.55541039 , -0.00456818053, 2.19023786E-05, 921.0435    , 31.3456249  , 797.581848  , 0.36        , 19          , 255         , 0           , 0
-0.046673812, 9.778849    , -0.154490292, -0.0004293757, -0.000198293783, 0.0005512113, -1.55541456 , -0.0045627  , 2.39696983E-05, 921.0435    , 31.3456249  , 797.5819    , 0.37        , 19          , 255         , 0           , 0
-0.0474321768, 9.790105    , -0.15102762 , -0.0006330577, 8.387549E-06, -7.849775E-05, -1.55542088 , -0.00456348341, 2.38740049E-05, 921.0435    , 31.3456249  , 797.582     , 0.38        , 19          , 255         , 0           , 0
-0.0434000567, 9.793439    , -0.1435056  , -7.39986E-05, -0.0003117471, 0.000343430933, -1.55542159 , -0.004560098, 2.7043794E-05, 921.0435    , 31.3456249  , 797.582031  , 0.39        , 19          , 255         , 0           , 0
-0.0465940945, 9.798597    , -0.1413687  , 0.0003459401, -9.390889E-05, 0.0006617018, -1.55541813 , -0.00455349637, 2.80845579E-05, 921.0435    , 31.3456249  , 797.5821    , 0.4         , 19          , 255         , 0           , 0
-0.0468907319, 9.8009      , -0.140657112, -0.0004893034, 0.0003019774, 0.0006424393, -1.55542171 , -0.0045444956, 2.51580786E-05, 921.0435    , 31.3456249  , 797.596252  , 0.41        , 19          , 255         , 0           , 0
-0.04438693 , 9.79827     , -0.143363044, -0.000377030927, 0.000286895665, 0.0002183355, -1.55542564 , -0.004542268, 2.23233365E-05, 921.0435    , 31.3456249  , 797.5963    , 0.42        , 19          , 255         , 0           , 0
-0.0560298935, 9.7941      , -0.154435217, 0.00017530068, -0.0005878441, 0.0006509608, -1.55542386 , -0.00453584967, 2.83008558E-05, 921.0579    , 31.35743    , 797.5964    , 0.43        , 19          , 255         , 0           , 0
-0.046361886, 9.787493    , -0.154640377, -0.000515390944, 2.209944E-05, 0.000483552052, -1.555429   , -0.00453101145, 2.81544035E-05, 921.0579    , 31.35743    , 797.596436  , 0.44        , 19          , 255         , 0           , 0
-0.0363743  , 9.783689    , -0.152908146, -0.00134858454, 7.139548E-05, 0.000272524718, -1.55544245 , -0.004528275, 2.748245E-05, 921.0579    , 31.35743    , 797.5965    , 0.45        , 19          , 255         , 0           , 0
-0.0457506254, 9.792548    , -0.154631421, -0.000975917559, -0.000302011467, 0.00034853234, -1.55545223 , -0.004524837, 3.05556132E-05, 921.0579    , 31.35743    , 797.596558  , 0.46        , 19          , 255         , 0           , 0
-0.037997324, 9.814888    , -0.149885058, -3.978955E-05, -5.53500431E-05, -1.06864754E-05, -1.55545259 , -0.00452495227, 3.11071963E-05, 921.0579    , 31.35743    , 797.5966    , 0.47        , 19          , 255         , 0           , 0
-0.0451653972, 9.818571    , -0.154002979, -0.000217630353, -6.19328057E-05, -0.000449103652, -1.55545473 , -0.00452945335, 3.16573751E-05, 921.0579    , 31.35743    , 797.596741  , 0.48        , 19          , 255         , 0           , 0
-0.036135193, 9.704825    , -0.137482911, -0.00116881868, -0.000169472449, 0.0007242134, -1.55546653 , -0.00452223839, 3.34629949E-05, 921.0579    , 31.35743    , 797.5968    , 0.49        , 19          , 255         , 0           , 0
-0.03467778 , 9.8541      , -0.153732687, -0.00101483 , 0.000314333127, -0.0002874768, -1.55547667 , -0.004525065, 3.027621E-05, 921.0579    , 31.35743    , 797.5969    , 0.5         , 19          , 255         , 0           , 0
-0.0384709165, 9.815672    , -0.160882071, -0.000334596727, 4.120526E-05, -0.000238664041, -1.555483   , -0.00452299742, 2.984058E-05, 921.0579    , 31.35743    , 797.578857  , 0.51        , 19          , 255         , 0           , 0
-0.04053452 , 9.79750252  , -0.156640977, -0.0008690545, -0.000185186116, 0.000137110386, -1.55549157 , -0.004521655, 3.17132544E-05, 921.0579    , 31.35743    , 797.579     , 0.52        , 19          , 255         , 0           , 0
-0.0407182574, 9.821637    , -0.151592284, -0.0008460029, -0.000231873986, 0.000655882061, -1.55550015 , -0.00451513333, 3.41319246E-05, 921.0475    , 31.3631287  , 797.5791    , 0.53        , 19          , 255         , 0           , 0
-0.03519378 , 9.781176    , -0.141972229, 0.0003295415, 0.000109690882, -0.000214746877, -1.55549681 , -0.00451726327, 3.30024559E-05, 921.0475    , 31.3631287  , 797.5792    , 0.54        , 19          , 255         , 0           , 0
-0.0418715551, 9.773465    , -0.13769789 , 9.50637041E-05, -0.00068848813, 0.000245157047, -1.55549586 , -0.00451491727, 3.992365E-05, 921.0475    , 31.3631287  , 797.579346  , 0.55        , 19          , 255         , 0           , 0
-0.06410493 , 9.728142    , -0.16153802 , 0.0007444985, -0.000664002961, -0.00115451682, -1.55548847 , -0.004526563, 4.638593E-05, 921.0475    , 31.3631287  , 797.579468  , 0.56        , 19          , 255         , 0           , 0
-0.0778674  , 9.801495    , -0.197026581, -4.34843241E-05, 0.0006114028, 0.000295524136, -1.555489   , -0.0045235143, 4.03183E-05 , 921.0475    , 31.3631287  , 797.5796    , 0.57        , 19          , 255         , 0           , 0
0.0258608721, 9.99441051  , -0.1076435  , 0.0003257384, 0.0003835267, 0.00160432013, -1.55548573 , -0.00450741546, 3.67291759E-05, 921.0475    , 31.3631287  , 797.5797    , 0.58        , 19          , 255         , 0           , 0
-0.00141710008, 9.761551    , -0.0765818059, 0.000424578728, -0.000479676848, -0.00224673282, -1.55548155 , -0.004529952, 4.118118E-05, 921.0475    , 31.3631287  , 797.579834  , 0.59        , 19          , 255         , 0           , 0
-0.0596602149, 9.769788    , -0.138366967, -0.00126271276, -0.000686896266, -0.000297945837, -1.55549407 , -0.00453303661, 4.80036579E-05, 921.0475    , 31.3631287  , 797.579956  , 0.6         , 19          , 255         , 0           , 0
-0.0947313756, 9.703558    , -0.178290591, 0.0006569971, 0.0003474441, -0.000708565465, -1.55550134 , -0.004526571, 4.4483917E-05, 921.0475    , 31.3631287  , 797.5842    , 0.61        , 19          , 255         , 0           , 0
-0.0791773051, 9.715681    , -0.200378448, 0.0009176078, 0.000594046665, 0.000238828638, -1.55549216 , -0.00452409266, 3.8580667E-05, 921.0475    , 31.3631287  , 797.584351  , 0.62        , 19          , 255         , 0           , 0
-0.0499156564, 9.847253    , -0.18334499 , 0.000630373252, -0.000116045325, 0.0009875568, -1.55548584 , -0.00451423647, 3.989245E-05, 921.0514    , 31.3681488  , 797.5845    , 0.63        , 19          , 255         , 0           , 0
-0.03716165 , 9.916613    , -0.1476325  , -0.00105467648, -0.0004902414, 0.00051713147, -1.55549645 , -0.004509141, 4.48734463E-05, 921.0514    , 31.3681488  , 797.5846    , 0.64        , 19          , 255         , 0           , 0
-0.0450105965, 9.789165    , -0.118983805, -0.0006519285, -2.80053646E-05, -0.00105116155, -1.55550289 , -0.0045196563, 4.49924264E-05, 921.0514    , 31.3681488  , 797.5847    , 0.65        , 19          , 255         , 0           , 0
-0.0306879282, 9.693767    , -0.108867928, -0.00064874 , 0.000388260873, 7.349845E-05, -1.55550945 , -0.00451886235, 4.11215733E-05, 921.0514    , 31.3681488  , 797.584839  , 0.66        , 19          , 255         , 0           , 0
-0.0315088779, 9.771833    , -0.12670885 , -0.0002218344, -6.836065E-05, 0.000452717126, -1.55551159 , -0.0045143473, 4.18740819E-05, 921.0514    , 31.3681488  , 797.584961  , 0.67        , 19          , 255         , 0           , 0
-0.04420459 , 9.827009    , -0.162404984, 0.00101153285, -0.000272530073, 0.000515026855, -1.55550146 , -0.004509239, 4.46780941E-05, 921.0514    , 31.3681488  , 797.5851    , 0.68        , 19          , 255         , 0           , 0
-0.05230751 , 9.833982    , -0.175692648, 0.000355418655, 1.08699605E-05, 0.000252456928, -1.55549788 , -0.00450671325, 4.46077756E-05, 921.0514    , 31.3681488  , 797.5852    , 0.69        , 19          , 255         , 0           , 0
-0.04703915 , 9.816625    , -0.1754631  , -0.000469456252, -0.000150195949, -0.0006661398, -1.55550265 , -0.00451339642, 4.600757E-05, 921.0514    , 31.3681488  , 797.5853    , 0.7         , 19          , 255         , 0           , 0
-0.0478615724, 9.765562    , -0.156038463, -0.000368678884, -3.63983272E-05, -0.0005045573, -1.55547607 , -0.00454477733, 4.615706E-05, 921.0514    , 31.3681488  , 797.582642  , 0.71        , 19          , 255         , 0           , 0
-0.0408005081, 9.746716    , -0.1451883  , 0.00011407565, -3.882355E-05, -3.82469443E-06, -1.555475   , -0.00454482157, 4.654449E-05, 921.0514    , 31.3681488  , 797.582764  , 0.72        , 19          , 255         , 0           , 0
-0.0294774212, 9.809171    , -0.140646487, 3.99068231E-05, 0.0002378413, 0.000449722866, -1.55547464 , -0.00454028836, 4.42354831E-05, 921.0719    , 31.3720169  , 797.5829    , 0.73        , 19          , 255         , 0           , 0
-0.0287317783, 9.851713    , -0.147472233, -0.000447146944, -0.0003897567, 0.0004439088, -1.555479   , -0.00453590974, 4.82001633E-05, 921.0719    , 31.3720169  , 797.583     , 0.74        , 19          , 255         , 0           , 0
-0.0262368657, 9.811484    , -0.152764469, -0.000637094432, -0.00015716588, 0.000379300618, -1.55548537 , -0.00453214068, 4.983E-05   , 921.0719    , 31.3720169  , 797.5831    , 0.75        , 19          , 255         , 0           , 0
-0.024286082, 9.785791    , -0.15759787 , -0.0001632001, -0.00017576215, 0.0001533113, -1.555487   , -0.00453063566, 5.16107E-05 , 921.0719    , 31.3720169  , 797.583252  , 0.76        , 19          , 255         , 0           , 0
-0.04205036 , 9.770254    , -0.1579757  , -0.000123123958, 6.336006E-05, -0.000440334028, -1.55548823 , -0.00453502871, 5.090964E-05, 921.0719    , 31.3720169  , 797.5834    , 0.77        , 19          , 255         , 0           , 0
-0.0431302562, 9.79677     , -0.154109   , -0.00018855519, 3.815134E-06, 0.000148796069, -1.55549014 , -0.00453354046, 5.08942721E-05, 921.0719    , 31.3720169  , 797.5835    , 0.78        , 19          , 255         , 0           , 0
-0.0351281874, 9.808676    , -0.155813828, -0.0005496412, -0.000174386136, 0.000126215338, -1.55549562 , -0.004532304, 5.265729E-05, 921.0719    , 31.3720169  , 797.5836    , 0.79        , 19          , 255         , 0           , 0
-0.0276274774, 9.815216    , -0.150709376, -0.000848339, -0.000231041457, -4.68353537E-05, -1.55550408 , -0.004532808, 5.49602446E-05, 921.0719    , 31.3720169  , 797.5838    , 0.8         , 19          , 255         , 0           , 0
-0.0350217149, 9.792261    , -0.145647258, -0.0009914407, -0.000387941138, -0.0004807014, -1.555509   , -0.00451070024, 5.8743306E-05, 921.0719    , 31.3720169  , 797.5564    , 0.81        , 19          , 255         , 0           , 0
-0.0338173173, 9.773781    , -0.142864317, -0.000749455765, 7.054323E-05, 0.000108498367, -1.5555166  , -0.004509605, 5.80548149E-05, 921.0719    , 31.3720169  , 797.5565    , 0.82        , 19          , 255         , 0           , 0
-0.04076918 , 9.791273    , -0.1473629  , -5.81062122E-05, -0.000401813071, 0.0008012902, -1.55551708 , -0.0045016543, 6.219459E-05, 921.009766  , 31.3730335  , 797.556641  , 0.83        , 19          , 255         , 0           , 0
-0.0376311578, 9.792153    , -0.14855811 , -3.899791E-05, 0.000104507315, 9.778746E-05, -1.55551744 , -0.00450066058, 6.11643E-05 , 921.009766  , 31.3730335  , 797.556763  , 0.84        , 19          , 255         , 0           , 0
-0.03786575 , 9.803704    , -0.1437026  , -0.000487342, -5.37522428E-05, 0.0001725267, -1.5555222  , -0.004498944, 6.172822E-05, 921.009766  , 31.3730335  , 797.5569    , 0.85        , 19          , 255         , 0           , 0
-0.0437064134, 9.796938    , -0.146526247, -0.00027721026, 0.000165867881, 0.0006538245, -1.55552506 , -0.004492381, 6.01696338E-05, 921.009766  , 31.3730335  , 797.557     , 0.86        , 19          , 255         , 0           , 0
-0.0513459146, 9.785916    , -0.1408628  , -7.078813E-05, -9.97684547E-05, 0.000490593258, -1.55552578 , -0.004487491, 6.124206E-05, 921.009766  , 31.3730335  , 797.5571    , 0.87        , 19          , 255         , 0           , 0
-0.04352227 , 9.778437    , -0.142904639, -0.0007608831, -0.0004633072, -0.000111506604, -1.55553329 , -0.004488677, 6.585705E-05, 921.009766  , 31.3730335  , 797.557251  , 0.88        , 19          , 255         , 0           , 0
-0.0432550535, 9.786568    , -0.146195844, -0.0003270469, -1.58548064E-05, 0.000411301269, -1.55553663 , -0.004484567, 6.60784644E-05, 921.009766  , 31.3730335  , 797.5574    , 0.89        , 19          , 255         , 0           , 0
-0.0437974669, 9.793795    , -0.15383479 , -0.000695296, 0.0003823229, 0.0009314403, -1.55554354 , -0.004475196, 6.23980741E-05, 921.009766  , 31.3730335  , 797.5575    , 0.9         , 19          , 255         , 0           , 0
-0.0436562039, 9.600725    , -0.15265587 , 0.00136422878, 0.000272623554, -0.00203282339, -1.55554593 , -0.004482607, 5.943411E-05, 921.009766  , 31.3730335  , 797.607     , 0.91        , 19          , 255         , 0           , 0
-0.03274424 , 10.0866032  , -0.158458337, -0.00112093764, -0.000111908055, 0.00578022934, -1.55555713 , -0.0044248295, 6.143414E-05, 921.009766  , 31.3730335  , 797.607239  , 0.92        , 19          , 255         , 0           , 0
-0.03004026 , 9.80863     , -0.157907724, 0.000788089 , -0.000371465634, -0.00384861534, -1.55554926 , -0.004463367, 6.45615655E-05, 921.067566  , 31.3796139  , 797.6075    , 0.93        , 19          , 255         , 0           , 0
-0.02336838 , 9.721711    , -0.135789067, -0.00149758649, -0.000195147, 0.00144486013, -1.55556428 , -0.00444895029, 6.673319E-05, 921.067566  , 31.3796139  , 797.6077    , 0.94        , 19          , 255         , 0           , 0
-0.0459473655, 9.729788    , -0.1322597  , 0.00193322171, -0.0001747364, -0.000486084959, -1.55554485 , -0.004453838, 6.84063343E-05, 921.067566  , 31.3796139  , 797.608     , 0.95        , 19          , 255         , 0           , 0
-0.0483754  , 9.742197    , -0.164930031, 0.0008082476, -5.714665E-05, 0.0002753447, -1.55553675 , -0.00445109326, 6.90196E-05 , 921.067566  , 31.3796139  , 797.608154  , 0.96        , 19          , 255         , 0           , 0
-0.0390082859, 9.835494    , -0.164295688, 0.00144444779, -7.92618957E-05, 0.000378861732, -1.55552232 , -0.004447317, 6.987015E-05, 921.067566  , 31.3796139  , 797.6084    , 0.97        , 19          , 255         , 0           , 0
-0.0233658943, 9.913297    , -0.146763489, -0.00129764073, 0.000140084361, -0.0004723224, -1.55553532 , -0.00445201946, 6.83974649E-05, 921.067566  , 31.3796139  , 797.608643  , 0.98        , 19          , 255         , 0           , 0
-0.03630178 , 9.794222    , -0.1593526  , 0.00060989504, -0.000249847362, -0.0006545077, -1.55552936 , -0.00445860066, 7.07956642E-05, 921.067566  , 31.3796139  , 797.6089    , 0.99        , 19          , 255         , 0           , 0
-0.02515467 , 9.672495    , -0.137540266, -0.0006123204, -0.000241125788, -0.0007597321, -1.55553544 , -0.00446623471, 7.30907E-05 , 921.067566  , 31.3796139  , 797.609131  , 1           , 19          , 0           , 6.42023659  , 100
-0.03950544 , 9.837839    , -0.139391333, -0.00058709213, 0.000324238528, 0.000284246984, -1.55553484 , -0.00443024142, 6.986338E-05, 921.067566  , 31.3796139  , 797.5867    , 1.01        , 19          , 1           , 0           , 0
-0.0416225679, 9.814755    , -0.150154963, 0.000470997824, 0.000130599685, 0.000465633173, -1.55553007 , -0.00442556571, 6.86286658E-05, 921.067566  , 31.3796139  , 797.586853  , 1.02        , 19          , 2           , 0           , 0
-0.0447766632, 9.791316    , -0.151849315, 1.687865E-05, 0.000201168616, 0.000158753639, -1.55553    , -0.00442394754, 6.66416745E-05, 921.0476    , 31.3752041  , 797.587036  , 1.03        , 19          , 3           , 0           , 0
-0.0442337357, 9.828987    , -0.166339949, -0.000473734, 0.000152336 , 0.0007284505, -1.55553472 , -0.004416641, 6.522954E-05, 921.0476    , 31.3752041  , 797.5872    , 1.04        , 19          , 4           , 0           , 0
-0.0408976041, 9.758754    , -0.159841925, 0.000427750463, 0.0001309186, -0.000155045767, -1.55553031 , -0.004418171, 6.389681E-05, 921.0476    , 31.3752041  , 797.5874    , 1.05        , 19          , 5           , 0           , 0
-0.0305724852, 9.766283    , -0.147421688, 0.000253809383, 2.53593316E-05, -0.000229893078, -1.55552781 , -0.00442046626, 6.36080949E-05, 921.0476    , 31.3752041  , 797.5876    , 1.06        , 19          , 6           , 0           , 0
-0.0316569135, 9.79702     , -0.144661069, 3.99512646E-05, -0.000364883774, 0.0003427433, -1.55552757 , -0.004417095, 6.730875E-05, 921.0476    , 31.3752041  , 797.587769  , 1.07        , 19          , 7           , 0           , 0
-0.0451250449, 9.832953    , -0.135169536, -0.000560688437, 8.894599E-05, -0.0007097162, -1.55553317 , -0.00442417758, 6.631152E-05, 921.0476    , 31.3752041  , 797.587952  , 1.08        , 19          , 8           , 5           , 5
-0.0379542857, 9.785311    , -0.130046457, -0.000435862225, 8.720107E-05, -0.000339761376, -1.55553746 , -0.004427561, 6.538764E-05, 921.0476    , 31.3752041  , 797.588135  , 1.09        , 19          , 9           , 5           , 0.1
-0.0419575721, 9.770146    , -0.150525272, -1.01773621E-05, 8.229751E-05, -0.000352531555, -1.5555377  , -0.004431073, 6.451102E-05, 921.0476    , 31.3752041  , 797.5883    , 1.1         , 19          , 10          , 0.1         , 0.1
-0.0522551127, 9.794737    , -0.146212086, 0.000340245955, 4.4227927E-05, -0.000176089408, -1.55553877 , -0.004425258, 6.406188E-05, 921.0476    , 31.3752041  , 797.5901    , 1.11        , 19          , 11          , 0.009272621 , 0.009272621
-0.0455847271, 9.8045      , -0.1455954  , 0.000197399859, 0.000415061 , 0.0003068876, -1.55553675 , -0.004422126, 5.99586674E-05, 921.0476    , 31.3752041  , 797.5903    , 1.12        , 19          , 12          , 0.174642846 , 0
-0.0451818928, 9.801108    , -0.141125485, 5.32131526E-06, 7.836791E-05, 0.000209625621, -1.55553675 , -0.00442001829, 5.92073156E-05, 921.0508    , 31.3790035  , 797.590454  , 1.13        , 19          , 13          , 0           , 0
-0.0395848453, 9.807052    , -0.154300973, -0.000258703774, -0.0003469444, -0.0004978133, -1.55553925 , -0.00442504836, 6.25999237E-05, 921.0508    , 31.3790035  , 797.5907    , 1.14        , 19          , 14          , 0.000177757975, 0.000319428771
-0.0423361734, 9.789478    , -0.142420217, 0.00088998914, 0.000163579971, -9.871728E-05, -1.55553043 , -0.00442601042, 6.09496055E-05, 921.0508    , 31.3790035  , 797.590942  , 1.15        , 19          , 15          , 0           , 0.000164867626
-0.0366413519, 9.766028    , -0.143672258, 0.0005749887, 4.37813578E-05, -0.0002296372, -1.55552471 , -0.00442829961, 6.047672E-05, 921.0508    , 31.3790035  , 797.5912    , 1.16        , 19          , 16          , 0           , 1.401298E-45
-0.0369811319, 9.794644    , -0.148350209, 0.00107707933, -0.00011578745, -1.24760845E-05, -1.555514   , -0.004428441, 6.16327452E-05, 921.0508    , 31.3790035  , 797.591431  , 1.17        , 19          , 20          , 0           , 0
-0.0471270755, 9.814138    , -0.151275873, 7.508822E-05, -0.000146678052, -0.0005835194, -1.55551326 , -0.004434299, 6.301018E-05, 921.0508    , 31.3790035  , 797.5917    , 1.18        , 19          , 21          , 0           , 0
-0.0337766074, 9.794133    , -0.160492554, 0.00017610642, -0.00014509997, -0.000340609, -1.55551159 , -0.004437727, 6.440928E-05, 921.0508    , 31.3790035  , 797.5919    , 1.19        , 19          , 22          , 0           , 0
-0.0305865146, 9.800035    , -0.154784024, -0.000471746142, -0.000192834865, 0.00028020842, -1.55551624 , -0.00443495438, 6.637998E-05, 921.0508    , 31.3790035  , 797.592163  , 1.2         , 19          , 40          , 0           , 0
-0.0404263437, 9.789128    , -0.151920512, 0.000237161614, 0.0001753864, 0.00042495213, -1.55551565 , -0.004425143, 6.46989138E-05, 921.0508    , 31.3790035  , 797.5905    , 1.21        , 19          , 41          , 0           , 0
-0.0350509137, 9.786974    , -0.150860757, 0.000510858838, -0.000296310347, 0.000118014519, -1.55551052 , -0.004424008, 6.767965E-05, 921.0508    , 31.3790035  , 797.590759  , 1.22        , 19          , 42          , 0           , 0
-0.0196889564, 9.802942    , -0.1446974  , 0.0005399347, -0.000166797763, 0.000266239163, -1.55550516 , -0.0044213715, 6.938794E-05, 921.0621    , 31.382328   , 797.591     , 1.23        , 19          , 255         , 0           , 0
-0.030311903, 9.800526    , -0.148875   , 0.0006597488, -6.608057E-05, -0.000638552068, -1.55549848 , -0.004427767, 6.995116E-05, 921.0621    , 31.382328   , 797.591248  , 1.24        , 19          , 255         , 0           , 0
-0.0327543132, 9.799379    , -0.144541949, 0.000535976 , -5.96884347E-05, -0.0005874643, -1.55549312 , -0.004433649, 7.045804E-05, 921.0621    , 31.382328   , 797.5915    , 1.25        , 19          , 255         , 0           , 0
-0.0346127562, 9.802199    , -0.151443481, -5.949627E-05, -2.88980373E-05, 9.777234E-05, -1.55549383 , -0.00443267636, 7.07621148E-05, 921.0621    , 31.382328   , 797.591736  , 1.26        , 19          , 255         , 0           , 0
-0.0338142924, 9.801941    , -0.151817635, -0.0005760337, -0.0004011916, -0.0006064186, -1.55549955 , -0.00443880074, 7.46807054E-05, 921.0621    , 31.382328   , 797.592     , 1.27        , 19          , 255         , 0           , 0
-0.0408859737, 9.779314    , -0.15156807 , -0.0007554097, -3.45523E-05, -0.000173765482, -1.555507   , -0.00444054324, 7.499944E-05, 921.0621    , 31.382328   , 797.5922    , 1.28        , 19          , 255         , 0           , 0
-0.0372588336, 9.794382    , -0.147941276, -0.000357093755, -3.25879955E-05, 0.0006087329, -1.55551052 , -0.004434462, 7.54185457E-05, 921.0621    , 31.382328   , 797.592468  , 1.29        , 19          , 255         , 0           , 0
-0.0409143567, 9.796176    , -0.145085543, -0.000748501159, -0.000103614351, 0.0006934333, -1.555518   , -0.00442754524, 7.65603545E-05, 921.0621    , 31.382328   , 797.5927    , 1.3         , 19          , 255         , 0           , 0
-0.0424053967, 9.805152    , -0.1451561  , -0.0004351847, 9.75399453E-05, 0.000405755534, -1.555525   , -0.004401546, 7.565812E-05, 921.0621    , 31.382328   , 797.5792    , 1.31        , 19          , 255         , 0           , 0
-0.04392325 , 9.800703    , -0.15088439 , -0.00115495664, -0.000106154432, -0.0005235312, -1.55553651 , -0.00440679723, 7.663998E-05, 921.0621    , 31.382328   , 797.5794    , 1.32        , 19          , 255         , 0           , 0
-0.05736258 , 9.799446    , -0.151224911, -0.00046586938, 5.148168E-05, 0.000101831087, -1.55554116 , -0.00440577138, 7.614079E-05, 921.064758  , 31.3815823  , 797.5796    , 1.33        , 19          , 255         , 0           , 0
-0.037109077, 9.709063    , -0.154770359, 0.000886134047, 0.0002639754, -0.00161234557, -1.55553234 , -0.00442185253, 7.32552944E-05, 921.064758  , 31.3815823  , 797.5798    , 1.34        , 19          , 255         , 0           , 0
-0.05700884 , 9.86204052  , -0.147677213, 0.00060286955, -3.60714621E-05, 0.00221047038, -1.55552638 , -0.004399756, 7.395356E-05, 921.064758  , 31.3815823  , 797.579956  , 1.35        , 19          , 255         , 0           , 0
-0.0325601734, 9.845952    , -0.140655428, 0.0008371666, 0.000363351719, -0.000746709236, -1.555518   , -0.00440716743, 7.020658E-05, 921.064758  , 31.3815823  , 797.580139  , 1.36        , 19          , 255         , 0           , 0
-0.0506946743, 9.780321    , -0.14908874 , -0.0006956602, 0.0002987684, 0.001011117 , -1.555525   , -0.00439701229, 6.737393E-05, 921.064758  , 31.3815823  , 797.5803    , 1.37        , 19          , 255         , 0           , 0
-0.0489087924, 9.814754    , -0.135011941, 7.928639E-05, -0.000380145939, -0.00106326537, -1.55552411 , -0.004407702, 7.101241E-05, 921.064758  , 31.3815823  , 797.5805    , 1.38        , 19          , 255         , 0           , 0
-0.05818925 , 9.72982     , -0.144269258, 0.00024481077, 0.000167461316, -0.0002712965, -1.55552173 , -0.004410389, 6.92969043E-05, 921.064758  , 31.3815823  , 797.5807    , 1.39        , 19          , 255         , 0           , 0
-0.0466042459, 9.783316    , -0.148126572, 0.0003326682, 5.91340649E-05, -0.0008506286, -1.55551839 , -0.004418885, 6.85753548E-05, 921.064758  , 31.3815823  , 797.5809    , 1.4         , 19          , 255         , 0           , 0
-0.04182787 , 9.814886    , -0.150470048, 0.000283800648, 8.31077341E-05, 0.0005126802, -1.55552351 , -0.00442578131, 6.78579963E-05, 921.064758  , 31.3815823  , 797.565857  , 1.41        , 19          , 255         , 0           , 0
-0.0309006814, 9.859959    , -0.136134028, 5.692501E-05, 2.24590185E-05, -0.000524199859, -1.55552292 , -0.004431019, 6.755345E-05, 921.064758  , 31.3815823  , 797.56604   , 1.42        , 19          , 255         , 0           , 0
-0.03393401 , 9.781235    , -0.143666118, 4.60054E-05 , 0.000103358791, 5.56113955E-05, -1.55552244 , -0.00443044724, 6.652828E-05, 921.0925    , 31.382328   , 797.5662    , 1.43        , 19          , 255         , 0           , 0
-0.02707899 , 9.763872    , -0.148253009, -1.8854189E-06, -4.90061648E-05, -0.000107250387, -1.55552244 , -0.00443152664, 6.700186E-05, 921.0925    , 31.382328   , 797.566345  , 1.44        , 19          , 255         , 0           , 0
-0.0375610664, 9.772387    , -0.153708979, -0.000405628, -8.961535E-05, -1.78276969E-05, -1.55552649 , -0.00443171849, 6.789502E-05, 921.0925    , 31.382328   , 797.566467  , 1.45        , 19          , 255         , 0           , 0
-0.0499198921, 9.802788    , -0.155120015, 0.00114887208, -0.00025231787, -0.000673774048, -1.55551493 , -0.004438495, 7.031509E-05, 921.0925    , 31.382328   , 797.56665   , 1.46        , 19          , 255         , 0           , 0
-0.0447396934, 9.785059    , -0.145489171, 0.000288246723, 0.000292730168, -0.00024608575, -1.55551207 , -0.00444091 , 6.735042E-05, 921.0925    , 31.382328   , 797.566833  , 1.47        , 19          , 255         , 0           , 0
-0.0483652875, 9.818777    , -0.147565573, -4.35993134E-05, -7.603127E-05, -0.00105881179, -1.55551255 , -0.004451509, 6.79492659E-05, 921.0925    , 31.382328   , 797.567     , 1.48        , 19          , 255         , 0           , 0
-0.03241362 , 9.775369    , -0.146227658, 0.0008977102, -7.338924E-05, -0.0005738058, -1.55550361 , -0.00445725769, 6.85951454E-05, 921.0925    , 31.382328   , 797.5672    , 1.49        , 19          , 255         , 0           , 0
-0.0184480958, 9.768318    , -0.13747    , 0.0007726603, 0.000453772722, -0.000454377441, -1.55549586 , -0.00446173176, 6.398832E-05, 921.0925    , 31.382328   , 797.5674    , 1.5         , 19          , 255         , 0           , 0
-0.0300780777, 9.799696    , -0.1521847  , 0.000366198947, 0.000311737123, -0.0005277938, -1.55550027 , -0.00444959337, 6.08264454E-05, 921.0925    , 31.382328   , 797.5243    , 1.51        , 19          , 255         , 0           , 0
-0.0314527825, 9.809911    , -0.157622814, 0.0003208837, -5.90356067E-05, 5.63841022E-05, -1.555497   , -0.00444903877, 6.142529E-05, 921.0925    , 31.382328   , 797.524231  , 1.52        , 19          , 255         , 0           , 0
-0.0550982729, 9.792775    , -0.168821827, 0.0005976534, -0.0002957163, -0.000380958518, -1.55549109 , -0.004452893, 6.432383E-05, 921.0425    , 31.3836861  , 797.5242    , 1.53        , 19          , 255         , 0           , 0
-0.0558230653, 9.79714     , -0.168011978, 0.0006689204, -0.000362865743, -0.000776949746, -1.55548441 , -0.00446071755, 6.783309E-05, 921.0425    , 31.3836861  , 797.5241    , 1.54        , 19          , 255         , 0           , 0
-0.0501648076, 9.78696251  , -0.151659027, 0.000738359347, -0.000195331042, -0.000213555264, -1.55547714 , -0.004462882, 6.975351E-05, 921.0425    , 31.3836861  , 797.524048  , 1.55        , 19          , 255         , 0           , 0
-0.0378660634, 9.790865    , -0.1460518  , 0.00013746637, -3.00785177E-05, -0.00049091893, -1.55547583 , -0.0044677956, 6.997912E-05, 921.0425    , 31.3836861  , 797.524     , 1.56        , 19          , 255         , 0           , 0
-0.0396635458, 9.787886    , -0.144325465, 0.000205181786, 1.86227844E-05, -0.0008739319, -1.5554738  , -0.00447653048, 6.965944E-05, 921.0425    , 31.3836861  , 797.5239    , 1.57        , 19          , 255         , 0           , 0
-0.0415812172, 9.805613    , -0.142518744, 0.000621354964, -0.000177680733, -0.000505037, -1.55546749 , -0.00448160758, 7.13584159E-05, 921.0425    , 31.3836861  , 797.5239    , 1.58        , 19          , 255         , 0           , 0
-0.04941539 , 9.795783    , -0.147740662, -0.000109254179, 8.6410786E-05, -0.000272129721, -1.55546856 , -0.004484315, 7.045294E-05, 921.0425    , 31.3836861  , 797.5239    , 1.59        , 19          , 255         , 0           , 0
-0.0540055856, 9.787953    , -0.1562182  , -0.000110830661, 4.79117152E-05, 0.000261901063, -1.55546975 , -0.004481689, 7.00142846E-05, 921.0425    , 31.3836861  , 797.5239    , 1.6         , 19          , 255         , 0           , 0
-0.0551508181, 9.793499    , -0.159864262, 0.0006344892, -6.456484E-05, 0.000535044353, -1.55545557 , -0.00447816448, 7.070626E-05, 921.0425    , 31.3836861  , 797.538635  , 1.61        , 19          , 255         , 0           , 0
-0.06281918 , 9.797034    , -0.155842841, 0.0003279812, 0.0004510019, 0.000411643123, -1.55545223 , -0.00447398052, 6.62603052E-05, 921.0425    , 31.3836861  , 797.5387    , 1.62        , 19          , 255         , 0           , 0
-0.0521337  , 9.806433    , -0.147711784, -3.00547836E-05, -0.0001868509, -0.000364373846, -1.55545259 , -0.004477652, 6.80724552E-05, 921.034241  , 31.3840923  , 797.538757  , 1.63        , 19          , 255         , 0           , 0
-0.04156032 , 9.799498    , -0.142642945, -0.0002896073, -0.000163623859, 0.0005717054, -1.55545545 , -0.00447196141, 6.979634E-05, 921.034241  , 31.3840923  , 797.5388    , 1.64        , 19          , 255         , 0           , 0
-0.0342348032, 9.802083    , -0.148954839, -0.0004901588, 0.000471775158, -0.0005928996, -1.55546033 , -0.004477817, 6.498787E-05, 921.034241  , 31.3840923  , 797.5389    , 1.65        , 19          , 255         , 0           , 0
-0.0405547433, 9.79704     , -0.157385126, -3.225141E-07, 0.0005322406, -0.000767312245, -1.55546033 , -0.00448540738, 5.95486636E-05, 921.034241  , 31.3840923  , 797.53894   , 1.66        , 19          , 255         , 0           , 0
-0.04489496 , 9.783575    , -0.155934244, -5.580209E-05, -0.000123904421, -8.1455255E-05, -1.55546081 , -0.00448624045, 6.077476E-05, 921.034241  , 31.3840923  , 797.539     , 1.67        , 19          , 255         , 0           , 0
-0.0471697561, 9.796122    , -0.156627208, -0.000235124491, -0.000313173368, 0.0002558937, -1.55546319 , -0.00448373 , 6.39452555E-05, 921.034241  , 31.3840923  , 797.539063  , 1.68        , 19          , 255         , 0           , 0
-0.0532996543, 9.803324    , -0.146191671, -0.000345162174, 0.000224124029, 0.000509999634, -1.55546665 , -0.004478597, 6.178246E-05, 921.034241  , 31.3840923  , 797.5391    , 1.69        , 19          , 255         , 0           , 0
-0.0352474526, 9.804471    , -0.144618049, -0.000252614671, 0.0001435797, -0.000300624379, -1.55546916 , -0.00448158057, 6.03009466E-05, 921.034241  , 31.3840923  , 797.5392    , 1.7         , 19          , 255         , 0           , 0
-0.034035854, 9.792429    , -0.1453335  , -0.000219105525, -0.000199326576, -0.00082739006, -1.5554688  , -0.004495286, 6.215593E-05, 921.034241  , 31.3840923  , 797.5617    , 1.71        , 19          , 255         , 0           , 0
-0.0364736542, 9.800191    , -0.160175949, -0.000155942456, 6.215132E-05, -0.00134198833, -1.55547035 , -0.0045086937, 6.132868E-05, 921.034241  , 31.3840923  , 797.5619    , 1.72        , 19          , 255         , 0           , 0
-0.0464665219, 9.785645    , -0.15969792 , 0.000112828362, -0.000127826745, -0.0005103088, -1.55546916 , -0.00451381551, 6.252871E-05, 921.022766  , 31.3853817  , 797.5621    , 1.73        , 19          , 255         , 0           , 0
-0.04231894 , 9.783714    , -0.159024835, 0.000227371318, -0.0002520152, 0.000182221644, -1.55546689 , -0.004512033, 6.507636E-05, 921.022766  , 31.3853817  , 797.562256  , 1.74        , 19          , 255         , 0           , 0
-0.0424308069, 9.791858    , -0.142693758, -9.450271E-05, -0.000236271284, -8.561211E-05, -1.55546784 , -0.00451292563, 6.742588E-05, 921.022766  , 31.3853817  , 797.562439  , 1.75        , 19          , 255         , 0           , 0
-0.05312692 , 9.799231    , -0.14469555 , -0.0005763958, -0.000215225533, 0.0002293979, -1.55547369 , -0.004510665, 6.96128845E-05, 921.022766  , 31.3853817  , 797.5626    , 1.76        , 19          , 255         , 0           , 0
-0.0511286445, 9.807085    , -0.139537409, -0.000298466359, -0.000191500847, -0.00015913666, -1.55547667 , -0.00451228535, 7.150325E-05, 921.022766  , 31.3853817  , 797.5628    , 1.77        , 19          , 255         , 0           , 0
-0.0497070029, 9.794237    , -0.145662084, -0.000236726031, -0.0003318487, -0.000154630587, -1.555479   , -0.004513882, 7.479761E-05, 921.022766  , 31.3853817  , 797.563     , 1.78        , 19          , 255         , 0           , 0
-0.0529840663, 9.79147     , -0.148409575, -0.000466056837, 3.09057941E-05, 2.5684596E-05, -1.5554837  , -0.004513621, 7.449236E-05, 921.022766  , 31.3853817  , 797.5632    , 1.79        , 19          , 255         , 0           , 0
-0.0576156154, 9.79459     , -0.149153277, 0.000515646534, -0.000420036085, -0.00010165455, -1.55547857 , -0.004514701, 7.867662E-05, 921.022766  , 31.3853817  , 797.563354  , 1.8         , 19          , 255         , 0           , 0
-0.04923186 , 9.802658    , -0.155029118, 0.000926451234, -0.0005096021, 2.37108034E-05, -1.555471   , -0.0045203343, 8.378357E-05, 921.022766  , 31.3853817  , 797.5968    , 1.81        , 19          , 255         , 0           , 0
-0.0475137345, 9.806372    , -0.143598557, 0.0006362091, -0.000135145179, -0.0001993702, -1.55546463 , -0.00452234829, 8.51046643E-05, 921.022766  , 31.3853817  , 797.5972    , 1.82        , 19          , 255         , 0           , 0
-0.04685741 , 9.810122    , -0.140619487, -0.000208824829, 0.00033894254, -0.000359688769, -1.55546665 , -0.004525893, 8.166014E-05, 921.0772    , 31.3885021  , 797.597656  , 1.83        , 19          , 255         , 0           , 0
-0.0301924944, 9.788797    , -0.140185237, -0.000559199136, -0.000136175833, -0.000622022257, -1.55547225 , -0.00453213276, 8.292652E-05, 921.0772    , 31.3885021  , 797.5981    , 1.84        , 19          , 255         , 0           , 0
-0.03827062 , 9.790636    , -0.151848465, -0.000209882259, 3.14680219E-05, -0.0006117342, -1.5554744  , -0.00453824457, 8.251812E-05, 921.0772    , 31.3885021  , 797.5985    , 1.85        , 19          , 255         , 0           , 0
-0.03906087 , 9.78908     , -0.163518429, -0.000188623235, -7.406407E-05, -0.000351838331, -1.55547619 , -0.00454177428, 8.32045262E-05, 921.0772    , 31.3885021  , 797.598938  , 1.86        , 19          , 255         , 0           , 0
-0.04786039 , 9.775942    , -0.1688191  , -8.021963E-05, 3.53170035E-05, -0.0008876876, -1.555477   , -0.004550644, 8.27155745E-05, 921.0772    , 31.3885021  , 797.599365  , 1.87        , 19          , 255         , 0           , 0
-0.0398049429, 9.784991    , -0.164454073, 0.000173205335, -0.0003185992, -0.0005901798, -1.55547535 , -0.00455659442, 8.581062E-05, 921.0772    , 31.3885021  , 797.5998    , 1.88        , 19          , 255         , 0           , 0
-0.0472183041, 9.799551    , -0.153108209, 0.000386216561, 0.00020036436, 0.0006338806, -1.55547154 , -0.004550226, 8.39044151E-05, 921.0772    , 31.3885021  , 797.6002    , 1.89        , 19          , 255         , 0           , 0
-0.04377892 , 9.790492    , -0.139367253, -0.00026939885, 0.000425784354, 0.000323831628, -1.55547416 , -0.00454692263, 7.969689E-05, 921.0772    , 31.3885021  , 797.600647  , 1.9         , 19          , 255         , 0           , 0
-0.0359092355, 9.801565    , -0.14213258 , -0.0005647835, 0.000224807562, 0.0007345067, -1.55547512 , -0.004536124, 7.754063E-05, 921.0772    , 31.3885021  , 797.5672    , 1.91        , 19          , 255         , 0           , 0
-0.0432942435, 9.807526    , -0.150908992, -0.0001836158, 0.0006082135, 0.00108105922, -1.5554769  , -0.00452522235, 7.16250361E-05, 921.0772    , 31.3885021  , 797.567444  , 1.92        , 19          , 255         , 0           , 0
-0.0472205132, 9.805428    , -0.145459324, -0.00074004475, 0.000175628491, 0.000379207078, -1.55548429 , -0.004521405, 6.992675E-05, 921.0134    , 31.3852463  , 797.5677    , 1.93        , 19          , 255         , 0           , 0
-0.051204592, 9.79125     , -0.157983571, -0.00104941474, 4.2306172E-05, 0.001085666 , -1.5554949  , -0.004510544, 6.967016E-05, 921.0134    , 31.3852463  , 797.567932  , 1.94        , 19          , 255         , 0           , 0
-0.04886707 , 9.787746    , -0.152905554, -0.0009122696, 0.0002810535, 0.001033    , -1.55550408 , -0.00450017257, 6.701842E-05, 921.0134    , 31.3852463  , 797.5682    , 1.95        , 19          , 255         , 0           , 0
-0.04803756 , 9.795782    , -0.1467965  , -0.00117720151, -1.272888E-05, 0.00069400284, -1.55551577 , -0.00449323468, 6.725149E-05, 921.0134    , 31.3852463  , 797.5684    , 1.96        , 19          , 255         , 0           , 0
-0.0397432521, 9.797515    , -0.144825548, -0.0009855248, 0.000156638183, -0.000106578351, -1.55552566 , -0.004494277, 6.56691554E-05, 921.0134    , 31.3852463  , 797.568665  , 1.97        , 19          , 255         , 0           , 0
-0.0343103558, 9.803815    , -0.141611665, -0.000305115682, -0.0005061675, -0.00053826 , -1.55552864 , -0.00449973671, 7.0647824E-05, 921.0134    , 31.3852463  , 797.5689    , 1.98        , 19          , 255         , 0           , 0
-0.0319573842, 9.812726    , -0.135653257, -9.471725E-06, -0.000499624759, -0.00065687 , -1.55552888 , -0.00450638076, 7.554314E-05, 921.0134    , 31.3852463  , 797.569153  , 1.99        , 19          , 255         , 0           , 0
-0.04229877 , 9.812439    , -0.1534097  , 1.02292106E-05, -0.00025100843, -0.000241511414, -1.55552864 , -0.004508834, 7.801582E-05, 921.0134    , 31.3852463  , 797.5694    , 2           , 19          , 0           , 7.42023659  , 200
-0.0481375866, 9.805111    , -0.1631094  , 0.000715765869, -2.52150639E-05, -0.000296563, -1.55552578 , -0.0045089405, 7.824167E-05, 921.0134    , 31.3852463  , 797.6154    , 2.01        , 19          , 1           , 0           , 0
-0.0442102961, 9.789911    , -0.163615286, 0.000450337277, 0.000418089825, -0.000678897952, -1.55552125 , -0.004515664, 7.39575553E-05, 921.0134    , 31.3852463  , 797.615967  , 2.02        , 19          , 2           , 0           , 0
-0.04312686 , 9.78939     , -0.154012829, 0.00025110654, -9.926851E-06, -0.000369238, -1.55551863 , -0.004519358, 7.400039E-05, 921.07      , 31.3851776  , 797.6165    , 2.03        , 19          , 3           , 0           , 0
-0.04213891 , 9.803364    , -0.142930776, 0.000405820057, 0.000112970622, 3.12458724E-06, -1.55551457 , -0.00451930938, 7.287115E-05, 921.07      , 31.3851776  , 797.617065  , 2.04        , 19          , 4           , 0           , 0
-0.02973857 , 9.809393    , -0.140979812, 0.000623721629, -1.00056059E-05, -0.000235548127, -1.55550838 , -0.004521666, 7.293541E-05, 921.07      , 31.3851776  , 797.6176    , 2.05        , 19          , 5           , 0           , 0
-0.02418403 , 9.796244    , -0.152095139, 0.0007589997, -0.0002868731, -0.000438530027, -1.55550086 , -0.004526094, 7.57366361E-05, 921.07      , 31.3851776  , 797.618164  , 2.06        , 19          , 6           , 0           , 0
-0.0302298218, 9.790835    , -0.15495263 , 0.000154611771, 2.53321487E-05, 0.000262749236, -1.55549932 , -0.004523463, 7.552359E-05, 921.07      , 31.3851776  , 797.6187    , 2.07        , 19          , 7           , 0           , 0
-0.045897   , 9.779463    , -0.163484067, -0.000157162533, 0.000220216491, 7.93706E-05 , -1.55550086 , -0.004522636, 7.33338E-05 , 921.07      , 31.3851776  , 797.619263  , 2.08        , 19          , 8           , 5           , 5
-0.0536765456, 9.792697    , -0.157639921, 9.662105E-05, 0.0006125844, 0.0002082304, -1.55549979 , -0.00452046 , 6.72400856E-05, 921.07      , 31.3851776  , 797.6198    , 2.09        , 19          , 9           , 5           , 0.1
-0.0509040728, 9.803403    , -0.147089392, 0.000114563125, 0.0005059866, 0.000550112 , -1.5554986  , -0.00451488234, 6.226514E-05, 921.07      , 31.3851776  , 797.620361  , 2.1         , 19          , 10          , 0.1         , 0.1
-0.0325869545, 9.800641    , -0.1518234  , -8.160211E-05, -0.000107229425, 0.000160443989, -1.55549085 , -0.00450718869, 6.3323605E-05, 921.07      , 31.3851776  , 797.591248  , 2.11        , 19          , 11          , 0.008301282 , 0.00830128
-0.03494706 , 9.801661    , -0.151425183, -9.24175038E-05, 9.393261E-06, 0.000320999941, -1.55549181 , -0.004503978, 6.327866E-05, 921.07      , 31.3851776  , 797.5916    , 2.12        , 19          , 12          , 0.174643889 , 0
-0.0333613642, 9.805559    , -0.148429573, -0.0002404169, -0.000132091125, 4.64090845E-05, -1.55549419 , -0.004503534, 6.460674E-05, 921.0262    , 31.3854485  , 797.592     , 2.13        , 19          , 13          , 0           , 0
-0.041936636, 9.806204    , -0.158384591, -0.0008026408, -0.000292467885, 0.000368977257, -1.55550218 , -0.00449988944, 6.758747E-05, 921.0262    , 31.3854485  , 797.592346  , 2.14        , 19          , 14          , 0.0001777512, 0.000319427869
-0.0420531258, 9.807527    , -0.160165325, -0.000785442244, -0.0002554965, 0.0004445287, -1.55551    , -0.00449548429, 7.020986E-05, 921.0262    , 31.3854485  , 797.5927    , 2.15        , 19          , 15          , 0           , 0.000164809011
-0.0391330346, 9.801935    , -0.1604072  , -0.000222121715, -0.000444799865, 0.000251685036, -1.55551231 , -0.00449303538, 7.469586E-05, 921.0262    , 31.3854485  , 797.5931    , 2.16        , 19          , 16          , 0           , 1.401298E-45
-0.0470736139, 9.797198    , -0.14761354 , 5.82356151E-05, 7.61348056E-05, 0.000701520941, -1.55551171 , -0.00448600948, 7.40418254E-05, 921.0262    , 31.3854485  , 797.593445  , 2.17        , 19          , 20          , 0           , 0
-0.04424021 , 9.787012    , -0.146118134, 0.000385363353, -0.000111725356, -1.57513859E-05, -1.5555079  , -0.00448618364, 7.51566258E-05, 921.0262    , 31.3854485  , 797.5938    , 2.18        , 19          , 21          , 0           , 0
-0.0335794576, 9.795557    , -0.148152456, 0.00011042472, -0.000144474863, 0.0006269195, -1.55550671 , -0.00447993726, 7.66970552E-05, 921.0262    , 31.3854485  , 797.5942    , 2.19        , 19          , 22          , 0           , 0
-0.0360544957, 9.806464    , -0.14741759 , -0.000130496832, -0.000225843221, 0.00030680222, -1.55550814 , -0.004476906, 7.900209E-05, 921.0262    , 31.3854485  , 797.594543  , 2.2         , 19          , 40          , 0           , 0
-0.0417479165, 9.808694    , -0.149275333, -0.000206067736, 0.000264543167, 8.060713E-06, -1.555507   , -0.004468305, 7.63436E-05 , 921.0262    , 31.3854485  , 797.623352  , 2.21        , 19          , 41          , 0           , 0
-0.0437761433, 9.78992748  , -0.1533969  , 2.83138215E-05, -0.000133133741, -3.87727341E-05, -1.55550659 , -0.004468713, 7.766889E-05, 921.0262    , 31.3854485  , 797.6239    , 2.22        , 19          , 42          , 0           , 0
-0.0550606921, 9.80047     , -0.1597943  , 0.000463006058, -9.751815E-05, 0.000504790863, -1.55550194 , -0.00446368 , 7.872129E-05, 921.054565  , 31.3835487  , 797.624451  , 2.23        , 19          , 255         , 0           , 0
-0.05302366 , 9.803048    , -0.1473821  , 0.000587829854, 0.000170482963, 0.000462116383, -1.5554961  , -0.00445903372, 7.70872648E-05, 921.054565  , 31.3835487  , 797.625     , 2.24        , 19          , 255         , 0           , 0
-0.04684379 , 9.801801    , -0.144074231, 8.86019261E-05, 0.000521625043, -0.000446480175, -1.55549526 , -0.00446341839, 7.18035953E-05, 921.054565  , 31.3835487  , 797.625549  , 2.25        , 19          , 255         , 0           , 0
-0.0423029736, 9.7977705   , -0.135063708, -0.000227516721, 0.0002927296, -0.000343833875, -1.55549753 , -0.00446681073, 6.88242653E-05, 921.054565  , 31.3835487  , 797.6261    , 2.26        , 19          , 255         , 0           , 0
-0.0398865156, 9.788984    , -0.136574432, 1.13191491E-05, 0.000202771451, 4.52503446E-05, -1.55549729 , -0.00446632737, 6.680351E-05, 921.054565  , 31.3835487  , 797.626648  , 2.27        , 19          , 255         , 0           , 0
-0.0487258844, 9.792826    , -0.155069336, -0.0005040013, 0.000136893941, 0.000124821 , -1.5555023  , -0.00446505845, 6.545378E-05, 921.054565  , 31.3835487  , 797.6272    , 2.28        , 19          , 255         , 0           , 0
-0.0507215746, 9.785695    , -0.1590554  , -0.000444284815, -1.837383E-06, 2.50953162E-05, -1.55550683 , -0.004464808, 6.547636E-05, 921.054565  , 31.3835487  , 797.627747  , 2.29        , 19          , 255         , 0           , 0
-0.0569511838, 9.795168    , -0.158499882, -0.000118832017, 0.000155640562, -0.000116852185, -1.555508   , -0.00446595252, 6.39021746E-05, 921.054565  , 31.3835487  , 797.628357  , 2.3         , 19          , 255         , 0           , 0
-0.0450634658, 9.804794    , -0.1527497  , -0.000278145133, 1.90518913E-05, -0.000218702786, -1.555511   , -0.00447601732, 6.367912E-05, 921.054565  , 31.3835487  , 797.6169    , 2.31        , 19          , 255         , 0           , 0
-0.03842132 , 9.80686     , -0.1423197  , 0.00022769213, -0.0001372493, -0.00108254491, -1.55550873 , -0.004486862, 6.48863643E-05, 921.054565  , 31.3835487  , 797.6174    , 2.32        , 19          , 255         , 0           , 0
-0.0455818027, 9.798425    , -0.137934163, 0.000182879681, -0.0004791125, -0.000760104158, -1.55550683 , -0.00449453574, 6.956048E-05, 921.082153  , 31.3897915  , 797.617859  , 2.33        , 19          , 255         , 0           , 0
-0.0350630358, 9.790762    , -0.140057459, 0.000280020962, -7.421576E-05, -0.000339437422, -1.55550408 , -0.004497941, 7.025061E-05, 921.082153  , 31.3897915  , 797.618347  , 2.34        , 19          , 255         , 0           , 0
-0.0351276733, 9.776369    , -0.146144465, -0.000120752178, -0.000159893141, -0.000714427559, -1.55550528 , -0.00450510858, 7.174027E-05, 921.082153  , 31.3897915  , 797.618835  , 2.35        , 19          , 255         , 0           , 0
-0.0417009443, 9.787878    , -0.1413846  , -0.000245749077, -0.000326717738, -0.0002512185, -1.55550778 , -0.00450767064, 7.496827E-05, 921.082153  , 31.3897915  , 797.6193    , 2.36        , 19          , 255         , 0           , 0
-0.04830427 , 9.800078    , -0.156207368, -0.000201561837, -2.962834E-05, -0.000364052132, -1.55550981 , -0.004511315, 7.520902E-05, 921.082153  , 31.3897915  , 797.6198    , 2.37        , 19          , 255         , 0           , 0
-0.04627713 , 9.806749    , -0.154619277, -0.000202208364, 1.7184153E-05, 9.04043554E-05, -1.55551171 , -0.00451040873, 7.505093E-05, 921.082153  , 31.3897915  , 797.620361  , 2.38        , 19          , 255         , 0           , 0
-0.0371794961, 9.805524    , -0.151523054, -0.000247196323, -0.000142831355, -0.000555579551, -1.55551422 , -0.00451598549, 7.639438E-05, 921.082153  , 31.3897915  , 797.6209    , 2.39        , 19          , 255         , 0           , 0
-0.0345583558, 9.807811    , -0.151023209, -0.000612535863, 5.92947472E-05, -8.713016E-05, -1.55552042 , -0.00451684743, 7.578808E-05, 921.082153  , 31.3897915  , 797.62146   , 2.4         , 19          , 255         , 0           , 0
-0.0366267972, 9.793622    , -0.148055926, -0.000659912766, 0.0003458248, 0.000286774419, -1.555531   , -0.00450829836, 7.239244E-05, 921.082153  , 31.3897915  , 797.5743    , 2.41        , 19          , 255         , 0           , 0
-0.0312476717, 9.781875    , -0.154689938, -0.000335989782, -0.000140293268, 0.00010215868, -1.55553436 , -0.00450729951, 7.381062E-05, 921.082153  , 31.3897915  , 797.5745    , 2.42        , 19          , 255         , 0           , 0
-0.0382261276, 9.781708    , -0.157961562, 0.00024503615, 0.000210294849, -0.000175775378, -1.555532   , -0.004509025, 7.16811337E-05, 921.0573    , 31.3875523  , 797.574768  , 2.43        , 19          , 255         , 0           , 0
-0.0368563458, 9.794573    , -0.158049852, 0.000117600677, 0.000101912359, -0.000204414391, -1.55553079 , -0.004511053, 7.063105E-05, 921.0573    , 31.3875523  , 797.575     , 2.44        , 19          , 255         , 0           , 0
-0.04968398 , 9.798094    , -0.1507267  , -0.000124592741, -0.000127590873, -0.00106280542, -1.555532   , -0.00452169962, 7.174447E-05, 921.0573    , 31.3875523  , 797.575256  , 2.45        , 19          , 255         , 0           , 0
-0.0550046153, 9.802218    , -0.151838258, 0.0002441437, 0.000215094362, -0.000530638965, -1.55552948 , -0.00452697231, 6.951277E-05, 921.0573    , 31.3875523  , 797.5755    , 2.46        , 19          , 255         , 0           , 0
-0.04894411 , 9.798563    , -0.152121142, 0.000105441562, -0.000285130023, -0.0004512401, -1.55552852 , -0.0045315274, 7.229489E-05, 921.0573    , 31.3875523  , 797.575745  , 2.47        , 19          , 255         , 0           , 0
-0.0420737527, 9.802032    , -0.154416621, -6.271158E-05, 4.864967E-06, -0.000476592279, -1.55552924 , -0.004536292, 7.217335E-05, 921.0573    , 31.3875523  , 797.576     , 2.48        , 19          , 255         , 0           , 0
-0.0428082235, 9.797788    , -0.151487812, 0.00068366417, -9.389776E-05, -7.26248254E-06, -1.55552244 , -0.00453637866, 7.311144E-05, 921.0573    , 31.3875523  , 797.576233  , 2.49        , 19          , 255         , 0           , 0
-0.044211328, 9.782984    , -0.157702371, 0.000375810778, -0.00035556173, -0.000361997983, -1.55551863 , -0.00454005273, 7.661138E-05, 921.0573    , 31.3875523  , 797.5765    , 2.5         , 19          , 255         , 0           , 0
-0.04856258 , 9.785307    , -0.150458723, 0.0006537782, -8.63481546E-07, 2.33078463E-05, -1.555503   , -0.00453612255, 7.65822842E-05, 921.0573    , 31.3875523  , 797.567566  , 2.51        , 19          , 255         , 0           , 0
-0.05738278 , 9.786125    , -0.154188231, 0.000290187541, -0.000457366346, 0.0005825883, -1.55550015 , -0.004530368, 8.12442959E-05, 921.0573    , 31.3875523  , 797.567749  , 2.52        , 19          , 255         , 0           , 0
-0.0538731  , 9.7973      , -0.146109819, -9.069816E-05, -0.000237230313, 0.00141179317, -1.555501   , -0.00451628864, 8.38320047E-05, 921.0213    , 31.3846359  , 797.567932  , 2.53        , 19          , 255         , 0           , 0
-0.04589036 , 9.80529     , -0.1412637  , -0.000327612623, 0.00021881063, 0.000460827781, -1.55550432 , -0.004511648, 8.171461E-05, 921.0213    , 31.3846359  , 797.5681    , 2.54        , 19          , 255         , 0           , 0
-0.053274136, 9.820691    , -0.140377119, -6.4523425E-05, -0.000158364273, 0.000860785134, -1.55550492 , -0.00450306525, 8.342989E-05, 921.0213    , 31.3846359  , 797.5683    , 2.55        , 19          , 255         , 0           , 0
-0.045806583, 9.812003    , -0.151339337, 7.85732E-05 , 0.000164919707, -0.0003132284, -1.55550408 , -0.004506172, 8.1733E-05  , 921.0213    , 31.3846359  , 797.5685    , 2.56        , 19          , 255         , 0           , 0
-0.05195286 , 9.801882    , -0.158071145, -0.0006572718, -0.000168759856, -0.000420429627, -1.55551064 , -0.00451040128, 8.335585E-05, 921.0213    , 31.3846359  , 797.568665  , 2.57        , 19          , 255         , 0           , 0
-0.05697965 , 9.781393    , -0.157357782, -0.000276652747, 0.0002140801, -5.865164E-05, -1.5555135  , -0.00451095542, 8.120657E-05, 921.0213    , 31.3846359  , 797.568848  , 2.58        , 19          , 255         , 0           , 0
-0.0568638258, 9.77132     , -0.14983514 , -4.7865542E-05, -0.00014282846, -0.0006886958, -1.555514   , -0.004517863, 8.252953E-05, 921.0213    , 31.3846359  , 797.569031  , 2.59        , 19          , 255         , 0           , 0
-0.05226643 , 9.774369    , -0.139267892, 0.0002110582, -0.000189150014, -0.000943749852, -1.55551183 , -0.004527328, 8.42762456E-05, 921.0213    , 31.3846359  , 797.5692    , 2.6         , 19          , 255         , 0           , 0
-0.042884998, 9.786884    , -0.146827862, -0.0004863644, 2.806721E-05, 0.00010591821, -1.55551875 , -0.0045436006, 8.402107E-05, 921.0213    , 31.3846359  , 797.610352  , 2.61        , 19          , 255         , 0           , 0
-0.0466857925, 9.803054    , -0.147620946, -3.34877259E-05, 9.910768E-05, 0.0008837263, -1.5555191  , -0.004534749, 8.3164945E-05, 921.0213    , 31.3846359  , 797.61084   , 2.62        , 19          , 255         , 0           , 0
-0.0524840541, 9.811277    , -0.1457313  , -0.000741375668, 1.64118246E-05, 0.00120651617, -1.55552649 , -0.0045226845, 8.318517E-05, 921.057251  , 31.3840923  , 797.6113    , 2.63        , 19          , 255         , 0           , 0
-0.04286996 , 9.806204    , -0.167505413, -0.000454102119, -0.0001155729, 0.000296672224, -1.555531   , -0.004519735, 8.438614E-05, 921.057251  , 31.3840923  , 797.6118    , 2.64        , 19          , 255         , 0           , 0
-0.0451431051, 9.807581    , -0.169466421, -0.00057364587, -0.000232619437, -9.91481138E-05, -1.55553675 , -0.004520763, 8.6697E-05  , 921.057251  , 31.3840923  , 797.6123    , 2.65        , 19          , 255         , 0           , 0
-0.04206833 , 9.801912    , -0.159768134, 0.000419382 , -0.000247185322, 0.000166190468, -1.55553257 , -0.004519138, 8.919368E-05, 921.057251  , 31.3840923  , 797.6128    , 2.66        , 19          , 255         , 0           , 0
-0.0337584578, 9.786558    , -0.146925732, 0.0006300526, -0.000129749169, -9.570835E-05, -1.55552626 , -0.004520115, 9.047636E-05, 921.057251  , 31.3840923  , 797.6133    , 2.67        , 19          , 255         , 0           , 0
-0.0364579856, 9.776102    , -0.142945781, -4.41045122E-05, -0.00045664105, -0.000422568963, -1.55552685 , -0.004524411, 9.49777E-05 , 921.057251  , 31.3840923  , 797.6138    , 2.68        , 19          , 255         , 0           , 0
-0.026452601, 9.787403    , -0.13891542 , 0.0002978891, -0.0007233353, -0.000145585611, -1.55552375 , -0.00452597626, 0.000102188096, 921.057251  , 31.3840923  , 797.614258  , 2.69        , 19          , 255         , 0           , 0
-0.0344179645, 9.805425    , -0.1472752  , 0.0005381012, -0.000353558426, -0.000282001565, -1.55551839 , -0.00452885 , 0.000105679886, 921.057251  , 31.3840923  , 797.614746  , 2.7         , 19          , 255         , 0           , 0
-0.0407700241, 9.81763649  , -0.158196613, -0.000243836679, -0.000436915958, 0.000478918257, -1.555518   , -0.00451748725, 0.000110108595, 921.057251  , 31.3840923  , 797.600342  , 2.71        , 19          , 255         , 0           , 0
-0.0464097448, 9.808348    , -0.162884071, -0.000360320031, -0.0003526161, -0.000293282035, -1.55552161 , -0.0045204726, 0.000113589456, 921.057251  , 31.3840923  , 797.6007    , 2.72        , 19          , 255         , 0           , 0
-0.0475546829, 9.781471    , -0.164497659, -0.000346545829, 3.053309E-05, -0.000339842518, -1.55552506 , -0.00452386634, 0.000113232061, 921.0818    , 31.3866024  , 797.6011    , 2.73        , 19          , 255         , 0           , 0
-0.05044938 , 9.76853752  , -0.149652615, -0.000407132815, -0.000190723455, 0.0005079862, -1.55552912 , -0.00451881625, 0.000115216724, 921.0818    , 31.3866024  , 797.60144   , 2.74        , 19          , 255         , 0           , 0
-0.0348588638, 9.782234    , -0.141655   , -0.000288097275, -0.000283749629, 0.000422870973, -1.555532   , -0.00451463135, 0.000118118289, 921.0818    , 31.3866024  , 797.6018    , 2.75        , 19          , 255         , 0           , 0
-0.0353526175, 9.796236    , -0.135939032, -0.000360540522, 0.000317931757, 0.000227837561, -1.55553555 , -0.004512305, 0.000114974107, 921.0818    , 31.3866024  , 797.6022    , 2.76        , 19          , 255         , 0           , 0
-0.0401633568, 9.810366    , -0.13959527 , 0.000134226386, -0.000105433719, 4.483985E-05, -1.55553424 , -0.004511873, 0.000116035364, 921.0818    , 31.3866024  , 797.602539  , 2.77        , 19          , 255         , 0           , 0
-0.05097566 , 9.790689    , -0.148174658, 9.045449E-05, -1.48772378E-05, 0.0008729856, -1.55553341 , -0.00450314628, 0.000116317322, 921.0818    , 31.3866024  , 797.6029    , 2.78        , 19          , 255         , 0           , 0
-0.0528521  , 9.793733    , -0.154796988, 0.0004891034, -0.000193649845, 0.0003453733, -1.55552852 , -0.00449972274, 0.000118305936, 921.0818    , 31.3866024  , 797.603333  , 2.79        , 19          , 255         , 0           , 0
-0.06384893 , 9.792209    , -0.1596779  , -0.000137942261, -0.00045285307, -0.00014720812, -1.55553    , -0.00450126361, 0.000122811733, 921.0818    , 31.3866024  , 797.60376   , 2.8         , 19          , 255         , 0           , 0
-0.0518506356, 9.80116749  , -0.15443106 , -8.045567E-05, -0.000226955381, -0.000129542866, -1.55552685 , -0.00450671325, 0.0001250439, 921.0818    , 31.3866024  , 797.556946  , 2.81        , 19          , 255         , 0           , 0
-0.0362033024, 9.796713    , -0.141621634, 3.05830035E-05, -0.000127927458, -8.50821743E-05, -1.55552649 , -0.004507584, 0.000126310028, 921.0818    , 31.3866024  , 797.557068  , 2.82        , 19          , 255         , 0           , 0
-0.0422671959, 9.790117    , -0.1369563  , -7.61937554E-05, -0.0005156523, 0.000104461404, -1.55552721 , -0.00450661732, 0.000131481735, 921.0826    , 31.3857212  , 797.5572    , 2.83        , 19          , 255         , 0           , 0
-0.0378389  , 9.792289    , -0.142332762, -0.000169477469, -0.000491422, -9.276104E-05, -1.555529   , -0.00450762 , 0.000136381015, 921.0826    , 31.3857212  , 797.5573    , 2.84        , 19          , 255         , 0           , 0
-0.0371157154, 9.793623    , -0.157865331, -0.000281074841, -0.00034231288, -7.378158E-05, -1.55553186 , -0.00450841 , 0.000139792479, 921.0826    , 31.3857212  , 797.557434  , 2.85        , 19          , 255         , 0           , 0
-0.0437456369, 9.798647    , -0.154586658, -0.000299992738, -0.000418193231, -0.000374814554, -1.555535   , -0.004512222, 0.0001439164, 921.0826    , 31.3857212  , 797.557556  , 2.86        , 19          , 255         , 0           , 0
-0.05823362 , 9.800075    , -0.150069416, -4.13708331E-05, -0.000109123735, 2.68598669E-05, -1.55553532 , -0.00451197056, 0.0001450114, 921.0826    , 31.3857212  , 797.5577    , 2.87        , 19          , 255         , 0           , 0
-0.04889546 , 9.79779148  , -0.147607744, -0.000137688985, 0.000761552248, 0.000202158539, -1.55553663 , -0.004509832, 0.000137427836, 921.0826    , 31.3857212  , 797.5578    , 2.88        , 19          , 255         , 0           , 0
-0.0318638831, 9.784815    , -0.147788838, -0.000440552656, 9.715228E-05, 0.000113544156, -1.55554092 , -0.004508683, 0.000136473653, 921.0826    , 31.3857212  , 797.5579    , 2.89        , 19          , 255         , 0           , 0
-0.0286025  , 9.778942    , -0.1378313  , -0.000646159053, -0.000319429848, 0.000224704578, -1.55554748 , -0.004506485, 0.0001397019, 921.0826    , 31.3857212  , 797.558044  , 2.9         , 19          , 255         , 0           , 0
-0.03455794 , 9.796942    , -0.152736589, -0.000164707017, 0.0004908973, 0.000385287334, -1.55555415 , -0.00449744938, 0.000134874557, 921.0826    , 31.3857212  , 797.516     , 2.91        , 19          , 255         , 0           , 0
-0.04360735 , 9.802893    , -0.158071414, -0.0005481801, 0.000543204835, 0.000381652033, -1.55555952 , -0.00449354947, 0.0001295015, 921.0826    , 31.3857212  , 797.515869  , 2.92        , 19          , 255         , 0           , 0
-0.04532647 , 9.802156    , -0.1618591  , -0.000429509848, 0.000421006116, -8.939057E-05, -1.55556393 , -0.00449437927, 0.00012527837, 921.0328    , 31.3863316  , 797.515747  , 2.93        , 19          , 255         , 0           , 0
-0.0396440327, 9.802035    , -0.1640847  , 0.000224669639, 0.0005787231, -0.000271520257, -1.55556166 , -0.00449700654, 0.000119450538, 921.0328    , 31.3863316  , 797.5156    , 2.94        , 19          , 255         , 0           , 0
-0.0404227  , 9.806477    , -0.154968977, 0.000634210941, -9.5225E-05 , -0.0005401179, -1.55555534 , -0.00450242124, 0.000120320656, 921.0328    , 31.3863316  , 797.5155    , 2.95        , 19          , 255         , 0           , 0
-0.0340107642, 9.798964    , -0.141566724, -0.000242492883, -0.000350828, 9.835539E-05, -1.55555773 , -0.00450149132, 0.000123842954, 921.0328    , 31.3863316  , 797.5154    , 2.96        , 19          , 255         , 0           , 0
-0.0286659859, 9.795074    , -0.145694539, -0.00026627467, -0.000687240448, -0.000791982457, -1.55556047 , -0.00450951466, 0.0001305937, 921.0328    , 31.3863316  , 797.515259  , 2.97        , 19          , 255         , 0           , 0
-0.04057709 , 9.788458    , -0.160394341, -0.000241825357, -0.000400027464, -0.001284851, -1.55556285 , -0.004522423, 0.000134397516, 921.0328    , 31.3863316  , 797.515137  , 2.98        , 19          , 255         , 0           , 0
-0.04511029 , 9.778883    , -0.161146045, 8.893819E-05, -0.000297426, 0.000445288024, -1.5555619  , -0.004518016, 0.000137439012, 921.0328    , 31.3863316  , 797.515     , 2.99        , 19          , 255         , 0           , 0
-0.0372207463, 9.785851    , -0.156580523, 3.02215631E-05, -0.000341673353, 0.00020288302, -1.55556166 , -0.00451603951, 0.000140886332, 921.0328    , 31.3863316  , 797.5149    , 3           , 19          , 0           , 8.420237    , 300
-0.04555653 , 9.799046    , -0.150177658, -0.000141633209, -0.000301400985, -0.0002003276, -1.55555189 , -0.00450919848, 0.000143819561, 921.0328    , 31.3863316  , 797.5489    , 3.01        , 19          , 1           , 0           , 0
-0.04524986 , 9.807322    , -0.152521044, 0.000549742952, -0.000129221517, -0.0005323982, -1.5555464  , -0.00451454148, 0.000145030543, 921.0328    , 31.3863316  , 797.54895   , 3.02        , 19          , 2           , 0           , 0
-0.03649385 , 9.817737    , -0.142729342, 0.000170307161, -0.00014159811, -0.0003446007, -1.55554473 , -0.00451800833, 0.000146393781, 921.0669    , 31.3904018  , 797.549     , 3.03        , 19          , 3           , 0           , 0
-0.0327478424, 9.808067    , -0.147942811, -0.0004722894, -1.06379157E-05, -0.00086847943, -1.5555495  , -0.004526694, 0.000146367936, 921.0669    , 31.3904018  , 797.549133  , 3.04        , 19          , 4           , 0           , 0
-0.04186379 , 9.791733    , -0.153973967, -0.0007776569, 0.000164049939, -0.000842825, -1.55555725 , -0.004535096, 0.000144599122, 921.0669    , 31.3904018  , 797.549255  , 3.05        , 19          , 5           , 0           , 0
-0.0510445237, 9.786537    , -0.161728472, -0.00109111762, 0.0001831633, -0.00033065764, -1.5555681  , -0.00453837449, 0.000142717356, 921.0669    , 31.3904018  , 797.5494    , 3.06        , 19          , 6           , 0           , 0
-0.0544304773, 9.785536    , -0.155571818, -0.0015970869, -0.000254271319, 0.0005901046, -1.55558407 , -0.00453251367, 0.000145349317, 921.0669    , 31.3904018  , 797.5495    , 3.07        , 19          , 7           , 0           , 0
-0.0500492267, 9.784321    , -0.150475621, -0.001130383, 0.000240574911, 0.0006485397, -1.5555954  , -0.00452599349, 0.000143042576, 921.0669    , 31.3904018  , 797.5496    , 3.08        , 19          , 8           , 5           , 5
-0.05176145 , 9.782651    , -0.144101575, -0.00126761629, -0.000208304089, 0.000621985469, -1.55560815 , -0.004519806, 0.000145219834, 921.0669    , 31.3904018  , 797.549744  , 3.09        , 19          , 9           , 5           , 0.1
-0.043451272, 9.7842      , -0.143264487, -0.00411860039, 6.12478761E-05, 0.00154881622, -1.55564928 , -0.00450431043, 0.000144842154, 921.0669    , 31.3904018  , 797.549866  , 3.1         , 19          , 10          , 0.1         , 0.1
-0.0523351431, 9.789152    , -0.141949862, -0.0113420971, 0.000352624542, 0.00423841923, -1.5557611  , -0.00446345657, 0.000141948723, 921.0669    , 31.3904018  , 797.531067  , 3.11        , 19          , 11          , 0.007594335 , 0.007594331
-0.05024218 , 9.800493    , -0.1430093  , -0.00741174025, 5.00518945E-06, 0.00193595467, -1.55583513 , -0.00444409857, 0.00014218899, 921.0669    , 31.3904018  , 797.531067  , 3.12        , 19          , 12          , 0.174645633 , 0
-0.0521880873, 9.805096    , -0.139854744, -0.00429967325, -0.000193898159, 0.00117110054, -1.55587816 , -0.004432418, 0.000144302627, 921.0172    , 31.3859234  , 797.531067  , 3.13        , 19          , 13          , 0           , 0
-0.05730295 , 9.80823     , -0.148141026, 0.00107243739, -6.573263E-05, 0.0006856841, -1.55586755 , -0.0044255727, 0.000145062135, 921.0172    , 31.3859234  , 797.531067  , 3.14        , 19          , 14          , 0.0001776651, 0.000319426967
-0.0500547364, 9.813927    , -0.140046179, 0.00172217109, -0.000806691765, 0.00135195837, -1.55585027 , -0.004412175, 0.000153330038, 921.0172    , 31.3859234  , 797.531067  , 3.15        , 19          , 15          , 0           , 0.000164777
-0.07726144 , 9.883672    , -0.110512957, 0.004782247 , -0.005552868, 0.0173016265, -1.5558027  , -0.004240014, 0.0002114429, 921.0172    , 31.3859234  , 797.531067  , 3.16        , 19          , 16          , 0           , 1.401298E-45
-0.083334364, 9.913286    , -0.133346438, 0.00127415  , -0.0122055765, 0.0511784665, -1.55579042 , -0.003730131, 0.0003411628, 921.0172    , 31.3859234  , 797.531067  , 3.17        , 19          , 20          , 0           , 0
-0.05346007 , 9.813437    , -0.104010537, -0.00715168566, -0.0224790387, 0.07680045  , -1.55586278 , -0.002965595, 0.0005774243, 921.0172    , 31.3859234  , 797.531067  , 3.18        , 19          , 21          , 0           , 0
-0.0363539681, 9.773175    , -0.08626217 , -0.0115666222, -0.04193831 , 0.07278101  , -1.55597937 , -0.0022441186, 0.00100758066, 921.0172    , 31.3859234  , 797.531067  , 3.19        , 19          , 22          , 0           , 0
-0.07847128 , 9.852199    , -0.0563936047, -0.0130895535, -0.06573021 , 0.08029463  , -1.55611145 , -0.00145097019, 0.00167663954, 921.0172    , 31.3859234  , 797.531067  , 3.2         , 19          , 40          , 0           , 0
-0.1172541  , 9.989054    , -0.0361498967, -0.0169349946, -0.09924652 , 0.122029752 , -1.55629778 , -0.0002548854, 0.00268679624, 921.0172    , 31.3859234  , 797.5852    , 3.21        , 19          , 41          , 0           , 0
-0.147000745, 10.046855   , 0.03164134  , -0.0239799041, -0.145891979, 0.187958837 , -1.55653667 , 0.00160350406, 0.00417256029, 921.0172    , 31.3859234  , 797.585632  , 3.22        , 19          , 42          , 0           , 0
-0.08886121 , 9.879773    , 0.197112754 , -0.0299063288, -0.227046281, 0.233487934 , -1.55682921 , 0.00390608865, 0.00647573173, 921.085449  , 31.3859234  , 797.58606   , 3.23        , 19          , 255         , 0           , 0
0.01937359  , 9.749208    , 0.09827845  , -0.0311885923, -0.315958381, 0.221682832 , -1.55712509 , 0.00607903441, 0.009665641 , 921.085449  , 31.3859234  , 797.5865    , 3.24        , 19          , 255         , 0           , 0
0.11885722  , 9.756676    , -0.22358875 , -0.02983155 , -0.3332561  , 0.204721257 , -1.55739963 , 0.008080916 , 0.0130256442, 921.085449  , 31.3859234  , 797.5869    , 3.25        , 19          , 255         , 0           , 0
0.19737491  , 9.735121    , -0.4370819  , -0.029638553, -0.260519028, 0.191814587 , -1.55767238 , 0.009964302 , 0.0156561024, 921.085449  , 31.3859234  , 797.587341  , 3.26        , 19          , 255         , 0           , 0
0.250011623 , 9.676161    , -0.448949039, -0.0272773765, -0.159214333, 0.167915359 , -1.55792785 , 0.0116225723, 0.0172700025, 921.085449  , 31.3859234  , 797.587769  , 3.27        , 19          , 255         , 0           , 0
0.25692755  , 9.625204    , -0.389520645, -0.0233043022, -0.07994341 , 0.1253641   , -1.558151   , 0.0128658833, 0.01808541  , 921.085449  , 31.3859234  , 797.588135  , 3.28        , 19          , 255         , 0           , 0
0.258156776 , 9.57986     , -0.2533463  , -0.0138855455, -0.0241269432, 0.06808062  , -1.55828655 , 0.0135435825, 0.0183352437, 921.085449  , 31.3859234  , 797.5885    , 3.29        , 19          , 255         , 0           , 0
0.22961089  , 9.563021    , -0.1262171  , -0.000656083, -0.002329334, 0.00312181539, -1.55829275 , 0.0135745071, 0.0183589216, 921.085449  , 31.3859234  , 797.588867  , 3.3         , 19          , 255         , 0           , 0
0.19597806  , 9.60858     , -0.106268391, 0.0106462575, 0.000118213036, -0.0551940762, -1.55814564 , 0.0130621372, 0.0183513463, 921.085449  , 31.3859234  , 797.5377    , 3.31        , 19          , 255         , 0           , 0
0.154255182 , 9.706741    , -0.116607107, 0.0168869141, 0.00043686424, -0.0930679739, -1.55797708 , 0.01213161  , 0.0183351226, 921.085449  , 31.3859234  , 797.5377    , 3.32        , 19          , 255         , 0           , 0
0.1019292   , 9.830171    , -0.125807777, 0.0171491913, 0.000669722562, -0.100826569, -1.55780578 , 0.0111235343, 0.0183154121, 921.0341    , 31.385313   , 797.5377    , 3.33        , 19          , 255         , 0           , 0
0.0554266572, 9.939237    , -0.135294363, 0.0129333595, 0.000676564639, -0.07756048 , -1.55767667 , 0.0103481011, 0.0182985179, 921.0341    , 31.385313   , 797.5377    , 3.34        , 19          , 255         , 0           , 0
0.0342178978, 9.970414    , -0.129899636, 0.005348782 , -0.0002502295, -0.03319196 , -1.55762327 , 0.0100161843, 0.01829666  , 921.0341    , 31.385313   , 797.5378    , 3.35        , 19          , 255         , 0           , 0
0.0325245038, 9.95475     , -0.13338387 , -0.000940501, -0.00043342245, 0.0138870031, -1.55763257 , 0.010154984 , 0.0183028225, 921.0341    , 31.385313   , 797.537842  , 3.36        , 19          , 255         , 0           , 0
0.0489931367, 9.91036     , -0.133628637, -0.00741198659, -0.000421339064, 0.0525086224, -1.55770648 , 0.0106799556, 0.01831393  , 921.0341    , 31.385313   , 797.5379    , 3.37        , 19          , 255         , 0           , 0
0.101994418 , 9.847678    , -0.134002954, -0.0109451171, -0.0002005494, 0.0684794262, -1.55781579 , 0.01136465  , 0.0183248613, 921.0341    , 31.385313   , 797.537964  , 3.38        , 19          , 255         , 0           , 0
0.1363785   , 9.733937    , -0.12499734 , -0.010023444, -0.000771144, 0.0610140078, -1.55791593 , 0.0119746262, 0.0183404628, 921.0341    , 31.385313   , 797.538     , 3.39        , 19          , 255         , 0           , 0
0.153925955 , 9.67082     , -0.120657012, -0.00637921 , -0.0006180648, 0.0365072154, -1.5579797  , 0.0123395808, 0.0183513332, 921.0341    , 31.385313   , 797.5381    , 3.4         , 19          , 255         , 0           , 0
