Acc X       , Acc Y       , Acc Z       , Gyro X      , Gyro Y      , Gyro Z      , Euler X     , Euler Y     , Euler Z     , Pres X      , Pres Y      , Pres Z      , Time        , Status      , LowRate X   , LowRate Y   , LowRate Z    
-0.145546556, 9.78560448  , 0.146428019 , 0           , 0           , 0           , -1.58575881 , -0.0148707759, 0           , 923.6775    , 26.8752441  , 773.9724    , 0           , 2           , 0           , 5.447232    , 0
-0.150489   , 9.790839    , 0.1403931   , -0.0004891434, 0.000162408687, 0.000170574436, -1.58576381 , -0.0148692783, -1.64815731E-06, 923.6775    , 26.8752441  , 773.9724    , 0.01        , 3           , 1           , 0           , 0
-0.147748262, 9.797562    , 0.14493385  , 0.000246387441, 2.745993E-05, -0.000179940354, -1.58576131 , -0.0148710823, -1.8963824E-06, 923.6775    , 26.8752441  , 773.9724    , 0.02        , 3           , 2           , 0           , 0
-0.145902187, 9.793932    , 0.139161676 , -0.00041599432, -0.0008260528, -0.0001365497, -1.58576548 , -0.0148723228, 6.38352549E-06, 923.6621    , 26.45727    , 773.9724    , 0.03        , 3           , 3           , 0           , 0
-0.137457371, 9.790795    , 0.141010642 , -0.00122437452, -4.775147E-05, 0.0005682497, -1.58577764 , -0.0148666333, 6.77472372E-06, 923.6621    , 26.45727    , 773.9724    , 0.04        , 3           , 4           , 0           , 0
-0.139811277, 9.79556     , 0.137050122 , -0.00130848435, -0.0007103416, 0.000372818 , -1.58579087 , -0.0148628  , 1.38218884E-05, 923.6621    , 26.45727    , 773.9724    , 0.05        , 3           , 5           , 0           , 0
-0.138560921, 9.789446    , 0.145525724 , -0.0006168268, -0.0005213797, -0.0005460022, -1.58579707 , -0.0148681812, 1.91170438E-05, 923.6621    , 26.45727    , 773.9724    , 0.06        , 3           , 6           , 0           , 0
-0.1404419  , 9.788221    , 0.143855646 , -0.00057394593, -0.0005011298, -0.000301256281, -1.58580279 , -0.0148711177, 2.41723574E-05, 923.6621    , 26.45727    , 773.9724    , 0.07        , 3           , 7           , 0           , 0
-0.144174874, 9.789035    , 0.152822614 , -0.000187540427, -0.0005712708, -6.86719E-05, -1.5858047  , -0.0148717184, 2.98955E-05 , 923.6621    , 26.45727    , 773.9724    , 0.08        , 3           , 8           , 5           , 5
-0.14646104 , 9.789158    , 0.137833923 , -0.000418814365, -0.000341452658, 1.14044233E-05, -1.58580887 , -0.0148715517, 3.33077842E-05, 923.6621    , 26.45727    , 773.9724    , 0.09        , 3           , 9           , 5           , 0.1
-0.139146879, 9.780203    , 0.147514775 , -0.000438929652, -0.000280688982, -3.595841E-05, -1.58581328 , -0.0148718692, 3.61197563E-05, 923.6621    , 26.45727    , 773.9724    , 0.1         , 3           , 10          , 0.1         , 0.1
-0.137134045, 9.792482    , 0.151808769 , -6.189349E-05, -0.0006106237, 0.0006204003, -1.58579648 , -0.0148537215, 4.187129E-05, 923.6621    , 26.45727    , 774.112549  , 0.11        , 3           , 11          , 0.0109544508, 0.0109544508
-0.145905882, 9.798512    , 0.153515518 , -0.000114672119, 2.62225512E-06, 0.000308236 , -1.58579767 , -0.0148506416, 4.179957E-05, 923.6621    , 26.45727    , 774.112549  , 0.12        , 3           , 12          , 0.174642488 , 0
-0.141774029, 9.789868    , 0.14664951  , 0.00047113793, -0.000692428264, 0.0007819574, -1.585793   , -0.0148427179, 4.860596E-05, 923.6839    , 26.4931583  , 774.112549  , 0.13        , 3           , 13          , 0           , 0
-0.142247871, 9.781836    , 0.156611934 , 8.555781E-05, -0.000207036966, -0.000439364463, -1.58579218 , -0.0148470812, 5.074312E-05, 923.6839    , 26.4931583  , 774.112549  , 0.14        , 3           , 14          , 0.001723866 , 0.00142453983
-0.1541473  , 9.785073    , 0.140817672 , 0.000600497238, -0.000455273432, -3.43126E-05, -1.58578622 , -0.0148473559, 5.53001155E-05, 923.6839    , 26.4931583  , 774.112549  , 0.15        , 3           , 15          , 0           , 0.000212481013
-0.147653759, 9.796038    , 0.145302057 , 0.0003102438, -0.0002604489, 0.0001687753, -1.58578312 , -0.0148456311, 5.787969E-05, 923.6839    , 26.4931583  , 774.112549  , 0.16        , 3           , 16          , 0           , 1.401298E-45
-0.144639611, 9.793866    , 0.153632775 , -0.0004604177, 0.000277693151, 0.000175904541, -1.58578777 , -0.0148439119, 5.50770346E-05, 923.6839    , 26.4931583  , 774.112549  , 0.17        , 3           , 20          , 0           , 0
-0.139227659, 9.790986    , 0.146775514 , -0.0002584206, 4.934077E-05, -0.000104996318, -1.58579028 , -0.01484497 , 5.45987459E-05, 923.6839    , 26.4931583  , 774.112549  , 0.18        , 3           , 21          , 0           , 0
-0.130585581, 9.788319    , 0.1458007   , 6.281189E-05, -0.000487563375, -0.000202396, -1.58578956 , -0.014846921, 5.95041056E-05, 923.6839    , 26.4931583  , 774.112549  , 0.19        , 3           , 22          , 0           , 0
-0.1400657  , 9.789648    , 0.145901531 , -0.000168189057, -0.000946685, -0.000392235059, -1.58579147 , -0.0148507  , 6.902839E-05, 923.6839    , 26.4931583  , 774.112549  , 0.2         , 3           , 40          , 0           , 0
-0.148999989, 9.783577    , 0.147472173 , -3.66009772E-05, -0.000445831334, 0.000906858535, -1.58579993 , -0.0148281837, 7.347174E-05, 923.6839    , 26.4931583  , 774.0147    , 0.21        , 3           , 41          , 0           , 0
-0.150268763, 9.78345     , 0.145505518 , 0.000159325777, -0.000262314337, 0.0006333162, -1.58579826 , -0.0148218153, 7.599961E-05, 923.6839    , 26.4931583  , 774.0148    , 0.22        , 3           , 42          , 0           , 0
-0.1438926  , 9.801646    , 0.148871765 , -0.0003721323, -0.000464983459, 0.00080532016, -1.58580208 , -0.0148136932, 8.052819E-05, 923.6838    , 26.5215836  , 774.014832  , 0.23        , 3           , 255         , 0           , 0
-0.1414504  , 9.790679    , 0.149883449 , 2.66055577E-05, -0.0005713951, 0.00103083556, -1.58580184 , -0.0148033  , 8.608646E-05, 923.6838    , 26.5215836  , 774.0149    , 0.24        , 3           , 255         , 0           , 0
-0.139757127, 9.783191    , 0.149306253 , 0.000307992334, -0.000271518133, 0.0002056634, -1.58579874 , -0.0148012042, 8.877035E-05, 923.6838    , 26.5215836  , 774.014954  , 0.25        , 3           , 255         , 0           , 0
-0.142485127, 9.7929      , 0.145245448 , -9.72411362E-05, -0.000302345376, 0.000170950036, -1.58579981 , -0.01479945 , 9.176907E-05, 923.6838    , 26.5215836  , 774.015     , 0.26        , 3           , 255         , 0           , 0
-0.15327163 , 9.789088    , 0.149872631 , -0.000247834483, -0.000227409648, 0.000312302553, -1.58580232 , -0.0147962905, 9.39965757E-05, 923.6838    , 26.5215836  , 774.0151    , 0.27        , 3           , 255         , 0           , 0
-0.151795864, 9.786313    , 0.144827783 , 0.000677391654, -0.0002533265, -2.614077E-06, -1.58579564 , -0.0147962812, 9.653051E-05, 923.6838    , 26.5215836  , 774.015137  , 0.28        , 3           , 255         , 0           , 0
-0.143149018, 9.787042    , 0.146368414 , -7.867033E-05, -0.00016899046, 0.000579777465, -1.58579648 , -0.0147904586, 9.81339545E-05, 923.6838    , 26.5215836  , 774.0152    , 0.29        , 3           , 255         , 0           , 0
-0.139995545, 9.784189    , 0.143251583 , -0.0001961682, 0.0002744242, 0.000180883144, -1.5857985  , -0.0147886919, 9.53638955E-05, 923.6838    , 26.5215836  , 774.015259  , 0.3         , 3           , 255         , 0           , 0
-0.141267076, 9.787356    , 0.148278147 , 4.4867862E-05, -0.000365137355, -7.286282E-05, -1.585799   , -0.0147924377, 9.903977E-05, 923.6838    , 26.5215836  , 773.9824    , 0.31        , 3           , 255         , 0           , 0
-0.13284561 , 9.788196    , 0.141365319 , 0.000425132 , 0.000187195255, -0.000285416, -1.58579469 , -0.01479532 , 9.721139E-05, 923.6838    , 26.5215836  , 773.9825    , 0.32        , 3           , 255         , 0           , 0
-0.147600383, 9.782438    , 0.141984954 , 0.000168478349, -0.0003590472, -0.000420249882, -1.585793   , -0.0147994682, 0.000100863981, 923.6687    , 26.5376625  , 773.982544  , 0.33        , 3           , 255         , 0           , 0
-0.1499882  , 9.793477    , 0.132890671 , -0.000327260466, -6.897317E-05, 0.000283820147, -1.58579636 , -0.0147966221, 0.000101511767, 923.6687    , 26.5376625  , 773.9826    , 0.34        , 3           , 255         , 0           , 0
-0.1470224  , 9.793959    , 0.152226791 , 0.000289930729, -0.000191288185, 0.000278944673, -1.5857935  , -0.014793803, 0.000103382532, 923.6687    , 26.5376625  , 773.982666  , 0.35        , 3           , 255         , 0           , 0
-0.142148122, 9.784444    , 0.144762546 , 9.517383E-05, -0.000339137972, 8.989668E-05, -1.58579254 , -0.014792853, 0.000106760344, 923.6687    , 26.5376625  , 773.9827    , 0.36        , 3           , 255         , 0           , 0
-0.143413648, 9.787252    , 0.152148113 , -8.449075E-06, 0.000295841135, -0.000121472731, -1.58579254 , -0.0147941122, 0.000103820312, 923.6687    , 26.5376625  , 773.9828    , 0.37        , 3           , 255         , 0           , 0
-0.143946782, 9.790738    , 0.147622973 , 9.673287E-05, 3.00165266E-05, 8.66723858E-05, -1.58579147 , -0.0147932526, 0.000103506412, 923.6687    , 26.5376625  , 773.982849  , 0.38        , 3           , 255         , 0           , 0
-0.143343478, 9.795711    , 0.151923925 , 0.000402161852, -0.000581502158, -0.000240320485, -1.58578753 , -0.01479557 , 0.000109357621, 923.6687    , 26.5376625  , 773.9829    , 0.39        , 3           , 255         , 0           , 0
-0.1418291  , 9.783491    , 0.138293684 , -9.243679E-05, -0.0004924739, 0.000173722059, -1.58578849 , -0.0147937564, 0.000114256458, 923.6687    , 26.5376625  , 773.983     , 0.4         , 3           , 255         , 0           , 0
-0.138875827, 9.78914452  , 0.138390884 , -0.000100594596, -0.0004342657, -0.000492623367, -1.58578157 , -0.0147914905, 0.000118553573, 923.6687    , 26.5376625  , 774.0006    , 0.41        , 3           , 255         , 0           , 0
-0.142775014, 9.793       , 0.13326177  , -6.174436E-05, -0.00055966276, 0.000221656548, -1.58578229 , -0.0147891911, 0.000124116967, 923.6687    , 26.5376625  , 774.0007    , 0.42        , 3           , 255         , 0           , 0
-0.13941066 , 9.796907    , 0.141436979 , 0.000330217415, -0.000265358132, 0.0008732199, -1.58577907 , -0.0147804208, 0.000126639716, 923.715637  , 26.5488567  , 774.000732  , 0.43        , 3           , 255         , 0           , 0
-0.1410009  , 9.791399    , 0.143863633 , -0.0001761918, -0.0003832851, 0.000514717365, -1.58578074 , -0.0147752175, 0.000130394736, 923.715637  , 26.5488567  , 774.0008    , 0.44        , 3           , 255         , 0           , 0
-0.138423473, 9.794326    , 0.149344563 , -0.000493847765, -0.0006750441, -0.000477154565, -1.58578587 , -0.0147798881, 0.0001372165, 923.715637  , 26.5488567  , 774.000854  , 0.45        , 3           , 255         , 0           , 0
-0.14632526 , 9.794247    , 0.148546666 , -0.000257038046, -0.000262431, 0.000380215643, -1.58578837 , -0.0147760464, 0.0001397835, 923.715637  , 26.5488567  , 774.0009    , 0.46        , 3           , 255         , 0           , 0
-0.157494724, 9.787917    , 0.148189932 , -0.000351948664, 0.00048193743, 0.000153697445, -1.58579183 , -0.0147745823, 0.0001349415, 923.715637  , 26.5488567  , 774.001     , 0.47        , 3           , 255         , 0           , 0
-0.153796822, 9.792028    , 0.1484679   , -0.0005779123, 0.000143298646, 0.000827109558, -1.58579767 , -0.0147663327, 0.000133385081, 923.715637  , 26.5488567  , 774.001038  , 0.48        , 3           , 255         , 0           , 0
-0.141994864, 9.790033    , 0.147579461 , -7.289508E-05, -0.000416268245, 0.0007224625, -1.58579838 , -0.0147590488, 0.000137439536, 923.715637  , 26.5488567  , 774.0011    , 0.49        , 3           , 255         , 0           , 0
-0.139585108, 9.794947    , 0.145725518 , -0.0003511781, 0.000135626411, 0.0006224824, -1.58580184 , -0.0147528453, 0.000135989772, 923.715637  , 26.5488567  , 774.00116   , 0.5         , 3           , 255         , 0           , 0
-0.134843856, 9.79192352  , 0.15328829  , 8.971919E-05, 9.383843E-05, 0.0005786313, -1.58579338 , -0.01474447 , 0.000134850154, 923.715637  , 26.5488567  , 773.925354  , 0.51        , 3           , 255         , 0           , 0
-0.146907434, 9.80456352  , 0.147919178 , 0.0005148781, -3.59585974E-05, 0.000798243 , -1.58578825 , -0.0147364819, 0.000135090449, 923.715637  , 26.5488567  , 773.9254    , 0.52        , 3           , 255         , 0           , 0
-0.145963147, 9.794534    , 0.144681543 , 0.0009374629, -0.000179392635, -1.16229494E-05, -1.585779   , -0.0147365723, 0.000136886229, 923.6758    , 26.558897   , 773.9255    , 0.53        , 3           , 255         , 0           , 0
-0.150083587, 9.787186    , 0.145865828 , 0.0006998227, -0.000269326847, 0.000272579724, -1.58577192 , -0.0147338053, 0.00013953798, 923.6758    , 26.558897   , 773.925537  , 0.54        , 3           , 255         , 0           , 0
-0.1456738  , 9.78239     , 0.139322966 , 0.000208297861, 0.0002644962, 0.000366651075, -1.58576989 , -0.01473018 , 0.000136839182, 923.6758    , 26.558897   , 773.9256    , 0.55        , 3           , 255         , 0           , 0
-0.140285045, 9.786743    , 0.139374226 , 0.000153511646, 7.65071E-05 , 0.0002564721, -1.58576834 , -0.0147276269, 0.000136035829, 923.6758    , 26.558897   , 773.925659  , 0.56        , 3           , 255         , 0           , 0
-0.13844505 , 9.79455     , 0.140649289 , -0.000580338645, -2.51666643E-06, -0.000172605884, -1.58577418 , -0.0147293545, 0.0001360875, 923.6758    , 26.558897   , 773.9257    , 0.57        , 3           , 255         , 0           , 0
-0.136971787, 9.788641    , 0.149106175 , -0.000158896786, -0.000440232223, -9.494594E-05, -1.58577573 , -0.0147302384, 0.000140502452, 923.6758    , 26.558897   , 773.9258    , 0.58        , 3           , 255         , 0           , 0
-0.147443369, 9.786145    , 0.138461888 , -0.000257455627, -0.0002612311, -0.000489970436, -1.58577824 , -0.0147350961, 0.000143188241, 923.6758    , 26.558897   , 773.925842  , 0.59        , 3           , 255         , 0           , 0
-0.152665526, 9.780812    , 0.1530127   , 0.000277182437, -0.000379369361, 7.034399E-05, -1.58577549 , -0.0147343352, 0.000146970735, 923.6758    , 26.558897   , 773.9259    , 0.6         , 3           , 255         , 0           , 0
-0.145884767, 9.786504    , 0.144924849 , 0.0003463294, -0.0006388755, 0.0006603402, -1.58576643 , -0.0147263743, 0.000153174944, 923.6758    , 26.558897   , 773.936951  , 0.61        , 3           , 255         , 0           , 0
-0.149592564, 9.785897    , 0.148779109 , 6.08962728E-05, -3.091921E-05, -0.000405813684, -1.58576572 , -0.0147304274, 0.000153543791, 923.6758    , 26.558897   , 773.937     , 0.62        , 3           , 255         , 0           , 0
-0.150148243, 9.800141    , 0.136974066 , 0.000349223032, -0.000106730266, -0.0004155605, -1.58576214 , -0.0147345662, 0.000154673151, 923.710144  , 26.5627651  , 773.9371    , 0.63        , 3           , 255         , 0           , 0
-0.145316735, 9.791751    , 0.142518789 , 2.013531E-05, -0.000278035761, -0.0005552894, -1.585762   , -0.0147400768, 0.000157536342, 923.710144  , 26.5627651  , 773.937134  , 0.64        , 3           , 255         , 0           , 0
-0.149043277, 9.790662    , 0.146223456 , -0.000143629033, -9.553949E-05, -2.38337088E-05, -1.58576345 , -0.0147402994, 0.000158495255, 923.710144  , 26.5627651  , 773.9372    , 0.65        , 3           , 255         , 0           , 0
-0.153432965, 9.792038    , 0.152796328 , 0.0003585372, -0.0002310758, 0.00022848176, -1.58576    , -0.0147379814, 0.000160772135, 923.710144  , 26.5627651  , 773.937256  , 0.66        , 3           , 255         , 0           , 0
-0.142912626, 9.798583    , 0.13871786  , 0.000408653519, -0.000119487173, -0.000368788722, -1.585756   , -0.01474165 , 0.000162022581, 923.710144  , 26.5627651  , 773.9373    , 0.67        , 3           , 255         , 0           , 0
-0.142042875, 9.79441     , 0.1439468   , 4.47666971E-05, -0.000117936404, 0.000168600658, -1.58575547 , -0.0147399465, 0.000163175675, 923.710144  , 26.5627651  , 773.9374    , 0.68        , 3           , 255         , 0           , 0
-0.144164175, 9.78367     , 0.141161337 , 0.000246777316, -0.000149905449, 0.000636826036, -1.585753   , -0.0147335585, 0.000164579309, 923.710144  , 26.5627651  , 773.937439  , 0.69        , 3           , 255         , 0           , 0
-0.144796655, 9.788112    , 0.149254754 , -0.000477922149, -0.000564894464, 0.0009763547, -1.58575773 , -0.0147237107, 0.0001700817, 923.710144  , 26.5627651  , 773.937561  , 0.7         , 3           , 255         , 0           , 0
-0.148962408, 9.788834    , 0.141016856 , 1.39930053E-05, -0.0002936219, 0.000502276933, -1.5857507  , -0.0147268064, 0.000172839616, 923.710144  , 26.5627651  , 773.89856   , 0.71        , 3           , 255         , 0           , 0
-0.145193428, 9.780741    , 0.145375684 , -4.05767933E-05, -0.000674362644, -0.000264502218, -1.585751   , -0.01472935 , 0.000179621784, 923.710144  , 26.5627651  , 773.8986    , 0.72        , 3           , 255         , 0           , 0
-0.143473342, 9.784337    , 0.14253597  , 0.000181946321, -0.000306338537, 0.000506181037, -1.58574915 , -0.0147242425, 0.000182608856, 923.6365    , 26.5688019  , 773.8987    , 0.73        , 3           , 255         , 0           , 0
-0.1393759  , 9.780155    , 0.152624965 , -0.000159939867, -0.000359411584, -2.93002668E-05, -1.58575082 , -0.0147244809, 0.000186206482, 923.6365    , 26.5688019  , 773.898743  , 0.74        , 3           , 255         , 0           , 0
-0.134114787, 9.787161    , 0.146606117 , -0.000137077644, -3.40141123E-05, 0.000492107356, -1.58575225 , -0.0147195579, 0.000186472374, 923.6365    , 26.5688019  , 773.8988    , 0.75        , 3           , 255         , 0           , 0
-0.143711358, 9.790911    , 0.1451329   , -0.0007798651, -0.000393269118, -0.0004449995, -1.58576    , -0.0147239482, 0.000190472376, 923.6365    , 26.5688019  , 773.898865  , 0.76        , 3           , 255         , 0           , 0
-0.142286032, 9.790117    , 0.142582119 , -0.0004102519, -0.0003489101, -0.0003282535, -1.58576429 , -0.014727179, 0.000194009932, 923.6365    , 26.5688019  , 773.8989    , 0.77        , 3           , 255         , 0           , 0
-0.137521863, 9.787201    , 0.14438504  , -0.000291826669, -0.0006019859, -0.0002220058, -1.58576715 , -0.0147293061, 0.000200062364, 923.6365    , 26.5688019  , 773.899     , 0.78        , 3           , 255         , 0           , 0
-0.1526467  , 9.788462    , 0.139371619 , 0.000122479163, 0.000119797187, -0.000170946762, -1.585766   , -0.0147310356, 0.000198891066, 923.6365    , 26.5688019  , 773.899048  , 0.79        , 3           , 255         , 0           , 0
-0.148061633, 9.791746    , 0.152522117 , 0.00018310349, 3.19385435E-06, 9.59242E-05 , -1.585764   , -0.0147300763, 0.0001988445, 923.6365    , 26.5688019  , 773.8991    , 0.8         , 3           , 255         , 0           , 0
-0.144771129, 9.790541    , 0.152492791 , -0.000189116108, -2.78450316E-05, -0.000122698868, -1.58576024 , -0.014728535, 0.0001990569, 923.6365    , 26.5688019  , 773.9607    , 0.81        , 3           , 255         , 0           , 0
-0.139287472, 9.787165    , 0.15200752  , -0.000324236578, 0.000221265131, -0.000565060764, -1.58576345 , -0.0147342179, 0.000196929526, 923.6365    , 26.5688019  , 773.9608    , 0.82        , 3           , 255         , 0           , 0
-0.136455446, 9.796452    , 0.156311825 , -0.000458399649, -9.815523E-05, 0.0004256558, -1.5857681  , -0.0147299487, 0.000197847417, 923.6795    , 26.5721264  , 773.960938  , 0.83        , 3           , 255         , 0           , 0
-0.141524151, 9.792166    , 0.15038839  , 0.000137395342, -0.000628198963, 0.0004667443, -1.58576679 , -0.0147251869, 0.000204060008, 923.6795    , 26.5721264  , 773.96106   , 0.84        , 3           , 255         , 0           , 0
-0.154874519, 9.791878    , 0.148600355 , 0.000701262732, -0.000401726458, 0.000579320767, -1.58575976 , -0.0147193354, 0.00020798968, 923.6795    , 26.5721264  , 773.9612    , 0.85        , 3           , 255         , 0           , 0
-0.146289572, 9.787374    , 0.146748587 , 0.00100797007, -0.000502899056, 0.00040088332, -1.58574975 , -0.0147152506, 0.00021295881, 923.6795    , 26.5721264  , 773.9613    , 0.86        , 3           , 255         , 0           , 0
-0.149061039, 9.779014    , 0.15207088  , 0.0007202005, -0.000188985257, -0.000488065562, -1.58574259 , -0.0147201037, 0.000214921791, 923.6795    , 26.5721264  , 773.9614    , 0.87        , 3           , 255         , 0           , 0
-0.140098676, 9.791557    , 0.140405685 , 0.000118631171, 0.000260932371, -0.0005069582, -1.5857414  , -0.0147252111, 0.000212388331, 923.6795    , 26.5721264  , 773.961548  , 0.88        , 3           , 255         , 0           , 0
-0.1340936  , 9.78517151  , 0.147308    , -1.365121E-05, 0.000212214654, 0.000353968353, -1.58574164 , -0.0147217046, 0.000210213431, 923.6795    , 26.5721264  , 773.9617    , 0.89        , 3           , 255         , 0           , 0
-0.143631488, 9.783155    , 0.138501883 , 5.02347248E-05, -8.885923E-05, 0.000477806083, -1.585741   , -0.014716913, 0.000211031234, 923.6795    , 26.5721264  , 773.961853  , 0.9         , 3           , 255         , 0           , 0
-0.145372584, 9.781738    , 0.1482768   , 7.391209E-07, -0.0004482707, 0.000805513 , -1.58574891 , -0.0147043495, 0.000215508073, 923.6795    , 26.5721264  , 773.961548  , 0.91        , 3           , 255         , 0           , 0
-0.143439919, 9.789372    , 0.134352192 , -0.0002992676, -0.0006917037, 7.13200861E-05, -1.585752   , -0.0147035336, 0.0002224141, 923.6795    , 26.5721264  , 773.961731  , 0.92        , 3           , 255         , 0           , 0
-0.136716112, 9.789128    , 0.147341371 , 6.25888351E-05, -0.000710980967, -0.00104523089, -1.5857513  , -0.0147138778, 0.000229679223, 923.6564    , 26.5744324  , 773.9619    , 0.93        , 3           , 255         , 0           , 0
-0.14928861 , 9.781913    , 0.143214434 , -0.0004795529, -0.000309211551, -0.000791927, -1.58575618 , -0.0147217484, 0.0002328894, 923.6564    , 26.5744324  , 773.9621    , 0.94        , 3           , 255         , 0           , 0
-0.146571159, 9.787636    , 0.145672143 , -0.000304903835, 0.000240574474, -0.0005756028, -1.58575916 , -0.01472754 , 0.000230570178, 923.6564    , 26.5744324  , 773.9623    , 0.95        , 3           , 255         , 0           , 0
-0.14077282 , 9.79676     , 0.131759509 , 0.000364360865, 0.00016418891, 5.720956E-05, -1.58575559 , -0.0147269908, 0.000228919715, 923.6564    , 26.5744324  , 773.962463  , 0.96        , 3           , 255         , 0           , 0
-0.149282768, 9.79112148  , 0.139647409 , 0.000551384641, -2.06616241E-05, 0.000839208 , -1.5857501  , -0.0147185968, 0.000229002122, 923.6564    , 26.5744324  , 773.962646  , 0.97        , 3           , 255         , 0           , 0
-0.146003619, 9.792085    , 0.142929986 , 0.0005485588, -0.0005089955, 7.814278E-05, -1.58574462 , -0.0147177391, 0.000234080231, 923.6564    , 26.5744324  , 773.9628    , 0.98        , 3           , 255         , 0           , 0
-0.147948131, 9.793211    , 0.146040171 , -0.000186533667, -0.0006015154, -0.000380809535, -1.58574653 , -0.0147214569, 0.0002401517, 923.6564    , 26.5744324  , 773.963     , 0.99        , 3           , 255         , 0           , 0
-0.140863031, 9.79492     , 0.140080109 , 0.0008760544, -0.000137187424, 9.330055E-05, -1.58573782 , -0.0147205032, 0.000241509741, 923.6564    , 26.5744324  , 773.9632    , 1           , 3           , 0           , 6.44723654  , 100
-0.132492572, 9.7796545   , 0.154892087 , 8.225988E-05, -0.000354963238, 7.58482056E-05, -1.58572137 , -0.0147212045, 0.0002448182, 923.6564    , 26.5744324  , 773.9878    , 1.01        , 3           , 1           , 0           , 0
-0.134816438, 9.793676    , 0.14210625  , -0.0005646333, -0.000229649129, -0.000289334974, -1.585727   , -0.0147240628, 0.00024715747, 923.6564    , 26.5744324  , 773.988037  , 1.02        , 3           , 2           , 0           , 0
-0.142233521, 9.794952    , 0.142108917 , -0.0002273462, -0.0001727104, 0.000520211237, -1.58572924 , -0.014718838, 0.000248806522, 923.6536    , 26.5772152  , 773.9883    , 1.03        , 3           , 3           , 0           , 0
-0.151619479, 9.793286    , 0.134659529 , -0.000139186741, -0.0006360933, -1.31393754E-05, -1.58573067 , -0.0147188744, 0.0002551686, 923.6536    , 26.5772152  , 773.9885    , 1.04        , 3           , 4           , 0           , 0
-0.147038117, 9.790183    , 0.1451955   , -0.000549973571, -0.000440010452, -0.000107398, -1.58573616 , -0.014719882, 0.000259584485, 923.6536    , 26.5772152  , 773.9888    , 1.05        , 3           , 5           , 0           , 0
-0.145803973, 9.791423    , 0.148390859 , -0.000233727973, -0.000200179988, 0.000545377 , -1.58573854 , -0.0147143994, 0.000261504145, 923.6536    , 26.5772152  , 773.989     , 1.06        , 3           , 6           , 0           , 0
-0.14170827 , 9.781945    , 0.149327144 , -0.0005258819, -0.000413646339, -9.510636E-05, -1.58574378 , -0.01471529 , 0.000265653653, 923.6536    , 26.5772152  , 773.989258  , 1.07        , 3           , 7           , 0           , 0
-0.138458341, 9.787615    , 0.141582564 , 0.000369145419, -0.000439386233, 0.0001919983, -1.58574021 , -0.0147133041, 0.0002700178, 923.6536    , 26.5772152  , 773.9895    , 1.08        , 3           , 8           , 5           , 5
-0.13662605 , 9.788908    , 0.146132916 , -0.000328162452, -0.000218993053, -0.0003540021, -1.58574355 , -0.0147168124, 0.000272261124, 923.6536    , 26.5772152  , 773.989746  , 1.09        , 3           , 9           , 5           , 0.1
-0.143804818, 9.792692    , 0.137704536 , -0.0004460296, -7.56419E-05, -0.000260650238, -1.585748   , -0.014719408, 0.0002730561, 923.6536    , 26.5772152  , 773.99      , 1.1         , 3           , 10          , 0.1         , 0.1
-0.1469498  , 9.788718    , 0.143074036 , 9.824778E-05, -0.000431516673, 0.0005776343, -1.58574009 , -0.014704491, 0.0002771818, 923.6536    , 26.5772152  , 774.0138    , 1.11        , 3           , 11          , 0.008887986 , 0.008887986
-0.141160354, 9.79062748  , 0.139365882 , 0.000198430149, -2.65906565E-05, 0.0005719872, -1.58573806 , -0.0146987662, 0.000277362 , 923.6536    , 26.5772152  , 774.0141    , 1.12        , 3           , 12          , 0.174642846 , 0
-0.145303085, 9.781389    , 0.1462506   , -0.0002125419, 1.05291838E-05, 0.0006046768, -1.58574021 , -0.0146927228, 0.0002771669, 923.6565    , 26.5795212  , 774.0144    , 1.13        , 3           , 13          , 0           , 0
-0.142986059, 9.787195    , 0.1446403   , -7.502001E-05, 5.696551E-06, -5.13409468E-05, -1.58574092 , -0.0146932378, 0.00027711704, 923.6565    , 26.5795212  , 774.0147    , 1.14        , 3           , 14          , 0.00172382675, 0.0014245396
-0.130379111, 9.788706    , 0.139149055 , -0.0009084043, -0.000411757967, 0.000266053074, -1.58575    , -0.0146905147, 0.000281194341, 923.6565    , 26.5795212  , 774.015     , 1.15        , 3           , 15          , 0           , 0.000212463623
-0.144996718, 9.795483    , 0.144792587 , -0.000326983863, -0.0006391087, 0.0004924427, -1.58575332 , -0.0146854976, 0.000287510746, 923.6565    , 26.5795212  , 774.0153    , 1.16        , 3           , 16          , 0           , 1.401298E-45
-0.147077054, 9.791408    , 0.137171224 , 3.327313E-05, -0.0005181055, 0.000172408341, -1.585753   , -0.0146836964, 0.000292666169, 923.6565    , 26.5795212  , 774.0156    , 1.17        , 3           , 20          , 0           , 0
-0.147384644, 9.783931    , 0.139274716 , -0.000768348342, -0.0001224163, -2.02273222E-05, -1.58576059 , -0.0146838808, 0.000293893332, 923.6565    , 26.5795212  , 774.0159    , 1.18        , 3           , 21          , 0           , 0
-0.138240471, 9.777716    , 0.137771025 , 4.959805E-05, -0.000493323663, -0.000571291137, -1.58576024 , -0.0146895191, 0.000298911851, 923.6565    , 26.5795212  , 774.016235  , 1.19        , 3           , 22          , 0           , 0
-0.142605692, 9.788953    , 0.148433447 , 0.000326875946, -0.000175558147, -0.0006896355, -1.5857569  , -0.0146963857, 0.000300770072, 923.6565    , 26.5795212  , 774.016541  , 1.2         , 3           , 40          , 0           , 0
-0.140581936, 9.791576    , 0.147950724 , 0.000101901242, 5.50888944E-05, 1.87808182E-05, -1.58573854 , -0.01469176 , 0.0002999616, 923.6565    , 26.5795212  , 774.033936  , 1.21        , 3           , 41          , 0           , 0
-0.151874036, 9.786707    , 0.143342346 , -0.000684879138, -0.00019545923, -1.10007386E-05, -1.58574533 , -0.0146918409, 0.000301917142, 923.6565    , 26.5795212  , 774.0343    , 1.22        , 3           , 42          , 0           , 0
-0.149948016, 9.78972149  , 0.133458778 , -0.000295113423, -0.000476660032, -0.000121742909, -1.58574831 , -0.0146929892, 0.0003067018, 923.6648    , 26.580471   , 774.034668  , 1.23        , 3           , 255         , 0           , 0
-0.145920485, 9.793917    , 0.146798372 , -0.00018819503, -0.000212308834, 0.000187539932, -1.58575022 , -0.0146910818, 0.0003087966, 923.6648    , 26.580471   , 774.035034  , 1.24        , 3           , 255         , 0           , 0
-0.140796483, 9.778972    , 0.1492072   , -0.000201991526, -0.000661568251, 0.000679683348, -1.58575225 , -0.0146841882, 0.00031531  , 923.6648    , 26.580471   , 774.0354    , 1.25        , 3           , 255         , 0           , 0
-0.12846671 , 9.79213     , 0.146397859 , 0.000284726615, -0.0002901837, 0.000263670023, -1.58574951 , -0.0146815078, 0.000318171777, 923.6648    , 26.580471   , 774.035767  , 1.26        , 3           , 255         , 0           , 0
-0.140518144, 9.79550648  , 0.14435403  , 0.0002858549, -0.0005556072, -4.456147E-05, -1.58574665 , -0.01468187 , 0.0003237338, 923.6648    , 26.580471   , 774.036133  , 1.27        , 3           , 255         , 0           , 0
-0.142803743, 9.79101     , 0.151392549 , -0.0002331388, -0.0003026633, -0.000426181534, -1.585749   , -0.0146860862, 0.000326823327, 923.6648    , 26.580471   , 774.0365    , 1.28        , 3           , 255         , 0           , 0
-0.154430538, 9.790094    , 0.139899731 , -0.00029927725, -0.000408837455, -0.0005971851, -1.585752   , -0.0146919973, 0.00033100124, 923.6648    , 26.580471   , 774.036865  , 1.29        , 3           , 255         , 0           , 0
-0.1459516  , 9.789137    , 0.148423642 , 0.0005588174, -0.000314306584, -2.65186827E-05, -1.58574653 , -0.0146922152, 0.000334148528, 923.6648    , 26.580471   , 774.037231  , 1.3         , 3           , 255         , 0           , 0
-0.1499672  , 9.797845    , 0.142152891 , 0.000208602985, 2.96225771E-05, -0.000289965072, -1.58574057 , -0.0146960951, 0.000333837932, 923.6648    , 26.580471   , 774.0438    , 1.31        , 3           , 255         , 0           , 0
-0.147072047, 9.807293    , 0.149467438 , 0.000334501965, -0.000268589472, -0.000256960135, -1.58573735 , -0.0146986227, 0.000336560974, 923.6648    , 26.580471   , 774.0442    , 1.32        , 3           , 255         , 0           , 0
-0.142322212, 9.78272     , 0.134186953 , 8.922245E-05, -0.000145522645, 6.958148E-05, -1.58573651 , -0.0146979056, 0.0003380056, 923.68      , 26.583252   , 774.044556  , 1.33        , 3           , 255         , 0           , 0
-0.140620679, 9.793695    , 0.1476765   , 0.0005133585, -0.000410421868, 0.000321295345, -1.58573139 , -0.014694632, 0.000342061 , 923.68      , 26.583252   , 774.0449    , 1.34        , 3           , 255         , 0           , 0
-0.1458357  , 9.791283    , 0.13551417  , 0.000319743529, -0.000152803957, -0.000732352841, -1.58572817 , -0.0147019336, 0.000343698455, 923.68      , 26.583252   , 774.0453    , 1.35        , 3           , 255         , 0           , 0
-0.153250709, 9.789568    , 0.1433703   , -0.000304544228, -3.751472E-05, -0.000280668843, -1.58573127 , -0.0147047332, 0.000344115251, 923.68      , 26.583252   , 774.0457    , 1.36        , 3           , 255         , 0           , 0
-0.152499422, 9.79233     , 0.146997377 , -0.000391917885, 0.000301018939, 7.163476E-05, -1.585735   , -0.0147040617, 0.0003410937, 923.68      , 26.583252   , 774.046143  , 1.37        , 3           , 255         , 0           , 0
-0.147909313, 9.785166    , 0.152842551 , 3.055751E-05, -0.000621310959, -8.612551E-06, -1.58573472 , -0.0147040533, 0.000347308232, 923.68      , 26.583252   , 774.0466    , 1.38        , 3           , 255         , 0           , 0
-0.139158323, 9.79069     , 0.137168467 , 0.0001064199, -0.0006796746, 0.0004931097, -1.58573377 , -0.0146990232, 0.0003540307, 923.68      , 26.583252   , 774.047     , 1.39        , 3           , 255         , 0           , 0
-0.139124781, 9.791533    , 0.150901318 , -0.000175833353, -0.0005663286, 0.000122830577, -1.58573556 , -0.01469771 , 0.000359675149, 923.68      , 26.583252   , 774.0474    , 1.4         , 3           , 255         , 0           , 0
-0.13445583 , 9.783878    , 0.143422872 , -0.000104823965, -0.000409516273, -0.0008011955, -1.58573115 , -0.0147101488, 0.000363808882, 923.68      , 26.583252   , 774.037231  , 1.41        , 3           , 255         , 0           , 0
-0.1485371  , 9.79101     , 0.140500024 , -0.000151359127, -0.000559416541, -0.000422970363, -1.5857327  , -0.014714295, 0.000369465881, 923.68      , 26.583252   , 774.0376    , 1.42        , 3           , 255         , 0           , 0
-0.146746382, 9.777011    , 0.13308996  , -0.00113789737, -0.0005564758, 0.000257990352, -1.58574414 , -0.0147116315, 0.000374992 , 923.7083    , 26.5856953  , 774.037964  , 1.43        , 3           , 255         , 0           , 0
-0.14906396 , 9.790069    , 0.145274654 , -0.0011324404, -0.0006801356, 0.0005348716, -1.58575559 , -0.0147061814, 0.0003817136, 923.7083    , 26.5856953  , 774.0383    , 1.44        , 3           , 255         , 0           , 0
-0.146810859, 9.787186    , 0.138852671 , 4.180253E-05, -0.0005668651, -0.00043431524, -1.58575535 , -0.0147104394, 0.000387446984, 923.7083    , 26.5856953  , 774.0387    , 1.45        , 3           , 255         , 0           , 0
-0.136497349, 9.783592    , 0.13710992  , -1.44726364E-05, -0.0006078003, 6.346716E-05, -1.58575547 , -0.0147097139, 0.0003935143, 923.7083    , 26.5856953  , 774.039063  , 1.46        , 3           , 255         , 0           , 0
-0.142165735, 9.797094    , 0.139827743 , 0.000168317 , -3.73170478E-05, -0.000450433756, -1.5857538  , -0.0147142112, 0.0003939549, 923.7083    , 26.5856953  , 774.0394    , 1.47        , 3           , 255         , 0           , 0
-0.1438239  , 9.792679    , 0.1525506   , -0.000153844827, -0.000328309019, 3.92461661E-05, -1.58575535 , -0.01471377 , 0.0003972316, 923.7083    , 26.5856953  , 774.0398    , 1.48        , 3           , 255         , 0           , 0
-0.156280711, 9.788839    , 0.143172    , -0.000406541745, -0.0005314252, -0.000319017447, -1.5857594  , -0.01471688 , 0.000402593345, 923.7083    , 26.5856953  , 774.040161  , 1.49        , 3           , 255         , 0           , 0
-0.15422599 , 9.793606    , 0.14053826  , -4.97418223E-05, -0.00039542513, 9.295298E-05, -1.58576    , -0.0147158923, 0.000406533742, 923.7083    , 26.5856953  , 774.0405    , 1.5         , 3           , 255         , 0           , 0
-0.135336131, 9.788195    , 0.141464442 , 0.000785955461, -0.000279936357, 0.0001530127, -1.5857358  , -0.0147204036, 0.000409067754, 923.7083    , 26.5856953  , 774.0013    , 1.51        , 3           , 255         , 0           , 0
-0.14115347 , 9.775277    , 0.1470265   , -0.000172594562, -8.195371E-05, 9.390879E-05, -1.58573747 , -0.0147194536, 0.000409873377, 923.7083    , 26.5856953  , 774.001465  , 1.52        , 3           , 255         , 0           , 0
-0.133750036, 9.786684    , 0.14368704  , 0.000246230047, -9.791367E-05, -0.00031530796, -1.58573508 , -0.01472259 , 0.00041089888, 923.6749    , 26.5861015  , 774.001648  , 1.53        , 3           , 255         , 0           , 0
-0.1372507  , 9.79057     , 0.141864374 , -0.000199912349, -0.000426233746, -0.00010074881, -1.58573711 , -0.014723531, 0.0004151765, 923.6749    , 26.5861015  , 774.001831  , 1.54        , 3           , 255         , 0           , 0
-0.145320982, 9.78737     , 0.14003849  , 8.032797E-05, -0.000502538751, 0.000411274785, -1.58573627 , -0.0147193475, 0.000420139 , 923.6749    , 26.5861015  , 774.002     , 1.55        , 3           , 255         , 0           , 0
-0.146011084, 9.79210949  , 0.139901385 , -0.000214319327, -0.000470885774, -0.000235454179, -1.58573854 , -0.0147216311, 0.0004248828, 923.6749    , 26.5861015  , 774.0022    , 1.56        , 3           , 255         , 0           , 0
-0.134259626, 9.785189    , 0.147828728 , 0.0003239347, -0.0002469673, -0.000268663716, -1.58573532 , -0.0147242779, 0.0004273926, 923.6749    , 26.5861015  , 774.0024    , 1.57        , 3           , 255         , 0           , 0
-0.141516775, 9.800701    , 0.139796421 , 0.000110866618, -0.0005148268, -5.782726E-05, -1.58573425 , -0.0147247789, 0.000432548957, 923.6749    , 26.5861015  , 774.002563  , 1.58        , 3           , 255         , 0           , 0
-0.14076215 , 9.793093    , 0.142974675 , -0.000274009653, 0.000142481411, 0.000442624325, -1.58573687 , -0.0147203756, 0.000431057735, 923.6749    , 26.5861015  , 774.002747  , 1.59        , 3           , 255         , 0           , 0
-0.14774929 , 9.785689    , 0.142456591 , -0.0007789874, -0.0002784409, 0.00012311594, -1.58574474 , -0.0147191044, 0.0004338235, 923.6749    , 26.5861015  , 774.0029    , 1.6         , 3           , 255         , 0           , 0
-0.146701559, 9.797334    , 0.147234768 , -0.00044134527, -0.000345419627, 0.0005701098, -1.585738   , -0.0147011736, 0.000437025185, 923.6749    , 26.5861015  , 774.002563  , 1.61        , 3           , 255         , 0           , 0
-0.153757721, 9.786416    , 0.148270354 , 0.0001826405, -0.00065718533, 0.000190884573, -1.585736   , -0.0146991657, 0.000443567522, 923.6749    , 26.5861015  , 774.002747  , 1.62        , 3           , 255         , 0           , 0
-0.144314677, 9.789526    , 0.148977786 , 0.000126053346, -0.000775837048, 0.000313827564, -1.58573484 , -0.0146959135, 0.000451278727, 923.700745  , 26.5876617  , 774.0029    , 1.63        , 3           , 255         , 0           , 0
-0.141658276, 9.795585    , 0.141830057 , 0.000442622229, -0.000747428334, 0.000348636677, -1.58573055 , -0.0146923158, 0.0004586998, 923.700745  , 26.5876617  , 774.0031    , 1.64        , 3           , 255         , 0           , 0
-0.138047352, 9.795082    , 0.143715218 , 0.000319510465, -0.0006011352, 0.000458393333, -1.58572733 , -0.0146876415, 0.0004646423, 923.700745  , 26.5876617  , 774.0033    , 1.65        , 3           , 255         , 0           , 0
-0.136364371, 9.7929945   , 0.147441387 , 2.51645688E-05, -0.0006328323, -0.0003154593, -1.5857271  , -0.0146907009, 0.000471016945, 923.700745  , 26.5876617  , 774.0035    , 1.66        , 3           , 255         , 0           , 0
-0.150099665, 9.79361248  , 0.147997379 , -0.0005704971, -0.000188743114, -0.0003214801, -1.58573282 , -0.0146938851, 0.000472953 , 923.700745  , 26.5876617  , 774.003662  , 1.67        , 3           , 255         , 0           , 0
-0.146540284, 9.806161    , 0.1312732   , -0.0005487052, -2.5112764E-05, -2.682273E-05, -1.5857383  , -0.0146941487, 0.000473207736, 923.700745  , 26.5876617  , 774.003845  , 1.68        , 3           , 255         , 0           , 0
-0.147094071, 9.797928    , 0.138931364 , -0.00020513963, -0.000278166845, -5.668022E-05, -1.58574045 , -0.0146946739, 0.0004759978, 923.700745  , 26.5876617  , 774.0041    , 1.69        , 3           , 255         , 0           , 0
-0.142405   , 9.7946      , 0.132818222 , -6.252504E-05, -9.521854E-05, -0.0002815602, -1.585741   , -0.0146974754, 0.000476992573, 923.700745  , 26.5876617  , 774.004333  , 1.7         , 3           , 255         , 0           , 0
-0.137183279, 9.783373    , 0.152867675 , -0.0004484778, -0.0003285365, 6.4762E-05  , -1.585739   , -0.0146982949, 0.0004801715, 923.700745  , 26.5876617  , 773.975647  , 1.71        , 3           , 255         , 0           , 0
-0.1435626  , 9.773631    , 0.142160967 , -0.000192926847, -0.000394343981, 0.000568037154, -1.585741   , -0.01469256 , 0.00048402985, 923.700745  , 26.5876617  , 773.9757    , 1.72        , 3           , 255         , 0           , 0
-0.139745027, 9.782048    , 0.154004782 , 0.000220488524, -0.000722896832, -0.000424669066, -1.58573878 , -0.0146966968, 0.00049132196, 923.6629    , 26.5882721  , 773.975769  , 1.73        , 3           , 255         , 0           , 0
-0.15493837 , 9.78541851  , 0.144202068 , -0.0007885886, -0.00014194916, -0.000180664618, -1.58574665 , -0.0146984793, 0.000492767664, 923.6629    , 26.5882721  , 773.9758    , 1.74        , 3           , 255         , 0           , 0
-0.147737741, 9.778544    , 0.145897776 , -0.000633583637, -4.61249147E-05, 6.811645E-05, -1.585753   , -0.0146977939, 0.0004932189, 923.6629    , 26.5882721  , 773.9759    , 1.75        , 3           , 255         , 0           , 0
-0.136667058, 9.793426    , 0.14536199  , -0.0002745482, -0.000162429991, -8.638132E-05, -1.58575571 , -0.0146986339, 0.0004948558, 923.6629    , 26.5882721  , 773.975952  , 1.76        , 3           , 255         , 0           , 0
-0.138431832, 9.792086    , 0.145568043 , -0.000441056443, -0.00073390326, -0.0003390382, -1.58576024 , -0.0147019122, 0.00050224486, 923.6629    , 26.5882721  , 773.976     , 1.77        , 3           , 255         , 0           , 0
-0.138911754, 9.784053    , 0.1380088   , 0.000113925664, 0.0002769899, 0.000141332232, -1.58575892 , -0.01470054 , 0.0004994534, 923.6629    , 26.5882721  , 773.9761    , 1.78        , 3           , 255         , 0           , 0
-0.153083876, 9.788191    , 0.135414451 , -0.000313980621, -0.0005437533, 3.165107E-05, -1.58576214 , -0.0147001445, 0.0005048854, 923.6629    , 26.5882721  , 773.976135  , 1.79        , 3           , 255         , 0           , 0
-0.154565543, 9.790969    , 0.130537182 , -0.000206354074, -0.000275855651, -7.834748E-05, -1.58576417 , -0.0147008868, 0.0005076555, 923.6629    , 26.5882721  , 773.9762    , 1.8         , 3           , 255         , 0           , 0
-0.151020527, 9.779982    , 0.141561076 , 9.526813E-05, -0.0002517132, -0.00016416423, -1.58575022 , -0.01470528 , 0.000510006852, 923.6629    , 26.5882721  , 773.992554  , 1.81        , 3           , 255         , 0           , 0
-0.147256851, 9.790269    , 0.13943617  , -0.000362294726, -1.3154815E-05, -0.000404150167, -1.5857538  , -0.0147093181, 0.0005101988, 923.6629    , 26.5882721  , 773.992737  , 1.82        , 3           , 255         , 0           , 0
-0.137026221, 9.777064    , 0.147633031 , 0.0002483509, -0.000749084866, -0.000338060025, -1.5857513  , -0.0147125861, 0.0005177382, 923.664368  , 26.58902    , 773.9929    , 1.83        , 3           , 255         , 0           , 0
-0.138933808, 9.792308    , 0.145569772 , 0.0001405183, -0.0005428033, -0.000444941834, -1.58575    , -0.014716953, 0.000523232738, 923.664368  , 26.58902    , 773.9931    , 1.84        , 3           , 255         , 0           , 0
-0.139495447, 9.793425    , 0.144142777 , -0.000265550218, -0.0008116288, -0.000394345552, -1.58575284 , -0.0147207761, 0.00053140783, 923.664368  , 26.58902    , 773.9933    , 1.85        , 3           , 255         , 0           , 0
-0.14777568 , 9.793721    , 0.133164331 , -0.0004208209, -0.000291966018, -0.0006198031, -1.585757   , -0.0147269275, 0.000534420658, 923.664368  , 26.58902    , 773.993469  , 1.86        , 3           , 255         , 0           , 0
-0.143506467, 9.785429    , 0.144359231 , -0.000406977138, -0.000460591982, -0.000286164228, -1.58576107 , -0.0147297205, 0.0005390684, 923.664368  , 26.58902    , 773.993652  , 1.87        , 3           , 255         , 0           , 0
-0.142475322, 9.796066    , 0.14224188  , -0.000339360442, -0.000318282167, -0.000220540256, -1.58576453 , -0.0147318784, 0.000542284164, 923.664368  , 26.58902    , 773.993835  , 1.88        , 3           , 255         , 0           , 0
-0.13677597 , 9.796786    , 0.147004351 , -0.000187305268, -4.02218429E-05, -0.0006415288, -1.58576632 , -0.0147382868, 0.0005427821, 923.664368  , 26.58902    , 773.994     , 1.89        , 3           , 255         , 0           , 0
-0.140604064, 9.787808    , 0.145861909 , 9.381445E-06, -0.000126054045, -0.000200277223, -1.5857662  , -0.0147402687, 0.0005440731, 923.664368  , 26.58902    , 773.9942    , 1.9         , 3           , 255         , 0           , 0
-0.140801892, 9.793283    , 0.149497017 , -0.000344154541, 3.658596E-05, 3.97596E-05 , -1.58576059 , -0.0147354705, 0.000543568633, 923.664368  , 26.58902    , 774.0072    , 1.91        , 3           , 255         , 0           , 0
-0.1375241  , 9.804204    , 0.146427    , -0.0003041199, -0.0002208096, 2.78006919E-05, -1.58576369 , -0.0147351595, 0.0005457719, 923.664368  , 26.58902    , 774.007446  , 1.92        , 3           , 255         , 0           , 0
-0.133802608, 9.781424    , 0.144066453 , -0.0002895845, -0.00040785654, -0.0003032219, -1.58576655 , -0.0147381267, 0.000549894467, 923.693     , 26.5907822  , 774.0077    , 1.93        , 3           , 255         , 0           , 0
-0.147184759, 9.791277    , 0.146220058 , -0.0004926841, -0.000118329073, -0.000214931177, -1.58577156 , -0.0147402594, 0.000551109959, 923.693     , 26.5907822  , 774.007935  , 1.94        , 3           , 255         , 0           , 0
-0.149741054, 9.787363    , 0.141591758 , -0.000510065933, 4.59109433E-05, -0.0003213602, -1.58577657 , -0.014743479, 0.0005506983, 923.693     , 26.5907822  , 774.0082    , 1.95        , 3           , 255         , 0           , 0
-0.146307871, 9.789638    , 0.139729768 , -0.0005319568, -0.000389858615, -0.000244381547, -1.58578193 , -0.0147458641, 0.0005546331, 923.693     , 26.5907822  , 774.0084    , 1.96        , 3           , 255         , 0           , 0
-0.144980192, 9.78443     , 0.142038256 , -0.000154249254, -0.000367796049, -0.000182707561, -1.58578336 , -0.0147476364, 0.0005583388, 923.693     , 26.5907822  , 774.008667  , 1.97        , 3           , 255         , 0           , 0
-0.144309878, 9.790449    , 0.143554091 , 0.000232260674, 7.29654E-05 , -0.000269453449, -1.5857811  , -0.014750341, 0.0005576496, 923.693     , 26.5907822  , 774.0089    , 1.98        , 3           , 255         , 0           , 0
-0.150214419, 9.7907505   , 0.1386642   , -0.0001720495, 0.000233980012, 0.000104140563, -1.58578277 , -0.0147493351, 0.0005552935, 923.693     , 26.5907822  , 774.009155  , 1.99        , 3           , 255         , 0           , 0
-0.1493746  , 9.790378    , 0.139961988 , -0.0003138741, -0.000104858773, -0.000325208734, -1.58578587 , -0.0147525715, 0.000556390733, 923.693     , 26.5907822  , 774.0094    , 2           , 3           , 0           , 7.44723654  , 200
-0.1507688  , 9.797605    , 0.141169608 , -0.000275898725, -4.669663E-05, -0.0001653387, -1.58578014 , -0.01475438 , 0.0005567573, 923.693     , 26.5907822  , 773.9867    , 2.01        , 3           , 1           , 0           , 0
-0.143525243, 9.796874    , 0.146259665 , -0.000409961445, 0.000183684286, 0.000278283318, -1.5857842  , -0.0147516243, 0.000554878148, 923.693     , 26.5907822  , 773.9868    , 2.02        , 3           , 2           , 0           , 0
-0.140330747, 9.784003    , 0.142973334 , -0.001166619, 0.00015384471, -0.000103297862, -1.58579588 , -0.0147526814, 0.000553356658, 923.6789    , 26.59275    , 773.986938  , 2.03        , 3           , 3           , 0           , 0
-0.140502781, 9.79133     , 0.149845257 , -0.0002889703, -0.000295440084, 0.0006578211, -1.58579874 , -0.0147460587, 0.0005562124, 923.6789    , 26.59275    , 773.987061  , 2.04        , 3           , 4           , 0           , 0
-0.151288822, 9.7935      , 0.148167372 , -0.000444443664, 9.333948E-05, 0.0005581627, -1.58580327 , -0.0147404913, 0.0005551948, 923.6789    , 26.59275    , 773.9872    , 2.05        , 3           , 5           , 0           , 0
-0.146870062, 9.795962    , 0.154032916 , -0.0005262038, 3.40886181E-05, 0.0004896919, -1.58580852 , -0.0147356  , 0.0005547807, 923.6789    , 26.59275    , 773.9873    , 2.06        , 3           , 6           , 0           , 0
-0.13866058 , 9.79861     , 0.136867762 , -0.0002628332, -6.650516E-05, -0.000110908717, -1.58581114 , -0.0147367017, 0.000555462 , 923.6789    , 26.59275    , 773.9874    , 2.07        , 3           , 7           , 0           , 0
-0.137695521, 9.788711    , 0.142066032 , -0.000282919733, -0.000116606709, 6.416568E-05, -1.585814   , -0.0147360424, 0.000556618848, 923.6789    , 26.59275    , 773.987549  , 2.08        , 3           , 8           , 5           , 5
-0.141320676, 9.783373    , 0.1334054   , -0.0002757354, -0.0006183481, -0.000220249523, -1.58581674 , -0.0147381527, 0.0005628342, 923.6789    , 26.59275    , 773.9877    , 2.09        , 3           , 9           , 5           , 0.1
-0.151542887, 9.787843    , 0.1421547   , -8.522696E-05, -0.000433400157, 0.000155636051, -1.58581758 , -0.01473653 , 0.000567144365, 923.6789    , 26.59275    , 773.9878    , 2.1         , 3           , 10          , 0.1         , 0.1
-0.143806279, 9.788234    , 0.13633889  , -0.000362950377, -4.861795E-05, -0.000233172061, -1.58581424 , -0.0147385756, 0.000567565 , 923.6789    , 26.59275    , 773.984558  , 2.11        , 3           , 11          , 0.007641403 , 0.00764139974
-0.143920586, 9.790245    , 0.143088177 , -0.000374689465, -0.000474341854, -8.651127E-05, -1.585818   , -0.014739369, 0.0005723213, 923.6789    , 26.59275    , 773.9847    , 2.12        , 3           , 12          , 0.174643889 , 0
-0.149481371, 9.790631    , 0.134407118 , -0.0003726089, -0.000541441957, 0.000494925829, -1.58582175 , -0.014734339, 0.0005776606, 923.655457  , 26.5957355  , 773.9848    , 2.13        , 3           , 13          , 0           , 0
-0.149572775, 9.785377    , 0.149168164 , -0.000214078813, -0.0002197281, 0.0007918997, -1.58582389 , -0.0147263892, 0.0005797381, 923.655457  , 26.5957355  , 773.9849    , 2.14        , 3           , 14          , 0.00172360556, 0.00142453657
-0.140759677, 9.78733349  , 0.150506526 , -0.000167903141, -7.55613437E-05, 0.000503265765, -1.58582568 , -0.0147213452, 0.0005804185, 923.655457  , 26.5957355  , 773.985046  , 2.15        , 3           , 15          , 0           , 0.000212450439
-0.148176461, 9.79199     , 0.151222259 , -0.0001970859, -0.000774832268, -4.126772E-05, -1.58582771 , -0.0147216413, 0.0005881721, 923.655457  , 26.5957355  , 773.985168  , 2.16        , 3           , 16          , 0           , 1.401298E-45
-0.149073154, 9.788404    , 0.141257778 , -0.0005805964, -0.0005586897, -2.54493789E-05, -1.58583355 , -0.0147218117, 0.000593762554, 923.655457  , 26.5957355  , 773.9853    , 2.17        , 3           , 20          , 0           , 0
-0.147252887, 9.78802     , 0.148183048 , -0.000302577158, -0.00019112986, -0.000540200737, -1.58583665 , -0.0147271855, 0.0005957549, 923.655457  , 26.5957355  , 773.9854    , 2.18        , 3           , 21          , 0           , 0
-0.1416018  , 9.799501    , 0.135260448 , -0.000132075162, 4.82013E-05 , -0.000169520572, -1.585838   , -0.014728887, 0.000595298 , 923.655457  , 26.5957355  , 773.985535  , 2.19        , 3           , 22          , 0           , 0
-0.140285492, 9.789976    , 0.139752537 , -0.0001974908, -0.000262997928, -9.5323725E-05, -1.58584    , -0.0147298016, 0.000597942853, 923.655457  , 26.5957355  , 773.985657  , 2.2         , 3           , 40          , 0           , 0
-0.148241013, 9.790992    , 0.1399604   , 3.07797454E-05, -0.000147577026, 0.000324960682, -1.58582962 , -0.0147294411, 0.0005992203, 923.655457  , 26.5957355  , 774.012     , 2.21        , 3           , 41          , 0           , 0
-0.1417799  , 9.779619    , 0.150028571 , 2.340402E-05, -0.000267442665, -6.571523E-05, -1.5858295  , -0.0147300577, 0.0006019051, 923.655457  , 26.5957355  , 774.0123    , 2.22        , 3           , 42          , 0           , 0
-0.1432307  , 9.786048    , 0.1507516   , 0.000249651377, -0.000231786747, -0.000689591165, -1.58582687 , -0.0147369178, 0.0006043255, 923.6804    , 26.5947857  , 774.012634  , 2.23        , 3           , 255         , 0           , 0
-0.142210841, 9.78142452  , 0.1489557   , -1.535716E-05, -5.619717E-06, -0.000247585063, -1.58582711 , -0.0147393923, 0.0006044191, 923.6804    , 26.5947857  , 774.012939  , 2.24        , 3           , 255         , 0           , 0
-0.14794448 , 9.784712    , 0.138515919 , 0.000298361876, -0.000443262863, -4.214744E-05, -1.58582413 , -0.0147397472, 0.0006088569, 923.6804    , 26.5947857  , 774.013245  , 2.25        , 3           , 255         , 0           , 0
-0.146675318, 9.77489948  , 0.138919771 , 0.000139287557, -0.0005308767, -0.00027276433, -1.58582282 , -0.014742394, 0.0006142061, 923.6804    , 26.5947857  , 774.01355   , 2.26        , 3           , 255         , 0           , 0
-0.140883759, 9.7913      , 0.1385862   , -0.000915830664, 9.410118E-05, 0.000118894561, -1.585832   , -0.0147412205, 0.0006132476, 923.6804    , 26.5947857  , 774.013855  , 2.27        , 3           , 255         , 0           , 0
-0.134479448, 9.786896    , 0.149430752 , -0.000559151755, -0.000290229917, -9.49566E-05, -1.5858376  , -0.0147421258, 0.0006161634, 923.6804    , 26.5947857  , 774.01416   , 2.28        , 3           , 255         , 0           , 0
-0.13812682 , 9.788606    , 0.148049876 , -0.00046068267, -6.931054E-05, 0.000114165246, -1.58584225 , -0.0147409728, 0.000616840145, 923.6804    , 26.5947857  , 774.014465  , 2.29        , 3           , 255         , 0           , 0
-0.143376514, 9.788867    , 0.144886285 , -0.000700918143, 3.28182941E-05, -0.000362161023, -1.58584917 , -0.0147446  , 0.000616566336, 923.6804    , 26.5947857  , 774.0148    , 2.3         , 3           , 255         , 0           , 0
-0.145562589, 9.790881    , 0.140659541 , -0.000335419085, 0.0001775308, -4.04630555E-06, -1.585844   , -0.0147387516, 0.00061466475, 923.6804    , 26.5947857  , 774.0056    , 2.31        , 3           , 255         , 0           , 0
-0.139883608, 9.789485    , 0.144339949 , 0.000126643921, 0.000123153324, -0.0007406866, -1.58584261 , -0.0147461751, 0.0006135448, 923.6804    , 26.5947857  , 774.005859  , 2.32        , 3           , 255         , 0           , 0
-0.14833799 , 9.794101    , 0.146396041 , -0.000333755161, -0.0003644101, -0.000156729133, -1.58584607 , -0.0147476885, 0.0006172132, 923.691     , 26.595192   , 774.0061    , 2.33        , 3           , 255         , 0           , 0
-0.145927   , 9.798121    , 0.144893259 , -0.00015287986, -0.000109371613, 0.000138996271, -1.58584762 , -0.0147462822, 0.000618285732, 923.691     , 26.595192   , 774.006348  , 2.34        , 3           , 255         , 0           , 0
-0.14705728 , 9.786429    , 0.144314468 , -0.000267292256, -4.30205837E-05, -4.52865934E-05, -1.58585024 , -0.0147467293, 0.000618723047, 923.691     , 26.595192   , 774.0066    , 2.35        , 3           , 255         , 0           , 0
-0.14578402 , 9.794779    , 0.134462163 , -0.000217435532, -0.000391753274, 0.000327990856, -1.5858525  , -0.0147433914, 0.0006225907, 923.691     , 26.595192   , 774.006836  , 2.36        , 3           , 255         , 0           , 0
-0.14254567 , 9.790808    , 0.15048103  , 3.66522E-06 , -0.000272039557, 1.10367255E-05, -1.5858525  , -0.01474324 , 0.000625309069, 923.691     , 26.595192   , 774.0071    , 2.37        , 3           , 255         , 0           , 0
-0.148378775, 9.786708    , 0.143649444 , -0.000107743195, -0.000248063356, 7.910696E-05, -1.58585358 , -0.0147424107, 0.000627776841, 923.691     , 26.595192   , 774.0073    , 2.38        , 3           , 255         , 0           , 0
-0.1473851  , 9.789341    , 0.147554368 , -0.0004706073, -0.0002551187, -0.0001482939, -1.58585835 , -0.0147438571, 0.000630350842, 923.691     , 26.595192   , 774.007568  , 2.39        , 3           , 255         , 0           , 0
-0.138858214, 9.779597    , 0.143870965 , -0.0002280036, -0.0003432762, -0.00106625236, -1.58586061 , -0.014754463, 0.000633944059, 923.691     , 26.595192   , 774.0078    , 2.4         , 3           , 255         , 0           , 0
-0.140113056, 9.790701    , 0.149489924 , 0.000276502 , -0.000465648482, -0.0005919949, -1.58585048 , -0.0147615988, 0.0006385811, 923.691     , 26.595192   , 773.9858    , 2.41        , 3           , 255         , 0           , 0
-0.141868785, 9.792509    , 0.14637652  , 0.0007532977, -0.000382657163, 0.0003603024, -1.58584309 , -0.0147579359, 0.000642353436, 923.691     , 26.595192   , 773.9859    , 2.42        , 3           , 255         , 0           , 0
-0.130611733, 9.787194    , 0.150072008 , -0.000117231044, -0.0004989052, -0.00025604348, -1.58584428 , -0.0147604207, 0.0006473808, 923.6777    , 26.59336    , 773.986     , 2.43        , 3           , 255         , 0           , 0
-0.138334155, 9.788456    , 0.139335722 , 0.000232330756, -0.0003243892, 8.745107E-05, -1.585842   , -0.0147595005, 0.0006506113, 923.6777    , 26.59336    , 773.986145  , 2.44        , 3           , 255         , 0           , 0
-0.137869716, 9.791304    , 0.154781073 , -2.624339E-05, 0.000168591854, 0.000107449159, -1.58584225 , -0.014758449, 0.000648910645, 923.6777    , 26.59336    , 773.986267  , 2.45        , 3           , 255         , 0           , 0
-0.140902609, 9.788902    , 0.138061017 , 0.000313667115, -0.0005590714, 0.000861914 , -1.58583927 , -0.0147497468, 0.000654371455, 923.6777    , 26.59336    , 773.9864    , 2.46        , 3           , 255         , 0           , 0
-0.147197992, 9.778507    , 0.146175057 , -9.685685E-05, -0.000362850726, 0.0008724759, -1.58584023 , -0.0147409709, 0.000657868746, 923.6777    , 26.59336    , 773.9865    , 2.47        , 3           , 255         , 0           , 0
-0.147474825, 9.786418    , 0.140822291 , -0.0004888631, -0.000218838337, 0.000763515767, -1.58584511 , -0.0147333043, 0.0006599421, 923.6777    , 26.59336    , 773.986633  , 2.48        , 3           , 255         , 0           , 0
-0.149190441, 9.799582    , 0.15592289  , -3.696885E-05, 0.0001228837, 0.0005038702, -1.58584547 , -0.0147282854, 0.000658637146, 923.6777    , 26.59336    , 773.986755  , 2.49        , 3           , 255         , 0           , 0
-0.151707679, 9.788027    , 0.143196017 , 2.67935684E-05, -0.000385414343, 0.000535021245, -1.58584511 , -0.0147228772, 0.0006624099, 923.6777    , 26.59336    , 773.9869    , 2.5         , 3           , 255         , 0           , 0
-0.144978344, 9.789131    , 0.151134    , 2.818217E-05, -0.000172044267, -4.04295279E-05, -1.58584273 , -0.0147186117, 0.0006641068, 923.6777    , 26.59336    , 773.985046  , 2.51        , 3           , 255         , 0           , 0
-0.151143432, 9.798777    , 0.140206784 , -0.0003328696, -4.6232366E-05, -0.000219709153, -1.58584619 , -0.0147207985, 0.0006646029, 923.6777    , 26.59336    , 773.985168  , 2.52        , 3           , 255         , 0           , 0
-0.1433598  , 9.780802    , 0.135207534 , -0.0007489771, -0.00053242594, 0.000933395466, -1.5858537  , -0.0147113856, 0.000669786241, 923.673     , 26.59974    , 773.9853    , 2.53        , 3           , 255         , 0           , 0
-0.143379807, 9.787234    , 0.14326638  , -2.31993617E-05, -0.0003319747, 0.000276305916, -1.58585393 , -0.0147085749, 0.000673064264, 923.673     , 26.59974    , 773.9854    , 2.54        , 3           , 255         , 0           , 0
-0.141320989, 9.789302    , 0.141834781 , 0.0002669926, -0.000179196475, 0.000589983654, -1.58585119 , -0.0147026489, 0.00067476643, 923.673     , 26.59974    , 773.985535  , 2.55        , 3           , 255         , 0           , 0
-0.14536491 , 9.797075    , 0.138981014 , -3.006158E-05, -0.000221895985, -9.54503048E-05, -1.58585155 , -0.014703569, 0.0006769995, 923.673     , 26.59974    , 773.985657  , 2.56        , 3           , 255         , 0           , 0
-0.141512126, 9.791109    , 0.140018091 , 4.613772E-05, -0.000137352734, -0.00036601082, -1.58585107 , -0.0147072086, 0.0006784274, 923.673     , 26.59974    , 773.9858    , 2.57        , 3           , 255         , 0           , 0
-0.143383056, 9.792402    , 0.142849743 , -0.000118303462, 2.04180833E-06, -0.000581803033, -1.58585227 , -0.0147130266, 0.0006784949, 923.673     , 26.59974    , 773.9859    , 2.58        , 3           , 255         , 0           , 0
-0.1455574  , 9.792734    , 0.143078849 , 0.000131693087, -0.000107215834, -0.0001950886, -1.58585083 , -0.0147149609, 0.0006795964, 923.673     , 26.59974    , 773.986     , 2.59        , 3           , 255         , 0           , 0
-0.136555076, 9.783614    , 0.143854931 , 0.000288687763, -0.000213748775, 0.000102134858, -1.58584809 , -0.0147139076, 0.0006817182, 923.673     , 26.59974    , 773.986145  , 2.6         , 3           , 255         , 0           , 0
-0.139955789, 9.788481    , 0.152569354 , -0.00076881214, 1.531432E-05, 0.0006123624, -1.58584452 , -0.014707081, 0.000681306934, 923.673     , 26.59974    , 773.9908    , 2.61        , 3           , 255         , 0           , 0
-0.146574974, 9.788384    , 0.151786759 , -0.0004572546, -0.000242299167, 0.0006961413, -1.585849   , -0.0147000831, 0.000683624239, 923.673     , 26.59974    , 773.990967  , 2.62        , 3           , 255         , 0           , 0
-0.151405483, 9.789061    , 0.137790382 , -0.000191452564, -0.0004198153, -0.00012177699, -1.585851   , -0.0147012416, 0.0006878411, 923.6712    , 26.59716    , 773.99115   , 2.63        , 3           , 255         , 0           , 0
-0.154464334, 9.793119    , 0.141801327 , -0.000414974056, -0.0003353348, 0.0002093949, -1.58585513 , -0.0146990959, 0.0006911626, 923.6712    , 26.59716    , 773.991333  , 2.64        , 3           , 255         , 0           , 0
-0.1529316  , 9.796013    , 0.145742625 , -4.53474931E-05, -0.000396667863, -0.0008615216, -1.5858556  , -0.0147076519, 0.000695259543, 923.6712    , 26.59716    , 773.9915    , 2.65        , 3           , 255         , 0           , 0
-0.152629778, 9.790196    , 0.154053971 , -0.000201374758, -0.0007194128, -0.000160651281, -1.58585775 , -0.0147091467, 0.0007024773, 923.6712    , 26.59716    , 773.9917    , 2.66        , 3           , 255         , 0           , 0
-0.14640148 , 9.7871685   , 0.146562621 , -0.0005242154, -0.0003969185, -0.000281258835, -1.585863   , -0.0147119  , 0.000706488 , 923.6712    , 26.59716    , 773.9919    , 2.67        , 3           , 255         , 0           , 0
-0.14868632 , 9.786794    , 0.147087842 , -0.00013140298, -0.0005697971, -0.000325161585, -1.58586431 , -0.0147150652, 0.0007122348, 923.6712    , 26.59716    , 773.992065  , 2.68        , 3           , 255         , 0           , 0
-0.150849029, 9.789343    , 0.144887447 , 6.189919E-05, -0.000477660447, 0.00020875741, -1.58586383 , -0.0147129055, 0.000716978568, 923.6712    , 26.59716    , 773.992249  , 2.69        , 3           , 255         , 0           , 0
-0.145379514, 9.783696    , 0.145809621 , -0.0003020994, -0.00054380123, -1.51751738E-05, -1.58586681 , -0.0147129754, 0.0007224181, 923.6712    , 26.59716    , 773.992432  , 2.7         , 3           , 255         , 0           , 0
-0.1459333  , 9.786904    , 0.1403921   , -0.000163292978, -0.000378842116, -0.000125924664, -1.58586717 , -0.0147251943, 0.0007262054, 923.6712    , 26.59716    , 773.9987    , 2.71        , 3           , 255         , 0           , 0
-0.136707455, 9.7816515   , 0.149555549 , -0.0007535766, 0.000130536035, -0.00031519 , -1.58587456 , -0.0147283636, 0.000724947662, 923.6712    , 26.59716    , 773.998962  , 2.72        , 3           , 255         , 0           , 0
-0.138588861, 9.785943    , 0.141133487 , -0.00139670959, 8.746283E-06, -0.000403587444, -1.5858885  , -0.014732399, 0.000724920654, 923.6878    , 26.598177   , 773.9992    , 2.73        , 3           , 255         , 0           , 0
-0.144138411, 9.782402    , 0.15137808  , -0.0006611367, 0.000226750039, 0.000273303333, -1.58589518 , -0.0147297038, 0.0007226125, 923.6878    , 26.598177   , 773.999451  , 2.74        , 3           , 255         , 0           , 0
-0.1363864  , 9.790434    , 0.145596653 , -0.0006897794, -0.000143330311, 0.000481513649, -1.58590209 , -0.0147248683, 0.0007239728, 923.6878    , 26.598177   , 773.9997    , 2.75        , 3           , 255         , 0           , 0
-0.135764092, 9.789441    , 0.149030477 , 2.96785729E-05, -3.43805877E-05, 9.49022651E-05, -1.58590174 , -0.0147239137, 0.0007243025, 923.6878    , 26.598177   , 773.999939  , 2.76        , 3           , 255         , 0           , 0
-0.143929869, 9.793489    , 0.147424236 , -0.0005552138, -0.000125324819, 0.000290476863, -1.58590734 , -0.0147209885, 0.0007255115, 923.6878    , 26.598177   , 774.0002    , 2.77        , 3           , 255         , 0           , 0
-0.1525684  , 9.788628    , 0.148532107 , 0.0002277284, 7.679092E-05, 0.00041860374, -1.58590508 , -0.0147168133, 0.0007246802, 923.6878    , 26.598177   , 774.0004    , 2.78        , 3           , 255         , 0           , 0
-0.145113543, 9.790322    , 0.14175351  , -0.000184770208, -0.000193252345, -0.00045602824, -1.58590686 , -0.0147213442, 0.0007266814, 923.6878    , 26.598177   , 774.0007    , 2.79        , 3           , 255         , 0           , 0
-0.140404582, 9.79624748  , 0.1453029   , -0.000506056938, -0.000229533412, 0.000201916177, -1.585912   , -0.0147192907, 0.0007289465, 923.6878    , 26.598177   , 774.0009    , 2.8         , 3           , 255         , 0           , 0
-0.142539978, 9.801057    , 0.147027656 , -0.000318664, -0.000394362025, 0.000190478473, -1.58591092 , -0.0147121148, 0.000732797431, 923.6878    , 26.598177   , 773.982849  , 2.81        , 3           , 255         , 0           , 0
-0.149044335, 9.790885    , 0.145833731 , -0.000486241421, -6.140326E-05, -0.0005328654, -1.5859158  , -0.0147174317, 0.0007334924, 923.6878    , 26.598177   , 773.983     , 2.82        , 3           , 255         , 0           , 0
-0.1420426  , 9.777705    , 0.141162232 , 5.077687E-06, -0.000406901469, -0.000669536239, -1.5859158  , -0.0147240646, 0.0007376624, 923.693     , 26.6004162  , 773.9831    , 2.83        , 3           , 255         , 0           , 0
-0.13589327 , 9.78375149  , 0.140899211 , -0.00131873111, -0.000340005266, -6.36947952E-05, -1.585929   , -0.01472465 , 0.0007410714, 923.693     , 26.6004162  , 773.9832    , 2.84        , 3           , 255         , 0           , 0
-0.140176415, 9.791875    , 0.13908729  , -0.00136105367, -0.0002330041, -0.0005273522, -1.58594263 , -0.0147298872, 0.00074348104, 923.693     , 26.6004162  , 773.983337  , 2.85        , 3           , 255         , 0           , 0
-0.13010253 , 9.790289    , 0.1460451   , -0.00182021863, -0.000110203866, -0.0002597199, -1.58596087 , -0.0147324679, 0.00074462255, 923.693     , 26.6004162  , 773.983459  , 2.86        , 3           , 255         , 0           , 0
-0.136949584, 9.791425    , 0.151044279 , -0.00124058418, -0.000425348058, -6.150585E-05, -1.58597338 , -0.0147330184, 0.0007488852, 923.693     , 26.6004162  , 773.9836    , 2.87        , 3           , 255         , 0           , 0
-0.144779354, 9.792517    , 0.149505392 , -0.0009200222, -0.000333824544, -0.000528503151, -1.58598256 , -0.0147382533, 0.0007523035, 923.693     , 26.6004162  , 773.9837    , 2.88        , 3           , 255         , 0           , 0
-0.145463452, 9.796283    , 0.144107908 , -0.00122816244, -8.476246E-05, -0.0008904484, -1.58599484 , -0.0147471409, 0.0007532855, 923.693     , 26.6004162  , 773.9838    , 2.89        , 3           , 255         , 0           , 0
-0.142180651, 9.78278351  , 0.138831913 , -0.000965057057, 1.1494616E-05, -0.0003847115, -1.5860045  , -0.0147509882, 0.0007532291, 923.693     , 26.6004162  , 773.983948  , 2.9         , 3           , 255         , 0           , 0
-0.142966315, 9.780523    , 0.143957511 , -0.000471516978, -0.0002143454, 0.000607763533, -1.58600128 , -0.014738149, 0.000755162968, 923.693     , 26.6004162  , 773.9611    , 2.91        , 3           , 255         , 0           , 0
-0.146249637, 9.781311    , 0.139285028 , -0.000409884029, -0.000217534835, 0.000364087115, -1.58600533 , -0.0147344749, 0.0007572829, 923.693     , 26.6004162  , 773.9611    , 2.92        , 3           , 255         , 0           , 0
-0.141491979, 9.788544    , 0.140198544 , -0.000497136731, -0.000609012146, -9.11298339E-05, -1.58601034 , -0.0147352936, 0.000763386 , 923.6836    , 26.60062    , 773.9611    , 2.93        , 3           , 255         , 0           , 0
-0.143966809, 9.793266    , 0.147479609 , -0.000420241384, -0.00043253554, -0.000298960367, -1.58601463 , -0.0147382151, 0.0007677574, 923.6836    , 26.60062    , 773.9611    , 2.94        , 3           , 255         , 0           , 0
-0.147725135, 9.78766     , 0.160112336 , -0.0005945959, -9.35334247E-05, 2.29886209E-05, -1.58602059 , -0.0147379739, 0.0007686891, 923.6836    , 26.60062    , 773.9611    , 2.95        , 3           , 255         , 0           , 0
-0.144736722, 9.786568    , 0.150682136 , -0.0006441885, -0.000322500826, 0.000336154073, -1.586027   , -0.0147345606, 0.000771863037, 923.6836    , 26.60062    , 773.9611    , 2.96        , 3           , 255         , 0           , 0
-0.1500202  , 9.785746    , 0.141180336 , -0.00029869948, -0.0006588163, 0.00105578592, -1.58603013 , -0.0147239035, 0.000778289745, 923.6836    , 26.60062    , 773.9611    , 2.97        , 3           , 255         , 0           , 0
-0.1449674  , 9.784323    , 0.13967824  , -0.000240345835, -0.000375806238, -0.000435556576, -1.58603251 , -0.0147282016, 0.000782113231, 923.6836    , 26.60062    , 773.9611    , 2.98        , 3           , 255         , 0           , 0
-0.143896133, 9.792584    , 0.153405279 , -0.000251804, 0.000180576 , 2.92685581E-05, -1.586035   , -0.0147279371, 0.0007803035, 923.6836    , 26.60062    , 773.9611    , 2.99        , 3           , 255         , 0           , 0
-0.146233857, 9.790941    , 0.1473504   , -0.000203037984, -0.000256813481, -0.000285006943, -1.586037   , -0.0147307478, 0.0007829148, 923.6836    , 26.60062    , 773.9611    , 3           , 3           , 0           , 8.447237    , 300
-0.14380528 , 9.792472    , 0.145006329 , -0.000458060647, -0.000252778525, -0.000605054141, -1.58603477 , -0.01473922 , 0.000785434444, 923.6836    , 26.60062    , 773.9546    , 3.01        , 3           , 1           , 0           , 0
-0.152729124, 9.79099751  , 0.144078016 , -0.000933574862, -0.000294078141, -0.000100954305, -1.58604419 , -0.0147401849, 0.0007883898, 923.6836    , 26.60062    , 773.9545    , 3.02        , 3           , 2           , 0           , 0
-0.143145218, 9.788247    , 0.148117468 , -0.000659417, -0.000111256843, 0.00038141507, -1.58605075 , -0.0147363553, 0.000789444137, 923.6806    , 26.6011639  , 773.954468  , 3.03        , 3           , 3           , 0           , 0
-0.145285666, 9.788858    , 0.1395398   , 0.0001353171, -8.90959054E-05, -0.000211475854, -1.58604944 , -0.0147384563, 0.0007903667, 923.6806    , 26.6011639  , 773.9544    , 3.04        , 3           , 4           , 0           , 0
-0.148296013, 9.786591    , 0.147030681 , -0.0008640849, -0.000401002355, -4.31415974E-05, -1.58605814 , -0.0147388251, 0.0007943835, 923.6806    , 26.6011639  , 773.954346  , 3.05        , 3           , 5           , 0           , 0
-0.144586161, 9.78381252  , 0.143429548 , -0.00033089763, 0.000264570233, 0.0003374301, -1.58606136 , -0.0147354947, 0.000791685539, 923.6806    , 26.6011639  , 773.9543    , 3.06        , 3           , 6           , 0           , 0
-0.142548352, 9.788226    , 0.148952067 , -0.000382789643, -0.000187640311, 0.000389248424, -1.58606529 , -0.0147315729, 0.0007935032, 923.6806    , 26.6011639  , 773.9542    , 3.07        , 3           , 7           , 0           , 0
-0.145850539, 9.784258    , 0.143340737 , -0.000181944808, -0.000375853153, 0.0008280723, -1.5860672  , -0.0147232348, 0.0007971352, 923.6806    , 26.6011639  , 773.954163  , 3.08        , 3           , 8           , 5           , 5
-0.1547411  , 9.7944      , 0.142845213 , -0.000273836544, -0.0001677851, 0.00028783665, -1.58606982 , -0.0147203319, 0.000798767956, 923.6806    , 26.6011639  , 773.9541    , 3.09        , 3           , 9           , 5           , 0.1
-0.143684983, 9.786367    , 0.139976546 , -0.000326069072, -0.000420065247, -0.000222354676, -1.586073   , -0.0147224916, 0.0008030022, 923.6806    , 26.6011639  , 773.954041  , 3.1         , 3           , 10          , 0.1         , 0.1
-0.14292118 , 9.795919    , 0.149842232 , 2.35838816E-05, -0.000455061265, -0.000379732373, -1.5860616  , -0.0147310253, 0.000807443867, 923.6806    , 26.6011639  , 773.952637  , 3.11        , 3           , 11          , 0.00680943858, 0.00680943346
-0.150313526, 9.79347     , 0.14417     , -0.0004681705, -0.000392383779, 0.0004605968, -1.58606637 , -0.01472636 , 0.000811297563, 923.6806    , 26.6011639  , 773.9526    , 3.12        , 3           , 12          , 0.174645633 , 0
-0.1477904  , 9.786459    , 0.156059414 , -0.000542089343, -0.000187317492, 0.0002962887, -1.58607173 , -0.0147233689, 0.000813125 , 923.661133  , 26.6007557  , 773.9525    , 3.13        , 3           , 13          , 0           , 0
-0.148271427, 9.785508    , 0.149276644 , -0.00103404978, -0.000396920834, 6.06721733E-05, -1.58608222 , -0.0147227021, 0.000817084452, 923.661133  , 26.6007557  , 773.952454  , 3.14        , 3           , 14          , 0.00172329019, 0.00142453192
-0.1499848  , 9.793219    , 0.149278358 , -0.00118069828, 1.26359519E-05, -0.000262089918, -1.586094   , -0.0147253238, 0.000816998363, 923.661133  , 26.6007557  , 773.9524    , 3.15        , 3           , 15          , 0           , 0.000212452665
-0.148625225, 9.787531    , 0.141849428 , -0.000394417555, 1.21803023E-05, -0.0002500735, -1.586098   , -0.014727829, 0.000816914951, 923.661133  , 26.6007557  , 773.952332  , 3.16        , 3           , 16          , 0           , 1.401298E-45
-0.139256433, 9.786426    , 0.149386019 , -0.0002835109, -0.000250512036, -0.0003341423, -1.58610082 , -0.0147311315, 0.0008194708, 923.661133  , 26.6007557  , 773.9523    , 3.17        , 3           , 20          , 0           , 0
-0.142180875, 9.793617    , 0.140619546 , -0.000414086273, -0.0003004839, -0.0004318316, -1.586105   , -0.0147354035, 0.0008225413, 923.661133  , 26.6007557  , 773.9522    , 3.18        , 3           , 21          , 0           , 0
-0.144271523, 9.795947    , 0.144977525 , -0.00073645357, -0.000466380559, -0.000466157129, -1.58611238 , -0.014739993, 0.00082727673, 923.661133  , 26.6007557  , 773.952148  , 3.19        , 3           , 22          , 0           , 0
-0.132348269, 9.790747    , 0.139975786 , -0.00023440551, -6.75907359E-07, 9.93381836E-05, -1.58611476 , -0.0147389993, 0.000827268348, 923.661133  , 26.6007557  , 773.9521    , 3.2         , 3           , 40          , 0           , 0
-0.139747024, 9.792173    , 0.147429615 , -0.000270642457, -0.000358468969, 0.000312832941, -1.5861119  , -0.01473653 , 0.000830722041, 923.661133  , 26.6007557  , 773.978455  , 3.21        , 3           , 41          , 0           , 0
-0.139572233, 9.797478    , 0.143854052 , 0.000309273717, -0.0003235184, 0.0006969551, -1.5861088  , -0.014729511, 0.0008338511, 923.661133  , 26.6007557  , 773.9786    , 3.22        , 3           , 42          , 0           , 0
-0.138044983, 9.793907    , 0.136949375 , 0.000591100543, -0.000195430475, 0.0004794913, -1.58610284 , -0.0147246877, 0.0008357315, 923.745361  , 26.601841   , 773.9787    , 3.23        , 3           , 255         , 0           , 0
-0.134559944, 9.786214    , 0.146828234 , 5.86430542E-05, -0.0002891625, 0.0007441056, -1.58610237 , -0.0147172045, 0.0008385084, 923.745361  , 26.601841   , 773.9788    , 3.24        , 3           , 255         , 0           , 0
-0.14313522 , 9.786194    , 0.15181078  , 0.000186740886, -0.000226385426, 0.000793203653, -1.58610046 , -0.0147092389, 0.000840651162, 923.745361  , 26.601841   , 773.978943  , 3.25        , 3           , 255         , 0           , 0
-0.141394868, 9.789361    , 0.1495647   , -0.000226704753, -0.000357591081, 0.000506615848, -1.58610284 , -0.01470412 , 0.00084414857, 923.745361  , 26.601841   , 773.979065  , 3.26        , 3           , 255         , 0           , 0
-0.1420213  , 9.798826    , 0.138400257 , -0.000418048236, -0.0006079328, -0.000215990425, -1.58610713 , -0.0147061842, 0.0008502611, 923.745361  , 26.601841   , 773.9792    , 3.27        , 3           , 255         , 0           , 0
-0.145422548, 9.79312     , 0.145067453 , -0.0003184483, -0.000237560249, -0.0006954075, -1.58611035 , -0.0147131011, 0.000852743338, 923.745361  , 26.601841   , 773.9793    , 3.28        , 3           , 255         , 0           , 0
-0.141185731, 9.796024    , 0.145081431 , -0.000329535455, 0.00017681357, -0.000112405272, -1.58611357 , -0.0147142522, 0.0008509928, 923.745361  , 26.601841   , 773.979431  , 3.29        , 3           , 255         , 0           , 0
-0.140646428, 9.793055    , 0.152190357 , 0.000105286366, -0.0005274693, 0.0005617475, -1.58611262 , -0.0147085572, 0.000856181141, 923.745361  , 26.601841   , 773.979553  , 3.3         , 3           , 255         , 0           , 0
-0.145695239, 9.785031    , 0.138622433 , -0.000430729124, -0.0007669566, 0.0007665531, -1.58611059 , -0.0146953864, 0.0008636381, 923.745361  , 26.601841   , 773.882935  , 3.31        , 3           , 255         , 0           , 0
-0.142737061, 9.792057    , 0.1484588   , -0.000110585941, -0.000858483138, 0.000796579057, -1.58611178 , -0.01468729 , 0.000872101 , 923.745361  , 26.601841   , 773.8825    , 3.32        , 3           , 255         , 0           , 0
-0.152202442, 9.796901    , 0.147619277 , 0.0002812699, -0.000313241966, 0.0005219348, -1.58610892 , -0.0146820256, 0.0008751521, 923.694458  , 26.60286    , 773.8821    , 3.33        , 3           , 255         , 0           , 0
-0.147404268, 9.788004    , 0.147087127 , 0.000215921435, 6.049429E-05, -0.000404104154, -1.58610678 , -0.014686076, 0.000874609163, 923.694458  , 26.60286    , 773.881653  , 3.34        , 3           , 255         , 0           , 0
-0.148257509, 9.788538    , 0.140382722 , -0.0002535903, -0.000401516329, -0.000404536724, -1.58610928 , -0.0146900592, 0.000878686 , 923.694458  , 26.60286    , 773.8812    , 3.35        , 3           , 255         , 0           , 0
-0.143188238, 9.793157    , 0.146604136 , 0.000377267832, -9.475765E-05, 0.00021339464, -1.58610559 , -0.0146879116, 0.0008796011, 923.694458  , 26.60286    , 773.8808    , 3.36        , 3           , 255         , 0           , 0
-0.137615591, 9.787533    , 0.136600643 , 0.0005505502, -0.0005006412, 0.00108892843, -1.5861001  , -0.0146769471, 0.000884440262, 923.694458  , 26.60286    , 773.8804    , 3.37        , 3           , 255         , 0           , 0
-0.1387886  , 9.798944    , 0.145304441 , -2.54670158E-06, -0.0003098389, -0.0002606855, -1.5861001  , -0.0146795064, 0.0008875778, 923.694458  , 26.60286    , 773.879944  , 3.38        , 3           , 255         , 0           , 0
-0.133363783, 9.796701    , 0.136237353 , -0.000126810977, -9.629293E-06, -0.000109815053, -1.58610129 , -0.0146806017, 0.0008876914, 923.694458  , 26.60286    , 773.8795    , 3.39        , 3           , 255         , 0           , 0
-0.143048838, 9.791068    , 0.149999738 , -0.000729584252, -0.000174155459, 0.000198740367, -1.58610868 , -0.0146785881, 0.000889402465, 923.694458  , 26.60286    , 773.8791    , 3.4         , 3           , 255         , 0           , 0
-0.145489827, 9.792891    , 0.1403662   , -0.000131606124, -0.0005003604, 0.0004256259, -1.5861001  , -0.0146732619, 0.0008941935, 923.694458  , 26.60286    , 773.868958  , 3.41        , 3           , 255         , 0           , 0
-0.143758982, 9.796292    , 0.149362013 , -0.000486182515, -0.000618254358, 0.000435878668, -1.586105   , -0.0146688065, 0.000900308834, 923.694458  , 26.60286    , 773.868469  , 3.42        , 3           , 255         , 0           , 0
-0.140219316, 9.783258    , 0.135279074 , -0.0007470496, -4.189869E-05, -0.0002069445, -1.5861125  , -0.01467087 , 0.0009007601, 923.6503    , 26.6040115  , 773.868     , 3.43        , 3           , 255         , 0           , 0
-0.1353719  , 9.7907      , 0.142473087 , -0.000189996557, -0.000214386848, 0.000382581929, -1.58611441 , -0.0146670146, 0.0009028445, 923.6503    , 26.6040115  , 773.8675    , 3.44        , 3           , 255         , 0           , 0
-0.14244917 , 9.789668    , 0.144198135 , 0.0002699988, -0.0005141232, -0.0005275845, -1.58611166 , -0.0146722095, 0.000908065645, 923.6503    , 26.6040115  , 773.867     , 3.45        , 3           , 255         , 0           , 0
-0.144867733, 9.785082    , 0.150066212 , 0.000461065443, -0.000784807838, -0.00096134597, -1.58610713 , -0.0146817006, 0.000916059769, 923.6503    , 26.6040115  , 773.8665    , 3.46        , 3           , 255         , 0           , 0
-0.140108526, 9.790099    , 0.14369148  , -0.000149936415, -0.000530623831, -0.000333889737, -1.58610868 , -0.0146849584, 0.000921416853, 923.6503    , 26.6040115  , 773.866     , 3.47        , 3           , 255         , 0           , 0
-0.1525643  , 9.792208    , 0.143281132 , -0.0002610752, -0.000264234957, -0.00010751903, -1.58611131 , -0.0146859922, 0.000924075139, 923.6503    , 26.6040115  , 773.86554   , 3.48        , 3           , 255         , 0           , 0
-0.150892869, 9.797819    , 0.136134982 , -0.0005030553, -4.402944E-06, -0.0007781354, -1.58611643 , -0.01469377 , 0.0009242383, 923.6503    , 26.6040115  , 773.865051  , 3.49        , 3           , 255         , 0           , 0
-0.1510702  , 9.793689    , 0.146402046 , 6.851833E-05, -0.0002524798, -0.0007362125, -1.58611572 , -0.0147010926, 0.00092687615, 923.6503    , 26.6040115  , 773.864563  , 3.5         , 3           , 255         , 0           , 0
-0.140053585, 9.80093     , 0.1377122   , -0.000260689761, -0.000507819, -0.000268759963, -1.586107   , -0.0147053758, 0.000931827235, 923.6503    , 26.6040115  , 773.9192    , 3.51        , 3           , 255         , 0           , 0
-0.1412057  , 9.787744    , 0.158145189 , -0.000251327525, -0.000948145054, 0.000328185852, -1.58610964 , -0.0147019494, 0.000941258331, 923.6503    , 26.6040115  , 773.919067  , 3.52        , 3           , 255         , 0           , 0
-0.1487315  , 9.788327    , 0.151643425 , -0.000636257348, -0.000308199669, -0.000367153843, -1.586116   , -0.0147055732, 0.0009443959, 923.683     , 26.6053     , 773.918945  , 3.53        , 3           , 255         , 0           , 0
-0.1499815  , 9.790448    , 0.1501459   , 1.52263092E-05, -0.000324412482, 0.000212436717, -1.58611584 , -0.0147033995, 0.000947607 , 923.683     , 26.6053     , 773.9188    , 3.54        , 3           , 255         , 0           , 0
-0.14489691 , 9.795848    , 0.147635937 , -0.000286713825, -0.0003086382, 0.0004007566, -1.5861187  , -0.0146993455, 0.000950631744, 923.683     , 26.6053     , 773.9187    , 3.55        , 3           , 255         , 0           , 0
-0.1427848  , 9.79656     , 0.137431279 , 0.000168018392, -0.0006404687, 0.0008971612, -1.586117   , -0.0146902809, 0.000956898 , 923.683     , 26.6053     , 773.9186    , 3.56        , 3           , 255         , 0           , 0
-0.138854116, 9.801519    , 0.1493234   , -0.000288933516, -0.000396908959, 0.000901955646, -1.58611989 , -0.0146812  , 0.0009607281, 923.683     , 26.6053     , 773.918457  , 3.57        , 3           , 255         , 0           , 0
-0.151303917, 9.79424     , 0.149711147 , -0.000664221239, -0.0004092909, 0.0006365009, -1.58612669 , -0.0146747734, 0.0009647229, 923.683     , 26.6053     , 773.918335  , 3.58        , 3           , 255         , 0           , 0
-0.153315321, 9.77754     , 0.152765989 , 0.000186241348, 2.779509E-05, 0.000108876295, -1.58612478 , -0.01467369 , 0.000964428356, 923.683     , 26.6053     , 773.9182    , 3.59        , 3           , 255         , 0           , 0
-0.142031431, 9.788286    , 0.147520185 , 0.0003931675, -0.000314545, -0.000103605606, -1.586121   , -0.0146746784, 0.000967590138, 923.683     , 26.6053     , 773.9181    , 3.6         , 3           , 255         , 0           , 0
-0.150407359, 9.787306    , 0.150270537 , -7.60841649E-05, -0.0004311063, 0.00100123114, -1.58611894 , -0.01466661 , 0.000971707341, 923.683     , 26.6053     , 773.9188    , 3.61        , 3           , 255         , 0           , 0
-0.150377423, 9.791138    , 0.140467748 , -0.000636703568, -0.000332072028, 0.000613094133, -1.58612525 , -0.0146604292, 0.000974933733, 923.683     , 26.6053     , 773.9187    , 3.62        , 3           , 255         , 0           , 0
-0.138716966, 9.790158    , 0.142684758 , 0.0003219226, -0.0005862223, 0.000222419432, -1.58612216 , -0.0146581158, 0.0009807611, 923.6765    , 26.6069965  , 773.9186    , 3.63        , 3           , 255         , 0           , 0
-0.136385411, 9.784359    , 0.152477533 , 0.000257942127, -0.000868916162, 0.000172491811, -1.58611965 , -0.0146562578, 0.0009894248, 923.6765    , 26.6069965  , 773.918457  , 3.64        , 3           , 255         , 0           , 0
-0.145336479, 9.789154    , 0.149128214 , -0.0009782424, -0.0001383177, 3.38876125E-05, -1.58612943 , -0.0146558965, 0.0009908029, 923.6765    , 26.6069965  , 773.918335  , 3.65        , 3           , 255         , 0           , 0
-0.145250648, 9.784571    , 0.145458072 , -0.0002490345, -0.000699780358, 0.000116381256, -1.58613193 , -0.014654628, 0.0009977829, 923.6765    , 26.6069965  , 773.9182    , 3.66        , 3           , 255         , 0           , 0
-0.143105954, 9.79272652  , 0.1572684   , 2.71945028E-05, -0.0004176756, -0.000427715073, -1.58613169 , -0.0146588385, 0.00100202428, 923.6765    , 26.6069965  , 773.9181    , 3.67        , 3           , 255         , 0           , 0
-0.144618034, 9.79462     , 0.13992168  , -0.0002986684, -0.0005405346, -0.000207856167, -1.58613479 , -0.0146608334, 0.001007461 , 923.6765    , 26.6069965  , 773.917969  , 3.68        , 3           , 255         , 0           , 0
-0.137332335, 9.78212452  , 0.144987226 , 0.000227489742, -0.0006043922, 0.000260572473, -1.58613253 , -0.0146581363, 0.00101346488, 923.6765    , 26.6069965  , 773.917847  , 3.69        , 3           , 255         , 0           , 0
-0.143986553, 9.791351    , 0.1391515   , 1.00738835E-05, -0.000504013, 0.000219899768, -1.58613241 , -0.0146558592, 0.00101847074, 923.6765    , 26.6069965  , 773.9177    , 3.7         , 3           , 255         , 0           , 0
-0.145708114, 9.793854    , 0.149993613 , -4.00142744E-05, -0.000249866862, 0.0008836298, -1.58612514 , -0.0146471076, 0.00102072093, 923.6765    , 26.6069965  , 773.927734  , 3.71        , 3           , 255         , 0           , 0
-0.1423668  , 9.78949451  , 0.147412032 , 0.0001615457, 5.380204E-05, 0.0007741413, -1.58612335 , -0.0146393767, 0.00102006365, 923.6765    , 26.6069965  , 773.9277    , 3.72        , 3           , 255         , 0           , 0
-0.1389182  , 9.787541    , 0.158584967 , 0.000402432634, -0.00039188785, -0.000200899463, -1.58611941 , -0.0146413259, 0.001024012 , 923.631653  , 26.6061153  , 773.9276    , 3.73        , 3           , 255         , 0           , 0
-0.141999841, 9.793029    , 0.146080628 , -0.00126692688, -0.0007137663, -0.000491524232, -1.58613217 , -0.0146461278, 0.00103122427, 923.631653  , 26.6061153  , 773.927551  , 3.74        , 3           , 255         , 0           , 0
-0.141427591, 9.796102    , 0.152533084 , -0.000351412222, -0.0004179424, 7.162486E-05, -1.58613575 , -0.0146453483, 0.0010353924, 923.631653  , 26.6061153  , 773.9275    , 3.75        , 3           , 255         , 0           , 0
-0.139859051, 9.795348    , 0.1402457   , 0.0001494519, -5.261856E-05, 0.000378210971, -1.5861342  , -0.0146415588, 0.00103586132, 923.631653  , 26.6061153  , 773.9274    , 3.76        , 3           , 255         , 0           , 0
-0.142251432, 9.785069    , 0.148201555 , -7.67495949E-05, -0.000319459941, 3.50932678E-05, -1.586135   , -0.0146411592, 0.001039051 , 923.631653  , 26.6061153  , 773.927368  , 3.77        , 3           , 255         , 0           , 0
-0.1452544  , 9.783365    , 0.143727586 , -0.000155785936, -0.000637754449, 6.186667E-05, -1.5861367  , -0.0146404421, 0.00104541774, 923.631653  , 26.6061153  , 773.9273    , 3.78        , 3           , 255         , 0           , 0
-0.1439557  , 9.78047     , 0.142231867 , 7.770257E-05, -0.000287433155, -0.0001840628, -1.58613586 , -0.0146422386, 0.00104832044, 923.631653  , 26.6061153  , 773.927246  , 3.79        , 3           , 255         , 0           , 0
-0.143644065, 9.786216    , 0.141462609 , 0.0007829147, -0.000390945817, 0.000260128174, -1.586128   , -0.0146395769, 0.00105218962, 923.631653  , 26.6061153  , 773.9272    , 3.8         , 3           , 255         , 0           , 0
-0.13261953 , 9.786559    , 0.14230898  , -3.4349272E-05, -1.41864875E-05, 0.000364987063, -1.58612251 , -0.0146343233, 0.00105219032, 923.631653  , 26.6061153  , 773.9994    , 3.81        , 3           , 255         , 0           , 0
-0.138891816, 9.791595    , 0.139863878 , 0.00024495332, -0.0004447475, 0.00019451855, -1.58612013 , -0.0146323116, 0.00105660851, 923.631653  , 26.6061153  , 773.9998    , 3.82        , 3           , 255         , 0           , 0
-0.1418531  , 9.79182148  , 0.137549177 , -0.000207192148, -0.0004972076, 0.000648808433, -1.58612216 , -0.0146257477, 0.00106147979, 923.6467    , 26.60883    , 774.000244  , 3.83        , 3           , 255         , 0           , 0
-0.1464483  , 9.794978    , 0.136470988 , 8.345058E-05, -0.000105797313, 2.16285116E-05, -1.58612132 , -0.0146255158, 0.00106253324, 923.6467    , 26.60883    , 774.0007    , 3.84        , 3           , 255         , 0           , 0
-0.146303073, 9.786607    , 0.14867942  , 2.78360676E-06, -0.00102881051, 0.000207793477, -1.58612144 , -0.0146232806, 0.001072789 , 923.6467    , 26.60883    , 774.0011    , 3.85        , 3           , 255         , 0           , 0
-0.147577971, 9.78435     , 0.151390731 , 4.95411223E-05, -0.000588844, -0.000255114, -1.58612084 , -0.0146257412, 0.00107871613, 923.6467    , 26.60883    , 774.0015    , 3.86        , 3           , 255         , 0           , 0
-0.1345227  , 9.788443    , 0.147241548 , -0.000948510366, -0.0005176602, -0.000170218787, -1.5861305  , -0.0146273626, 0.00108391908, 923.6467    , 26.60883    , 774.001953  , 3.87        , 3           , 255         , 0           , 0
-0.142557338, 9.793139    , 0.146156579 , -0.000453455723, -0.000342748, 0.0008237079, -1.58613515 , -0.0146190738, 0.00108722085, 923.6467    , 26.60883    , 774.0024    , 3.88        , 3           , 255         , 0           , 0
-0.152965069, 9.802974    , 0.140926123 , -0.000239178655, -1.66282989E-05, 0.0008729185, -1.58613741 , -0.0146103427, 0.0010872524, 923.6467    , 26.60883    , 774.0028    , 3.89        , 3           , 255         , 0           , 0
-0.140506268, 9.792803    , 0.1486963   , -0.000289968448, 0.000198162743, -0.000368895446, -1.58614028 , -0.0146140633, 0.00108532724, 923.6467    , 26.60883    , 774.003235  , 3.9         , 3           , 255         , 0           , 0
-0.142534927, 9.786296    , 0.138988748 , 7.77418E-05 , -0.0004407647, 0.0002216525, -1.58613    , -0.0146105671, 0.00108956138, 923.6467    , 26.60883    , 774.0433    , 3.91        , 3           , 255         , 0           , 0
-0.136712015, 9.778982    , 0.154771224 , 0.000634545344, -0.0008068048, 0.000436833856, -1.58612382 , -0.0146060754, 0.00109756226, 923.6467    , 26.60883    , 774.043945  , 3.92        , 3           , 255         , 0           , 0
-0.138036981, 9.785096    , 0.14618431  , -1.584692E-05, -0.000589576666, 0.0005688941, -1.586124   , -0.0146002965, 0.00110337  , 923.7012    , 26.6117458  , 774.0446    , 3.93        , 3           , 255         , 0           , 0
-0.136354879, 9.790533    , 0.150855139 , -0.00020057091, 0.0003475626, 0.0006278098, -1.586126   , -0.0145940725, 0.00109979883, 923.7012    , 26.6117458  , 774.0453    , 3.94        , 3           , 255         , 0           , 0
-0.1388063  , 9.788167    , 0.1437957   , 0.0004803572, -0.00050722243, 0.000128633168, -1.5861212  , -0.014592709, 0.00110485184, 923.7012    , 26.6117458  , 774.045959  , 3.95        , 3           , 255         , 0           , 0
-0.141809925, 9.78909     , 0.1545634   , 0.000553898164, -0.000439200317, 0.000199462345, -1.5861156  , -0.0145906489, 0.00110921182, 923.7012    , 26.6117458  , 774.046631  , 3.96        , 3           , 255         , 0           , 0
-0.140486315, 9.785719    , 0.140487447 , -0.00046833 , -0.00012754777, 0.0007624163, -1.58612037 , -0.0145830056, 0.00111037132, 923.7012    , 26.6117458  , 774.0473    , 3.97        , 3           , 255         , 0           , 0
-0.144898891, 9.773182    , 0.142906621 , -0.000341660925, 0.000145151862, 0.000285820366, -1.58612382 , -0.01458017 , 0.00110887538, 923.7012    , 26.6117458  , 774.048     , 3.98        , 3           , 255         , 0           , 0
-0.139079288, 9.78277     , 0.1376907   , -0.000124820042, -0.000112639624, 0.000298261264, -1.5861249  , -0.01457717 , 0.00110995583, 923.7012    , 26.6117458  , 774.048645  , 3.99        , 3           , 255         , 0           , 0
-0.150920361, 9.78924751  , 0.146095157 , 0.000468714745, 0.000288686366, 0.000335987163, -1.58612013 , -0.0145738572, 0.001107018 , 923.7012    , 26.6117458  , 774.0493    , 4           , 3           , 0           , 9.447237    , 400
-0.14672707 , 9.799086    , 0.137204841 , -0.000322914449, -0.000440102536, 0.000105019717, -1.58611071 , -0.0145673053, 0.00111121673, 923.7012    , 26.6117458  , 774.005554  , 4.01        , 3           , 1           , 0           , 0
-0.14489229 , 9.791084    , 0.141159967 , -0.000507734, -0.000621572661, 0.0005934634, -1.58611584 , -0.0145612778, 0.00111734087, 923.7012    , 26.6117458  , 774.006     , 4.02        , 3           , 2           , 0           , 0
-0.141014829, 9.783033    , 0.144292265 , -0.0006548704, -8.288305E-06, 0.0008213186, -1.58612239 , -0.0145530645, 0.00111729733, 923.6821    , 26.6099148  , 774.0064    , 4.03        , 3           , 3           , 0           , 0
-0.140977144, 9.796485    , 0.146828458 , -0.000479920418, -0.000477255671, -0.0004611035, -1.58612728 , -0.0145576  , 0.00112214033, 923.6821    , 26.6099148  , 774.006836  , 4.04        , 3           , 4           , 0           , 0
-0.1499826  , 9.794401    , 0.135326654 , 4.58325958E-05, 4.741014E-05, 0.0004376137, -1.58612669 , -0.0145532349, 0.00112159853, 923.6821    , 26.6099148  , 774.007263  , 4.05        , 3           , 5           , 0           , 0
-0.1508018  , 9.789391    , 0.1489752   , 5.304662E-05, -0.0006614465, 0.000589886331, -1.58612621 , -0.0145472353, 0.00112812163, 923.6821    , 26.6099148  , 774.0077    , 4.06        , 3           , 6           , 0           , 0
-0.145135418, 9.7933      , 0.148467392 , -0.000134041649, -0.000361317769, 0.000274695252, -1.58612764 , -0.014544433, 0.00113169313, 923.6821    , 26.6099148  , 774.0081    , 4.07        , 3           , 7           , 0           , 0
-0.1485866  , 9.793012    , 0.143384308 , -0.0002463041, -0.0005651224, 0.000188576349, -1.58613014 , -0.0145424595, 0.0011373139, 923.6821    , 26.6099148  , 774.008545  , 4.08        , 3           , 8           , 5           , 5
-0.149752408, 9.785235    , 0.136626318 , -0.0003231999, -0.000315605081, 1.72794535E-05, -1.58613336 , -0.0145422388, 0.00114046619, 923.6821    , 26.6099148  , 774.009     , 4.09        , 3           , 9           , 5           , 0.1
-0.149786562, 9.788818    , 0.1384733   , -0.000215678127, -0.00033336645, -0.0006627246, -1.58613551 , -0.0145488139, 0.001143902 , 923.6821    , 26.6099148  , 774.0094    , 4.1         , 3           , 10          , 0.1         , 0.1
-0.153716654, 9.801809    , 0.137450978 , 0.00121741567, -0.00016283954, -0.0005283628, -1.58611143 , -0.0145602562, 0.00114543852, 923.6821    , 26.6099148  , 773.9984    , 4.11        , 3           , 11          , 0.006256084 , 0.006256076
-0.155265048, 9.79892     , 0.149749354 , -0.00130563625, -0.000631453353, -0.001050057, -1.58612454 , -0.0145706609, 0.00115191343, 923.6821    , 26.6099148  , 773.9988    , 4.12        , 3           , 12          , 0.174648076 , 0
-0.141965151, 9.790003    , 0.144550651 , 0.000821232 , -0.00017163076, -0.001164471, -1.58611631 , -0.0145822773, 0.001153807 , 923.635     , 26.6074047  , 773.999146  , 4.13        , 3           , 13          , 0           , 0
-0.134213239, 9.780348    , 0.143191963 , 0.002549823 , 0.000202651136, -0.00065837265, -1.5860908  , -0.0145888906, 0.001151882 , 923.635     , 26.6074047  , 773.9995    , 4.14        , 3           , 14          , 0.00172269356, 0.00142452342
-0.141134679, 9.775925    , 0.139688388 , 0.00402095728, -0.000322575332, -0.000213601088, -1.58605063 , -0.0145909749, 0.00115514034, 923.635     , 26.6074047  , 773.9999    , 4.15        , 3           , 15          , 0           , 0.000212429848
-0.137618512, 9.772467    , 0.132797509 , 0.00175537018, -0.0004832534, 0.000141294091, -1.58603323 , -0.0145894876, 0.00115995109, 923.635     , 26.6074047  , 774.000244  , 4.16        , 3           , 16          , 0           , 1.401298E-45
-0.145481482, 9.779133    , 0.141359627 , 0.000926748966, -0.000304076821, 0.0003759992, -1.58602393 , -0.0145856859, 0.00116293493, 923.635     , 26.6074047  , 774.0006    , 4.17        , 3           , 20          , 0           , 0
-0.138531208, 9.791159    , 0.135272622 , 0.001942715 , -0.0004666571, 0.000625385 , -1.58600461 , -0.01457936 , 0.00116750645, 923.635     , 26.6074047  , 774.001     , 4.18        , 3           , 21          , 0           , 0
-0.133870438, 9.79362     , 0.133761    , 0.002656384 , -0.0007316095, 0.000193394575, -1.585978   , -0.0145773143, 0.001174793 , 923.635     , 26.6074047  , 774.001343  , 4.19        , 3           , 22          , 0           , 0
-0.1444597  , 9.792138    , 0.135865524 , 0.00161494233, -0.0005878967, -0.000150258158, -1.58596194 , -0.0145787271, 0.00118069409, 923.635     , 26.6074047  , 774.0017    , 4.2         , 3           , 40          , 0           , 0
-0.136414349, 9.79722     , 0.1354471   , 0.0009207771, -0.001054446, 0.0001078029, -1.58593214 , -0.0145770777, 0.0011909178, 923.635     , 26.6074047  , 774.0584    , 4.21        , 3           , 41          , 0           , 0
-0.1414674  , 9.78815     , 0.142557412 , 0.000417622854, -0.0006528559, -0.000248537021, -1.58592784 , -0.0145794647, 0.001197483 , 923.635     , 26.6074047  , 774.059143  , 4.22        , 3           , 42          , 0           , 0
-0.136028171, 9.78051     , 0.153453439 , 0.000787452 , -0.0004541704, 0.0002208565, -1.5859201  , -0.0145771867, 0.00120199053, 923.665161  , 26.610796   , 774.0599    , 4.23        , 3           , 255         , 0           , 0
-0.151470453, 9.802545    , 0.151456788 , 0.00022682792, -0.0007413677, -0.0002501534, -1.58591783 , -0.0145795764, 0.00120944192, 923.665161  , 26.610796   , 774.0606    , 4.24        , 3           , 255         , 0           , 0
-0.151895225, 9.789107    , 0.150240824 , 0.0006054734, -0.000473060121, -0.000231034472, -1.58591187 , -0.0145818153, 0.00121420762, 923.665161  , 26.610796   , 774.06134   , 4.25        , 3           , 255         , 0           , 0
-0.1370059  , 9.78652     , 0.149975151 , 0.00032783614, -0.0004832007, -0.000191501967, -1.58590865 , -0.0145836575, 0.00121906819, 923.665161  , 26.610796   , 774.0621    , 4.26        , 3           , 255         , 0           , 0
-0.145318747, 9.784958    , 0.155585572 , 0.000345184817, -0.000287255738, 0.000211520222, -1.58590519 , -0.0145814968, 0.00122190872, 923.665161  , 26.610796   , 774.0628    , 4.27        , 3           , 255         , 0           , 0
-0.150168881, 9.78877449  , 0.141707227 , 0.0012037704, -0.000122915138, -0.000412365363, -1.58589315 , -0.0145856021, 0.0012232007, 923.665161  , 26.610796   , 774.063538  , 4.28        , 3           , 255         , 0           , 0
-0.152247831, 9.783851    , 0.157087132 , -0.002694307, -9.582599E-05, -0.000758818933, -1.5859201  , -0.0145931747, 0.0012242737, 923.665161  , 26.610796   , 774.0643    , 4.29        , 3           , 255         , 0           , 0
-0.144174531, 9.781659    , 0.151673913 , -0.00107446476, -9.712065E-05, -0.00061303546, -1.58593082 , -0.01459929 , 0.00122533645, 923.665161  , 26.610796   , 774.065     , 4.3         , 3           , 255         , 0           , 0
-0.147208989, 9.794517    , 0.15202406  , 0.00132986461, -0.000263264752, 0.000439975876, -1.58591926 , -0.0145982644, 0.00122792739, 923.665161  , 26.610796   , 774.0697    , 4.31        , 3           , 255         , 0           , 0
-0.145103723, 9.797967    , 0.139521047 , 0.00234778924, -0.000256368658, 0.000100973586, -1.5858959  , -0.0145972157, 0.00123047526, 923.665161  , 26.610796   , 774.070435  , 4.32        , 3           , 255         , 0           , 0
-0.144087583, 9.772203    , 0.140078276 , 0.002321296 , -6.70744339E-05, 0.0008155736, -1.58587265 , -0.0145890545, 0.00123102334, 923.7034    , 26.6099815  , 774.071167  , 4.33        , 3           , 255         , 0           , 0
-0.142798319, 9.79191     , 0.138685167 , 0.00233044988, -0.000407498446, 0.0004135794, -1.58584929 , -0.0145848552, 0.0012350363, 923.7034    , 26.6099815  , 774.0719    , 4.34        , 3           , 255         , 0           , 0
-0.140467361, 9.787375    , 0.148462    , 0.00131690991, -0.0002583065, 0.000660762 , -1.58583617 , -0.0145782083, 0.00123751885, 923.7034    , 26.6099815  , 774.0727    , 4.35        , 3           , 255         , 0           , 0
-0.141584784, 9.785884    , 0.132259265 , 0.000890690833, -0.000538644439, 0.00086889544, -1.58582735 , -0.0145694437, 0.00124277489, 923.7034    , 26.6099815  , 774.0735    , 4.36        , 3           , 255         , 0           , 0
-0.148619518, 9.794729    , 0.130344257 , 0.000474161934, -8.941558E-05, 0.000645427033, -1.58582258 , -0.0145629747, 0.00124357175, 923.7034    , 26.6099815  , 774.0743    , 4.37        , 3           , 255         , 0           , 0
-0.141433343, 9.802401    , 0.136232242 , -0.000380283338, 4.891306E-06, 0.000867210561, -1.5858264  , -0.0145543069, 0.0012433927, 923.7034    , 26.6099815  , 774.0751    , 4.38        , 3           , 255         , 0           , 0
-0.131637186, 9.798212    , 0.143185347 , -0.0005457266, -0.000233939732, 0.000874817139, -1.58583188 , -0.0145455236, 0.00124560017, 923.7034    , 26.6099815  , 774.075867  , 4.39        , 3           , 255         , 0           , 0
-0.1403361  , 9.79677     , 0.135493174 , -0.000409723725, -0.00049145153, 0.000262521382, -1.58583593 , -0.0145428237, 0.00125047518, 923.7034    , 26.6099815  , 774.07666   , 4.4         , 3           , 255         , 0           , 0
-0.144807935, 9.78589249  , 0.1443077   , -0.0007340291, -0.000933702337, 6.226373E-05, -1.58583319 , -0.0145414323, 0.00125965336, 923.7034    , 26.6099815  , 774.0256    , 4.41        , 3           , 255         , 0           , 0
-0.143358082, 9.783922    , 0.136440322 , -0.000606119633, -0.0003639944, -0.0005599118, -1.58583927 , -0.0145469764, 0.00126337679, 923.7034    , 26.6099815  , 774.026     , 4.42        , 3           , 255         , 0           , 0
-0.150869444, 9.795941    , 0.145291358 , -8.689659E-05, -0.000651344948, -9.399395E-05, -1.58584011 , -0.0145478183, 0.0012699042, 923.644958  , 26.61127    , 774.0264    , 4.43        , 3           , 255         , 0           , 0
-0.144833475, 9.787701    , 0.141803116 , 0.000636570854, -0.000410440029, 0.000209320875, -1.58583379 , -0.0145456633, 0.00127397815, 923.644958  , 26.61127    , 774.026855  , 4.44        , 3           , 255         , 0           , 0
-0.147461072, 9.785106    , 0.14617081  , -4.14412934E-05, -0.0005788636, 0.0007199851, -1.58583426 , -0.0145383775, 0.00127965736, 923.644958  , 26.61127    , 774.0273    , 4.45        , 3           , 255         , 0           , 0
-0.139466017, 9.782656    , 0.139140725 , 0.000696107745, -0.000354088377, 0.0003129494, -1.58582723 , -0.0145351961, 0.00128315017, 923.644958  , 26.61127    , 774.0278    , 4.46        , 3           , 255         , 0           , 0
-0.132489592, 9.794065    , 0.143531948 , 0.0005355028, -0.000246405252, 0.000449653948, -1.58582187 , -0.0145306634, 0.00128554564, 923.644958  , 26.61127    , 774.028259  , 4.47        , 3           , 255         , 0           , 0
-0.1463091  , 9.790584    , 0.131872073 , 0.000146806124, -2.029573E-05, 3.85897147E-05, -1.58582032 , -0.0145302741, 0.001285743 , 923.644958  , 26.61127    , 774.028748  , 4.48        , 3           , 255         , 0           , 0
-0.1455094  , 9.793207    , 0.140013888 , 0.000191570376, -0.000207168632, -0.0001800325, -1.58581853 , -0.0145320436, 0.001287842 , 923.644958  , 26.61127    , 774.029236  , 4.49        , 3           , 255         , 0           , 0
-0.142373115, 9.79405     , 0.138112515 , 0.000570502132, -0.000216093962, -0.000104915707, -1.58581281 , -0.01453306 , 0.00129001832, 923.644958  , 26.61127    , 774.0297    , 4.5         , 3           , 255         , 0           , 0
-0.142165363, 9.787785    , 0.138359159 , 0.000486084726, -0.000144169433, -7.550772E-05, -1.58579707 , -0.0145360548, 0.001291314 , 923.644958  , 26.61127    , 774.068     , 4.51        , 3           , 255         , 0           , 0
-0.13901943 , 9.792408    , 0.133492678 , 0.000129389809, -0.000350587768, 0.000242113019, -1.58579576 , -0.01453358 , 0.00129478367, 923.644958  , 26.61127    , 774.0687    , 4.52        , 3           , 255         , 0           , 0
-0.136928663, 9.78165     , 0.150299326 , 2.66877469E-05, -0.000153688481, 0.001008335 , -1.5857954  , -0.0145234745, 0.00129616808, 923.7013    , 26.6118145  , 774.069458  , 4.53        , 3           , 255         , 0           , 0
-0.141082525, 9.780539    , 0.146554142 , -0.0001759188, -0.000250745681, 0.000743794255, -1.58579719 , -0.0145160016, 0.00129856344, 923.7013    , 26.6118145  , 774.0702    , 4.54        , 3           , 255         , 0           , 0
-0.1416307  , 9.783818    , 0.150947362 , 0.0007129973, -0.0005169103, -0.00028569327, -1.58579    , -0.0145187806, 0.00130377524, 923.7013    , 26.6118145  , 774.0709    , 4.55        , 3           , 255         , 0           , 0
-0.139370814, 9.790535    , 0.148948878 , 0.001227689 , -0.000151071115, 0.0008518321, -1.58577776 , -0.0145102413, 0.0013051579, 923.7013    , 26.6118145  , 774.071655  , 4.56        , 3           , 255         , 0           , 0
-0.143604577, 9.78997     , 0.150574863 , 0.0009284266, -0.000847027637, 0.000787783763, -1.58576858 , -0.01450224 , 0.00131351035, 923.7013    , 26.6118145  , 774.0724    , 4.57        , 3           , 255         , 0           , 0
-0.14282915 , 9.791888    , 0.148774549 , 0.00188765815, -0.000503097661, 0.0005299236, -1.58574975 , -0.0144968638, 0.001318462 , 923.7013    , 26.6118145  , 774.0731    , 4.58        , 3           , 255         , 0           , 0
-0.140020937, 9.798205    , 0.142927662 , 0.00198898464, 0.000195581815, 0.000573696336, -1.58572984 , -0.0144911567, 0.00131642015, 923.7013    , 26.6118145  , 774.073853  , 4.59        , 3           , 255         , 0           , 0
-0.142093018, 9.787306    , 0.144991308 , 0.00199989229, 0.000355498516, 0.00027398768, -1.58570969 , -0.01448847 , 0.00131282455, 923.7013    , 26.6118145  , 774.0746    , 4.6         , 3           , 255         , 0           , 0
-0.1434329  , 9.780804    , 0.143234611 , 0.00186922518, -0.000465764315, 0.000905944733, -1.58568883 , -0.0144771347, 0.00131731457, 923.7013    , 26.6118145  , 774.027039  , 4.61        , 3           , 255         , 0           , 0
-0.147376671, 9.789147    , 0.15093565  , 0.000933350064, 0.0006827576, 0.0007222486, -1.58567953 , -0.0144700184, 0.00131038018, 923.7013    , 26.6118145  , 774.027466  , 4.62        , 3           , 255         , 0           , 0
-0.166461244, 9.780111    , 0.196636349 , 0.001975655 , 0.0165045559, 0.0005461833, -1.58565736 , -0.0144670075, 0.0011452582, 923.657837  , 26.6129     , 774.0279    , 4.63        , 3           , 255         , 0           , 0
-0.198145181, 9.789035    , 0.269329369 , 0.00496706972, 0.0838862062, 3.96923861E-05, -1.58559549 , -0.0144790495, 0.0003064135, 923.657837  , 26.6129     , 774.0283    , 4.64        , 3           , 255         , 0           , 0
-0.16034849 , 9.777215    , 0.180003792 , 0.00728981756, 0.154251873 , 0.0006852207, -1.58550036 , -0.0144949472, -0.00123616762, 923.657837  , 26.6129     , 774.028748  , 4.65        , 3           , 255         , 0           , 0
-0.09753214 , 9.779396    , 0.05561971  , 0.00135429343, 0.136471987 , 0.000626211753, -1.58546686 , -0.0145087242, -0.00260094879, 923.657837  , 26.6129     , 774.0292    , 4.66        , 3           , 255         , 0           , 0
-0.101180352, 9.78318     , 0.03166751  , -0.002595113, 0.08076087  , 0.0001919574, -1.58548117 , -0.014518654, -0.00340856612, 923.657837  , 26.6129     , 774.0296    , 4.67        , 3           , 255         , 0           , 0
-0.106139287, 9.755853    , 0.06620213  , -0.0031304243, 0.0217882022, 0.00147827982, -1.58550918 , -0.0145070758, -0.003626661, 923.657837  , 26.6129     , 774.03      , 4.68        , 3           , 255         , 0           , 0
-0.085112825, 9.735777    , 0.1545337   , -0.0006937892, 0.00194487639, 0.00331686344, -1.58551574 , -0.0144741954, -0.00364659657, 923.657837  , 26.6129     , 774.030457  , 4.69        , 3           , 255         , 0           , 0
-0.115918778, 9.876738    , 0.161517814 , -0.000262686634, 0.008177729 , 0.00115402823, -1.58551717 , -0.01446386 , -0.00372854178, 923.657837  , 26.6129     , 774.0309    , 4.7         , 3           , 255         , 0           , 0
-0.307040483, 9.883451    , 0.147072136 , 0.00101186545, 0.0296499319, -0.0021996724, -1.58549368 , -0.0144635383, -0.00402484043, 923.657837  , 26.6129     , 774.0506    , 4.71        , 3           , 255         , 0           , 0
-0.318854958, 9.75883     , 0.173655555 , 0.00281771249, 0.07064913  , -0.0012294685, -1.5854553  , -0.0144862011, -0.00473113358, 923.657837  , 26.6129     , 774.051147  , 4.72        , 3           , 255         , 0           , 0
-0.148488015, 9.766382    , 0.201282308 , 0.0013741625, 0.09989646  , 0.00083596335, -1.58542717 , -0.0144924736, -0.005730195, 923.686462  , 26.61256    , 774.0517    , 4.73        , 3           , 255         , 0           , 0
-0.0152897481, 9.759024    , 0.161430284 , -0.0001309308, 0.09009842  , 0.0006050307, -1.58541548 , -0.0144995982, -0.0066312463, 923.686462  , 26.61256    , 774.052246  , 4.74        , 3           , 255         , 0           , 0
-0.0488742739, 9.75671     , 0.07219194  , -0.00272021187, 0.04809659  , -0.000623346539, -1.58543575 , -0.0145128658, -0.00711210957, 923.686462  , 26.61256    , 774.0528    , 4.75        , 3           , 255         , 0           , 0
-0.141651   , 9.793193    , 0.0690627843, -0.004265206, 0.0126959514, -0.000596847269, -1.58547652 , -0.0145206926, -0.007238978, 923.686462  , 26.61256    , 774.053345  , 4.76        , 3           , 255         , 0           , 0
-0.162130058, 9.841028    , 0.116928712 , -0.003471043, 0.000363105559, -3.00508837E-05, -1.58551121 , -0.0145210456, -0.00724260462, 923.686462  , 26.61256    , 774.0539    , 4.77        , 3           , 255         , 0           , 0
-0.147372827, 9.8377285   , 0.145852268 , -0.00177382748, -0.000394821167, 0.0003709544, -1.585529   , -0.0145172793, -0.00723871263, 923.686462  , 26.61256    , 774.054443  , 4.78        , 3           , 255         , 0           , 0
