Acc X       , Acc Y       , Acc Z       , Gyro X      , Gyro Y      , Gyro Z      , Euler X     , Euler Y     , Euler Z     , Pres X      , Pres Y      , Pres Z      , Time        , Status      , LowRate X   , LowRate Y   , LowRate Z    
-0.168203369, 9.786653    , 0.0035246422, 0           , 0           , 0           , -1.5711565  , -0.0171853248, 1.9977566   , 918.6974    , 31.3121128  , 818.7623    , 0           , 2           , 0           , 5.45623159  , 0
-0.163457826, 9.79819     , -0.006700316, 0.0003542138, 0.000103602739, 7.768889E-06, -1.57115281 , -0.017185282, 1.99775529  , 918.6974    , 31.3121128  , 818.7623    , 0.01        , 7           , 1           , 0           , 0
-0.161456749, 9.796973    , -0.0019883397, -0.000135247043, -0.000270972581, -0.0006700999, -1.57115436 , -0.01719196 , 1.997758    , 918.6974    , 31.3121128  , 818.7623    , 0.02        , 7           , 2           , 0           , 0
-0.165238172, 9.795066    , 0.0019377328, 0.000202918382, -0.000283826434, 6.458984E-06, -1.57115233 , -0.0171919  , 1.99776089  , 918.669434  , 30.8697147  , 818.7623    , 0.03        , 7           , 3           , 0           , 0
-0.1632429  , 9.789209    , 0.0034999582, -0.0004717975, -0.000392368063, 0.00067410327, -1.5711571  , -0.0171851031, 1.99776483  , 918.669434  , 30.8697147  , 818.7623    , 0.04        , 7           , 4           , 0           , 0
-0.1604073  , 9.7979      , 0.009159409 , 7.573617E-05, -0.0002849854, 0.000101463695, -1.57115638 , -0.01718406 , 1.99776745  , 918.669434  , 30.8697147  , 818.7623    , 0.05        , 7           , 5           , 0           , 0
-0.162535742, 9.798964    , 0.0055251224, 0.000186357531, 0.000164021214, -0.000649615657, -1.57115448 , -0.017190529, 1.9977659   , 918.669434  , 30.8697147  , 818.7623    , 0.06        , 7           , 6           , 0           , 0
-0.157298937, 9.793233    , 0.00252718735, 9.72834241E-05, 0.000106129854, -0.000121946941, -1.5711534  , -0.0171916615, 1.99776483  , 918.669434  , 30.8697147  , 818.7623    , 0.07        , 7           , 7           , 0           , 0
-0.172151566, 9.7900095   , 0.0166419856, -0.0003103786, 0.000338540529, -0.00106938416, -1.5711565  , -0.01720233 , 1.99776125  , 918.669434  , 30.8697147  , 818.7623    , 0.08        , 7           , 8           , 5           , 5
-0.184955135, 9.78483     , 0.0171464626, 0.000298095343, -7.895351E-05, -0.0008665984, -1.57115352 , -0.0172109753, 1.99776208  , 918.669434  , 30.8697147  , 818.7623    , 0.09        , 7           , 9           , 5           , 0.1
-0.177077845, 9.805945    , 0.011670555 , 0.0001621957, 0.0005271113, 9.439592E-05, -1.57115173 , -0.0172100514, 1.99775684  , 918.669434  , 30.8697147  , 818.7623    , 0.1         , 7           , 10          , 0.1         , 0.1
-0.168012172, 9.79572     , 0.00779899  , 4.60982847E-05, -8.591189E-05, -0.000201681833, -1.57116    , -0.0172065347, 1.99775767  , 918.669434  , 30.8697147  , 819.01355   , 0.11        , 7           , 11          , 0.0109544508, 0.0109544508
-0.169017032, 9.796708    , 0.0150500583, 0.000203695978, -0.000344864966, 0.0003038898, -1.571158   , -0.0172035247, 1.99776125  , 918.669434  , 30.8697147  , 819.01355   , 0.12        , 7           , 12          , 0.0346410163, 0
-0.172081023, 9.795121    , 0.008458278 , 0.000148590116, 8.201957E-05, 0.00019536732, -1.5711565  , -0.0172015559, 1.99776042  , 918.6848    , 30.9090633  , 819.01355   , 0.13        , 7           , 13          , 0           , 0
-0.176446751, 9.80119     , 0.01048853  , 0.000570374948, 0.000108487118, -0.000429900538, -1.5711509  , -0.01720588 , 1.99775922  , 918.6848    , 30.9090633  , 819.01355   , 0.14        , 7           , 14          , -0.000382748869, 0.000344778644
-0.180447727, 9.804944    , 0.009280011 , 0.0006098229, -8.743518E-05, 3.95443931E-05, -1.57114482 , -0.0172055215, 1.99776018  , 918.6848    , 30.9090633  , 819.01355   , 0.15        , 7           , 15          , 0           , 0.000287943461
-0.168467924, 9.800636    , 0.0122697055, 0.0004952957, 1.34112779E-05, 0.000285112 , -1.57113981 , -0.01720263 , 1.99776     , 918.6848    , 30.9090633  , 819.0136    , 0.16        , 7           , 16          , 0           , 1.401298E-45
-0.171226889, 9.791464    , 0.0149889914, 0.0005595094, 5.38508175E-06, 0.000367017579, -1.57113421 , -0.0171989035, 1.99776     , 918.6848    , 30.9090633  , 819.0137    , 0.17        , 7           , 20          , 0           , 0
-0.169112846, 9.792731    , 0.005658767 , 0.0003308937, 0.000124430109, -0.000154982627, -1.57113087 , -0.017200483, 1.99775887  , 918.6848    , 30.9090633  , 819.013733  , 0.18        , 7           , 21          , 0           , 0
-0.171690345, 9.79588     , 0.00119378953, 6.840375E-05, 0.000433172856, -9.58911E-05, -1.57113016 , -0.0172014367, 1.99775457  , 918.6848    , 30.9090633  , 819.0138    , 0.19        , 7           , 22          , 0           , 0
-0.176996022, 9.799376    , -0.0014984532, -0.000591042335, -0.00018536608, 0.000231692335, -1.571136   , -0.0171991419, 1.99775648  , 918.6848    , 30.9090633  , 819.013855  , 0.2         , 7           , 40          , 0           , 0
-0.158677608, 9.804345    , 0.00316683762, -0.000168979139, -0.000275149243, 0.000630527 , -1.57115269 , -0.01720415 , 1.99775946  , 918.6848    , 30.9090633  , 818.945     , 0.21        , 7           , 41          , 0           , 0
-0.155692965, 9.801605    , -0.0005438989, 4.146152E-05, 0.000287194 , 0.000135915208, -1.57115221 , -0.01720284 , 1.99775648  , 918.6848    , 30.9090633  , 818.945068  , 0.22        , 7           , 42          , 1           , 0
-0.167936713, 9.791183    , -7.02675461E-05, -9.83109057E-05, 0.000175286579, 0.000104359118, -1.57115316 , -0.0172018837, 1.99775469  , 918.700256  , 30.9317226  , 818.9451    , 0.23        , 7           , 255         , 0           , 0
-0.165256217, 9.792892    , 0.00178462639, -0.0002663758, 0.000175348745, -0.000180637857, -1.57115567 , -0.0172037035, 1.9977529   , 918.700256  , 30.9317226  , 818.9452    , 0.24        , 7           , 255         , 0           , 0
-0.167500526, 9.797196    , 0.004474807 , 0.0002708992, -9.991083E-06, -0.000456602924, -1.571153   , -0.0172083229, 1.99775314  , 918.700256  , 30.9317226  , 818.945251  , 0.25        , 7           , 255         , 0           , 0
-0.156928033, 9.797878    , 0.002981823 , 0.000243122471, -0.0001777254, 0.000139425683, -1.57115066 , -0.0172069222, 1.99775481  , 918.700256  , 30.9317226  , 818.9453    , 0.26        , 7           , 255         , 0           , 0
-0.153252333, 9.793278    , 0.0002874403, 7.87672761E-05, -8.6300046E-05, -0.0005202807, -1.57114983 , -0.0172121078, 1.99775565  , 918.700256  , 30.9317226  , 818.9454    , 0.27        , 7           , 255         , 0           , 0
-0.161939874, 9.790935    , -0.0029658433, -8.52822E-05, 0.0009662056, -0.000388098182, -1.57115054 , -0.0172160137, 1.99774587  , 918.700256  , 30.9317226  , 818.945435  , 0.28        , 7           , 255         , 0           , 0
-0.166959822, 9.804235    , -0.001160518, -0.000144473655, 0.000321633852, -0.000243314818, -1.57115185 , -0.0172183681, 1.99774265  , 918.700256  , 30.9317226  , 818.9455    , 0.29        , 7           , 255         , 0           , 0
-0.163656831, 9.797873    , 0.002980106 , -0.0003673512, -7.06067658E-06, -0.0009126573, -1.57115555 , -0.0172275174, 1.99774265  , 918.700256  , 30.9317226  , 818.945557  , 0.3         , 7           , 255         , 0           , 0
-0.162418887, 9.793959    , -0.00071010075, -0.000405441446, -0.00044386118, -0.000271733734, -1.57115245 , -0.0172098428, 1.997747    , 918.700256  , 30.9317226  , 818.8754    , 0.31        , 7           , 255         , 0           , 0
-0.1565936  , 9.796504    , 0.00268084416, 0.000240537687, -8.161587E-07, 0.000315835816, -1.57115006 , -0.0172066838, 1.99774683  , 918.700256  , 30.9317226  , 818.8755    , 0.32        , 7           , 255         , 0           , 0
-0.158177346, 9.792978    , 0.008065933 , -4.96341381E-05, 0.00042456243, -0.0003364416, -1.57115042 , -0.0172100812, 1.99774253  , 918.73114   , 30.9491577  , 818.875549  , 0.33        , 7           , 255         , 0           , 0
-0.169955164, 9.791899    , 0.00315075228, -0.000189010112, 1.81648647E-06, -0.000509370235, -1.57115233 , -0.01721518 , 1.99774253  , 918.73114   , 30.9491577  , 818.8756    , 0.34        , 7           , 255         , 0           , 0
-0.1748193  , 9.794699    , 0.0135368211, 0.0006616969, 0.0007747103, 0.000300757878, -1.57114553 , -0.0172121674, 1.99773467  , 918.73114   , 30.9491577  , 818.8757    , 0.35        , 7           , 255         , 0           , 0
-0.172626182, 9.783772    , 0.004013906 , -7.894309E-05, -0.0003990579, 0.00021339563, -1.57114637 , -0.0172100216, 1.99773872  , 918.73114   , 30.9491577  , 818.875732  , 0.36        , 7           , 255         , 0           , 0
-0.164700061, 9.788786    , 0.00047407244, 0.000238604523, -0.0004945345, -9.036482E-05, -1.571144   , -0.0172109157, 1.99774361  , 918.73114   , 30.9491577  , 818.8758    , 0.37        , 7           , 255         , 0           , 0
-0.160398081, 9.80179     , 0.00604588026, 0.000299650157, 0.0003226918, -0.000630287046, -1.57114089 , -0.017217176, 1.99774039  , 918.73114   , 30.9491577  , 818.875854  , 0.38        , 7           , 255         , 0           , 0
-0.1586727  , 9.786689    , 0.0020897158, 3.36125959E-06, 0.0003090679, -0.00100416318, -1.57114089 , -0.01722722 , 1.99773729  , 918.73114   , 30.9491577  , 818.8759    , 0.39        , 7           , 255         , 0           , 0
-0.17791447 , 9.791078    , 0.00149674132, -0.000416653929, 4.359521E-06, -0.0001999261, -1.571145   , -0.0172292776, 1.99773717  , 918.73114   , 30.9491577  , 818.876     , 0.4         , 7           , 255         , 0           , 0
-0.17186597 , 9.802857    , 0.0065599517, 0.00028868916, 6.85314E-05 , -0.000371054834, -1.5711447  , -0.0172214378, 1.99773645  , 918.73114   , 30.9491577  , 818.770264  , 0.41        , 7           , 255         , 0           , 0
-0.173883766, 9.806171    , 0.00294863037, 1.320304E-05, 1.61558855E-05, -0.00041881096, -1.57114458 , -0.01722564 , 1.99773622  , 918.73114   , 30.9491577  , 818.7703    , 0.42        , 7           , 255         , 0           , 0
-0.166698009, 9.789353    , 0.004437961 , -0.00021732485, -0.000198106049, -0.0003683652, -1.57114685 , -0.017229367, 1.99773824  , 918.7252    , 30.9610977  , 818.7704    , 0.43        , 7           , 255         , 0           , 0
-0.1607943  , 9.798582    , 0.0106296781, 0.000319207727, -0.000152097113, -0.0008918515, -1.57114363 , -0.0172382183, 1.99773979  , 918.7252    , 30.9610977  , 818.770447  , 0.44        , 7           , 255         , 0           , 0
-0.178668708, 9.796366    , 0.005597361 , 0.00036591175, 4.972369E-05, -0.0004894438, -1.57113993 , -0.0172431376, 1.9977392   , 918.7252    , 30.9610977  , 818.7705    , 0.45        , 7           , 255         , 0           , 0
-0.183947414, 9.801099    , 0.00651228568, -0.0002153235, 9.520457E-05, -0.000211198174, -1.5711422  , -0.0172453132, 1.99773824  , 918.7252    , 30.9610977  , 818.770569  , 0.46        , 7           , 255         , 0           , 0
-0.17422685 , 9.795738    , 0.00523188664, 0.000298402738, -1.75958558E-05, -2.79779779E-05, -1.5711391  , -0.0172455516, 1.99773836  , 918.7252    , 30.9610977  , 818.7706    , 0.47        , 7           , 255         , 0           , 0
-0.172685623, 9.803341    , 0.005912683 , 0.000345591077, -0.000173661654, 0.0004924361, -1.57113564 , -0.0172406044, 1.99774015  , 918.7252    , 30.9610977  , 818.7707    , 0.48        , 7           , 255         , 0           , 0
-0.1631197  , 9.799327    , 0.009986723 , 0.0002263218, 0.000368923036, -0.00012363054, -1.57113338 , -0.0172417965, 1.99773645  , 918.7252    , 30.9610977  , 818.770752  , 0.49        , 7           , 255         , 0           , 0
-0.170505881, 9.791205    , 0.00582632655, -0.000414494978, -5.835324E-05, -0.000288397656, -1.57113755 , -0.0172447171, 1.997737    , 918.7252    , 30.9610977  , 818.7708    , 0.5         , 7           , 255         , 0           , 0
-0.174742937, 9.788413    , 0.00573826348, 0.0001797276, -5.999551E-06, 0.000419548975, -1.57114351 , -0.0172474887, 1.99773729  , 918.7252    , 30.9610977  , 818.7177    , 0.51        , 7           , 255         , 0           , 0
-0.1723239  , 9.798559    , 0.008558916 , -0.0003467231, 0.000727448263, -0.0002585768, -1.571147   , -0.0172501113, 1.99773     , 918.7252    , 30.9610977  , 818.7178    , 0.52        , 7           , 255         , 0           , 0
-0.179862112, 9.79460049  , -0.00376801379, 0.0001883098, -2.04195385E-06, -0.000137938667, -1.571145   , -0.017251512, 1.99773     , 918.682     , 30.9659824  , 818.717834  , 0.53        , 7           , 255         , 0           , 0
-0.172392085, 9.790114    , 0.00205690018, -2.59411754E-05, -3.8725324E-05, 0.000586642767, -1.5711453  , -0.0172456112, 1.99773049  , 918.682     , 30.9659824  , 818.7179    , 0.54        , 7           , 255         , 0           , 0
-0.171896726, 9.788861    , 0.006735412 , 0.000211305814, 0.0005551351, 1.707091E-05, -1.571143   , -0.0172454026, 1.99772489  , 918.682     , 30.9659824  , 818.717957  , 0.55        , 7           , 255         , 0           , 0
-0.170825124, 9.79661751  , 0.0129733579, 0.0006860554, 0.000237030472, -0.00063370727, -1.57113612 , -0.01725175 , 1.99772239  , 918.682     , 30.9659824  , 818.7181    , 0.56        , 7           , 255         , 0           , 0
-0.167065829, 9.799383    , 0.007767044 , -9.70253E-05, -0.000128455111, -0.00131885812, -1.57113719 , -0.0172649845, 1.99772358  , 918.682     , 30.9659824  , 818.7182    , 0.57        , 7           , 255         , 0           , 0
-0.164793283, 9.79663     , 0.009242103 , -0.000426643266, 1.72239088E-05, -0.000198147347, -1.57114136 , -0.0172669534, 1.99772346  , 918.682     , 30.9659824  , 818.7183    , 0.58        , 7           , 255         , 0           , 0
-0.165685192, 9.80034351  , 0.002488633 , 0.000321946252, -0.000365707325, 0.000391000445, -1.57113838 , -0.0172630772, 1.997727    , 918.682     , 30.9659824  , 818.718445  , 0.59        , 7           , 255         , 0           , 0
-0.1658566  , 9.792508    , 0.006987954 , 0.0003073813, -9.025622E-06, -0.000190778374, -1.57113528 , -0.0172649845, 1.99772716  , 918.682     , 30.9659824  , 818.718567  , 0.6         , 7           , 255         , 0           , 0
-0.17316632 , 9.78918     , 0.00450956542, 0.000295329228, 0.000554598751, -0.0008959593, -1.57113993 , -0.0172790252, 1.99772155  , 918.682     , 30.9659824  , 818.7505    , 0.61        , 7           , 255         , 0           , 0
-0.172740743, 9.789219    , 0.00372818788, 0.000170030777, 0.000203586533, -0.000357355573, -1.57113826 , -0.0172826312, 1.99771965  , 918.682     , 30.9659824  , 818.7506    , 0.62        , 7           , 255         , 0           , 0
-0.1691816  , 9.794027    , 0.008151448 , 0.000235416082, 0.000108059176, -0.000529080629, -1.57113588 , -0.0172878765, 1.99771845  , 918.6927    , 30.9728336  , 818.750732  , 0.63        , 7           , 255         , 0           , 0
-0.163519219, 9.787464    , 0.0117468955, -0.000411045272, -8.085539E-06, -0.0007720653, -1.57113993 , -0.0172955673, 1.99771845  , 918.6927    , 30.9728336  , 818.750854  , 0.64        , 7           , 255         , 0           , 0
-0.16801551 , 9.790167    , 0.00548347551, -0.0007845209, 0.000172704167, -0.000507996068, -1.5711478  , -0.0173005741, 1.99771678  , 918.6927    , 30.9728336  , 818.751     , 0.65        , 7           , 255         , 0           , 0
-0.1677337  , 9.803727    , 0.0015160006, -0.0007182268, 0.000265500217, -0.000277859217, -1.57115483 , -0.0173033774, 1.99771428  , 918.6927    , 30.9728336  , 818.7511    , 0.66        , 7           , 255         , 0           , 0
-0.167495921, 9.795353    , 0.00603176  , -0.000177831971, 5.420344E-05, -0.000720155658, -1.57115662 , -0.01731053 , 1.99771357  , 918.6927    , 30.9728336  , 818.7512    , 0.67        , 7           , 255         , 0           , 0
-0.166067585, 9.79231     , 0.00431244  , -0.000208310608, 0.0006160221, -0.0001118372, -1.57115865 , -0.0173116922, 1.99770749  , 918.6927    , 30.9728336  , 818.751343  , 0.68        , 7           , 255         , 0           , 0
-0.16948989 , 9.790899    , 0.0107284663, -0.0004899908, 0.000233700674, -0.000591426156, -1.57116354 , -0.0173175652, 1.9977051   , 918.6927    , 30.9728336  , 818.751465  , 0.69        , 7           , 255         , 0           , 0
-0.160816789, 9.786715    , 0.00700046867, -0.0002081453, -4.60265437E-05, 4.926347E-05, -1.57116556 , -0.0173170287, 1.99770558  , 918.6927    , 30.9728336  , 818.7516    , 0.7         , 7           , 255         , 0           , 0
-0.15084663 , 9.794775    , -0.00380326 , 0.0002844359, -0.000131340828, 0.000238974346, -1.57117343 , -0.017308861, 1.997707    , 918.6927    , 30.9728336  , 818.76      , 0.71        , 7           , 255         , 0           , 0
-0.162833482, 9.794892    , -0.002843915, -0.0003928781, -6.629733E-05, -0.000561314751, -1.57117736 , -0.0173144937, 1.99770772  , 918.6927    , 30.9728336  , 818.760132  , 0.72        , 7           , 255         , 0           , 0
-0.166692764, 9.794676    , -0.007572782, -0.000202182709, 0.000433833658, -0.000747348065, -1.57117927 , -0.0173219759, 1.99770343  , 918.6853    , 30.9754124  , 818.760254  , 0.73        , 7           , 255         , 0           , 0
-0.177350491, 9.798931    , 0.005432146 , 0.000405071478, 0.00011081007, -0.000776965637, -1.57117522 , -0.0173297264, 1.99770224  , 918.6853    , 30.9754124  , 818.7604    , 0.74        , 7           , 255         , 0           , 0
-0.159350187, 9.806133    , 0.009619759 , 0.000684186642, -0.000204872471, -0.0012325251, -1.57116842 , -0.0173420068, 1.99770439  , 918.6853    , 30.9754124  , 818.7605    , 0.75        , 7           , 255         , 0           , 0
-0.160438091, 9.794419    , 0.0111404164, 0.000414095965, 0.000168280472, -0.00067855115, -1.57116425 , -0.0173487719, 1.9977026   , 918.6853    , 30.9754124  , 818.7606    , 0.76        , 7           , 255         , 0           , 0
-0.160121977, 9.800511    , 0.00472330162, -8.994949E-05, 0.000828704 , -0.0003987346, -1.571165   , -0.0173527673, 1.99769425  , 918.6853    , 30.9754124  , 818.760742  , 0.77        , 7           , 255         , 0           , 0
-0.165033713, 9.798948    , 0.00261417613, -1.2596196E-05, 0.000196986221, -0.000359497732, -1.5711652  , -0.0173563734, 1.99769235  , 918.6853    , 30.9754124  , 818.760864  , 0.78        , 7           , 255         , 0           , 0
-0.167659476, 9.801292    , 0.001046251 , 0.000469204737, 0.00037954  , -0.000669075933, -1.57116044 , -0.0173630789, 1.99768853  , 918.6853    , 30.9754124  , 818.761     , 0.79        , 7           , 255         , 0           , 0
-0.171255112, 9.790748    , 0.0109555488, -7.100945E-05, 3.11579788E-06, -4.395342E-05, -1.57116115 , -0.0173634961, 1.99768853  , 918.6853    , 30.9754124  , 818.761169  , 0.8         , 7           , 255         , 0           , 0
-0.161824614, 9.793425    , 0.00651522  , -2.46203563E-05, 0.000425333041, -0.000657942845, -1.57115984 , -0.0173556283, 1.99768412  , 918.6853    , 30.9754124  , 818.776733  , 0.81        , 7           , 255         , 0           , 0
-0.15737316 , 9.794402    , 0.00277134869, -0.000257118925, -9.4455E-05 , 0.000181638927, -1.57116246 , -0.01735384 , 1.997685    , 918.6853    , 30.9754124  , 818.7769    , 0.82        , 7           , 255         , 0           , 0
-0.165207654, 9.791358    , 0.006129228 , -0.000363341736, 0.000102442718, 0.0009490336, -1.57116616 , -0.0173443612, 1.99768388  , 918.7403    , 30.9792786  , 818.7771    , 0.83        , 7           , 255         , 0           , 0
-0.161074549, 9.803934    , 0.00345070846, -8.479055E-05, 0.000211873848, -0.000110518624, -1.571167   , -0.0173454937, 1.99768174  , 918.7403    , 30.9792786  , 818.7773    , 0.84        , 7           , 255         , 0           , 0
-0.172580481, 9.790861    , 0.00116704067, 0.0003438209, -0.000109345434, -0.000428047962, -1.57116354 , -0.0173497256, 1.99768281  , 918.7403    , 30.9792786  , 818.777466  , 0.85        , 7           , 255         , 0           , 0
-0.174761236, 9.796329    , 0.007222592 , 0.0001542707, 0.0005871788, -0.0009390954, -1.57116187 , -0.0173591152, 1.99767685  , 918.7403    , 30.9792786  , 818.777649  , 0.86        , 7           , 255         , 0           , 0
-0.1689487  , 9.797735    , 0.0127851591, 2.075074E-05, 0.000145760365, -0.000185642464, -1.57116163 , -0.0173610225, 1.99767542  , 918.7403    , 30.9792786  , 818.777832  , 0.87        , 7           , 255         , 0           , 0
-0.17769511 , 9.797401    , 0.008625731 , 0.0003370155, -0.000207845485, -0.00058681285, -1.57115829 , -0.0173668358, 1.99767756  , 918.7403    , 30.9792786  , 818.778     , 0.88        , 7           , 255         , 0           , 0
-0.178582177, 9.791762    , 0.00220590644, -0.000323945, 0.000151856279, -0.0006578287, -1.57116151 , -0.0173733924, 1.99767613  , 918.7403    , 30.9792786  , 818.7782    , 0.89        , 7           , 255         , 0           , 0
-0.1644787  , 9.786155    , 0.0143850623, -0.000337852369, -0.000420602883, 0.000466652855, -1.571165   , -0.0173687432, 1.99768043  , 918.7403    , 30.9792786  , 818.7784    , 0.9         , 7           , 255         , 0           , 0
-0.171765089, 9.791983    , 0.0154187735, 0.00010168794, -0.000455488, -0.000112416426, -1.57117248 , -0.0173648689, 1.99768507  , 918.7403    , 30.9792786  , 818.7269    , 0.91        , 7           , 255         , 0           , 0
-0.167377487, 9.79542351  , 0.01636252  , -0.0002268657, 0.000335855439, 0.0003974466, -1.57117462 , -0.0173608735, 1.99768162  , 918.7403    , 30.9792786  , 818.727051  , 0.92        , 7           , 255         , 0           , 0
-0.1770941  , 9.793011    , 0.0103803   , 0.000198081427, 7.628297E-05, -0.00019759954, -1.5711726  , -0.0173629  , 1.9976809   , 918.7163    , 30.9796181  , 818.7272    , 0.93        , 7           , 255         , 0           , 0
-0.17798987 , 9.791172    , 0.001088348 , -0.000337212, 0.0003032603, -0.0002934532, -1.57117593 , -0.0173658226, 1.9976778   , 918.7163    , 30.9796181  , 818.7273    , 0.94        , 7           , 255         , 0           , 0
-0.178925768, 9.788949    , 0.0056012175, 5.34053834E-05, 0.0004754465, 3.00832326E-05, -1.57117534 , -0.0173654947, 1.997673    , 918.7163    , 30.9796181  , 818.7274    , 0.95        , 7           , 255         , 0           , 0
-0.166641042, 9.79214     , 0.005409791 , 0.000671288231, -0.000463719538, 0.000363033876, -1.57116866 , -0.0173619166, 1.99767768  , 918.7163    , 30.9796181  , 818.727539  , 0.96        , 7           , 255         , 0           , 0
-0.159893155, 9.793852    , -0.00162711518, 0.000612307 , -0.000488208723, 1.93384476E-05, -1.5711627  , -0.017361708, 1.99768257  , 918.7163    , 30.9796181  , 818.727661  , 0.97        , 7           , 255         , 0           , 0
-0.165544823, 9.794444    , 0.005616208 , 0.000733417459, 4.536865E-05, -4.3617998E-05, -1.57115543 , -0.017362155, 1.99768221  , 918.7163    , 30.9796181  , 818.7278    , 0.98        , 7           , 255         , 0           , 0
-0.170027018, 9.809438    , 0.00720072258, 0.000262766029, 7.524749E-05, 0.000307692128, -1.57115269 , -0.0173591152, 1.9976815   , 918.7163    , 30.9796181  , 818.7279    , 0.99        , 7           , 255         , 0           , 0
-0.175401628, 9.79505348  , 0.00359830563, -8.95502453E-05, -0.000338549784, -0.000481620635, -1.57115364 , -0.0173638836, 1.99768484  , 918.7163    , 30.9796181  , 818.728     , 1           , 7           , 0           , 6.45623636  , 100
-0.1676032  , 9.797244    , 0.008079833 , 0.000487850222, -0.000244579365, -0.000148399646, -1.57115769 , -0.0173680279, 1.99768746  , 918.7163    , 30.9796181  , 818.7117    , 1.01        , 7           , 1           , 0           , 0
-0.156558186, 9.798269    , 0.00227563875, 0.000213818756, -0.00026609865, -0.000312079763, -1.57115555 , -0.0173711274, 1.99769008  , 918.7163    , 30.9796181  , 818.7118    , 1.02        , 7           , 2           , 0           , 0
-0.1632889  , 9.801019    , 0.009507554 , 0.000564182061, 0.000473243883, 0.000235057785, -1.57114983 , -0.0173687432, 1.99768531  , 918.729     , 30.9811115  , 818.7119    , 1.03        , 7           , 3           , 0           , 0
-0.171071962, 9.793163    , 0.00274739531, 0.000112424575, 3.964291E-06, -0.000413647736, -1.57114875 , -0.0173728559, 1.99768519  , 918.729     , 30.9811115  , 818.712036  , 1.04        , 7           , 4           , 0           , 0
-0.168347076, 9.790237    , -0.000814432453, 9.292929E-05, 0.0002701212, -0.000873104262, -1.57114768 , -0.01738159 , 1.99768257  , 918.729     , 30.9811115  , 818.712158  , 1.05        , 7           , 5           , 0           , 0
-0.1669547  , 9.790462    , -0.00146778254, 0.000163342032, -4.827918E-06, -1.43387006E-05, -1.57114613 , -0.01738171 , 1.99768269  , 918.729     , 30.9811115  , 818.7123    , 1.06        , 7           , 6           , 0           , 0
-0.171177238, 9.796889    , -0.00161110074, -0.000612519, -0.0002853057, 0.000324180175, -1.57115233 , -0.017378401, 1.99768543  , 918.729     , 30.9811115  , 818.7124    , 1.07        , 7           , 7           , 0           , 0
-0.164589882, 9.802612    , 0.00232336065, -0.000324142165, -3.05121066E-05, -0.0005332398, -1.57115555 , -0.0173837058, 1.99768579  , 918.729     , 30.9811115  , 818.7125    , 1.08        , 7           , 8           , 5           , 5
-0.167542771, 9.803389    , 0.00350296265, -0.000158755574, 0.000104709645, -0.0005854329, -1.5711571  , -0.0173896085, 1.99768472  , 918.729     , 30.9811115  , 818.712646  , 1.09        , 7           , 9           , 5           , 0.1
-0.172779441, 9.79877     , 0.00477002  , -0.000377637451, 0.000102248217, -0.0005295627, -1.57116079 , -0.0173948836, 1.99768376  , 918.729     , 30.9811115  , 818.712769  , 1.1         , 7           , 10          , 0.1         , 0.1
-0.169033617, 9.797165    , 0.0008739182, -0.000326927024, 0.000202778232, -0.0001904733, -1.5711627  , -0.01738907 , 1.99768174  , 918.729     , 30.9811115  , 818.6854    , 1.11        , 7           , 11          , 0.009387437 , 0.009387437
-0.1720505  , 9.796239    , -0.00157309847, 0.0002645098, 0.00019141988, 0.00056252  , -1.57116    , -0.0173834078, 1.99767983  , 918.729     , 30.9811115  , 818.6855    , 1.12        , 7           , 12          , 0.0346428268, 0
-0.158856988, 9.795417    , -0.00328015769, 0.0005248748, 0.000277742132, -0.000261037727, -1.57115471 , -0.017386   , 1.997677    , 918.6646    , 30.9821968  , 818.685547  , 1.13        , 7           , 13          , 0           , 0
-0.162988365, 9.793971    , 0.00202272669, 0.000484024873, -1.53448491E-05, -0.000221403636, -1.57115    , -0.017388206, 1.99767721  , 918.6646    , 30.9821968  , 818.6856    , 1.14        , 7           , 14          , -0.000382715516, 0.0003447792
-0.160238847, 9.795353    , 0.00919087  , 0.000115724833, 0.000215162785, 0.000477792171, -1.57114863 , -0.0173834376, 1.99767506  , 918.6646    , 30.9821968  , 818.685669  , 1.15        , 7           , 15          , 0           , 0.00028791395
-0.17481412 , 9.795453    , 0.008242852 , -0.0003287899, 0.000437972456, -0.000181501935, -1.57115185 , -0.0173852555, 1.99767077  , 918.6646    , 30.9821968  , 818.6857    , 1.16        , 7           , 16          , 0           , 1.401298E-45
-0.164999321, 9.798824    , 0.008987036 , 9.989171E-05, 5.30035177E-05, -0.0004844419, -1.57115078 , -0.0173900854, 1.99767017  , 918.6646    , 30.9821968  , 818.6858    , 1.17        , 7           , 20          , 0           , 0
-0.163963169, 9.798403    , 0.00699542  , 0.0005973669, 0.000426614744, 0.000345085 , -1.5711447  , -0.0173866265, 1.99766588  , 918.6646    , 30.9821968  , 818.685852  , 1.18        , 7           , 21          , 0           , 0
-0.170130134, 9.792891    , 0.000198901718, -0.0007262932, -0.000122342317, 0.000648274668, -1.57115185 , -0.01738013 , 1.99766707  , 918.6646    , 30.9821968  , 818.6859    , 1.19        , 7           , 22          , 0           , 0
-0.164704114, 9.790096    , 0.0141150821, 0.00033305338, 0.000247019838, 0.0009794282, -1.57114851 , -0.0173703525, 1.99766457  , 918.6646    , 30.9821968  , 818.686     , 1.2         , 7           , 40          , 0           , 0
-0.172454759, 9.796682    , 0.00792361  , 0.000262138637, 0.000198123249, 0.000322450825, -1.57114863 , -0.0173566416, 1.99766254  , 918.6646    , 30.9821968  , 818.7288    , 1.21        , 7           , 41          , 0           , 0
-0.174544722, 9.791486    , 0.00373740727, 0.000232558508, 0.00028425557, -0.000449841231, -1.57114625 , -0.0173611715, 1.99765968  , 918.6646    , 30.9821968  , 818.729     , 1.22        , 7           , 42          , 1           , 0
-0.176558048, 9.799385    , 0.00273688557, -0.00016840946, 0.000174233777, -0.000204709839, -1.57114792 , -0.0173631981, 1.9976579   , 918.7083    , 30.9840279  , 818.7292    , 1.23        , 7           , 255         , 0           , 0
-0.1800525  , 9.793847    , 0.009330347 , -0.0004889711, 7.390426E-05, -0.0002073637, -1.57115269 , -0.0173652861, 1.99765718  , 918.7083    , 30.9840279  , 818.7294    , 1.24        , 7           , 255         , 0           , 0
-0.168476775, 9.796667    , 0.008006506 , -2.55418126E-05, 0.000354388176, -0.000329455768, -1.57115293 , -0.0173685644, 1.9976536   , 918.7083    , 30.9840279  , 818.729553  , 1.25        , 7           , 255         , 0           , 0
-0.1630146  , 9.797083    , 0.006990307 , -0.000318273582, 0.0001816403, -0.000254899554, -1.571156   , -0.0173710976, 1.99765182  , 918.7083    , 30.9840279  , 818.729736  , 1.26        , 7           , 255         , 0           , 0
-0.170507759, 9.790464    , 0.00493291626, -0.000164912926, 0.000543453032, -0.0006061371, -1.57115757 , -0.01737718 , 1.99764633  , 918.7083    , 30.9840279  , 818.73      , 1.27        , 7           , 255         , 0           , 0
-0.167531982, 9.796742    , -0.0008029936, 0.000377984426, 0.0002576407, -0.000768583152, -1.57115376 , -0.0173848383, 1.99764371  , 918.7083    , 30.9840279  , 818.7302    , 1.28        , 7           , 255         , 0           , 0
-0.1668934  , 9.795121    , 0.0015889639, 0.00019167026, -0.000120930723, -0.0006831803, -1.57115185 , -0.0173917245, 1.9976449   , 918.7083    , 30.9840279  , 818.730469  , 1.29        , 7           , 255         , 0           , 0
-0.170645311, 9.797196    , 0.00308913621, 0.000457134563, 0.000370897556, -0.00055894 , -1.5711472  , -0.0173972677, 1.99764109  , 918.7083    , 30.9840279  , 818.7307    , 1.3         , 7           , 255         , 0           , 0
-0.174591526, 9.791605    , -0.000145608283, 6.04558736E-05, 0.000258969958, 0.000461502263, -1.57114971 , -0.017394973, 1.99763846  , 918.7083    , 30.9840279  , 818.723633  , 1.31        , 7           , 255         , 0           , 0
-0.169969246, 9.790927    , -0.002722752, 9.456271E-05, 0.000378962955, 3.817797E-05, -1.57114863 , -0.0173945259, 1.99763465  , 918.7083    , 30.9840279  , 818.7238    , 1.32        , 7           , 255         , 0           , 0
-0.167329386, 9.793364    , -0.00214832043, 0.000290103373, -8.227356E-05, 0.0001775549, -1.57114577 , -0.0173927378, 1.9976356   , 918.7305    , 30.9836216  , 818.724     , 1.33        , 7           , 255         , 0           , 0
-0.167236716, 9.799423    , 0.00631825533, 0.000166110753, -0.0003042227, 9.319166E-05, -1.57114422 , -0.0173918139, 1.99763858  , 918.7305    , 30.9836216  , 818.7242    , 1.34        , 7           , 255         , 0           , 0
-0.163487777, 9.796291    , 0.003422344 , 0.0002567802, 3.83239822E-05, 0.000261426059, -1.5711416  , -0.01738919 , 1.99763823  , 918.7305    , 30.9836216  , 818.724365  , 1.35        , 7           , 255         , 0           , 0
-0.157102466, 9.796382    , 0.007364222 , -0.000410139968, -0.000104737934, -0.000418407144, -1.57114577 , -0.0173933338, 1.99763918  , 918.7305    , 30.9836216  , 818.724548  , 1.36        , 7           , 255         , 0           , 0
-0.164516851, 9.79433     , 0.007880244 , 8.89367657E-05, 6.597806E-05, -0.000397741154, -1.57114494 , -0.0173973273, 1.99763858  , 918.7305    , 30.9836216  , 818.724731  , 1.37        , 7           , 255         , 0           , 0
-0.1576823  , 9.802033    , 0.00687570637, 0.000100370962, -0.000104437306, -8.86968046E-05, -1.57114387 , -0.0173982512, 1.99763954  , 918.7305    , 30.9836216  , 818.7249    , 1.38        , 7           , 255         , 0           , 0
-0.1626343  , 9.799341    , 0.00331503828, -0.000207980338, -0.000114698574, -0.0001205726, -1.571146   , -0.0173994135, 1.99764061  , 918.7305    , 30.9836216  , 818.7251    , 1.39        , 7           , 255         , 0           , 0
-0.17526941 , 9.79104     , 0.0112820985, -5.347049E-05, 8.20058631E-07, 0.0008713368, -1.57114649 , -0.017390741, 1.99764061  , 918.7305    , 30.9836216  , 818.7253    , 1.4         , 7           , 255         , 0           , 0
-0.168970972, 9.793666    , 0.00305904029, -0.000314323144, 2.09422724E-05, -0.000115060277, -1.57115149 , -0.0173813514, 1.99764049  , 918.7305    , 30.9836216  , 818.6956    , 1.41        , 7           , 255         , 0           , 0
-0.171918511, 9.787448    , -0.00233487552, -0.000189075334, 7.175049E-05, -0.0002685827, -1.5711534  , -0.0173840337, 1.99763966  , 918.7305    , 30.9836216  , 818.6957    , 1.42        , 7           , 255         , 0           , 0
-0.175129429, 9.798311    , 0.00148616452, 0.000254283746, -9.317315E-05, -0.0005262749, -1.57115078 , -0.0173892789, 1.99764061  , 918.7064    , 30.9851818  , 818.6958    , 1.43        , 7           , 255         , 0           , 0
-0.170110539, 9.800898    , 0.00199920079, 0.000658543664, 0.00036966108, 0.000147072569, -1.5711441  , -0.0173877589, 1.99763691  , 918.7064    , 30.9851818  , 818.6959    , 1.44        , 7           , 255         , 0           , 0
-0.167952657, 9.795473    , 0.001740997 , 0.0006428064, 0.000400388381, -0.0005023047, -1.57113767 , -0.0173927974, 1.99763286  , 918.7064    , 30.9851818  , 818.696045  , 1.45        , 7           , 255         , 0           , 0
-0.1572823  , 9.792173    , 0.00155875436, 4.05610772E-05, 0.000175278692, 4.71624662E-06, -1.57113707 , -0.0173928272, 1.99763119  , 918.7064    , 30.9851818  , 818.696167  , 1.46        , 7           , 255         , 0           , 0
-0.174196333, 9.792158    , 0.00191701367, -2.358752E-05, 0.000153158559, -0.0007600104, -1.57113731 , -0.0174003672, 1.99762964  , 918.7064    , 30.9851818  , 818.6963    , 1.47        , 7           , 255         , 0           , 0
-0.174113825, 9.800735    , 0.006709839 , 9.293028E-06, -0.0003678879, -0.000167840772, -1.57113731 , -0.0174020976, 1.99763334  , 918.7064    , 30.9851818  , 818.6964    , 1.48        , 7           , 255         , 0           , 0
-0.168040782, 9.80043     , 0.004557186 , -2.52855825E-05, 0.000109664194, 0.0004269472, -1.57113755 , -0.0173977744, 1.99763215  , 918.7064    , 30.9851818  , 818.696533  , 1.49        , 7           , 255         , 0           , 0
-0.170150071, 9.797373    , 0.007956421 , 0.000654413365, 5.09649981E-05, -0.0006302515, -1.571131   , -0.0174040943, 1.99763167  , 918.7064    , 30.9851818  , 818.696655  , 1.5         , 7           , 255         , 0           , 0
-0.164409876, 9.796542    , -0.00110853242, 2.41458183E-05, -0.000190499472, -0.000530780351, -1.57112956 , -0.0174080282, 1.99763358  , 918.7064    , 30.9851818  , 818.695     , 1.51        , 7           , 255         , 0           , 0
-0.161782071, 9.785337    , 0.00727874646, -0.000341834268, -2.585366E-05, -9.10552044E-05, -1.571133   , -0.0174089521, 1.99763393  , 918.7064    , 30.9851818  , 818.6951    , 1.52        , 7           , 255         , 0           , 0
-0.167766   , 9.794601    , 0.009431162 , -0.0005659015, 0.000230695325, 0.000292955054, -1.57113862 , -0.0174060017, 1.99763155  , 918.691345  , 30.9841633  , 818.695251  , 1.53        , 7           , 255         , 0           , 0
-0.169724375, 9.809789    , 0.0168998539, -0.000252455182, 0.000473156833, -0.000170400483, -1.57114112 , -0.0174077  , 1.9976269   , 918.691345  , 30.9841633  , 818.6954    , 1.54        , 7           , 255         , 0           , 0
-0.1698025  , 9.801094    , 0.00634673331, -0.0009908024, 0.00021719854, -0.00078992825, -1.5711509  , -0.01741557 , 1.99762464  , 918.691345  , 30.9841633  , 818.6955    , 1.55        , 7           , 255         , 0           , 0
-0.167321861, 9.806512    , 0.00317442673, -2.36192427E-05, -7.564225E-05, -0.000353203563, -1.57115126 , -0.0174190868, 1.99762535  , 918.691345  , 30.9841633  , 818.6956    , 1.56        , 7           , 255         , 0           , 0
-0.1625909  , 9.797552    , 0.005522334 , 4.10255743E-05, 0.000253323436, -0.000262834626, -1.57115078 , -0.01742171 , 1.99762285  , 918.691345  , 30.9841633  , 818.69574   , 1.57        , 7           , 255         , 0           , 0
-0.1652506  , 9.800133    , 0.00531138573, 0.000159679941, 8.69479554E-05, -0.000515485648, -1.57114923 , -0.0174268968, 1.99762189  , 918.691345  , 30.9841633  , 818.695862  , 1.58        , 7           , 255         , 0           , 0
-0.171038643, 9.798296    , 0.00207045628, 0.00021693905, 0.000313348748, -0.000113655842, -1.57114708 , -0.01742797 , 1.99761868  , 918.691345  , 30.9841633  , 818.696     , 1.59        , 7           , 255         , 0           , 0
-0.173453063, 9.800448    , 0.0107767768, 0.000198573543, 0.000210003025, 0.00050232315, -1.57114494 , -0.0174229313, 1.99761653  , 918.691345  , 30.9841633  , 818.6961    , 1.6         , 7           , 255         , 0           , 0
-0.17190896 , 9.800019    , 0.00371132116, 4.55860863E-05, 1.50584092E-05, -0.000831036654, -1.57115054 , -0.0174249578, 1.99761641  , 918.691345  , 30.9841633  , 818.7109    , 1.61        , 7           , 255         , 0           , 0
-0.168078259, 9.789263    , 0.00249025365, -0.000480172, -4.22878657E-05, -0.0009306386, -1.57115543 , -0.0174342878, 1.99761677  , 918.691345  , 30.9841633  , 818.71106   , 1.62        , 7           , 255         , 0           , 0
-0.153251573, 9.799335    , 0.00163780455, -0.000326433626, 7.96568056E-05, 0.00139407883, -1.57115865 , -0.0174203683, 1.99761581  , 918.7265    , 30.9870815  , 818.711243  , 1.63        , 7           , 255         , 0           , 0
-0.1562442  , 9.797811    , 0.008907234 , 0.000264987058, 0.000353751238, 0.000327284855, -1.57115591 , -0.01741706 , 1.99761236  , 918.7265    , 30.9870815  , 818.7114    , 1.64        , 7           , 255         , 0           , 0
-0.175713688, 9.806681    , 0.007209271 , 0.000112279522, -9.352222E-05, -0.0002497053, -1.57115483 , -0.0174195636, 1.99761319  , 918.7265    , 30.9870815  , 818.7116    , 1.65        , 7           , 255         , 0           , 0
-0.1737809  , 9.800105    , 0.0059273066, 0.000553966 , -9.06995556E-05, 0.0002657147, -1.57114935 , -0.01741697 , 1.99761415  , 918.7265    , 30.9870815  , 818.7118    , 1.66        , 7           , 255         , 0           , 0
-0.166840062, 9.79576     , 0.0157672837, 0.0006784231, 0.000294427271, -0.000132905247, -1.57114255 , -0.0174182821, 1.997611    , 918.7265    , 30.9870815  , 818.712     , 1.67        , 7           , 255         , 0           , 0
-0.170159653, 9.78329849  , 0.009172194 , 0.000452125445, 5.71595156E-05, 0.0006629732, -1.57113814 , -0.0174116939, 1.99761045  , 918.7265    , 30.9870815  , 818.712158  , 1.68        , 7           , 255         , 0           , 0
-0.1696143  , 9.791281    , 0.00558269676, -0.000182851043, 0.0001506398, -0.000341710867, -1.57113993 , -0.0174150635, 1.9976089   , 918.7265    , 30.9870815  , 818.7124    , 1.69        , 7           , 255         , 0           , 0
-0.17070809 , 9.80451     , 0.016575506 , 6.945935E-05, 0.0001706648, -0.000410487031, -1.57113922 , -0.0174191464, 1.99760723  , 918.7265    , 30.9870815  , 818.712646  , 1.7         , 7           , 255         , 0           , 0
-0.17324844 , 9.795596    , 0.00247918419, 0.00018147  , -0.000435257, -0.000353100942, -1.57114625 , -0.0174162555, 1.99761176  , 918.7265    , 30.9870815  , 818.687134  , 1.71        , 7           , 255         , 0           , 0
-0.162147135, 9.788617    , 0.003031463 , 0.000291070261, 0.000635642 , -0.000210079234, -1.57114327 , -0.0174183715, 1.99760544  , 918.7265    , 30.9870815  , 818.6872    , 1.72        , 7           , 255         , 0           , 0
-0.1711535  , 9.795436    , 0.000225324184, 0.000462201453, 0.000436348782, -0.0006174096, -1.5711385  , -0.01742454 , 1.997601    , 918.727539  , 30.9876232  , 818.687256  , 1.73        , 7           , 255         , 0           , 0
-0.165832311, 9.800361    , 0.0031393643, 0.0007557447, 0.000419917516, -0.000408104854, -1.571131   , -0.0174286254, 1.99759674  , 918.727539  , 30.9876232  , 818.6873    , 1.74        , 7           , 255         , 0           , 0
-0.169033974, 9.796274    , 0.0005747796, 0.000343961176, -2.40827212E-05, -9.70531837E-05, -1.57112753 , -0.0174296089, 1.997597    , 918.727539  , 30.9876232  , 818.6874    , 1.75        , 7           , 255         , 0           , 0
-0.157917261, 9.796972    , 0.008705306 , 0.0003155776, 0.000516202941, -0.000296867627, -1.57112432 , -0.01743259 , 1.99759185  , 918.727539  , 30.9876232  , 818.687439  , 1.76        , 7           , 255         , 0           , 0
-0.172224641, 9.792347    , 0.0100322571, 0.0006817789, 0.00105162442, 0.000435137976, -1.57111728 , -0.0174282379, 1.99758124  , 918.727539  , 30.9876232  , 818.6875    , 1.77        , 7           , 255         , 0           , 0
-0.1719423  , 9.78669548  , 0.0104843583, 1.41034834E-05, 0.0003960922, -0.00112172589, -1.571117   , -0.0174394753, 1.99757719  , 918.727539  , 30.9876232  , 818.687561  , 1.78        , 7           , 255         , 0           , 0
-0.173696637, 9.797624    , 0.001982828 , -3.81687132E-05, 2.82865658E-05, -0.000501233269, -1.5711174  , -0.0174444821, 1.997577    , 918.727539  , 30.9876232  , 818.6877    , 1.79        , 7           , 255         , 0           , 0
-0.171273872, 9.797377    , -0.00302198855, 5.64515358E-06, 0.000215498789, -8.36086E-05, -1.57111728 , -0.0174453165, 1.99757481  , 918.727539  , 30.9876232  , 818.6878    , 1.8         , 7           , 255         , 0           , 0
-0.176482573, 9.79466152  , -0.00515133841, -1.12956041E-05, 0.0005069302, -0.000454613881, -1.57111859 , -0.017445555, 1.9975698   , 918.727539  , 30.9876232  , 818.6631    , 1.81        , 7           , 255         , 0           , 0
-0.1568043  , 9.793314    , -0.00039106718, -6.340994E-05, 0.000503755757, -0.0001629354, -1.57111907 , -0.0174471643, 1.99756479  , 918.727539  , 30.9876232  , 818.663     , 1.82        , 7           , 255         , 0           , 0
-0.159877449, 9.794863    , 0.0124405837, -0.000197386165, 0.000482490927, -0.0006740243, -1.5711211  , -0.0174539015, 1.99756     , 918.6928    , 30.9870815  , 818.662964  , 1.83        , 7           , 255         , 0           , 0
-0.162387878, 9.793409    , 0.00423116842, 0.000519953144, 0.000223162759, -0.00128110417, -1.57111573 , -0.0174667183, 1.99755776  , 918.6928    , 30.9870815  , 818.6629    , 1.84        , 7           , 255         , 0           , 0
-0.168442667, 9.795611    , 0.00657351175, 0.0002961758, 0.0002051568, -0.0001366298, -1.57111275 , -0.017468119, 1.99755561  , 918.6928    , 30.9870815  , 818.662842  , 1.85        , 7           , 255         , 0           , 0
-0.181263357, 9.793997    , 0.008293171 , -0.000148540392, -6.367537E-05, -0.000511129154, -1.57111418 , -0.0174732152, 1.99755621  , 918.6928    , 30.9870815  , 818.6628    , 1.86        , 7           , 255         , 0           , 0
-0.181371167, 9.80532551  , 0.004229148 , 0.000277460378, 0.000313997385, -0.000552292, -1.57111132 , -0.01747873 , 1.997553    , 918.6928    , 30.9870815  , 818.6627    , 1.87        , 7           , 255         , 0           , 0
-0.170332909, 9.79601     , 0.00143220671, 0.000160093652, 0.0003324069, 0.0001827667, -1.57110965 , -0.0174768828, 1.99754965  , 918.6928    , 30.9870815  , 818.662659  , 1.88        , 7           , 255         , 0           , 0
-0.166756392, 9.806335    , -0.00121241831, 6.129485E-05, 0.000189395912, -0.00084377575, -1.57110894 , -0.0174853466, 1.99754786  , 918.6928    , 30.9870815  , 818.662659  , 1.89        , 7           , 255         , 0           , 0
-0.164417624, 9.801161    , 0.0116103087, 0.000173830544, 8.90702649E-05, -0.000244335, -1.57110727 , -0.0174877625, 1.99754691  , 918.6928    , 30.9870815  , 818.662659  , 1.9         , 7           , 255         , 0           , 0
-0.172788382, 9.7993      , 0.008766009 , 0.00039425143, 0.000287459785, -0.000345717184, -1.57110548 , -0.0174867176, 1.997544    , 918.6928    , 30.9870815  , 818.680664  , 1.91        , 7           , 255         , 0           , 0
-0.172979578, 9.799083    , 0.0065735043, 5.512472E-05, 0.0002454731, -1.217617E-05, -1.57110476 , -0.017486807, 1.99754167  , 918.6928    , 30.9870815  , 818.6807    , 1.92        , 7           , 255         , 0           , 0
-0.166657552, 9.788996    , -0.00182460377, 0.000311666023, 0.000471218984, -0.0006921504, -1.57110167 , -0.0174937528, 1.9975369   , 918.648743  , 30.9872169  , 818.6808    , 1.93        , 7           , 255         , 0           , 0
-0.1612368  , 9.791851    , 0.00340749766, 0.000117590243, 0.000306783681, -0.000144539939, -1.57110047 , -0.0174952131, 1.99753392  , 918.648743  , 30.9872169  , 818.680847  , 1.94        , 7           , 255         , 0           , 0
-0.1681819  , 9.79479     , -0.000879731844, 5.73725847E-05, 0.0003390253, -0.000501072267, -1.57109988 , -0.0175002217, 1.99753046  , 918.648743  , 30.9872169  , 818.6809    , 1.95        , 7           , 255         , 0           , 0
-0.171399951, 9.796389    , -0.00155584025, 0.000303583452, -5.508607E-05, -0.0005133659, -1.5710969  , -0.0175053477, 1.99753094  , 918.648743  , 30.9872169  , 818.681     , 1.96        , 7           , 255         , 0           , 0
-0.172592178, 9.800052    , 0.00555259828, 0.000121969089, 0.00024163592, -0.000753609231, -1.57109559 , -0.01751289 , 1.99752855  , 918.648743  , 30.9872169  , 818.681152  , 1.97        , 7           , 255         , 0           , 0
-0.169807985, 9.801377    , 0.004173384 , 0.000585646252, -0.000158248222, 0.000485257828, -1.57108974 , -0.01750806 , 1.99753022  , 918.648743  , 30.9872169  , 818.6813    , 1.98        , 7           , 255         , 0           , 0
-0.168445244, 9.798754    , 0.00607834943, 0.000942184357, 0.000293284684, 0.00015611967, -1.57108033 , -0.01750648 , 1.99752712  , 918.648743  , 30.9872169  , 818.6814    , 1.99        , 7           , 255         , 0           , 0
-0.159988075, 9.800936    , 0.00632179156, 0.0005536477, 0.0006444608, 0.0005380433, -1.57107472 , -0.0175011456, 1.99752069  , 918.648743  , 30.9872169  , 818.6815    , 2           , 7           , 0           , 7.45623636  , 200
-0.156205341, 9.793015    , 0.00876713451, 0.000626318855, 0.000425533362, -0.000499272835, -1.57106972 , -0.0175003409, 1.99751639  , 918.648743  , 30.9872169  , 818.7512    , 2.01        , 7           , 1           , 0           , 0
-0.157219842, 9.795253    , 0.00479803141, 0.000173721957, 4.36508271E-05, -0.0005277691, -1.57106793 , -0.0175055861, 1.99751592  , 918.648743  , 30.9872169  , 818.7518    , 2.02        , 7           , 2           , 0           , 0
-0.17056796 , 9.801335    , -0.00251387479, 0.0005861341, 8.742744E-05, -0.000438008137, -1.57106209 , -0.0175099373, 1.99751508  , 918.742554  , 30.9877586  , 818.7523    , 2.03        , 7           , 3           , 0           , 0
-0.172108114, 9.796784    , 0.0128282737, -0.000233970524, 0.0004101694, 0.000414011418, -1.57106447 , -0.0175058246, 1.99751091  , 918.742554  , 30.9877586  , 818.752869  , 2.04        , 7           , 4           , 0           , 0
-0.16808559 , 9.796909    , 0.00837764  , -0.0004263043, 0.000401609257, -0.00018425603, -1.57106864 , -0.0175076127, 1.99750686  , 918.742554  , 30.9877586  , 818.7534    , 2.05        , 7           , 5           , 0           , 0
-0.1697118  , 9.789133    , 0.0108925886, 0.0003716834, -4.56680136E-05, -0.000515760155, -1.571065   , -0.0175128  , 1.99750745  , 918.742554  , 30.9877586  , 818.753967  , 2.06        , 7           , 6           , 0           , 0
-0.165914819, 9.785954    , 0.0123815229, 8.548697E-05, 0.000390262023, 0.000185263838, -1.571064   , -0.01751095 , 1.99750352  , 918.742554  , 30.9877586  , 818.7545    , 2.07        , 7           , 7           , 0           , 0
-0.171146959, 9.787888    , 0.00156605965, 0.00016267279, 0.000410336739, -0.000173771754, -1.57106233 , -0.0175126214, 1.99749947  , 918.742554  , 30.9877586  , 818.755066  , 2.08        , 7           , 8           , 5           , 5
-0.170832768, 9.793314    , 0.001780907 , 0.000142533172, 1.05383515E-05, -0.000327489252, -1.5710609  , -0.01751587 , 1.99749935  , 918.742554  , 30.9877586  , 818.7556    , 2.09        , 7           , 9           , 5           , 0.1
-0.171403646, 9.793811    , 0.004031641 , -1.73164881E-06, 0.0004645904, -0.0006267943, -1.5710609  , -0.0175221581, 1.9974947   , 918.742554  , 30.9877586  , 818.756165  , 2.1         , 7           , 10          , 0.1         , 0.1
-0.165842235, 9.798272    , 0.006275212 , 0.0003358875, 0.00012988344, -0.00045992338, -1.57106614 , -0.0175167639, 1.99749351  , 918.742554  , 30.9877586  , 818.7024    , 2.11        , 7           , 11          , 0.008424914 , 0.008424916
-0.16567418 , 9.795689    , 0.00613937248, -0.000262964226, 5.039462E-05, -0.00044234423, -1.57106876 , -0.017521115, 1.997493    , 918.742554  , 30.9877586  , 818.7026    , 2.12        , 7           , 12          , 0.03464815  , 0
-0.173832178, 9.793116    , 0.00652611535, 0.0006012232, 0.0006629152, -0.0001441627, -1.57106268 , -0.0175225455, 1.99748635  , 918.6955    , 30.9889126  , 818.702759  , 2.13        , 7           , 13          , 0           , 0
-0.168668538, 9.786827    , 0.0114426194, 0.000726307044, 0.0006226251, -0.0006163175, -1.57105529 , -0.0175286569, 1.99748     , 918.6955    , 30.9889126  , 818.702942  , 2.14        , 7           , 14          , -0.0003826387, 0.000344780536
-0.167337939, 9.781335    , 0.007358712 , 8.9619396E-05, 0.000395221548, -0.000497506233, -1.57105434 , -0.0175336637, 1.9974761   , 918.6955    , 30.9889126  , 818.7032    , 2.15        , 7           , 15          , 0           , 0.000287790725
-0.163035631, 9.799371    , 0.006400516 , 0.000531191239, -5.554277E-05, -0.000122985075, -1.57104909 , -0.017534975, 1.99747682  , 918.6955    , 30.9889126  , 818.7034    , 2.16        , 7           , 16          , 0           , 1.401298E-45
-0.1654332  , 9.808937    , 0.008172946 , 0.0005476272, -0.0001406914, -0.0003772162, -1.57104361 , -0.0175387617, 1.99747825  , 918.6955    , 30.9889126  , 818.7037    , 2.17        , 7           , 20          , 0           , 0
-0.166672349, 9.805844    , 0.00263257278, -0.000187420344, -0.000467821781, -0.000398331118, -1.57104564 , -0.0175427552, 1.99748278  , 918.6955    , 30.9889126  , 818.7039    , 2.18        , 7           , 21          , 0           , 0
-0.165334627, 9.794902    , 0.0004883339, 0.0006812883, -0.000224341435, -1.3778219E-05, -1.57103884 , -0.0175428148, 1.997485    , 918.6955    , 30.9889126  , 818.704163  , 2.19        , 7           , 22          , 0           , 0
-0.171107754, 9.791806    , 0.00306054484, 0.00034548642, -0.0001043583, -0.00019367534, -1.5710355  , -0.017544752, 1.99748611  , 918.6955    , 30.9889126  , 818.7044    , 2.2         , 7           , 40          , 0           , 0
-0.172160581, 9.786503    , 0.004854531 , -0.000366441061, 0.000481590832, 0.000540756038, -1.57104576 , -0.017530147, 1.99748135  , 918.6955    , 30.9889126  , 818.715332  , 2.21        , 7           , 41          , 0           , 0
-0.168599188, 9.790656    , 0.00255019078, 0.0002743447, 0.000289991527, 0.000329086877, -1.571043   , -0.0175268389, 1.99747849  , 918.6955    , 30.9889126  , 818.715637  , 2.22        , 7           , 42          , 1           , 0
-0.1709341  , 9.794956    , -0.00133700529, 0.000198958965, -0.000114841809, 0.000388581044, -1.571041   , -0.0175229032, 1.99747956  , 918.715149  , 30.9880314  , 818.715942  , 2.23        , 7           , 255         , 0           , 0
-0.1723966  , 9.804909    , 0.0027936385, 0.0005077743, -0.000306230359, 0.0005631811, -1.571036   , -0.01751727 , 1.99748266  , 918.715149  , 30.9880314  , 818.716248  , 2.24        , 7           , 255         , 0           , 0
-0.172314629, 9.7901125   , 0.00332019338, 0.000263550552, 8.99776642E-05, -0.0005049384, -1.57103336 , -0.0175223369, 1.9974817   , 918.715149  , 30.9880314  , 818.716553  , 2.25        , 7           , 255         , 0           , 0
-0.164010823, 9.786353    , 0.0006531056, 0.00023387598, 0.000355800934, 0.000127740583, -1.57103086 , -0.0175209958, 1.997478    , 918.715149  , 30.9880314  , 818.716858  , 2.26        , 7           , 255         , 0           , 0
-0.165032431, 9.796239    , 0.01018951  , 8.510085E-05, -2.741185E-05, 0.0006640025, -1.57103014 , -0.01751435 , 1.99747849  , 918.715149  , 30.9880314  , 818.717163  , 2.27        , 7           , 255         , 0           , 0
-0.1688494  , 9.784981    , 0.00562346447, -0.000358842633, 0.000208542653, -0.000233031315, -1.57103372 , -0.0175166745, 1.99747634  , 918.715149  , 30.9880314  , 818.717468  , 2.28        , 7           , 255         , 0           , 0
-0.160281971, 9.785623    , 0.00510162441, -0.000227259676, 0.0004784336, -0.000624137348, -1.57103586 , -0.017522933, 1.99747157  , 918.715149  , 30.9880314  , 818.7178    , 2.29        , 7           , 255         , 0           , 0
-0.164933413, 9.794054    , -0.00278464286, -0.000570583856, 0.00013148156, -0.0008576829, -1.57104146 , -0.0175315477, 1.99747014  , 918.715149  , 30.9880314  , 818.7181    , 2.3         , 7           , 255         , 0           , 0
-0.167498887, 9.787533    , 0.00346999685, -0.000169148116, 0.0003988909, -0.0006464863, -1.571045   , -0.0175283588, 1.99746609  , 918.715149  , 30.9880314  , 818.701965  , 2.31        , 7           , 255         , 0           , 0
-0.1708937  , 9.797945    , 0.0004900027, -0.000164757745, 0.000423369376, 0.000172768079, -1.57104671 , -0.01752663 , 1.9974618   , 918.715149  , 30.9880314  , 818.702148  , 2.32        , 7           , 255         , 0           , 0
-0.16712898 , 9.792887    , 0.003647389 , 0.000295688573, -3.78955156E-05, 0.0001104103, -1.57104373 , -0.0175255276, 1.99746227  , 918.7087    , 30.9885063  , 818.702332  , 2.33        , 7           , 255         , 0           , 0
-0.176998526, 9.794436    , 0.004158457 , 0.000471629261, 0.000162255514, -0.0004026022, -1.571039   , -0.01752958 , 1.99746048  , 918.7087    , 30.9885063  , 818.7025    , 2.34        , 7           , 255         , 0           , 0
-0.179196134, 9.793623    , 0.009829419 , -3.090105E-05, 0.000203721022, -0.000116833777, -1.57103932 , -0.0175307728, 1.99745858  , 918.7087    , 30.9885063  , 818.7027    , 2.35        , 7           , 255         , 0           , 0
-0.165716141, 9.795364    , 0.0192010868, 0.000117118179, -0.00010070343, 7.190858E-05, -1.57103813 , -0.0175300576, 1.99745941  , 918.7087    , 30.9885063  , 818.702942  , 2.36        , 7           , 255         , 0           , 0
-0.16205731 , 9.792615    , 0.002463518 , 0.00032810893, 0.000318304257, 0.000469036255, -1.57103479 , -0.0175253488, 1.99745631  , 918.7087    , 30.9885063  , 818.7032    , 2.37        , 7           , 255         , 0           , 0
-0.16694355 , 9.790675    , 0.00308492  , 0.0005084661, 0.000195006287, 1.022371E-05, -1.57102966 , -0.01752526 , 1.9974544   , 918.7087    , 30.9885063  , 818.7034    , 2.38        , 7           , 255         , 0           , 0
-0.163117677, 9.79256248  , 0.009638244 , 0.000327533431, 0.0003004188, -0.0002325136, -1.57102644 , -0.0175276138, 1.99745131  , 918.7087    , 30.9885063  , 818.7037    , 2.39        , 7           , 255         , 0           , 0
-0.166906446, 9.796175    , 0.00400668243, 0.000442127144, -6.400916E-05, -0.0002727472, -1.571022   , -0.0175303556, 1.9974519   , 918.7087    , 30.9885063  , 818.7039    , 2.4         , 7           , 255         , 0           , 0
-0.171147928, 9.796695    , 0.00269916048, -6.91671157E-05, -0.000126958228, 0.000253648643, -1.57103086 , -0.017520966, 1.99745345  , 918.7087    , 30.9885063  , 818.697937  , 2.41        , 7           , 255         , 0           , 0
-0.158214957, 9.803418    , 0.002178976 , -0.000246781769, 0.000124092709, 0.0004279623, -1.57103324 , -0.0175166149, 1.99745226  , 918.7087    , 30.9885063  , 818.6981    , 2.42        , 7           , 255         , 0           , 0
-0.158426613, 9.796774    , 0.00564034469, -0.000334681157, -0.000121730976, -0.000488582242, -1.57103658 , -0.0175215025, 1.99745333  , 918.7073    , 30.9877586  , 818.6983    , 2.43        , 7           , 255         , 0           , 0
-0.163892955, 9.804163    , -0.00122410024, 0.000165444668, 3.34268261E-05, -0.000286982482, -1.57103491 , -0.0175243653, 1.99745309  , 918.7073    , 30.9877586  , 818.6985    , 2.44        , 7           , 255         , 0           , 0
-0.164419845, 9.789731    , -0.00632523652, 0.000126913161, 2.99695239E-05, -0.0006669904, -1.5710336  , -0.0175310113, 1.99745274  , 918.7073    , 30.9877586  , 818.698669  , 2.45        , 7           , 255         , 0           , 0
-0.170330971, 9.789599    , 0.001103042 , -7.52027E-05, 3.00333777E-05, -0.0004811358, -1.57103443 , -0.01753578 , 1.9974525   , 918.7073    , 30.9877586  , 818.698853  , 2.46        , 7           , 255         , 0           , 0
-0.17169182 , 9.802313    , 0.009234017 , -0.0002740017, 0.000118357013, -0.000359044527, -1.57103717 , -0.0175394174, 1.99745131  , 918.7073    , 30.9877586  , 818.699036  , 2.47        , 7           , 255         , 0           , 0
-0.160691231, 9.798906    , 0.00726697  , 0.000266615825, -0.000175000489, -2.72564357E-05, -1.57103455 , -0.0175397154, 1.99745309  , 918.7073    , 30.9877586  , 818.6992    , 2.48        , 7           , 255         , 0           , 0
-0.154790089, 9.797524    , -0.004475162, 0.000456021546, 0.000270645542, -0.000270719058, -1.5710299  , -0.0175424274, 1.99745035  , 918.7073    , 30.9877586  , 818.6994    , 2.49        , 7           , 255         , 0           , 0
-0.171014458, 9.790598    , 0.00300206477, 0.0007924535, 0.000226789271, 0.000410502 , -1.571022   , -0.0175384041, 1.99744821  , 918.7073    , 30.9877586  , 818.6996    , 2.5         , 7           , 255         , 0           , 0
-0.169215173, 9.785307    , 0.0005710885, -3.06062575E-05, -0.000331231451, 0.000600745436, -1.57102156 , -0.0175195057, 1.99745154  , 918.7073    , 30.9877586  , 818.696045  , 2.51        , 7           , 255         , 0           , 0
-0.170329437, 9.791845    , 0.002111056 , -0.000430017215, -0.000325489964, 0.000788578531, -1.571026   , -0.017511636, 1.99745476  , 918.7073    , 30.9877586  , 818.6962    , 2.52        , 7           , 255         , 0           , 0
-0.1733251  , 9.786661    , -1.03824423E-05, 0.000215380351, 0.000401292462, 3.30299081E-05, -1.5710237  , -0.0175113082, 1.99745071  , 918.7066    , 30.98742    , 818.6964    , 2.53        , 7           , 255         , 0           , 0
-0.174441367, 9.796045    , 0.00121961173, -0.000486216653, 0.000227752724, -0.000666113454, -1.57102859 , -0.0175179262, 1.99744844  , 918.7066    , 30.98742    , 818.6966    , 2.54        , 7           , 255         , 0           , 0
-0.176647708, 9.79561     , 0.003416776 , -0.00055390154, 0.000224127492, -0.0002613994, -1.57103407 , -0.01752049 , 1.99744618  , 918.7066    , 30.98742    , 818.6968    , 2.55        , 7           , 255         , 0           , 0
-0.18217352 , 9.793178    , 0.008405241 , -0.000535813742, 0.0006656279, 1.94261374E-05, -1.57103932 , -0.01752031 , 1.9974395   , 918.7066    , 30.98742    , 818.69696   , 2.56        , 7           , 255         , 0           , 0
-0.173048526, 9.786517    , 0.00658479938, 0.000177531852, 0.000167011691, -0.000591351534, -1.57103753 , -0.0175262429, 1.99743783  , 918.7066    , 30.98742    , 818.697144  , 2.57        , 7           , 255         , 0           , 0
-0.17603308 , 9.78898     , 0.01029496  , -0.000137301773, -0.00052878214, -7.38920062E-05, -1.57103908 , -0.0175269879, 1.99744308  , 918.7066    , 30.98742    , 818.6973    , 2.58        , 7           , 255         , 0           , 0
-0.1742697  , 9.8012085   , 0.0114121456, -0.000202449708, -5.18891029E-05, 3.840329E-05, -1.57104111 , -0.01752654 , 1.99744368  , 918.7066    , 30.98742    , 818.6975    , 2.59        , 7           , 255         , 0           , 0
-0.171799779, 9.801752    , 0.0105895232, 0.0003037644, 0.000222153554, -0.000117119562, -1.571038   , -0.017527733, 1.99744129  , 918.7066    , 30.98742    , 818.6977    , 2.6         , 7           , 255         , 0           , 0
-0.170802444, 9.799327    , 0.0150971236, 0.000164708792, 0.000162995624, -7.545749E-05, -1.57104325 , -0.01753414 , 1.99743986  , 918.7066    , 30.98742    , 818.6952    , 2.61        , 7           , 255         , 0           , 0
-0.1726915  , 9.79508     , 0.009630314 , 0.000119986595, 7.2720286E-06, 0.000322084379, -1.57104206 , -0.0175310113, 1.99743974  , 918.7066    , 30.98742    , 818.6954    , 2.62        , 7           , 255         , 0           , 0
-0.172203586, 9.79814     , 0.00450713839, 0.000245934527, 0.00043233062, -0.000410291832, -1.57103956 , -0.017535124, 1.99743533  , 918.7356    , 30.9875565  , 818.695557  , 2.63        , 7           , 255         , 0           , 0
-0.16617772 , 9.799648    , 0.00614883844, 0.000707404048, 0.000191884435, -0.000720766664, -1.57103252 , -0.0175423082, 1.99743342  , 918.7356    , 30.9875565  , 818.69574   , 2.64        , 7           , 255         , 0           , 0
-0.1682601  , 9.804901    , -0.000691355555, 0.000159044357, 7.824571E-05, -1.05175714E-05, -1.571031   , -0.0175423976, 1.99743271  , 918.7356    , 30.9875565  , 818.6959    , 2.65        , 7           , 255         , 0           , 0
-0.172365338, 9.804895    , 0.000396612479, 0.000518608431, 3.6229525E-05, -0.000173155131, -1.57102573 , -0.0175441261, 1.99743223  , 918.7356    , 30.9875565  , 818.6961    , 2.66        , 7           , 255         , 0           , 0
-0.166815788, 9.795118    , 0.002907998 , -0.000176646921, 0.000339904072, -0.0001165188, -1.5710274  , -0.0175453182, 1.99742889  , 918.7356    , 30.9875565  , 818.6963    , 2.67        , 7           , 255         , 0           , 0
-0.163582519, 9.792168    , 0.001983318 , -0.000237502914, 0.0003522215, -0.0004976609, -1.57102978 , -0.0175502971, 1.99742532  , 918.7356    , 30.9875565  , 818.6965    , 2.68        , 7           , 255         , 0           , 0
-0.171993077, 9.790161    , -0.00195745053, -0.000105450192, 0.000108613051, 0.00012741136, -1.57103074 , -0.017548956, 1.99742413  , 918.7356    , 30.9875565  , 818.696655  , 2.69        , 7           , 255         , 0           , 0
-0.166030988, 9.789817    , -0.00388693553, 8.10847851E-05, -0.0006731439, -0.00011350213, -1.57103014 , -0.0175500587, 1.997431    , 918.7356    , 30.9875565  , 818.696838  , 2.7         , 7           , 255         , 0           , 0
-0.165373653, 9.786932    , -0.00164628983, 7.28479354E-05, 0.00016133365, 5.81753848E-05, -1.57103109 , -0.0175446924, 1.99742937  , 918.7356    , 30.9875565  , 818.6544    , 2.71        , 7           , 255         , 0           , 0
-0.162289858, 9.804979    , 0.0007617109, -0.000367458677, 0.000624157 , -4.345292E-05, -1.57103479 , -0.01754514 , 1.997423    , 918.7356    , 30.9875565  , 818.654358  , 2.72        , 7           , 255         , 0           , 0
-0.166252315, 9.798084    , -0.00175104139, -0.0006274016, 0.0007167618, -0.000184806253, -1.57104087 , -0.0175469872, 1.997416    , 918.7009    , 30.99088    , 818.6543    , 2.73        , 7           , 255         , 0           , 0
-0.168628365, 9.790888    , -0.001704252, -0.0007277615, -2.41023663E-05, 0.00061639247, -1.57104814 , -0.0175408479, 1.99741614  , 918.7009    , 30.99088    , 818.654236  , 2.74        , 7           , 255         , 0           , 0
-0.165055543, 9.787859    , -0.0006232234, 0.000191423373, 3.73864023E-05, 0.000485427357, -1.57104623 , -0.01753599 , 1.99741578  , 918.7009    , 30.99088    , 818.6542    , 2.75        , 7           , 255         , 0           , 0
-0.1715192  , 9.794836    , 0.002566175 , 0.000255303923, 0.0001262998, -1.34951551E-05, -1.57104373 , -0.01753608 , 1.99741435  , 918.7009    , 30.99088    , 818.6541    , 2.76        , 7           , 255         , 0           , 0
-0.180631   , 9.79925251  , 0.00181778835, 0.000110928086, 0.000354686577, -0.0006385658, -1.57104254 , -0.017542487, 1.99741089  , 918.7009    , 30.99088    , 818.654053  , 2.77        , 7           , 255         , 0           , 0
-0.178643316, 9.792215    , 0.000107365428, 4.90230741E-05, 0.00025504618, -0.0002907359, -1.57104206 , -0.0175454374, 1.99740839  , 918.7009    , 30.99088    , 818.654     , 2.78        , 7           , 255         , 0           , 0
-0.168820187, 9.800985    , 0.005173457 , 6.309507E-05, -5.973075E-05, 0.000571573968, -1.57104146 , -0.0175397154, 1.997409    , 918.7009    , 30.99088    , 818.653931  , 2.79        , 7           , 255         , 0           , 0
-0.17170985 , 9.791071    , 0.00751991663, 0.000218202 , -0.000107532993, 0.000596545753, -1.5710392  , -0.0175337531, 1.99741     , 918.7009    , 30.99088    , 818.6539    , 2.8         , 7           , 255         , 0           , 0
-0.172757417, 9.792079    , 0.004997648 , 0.000492735242, -0.00013909422, -0.000459584728, -1.57103193 , -0.0175347067, 1.99741149  , 918.7009    , 30.99088    , 818.6655    , 2.81        , 7           , 255         , 0           , 0
-0.174499124, 9.79904     , 0.008453884 , 0.0002804491, 0.000429979817, 4.88467049E-06, -1.57102907 , -0.0175346173, 1.9974072   , 918.7009    , 30.99088    , 818.6655    , 2.82        , 7           , 255         , 0           , 0
-0.171934217, 9.802852    , 0.009031354 , 1.74820889E-05, 0.000140152231, 0.000450579566, -1.57102883 , -0.0175301172, 1.99740565  , 918.7592    , 30.9870129  , 818.6655    , 2.83        , 7           , 255         , 0           , 0
-0.1779296  , 9.802839    , 0.0124652265, -3.77152755E-05, -7.583469E-05, 0.00040479406, -1.57102919 , -0.0175260939, 1.99740648  , 918.7592    , 30.9870129  , 818.6655    , 2.84        , 7           , 255         , 0           , 0
-0.16767782 , 9.798118    , 0.008118993 , 0.000444727775, -4.802167E-05, 0.000318788516, -1.57102478 , -0.0175228734, 1.99740708  , 918.7592    , 30.9870129  , 818.6655    , 2.85        , 7           , 255         , 0           , 0
-0.168879941, 9.798446    , 0.0106496718, -0.000161170581, 0.000123781763, -0.000313430937, -1.57102633 , -0.0175260343, 1.99740589  , 918.7592    , 30.9870129  , 818.6655    , 2.86        , 7           , 255         , 0           , 0
-0.165727466, 9.799551    , 0.007819778 , -0.000206477562, -0.000158093, -0.0006438757, -1.57102847 , -0.0175324716, 1.99740744  , 918.7592    , 30.9870129  , 818.6656    , 2.87        , 7           , 255         , 0           , 0
-0.178799123, 9.796738    , 0.005542717 , 0.0002178381, 6.4819E-05  , -0.0009211513, -1.57102621 , -0.0175416823, 1.99740672  , 918.7592    , 30.9870129  , 818.665649  , 2.88        , 7           , 255         , 0           , 0
-0.174788371, 9.799906    , 0.0119124269, 0.0002326166, -0.000399119919, -4.256339E-05, -1.57102382 , -0.01754207 , 1.99741077  , 918.7592    , 30.9870129  , 818.6657    , 2.89        , 7           , 255         , 0           , 0
-0.165184408, 9.799344    , 0.009397353 , 9.017275E-05, -0.000120008612, -0.000354891265, -1.571023   , -0.0175456759, 1.997412    , 918.7592    , 30.9870129  , 818.6658    , 2.9         , 7           , 255         , 0           , 0
-0.156155318, 9.808329    , 0.00157082116, 0.000494382461, 0.000149341882, -0.0008962096, -1.57102776 , -0.0175546482, 1.99741066  , 918.7592    , 30.9870129  , 818.594238  , 2.91        , 7           , 255         , 0           , 0
-0.155547038, 9.793991    , 0.004531089 , 0.0003466425, 0.000356826873, -5.731902E-05, -1.57102418 , -0.0175552741, 1.99740708  , 918.7592    , 30.9870129  , 818.5938    , 2.92        , 7           , 255         , 0           , 0
-0.162273079, 9.793516    , -0.00195629615, 0.000235246174, -0.000172506945, -0.000334597426, -1.5710218  , -0.0175586417, 1.99740887  , 918.704163  , 30.9895916  , 818.5934    , 2.93        , 7           , 255         , 0           , 0
-0.167268276, 9.79350948  , 0.007569574 , -0.0007024601, -9.139109E-05, -0.000300707441, -1.57102883 , -0.017561594, 1.99740958  , 918.704163  , 30.9895916  , 818.592957  , 2.94        , 7           , 255         , 0           , 0
-0.161347643, 9.7930975   , 0.0114186723, -0.000135790266, 0.0002032026, 6.33506E-06 , -1.57103014 , -0.0175614748, 1.99740767  , 918.704163  , 30.9895916  , 818.5925    , 2.95        , 7           , 255         , 0           , 0
-0.168843433, 9.795399    , 0.009844294 , 0.000241579546, 0.00021369051, 0.000164622325, -1.57102776 , -0.0175597742, 1.99740553  , 918.704163  , 30.9895916  , 818.5921    , 2.96        , 7           , 255         , 0           , 0
-0.174151912, 9.795832    , 0.00549202133, 7.433494E-05, 0.000161514909, 0.0001958017, -1.57102692 , -0.0175578669, 1.997404    , 918.704163  , 30.9895916  , 818.5917    , 2.97        , 7           , 255         , 0           , 0
-0.1784029  , 9.797773    , 0.008108014 , -0.000117643736, -0.000197420319, -0.000802699942, -1.57102823 , -0.0175659452, 1.99740589  , 918.704163  , 30.9895916  , 818.591248  , 2.98        , 7           , 255         , 0           , 0
-0.172987133, 9.797733    , 0.0032819286, 0.000441831246, -0.000112104273, -0.000364642416, -1.5710237  , -0.017569581, 1.997407    , 918.704163  , 30.9895916  , 818.5908    , 2.99        , 7           , 255         , 0           , 0
-0.171724871, 9.78731251  , 0.0007859245, 0.0005484316, 5.93409932E-05, 3.240502E-05, -1.57101822 , -0.017569283, 1.99740648  , 918.704163  , 30.9895916  , 818.5904    , 3           , 7           , 0           , 8.456237    , 300
-0.167051613, 9.793423    , 0.004967541 , 5.87314134E-05, 0.0005879442, 0.000159889256, -1.57102227 , -0.0175586119, 1.99740076  , 918.704163  , 30.9895916  , 818.60675   , 3.01        , 7           , 1           , 0           , 0
-0.1618127  , 9.78620148  , 0.00256110053, 2.16696353E-05, 0.000216832617, -0.000413654663, -1.571022   , -0.0175626669, 1.99739861  , 918.704163  , 30.9895916  , 818.606445  , 3.02        , 7           , 2           , 0           , 0
-0.1567814  , 9.790968    , 0.000941831153, -0.00028520514, -2.4393521E-05, 9.478495E-05, -1.57102489 , -0.0175616834, 1.99739873  , 918.6966    , 30.9864712  , 818.60614   , 3.03        , 7           , 3           , 0           , 0
-0.167835429, 9.796415    , 0.00421389844, -0.0002483307, -9.695871E-05, 0.0005005007, -1.57102728 , -0.017556645, 1.99739969  , 918.6966    , 30.9864712  , 818.605835  , 3.04        , 7           , 4           , 0           , 0
-0.1649258  , 9.795571    , 0.0005630202, 0.000303861918, 0.0003840702, 0.000225044554, -1.57102418 , -0.01755444 , 1.99739575  , 918.6966    , 30.9864712  , 818.6055    , 3.05        , 7           , 5           , 0           , 0
