Acc X       , Acc Y       , Acc Z       , Gyro X      , Gyro Y      , Gyro Z      , Euler X     , Euler Y     , Euler Z     , Pres X      , Pres Y      , Pres Z      , Time        , Status      , LowRate X   , LowRate Y   , LowRate Z    
-0.189991549, -9.788339   , -0.018971635, 0           , 0           , 0           , 1.56885815  , -0.0194075163, 2.100146    , 918.62915   , 30.9975967  , 819.375366  , 0           , 2           , 0           , 5.0482316   , 0
-0.18289876 , -9.804426   , -0.0216505527, 4.88461374E-05, 0.000267984724, -0.0009934627, 1.56885839  , -0.01939782 , 2.10014868  , 918.62915   , 30.9975967  , 819.375366  , 0.01        , 7           , 1           , 0           , 0
-0.191878825, -9.804297   , -0.00743205473, 0.0005927682, -0.00020686668, -0.000318665931, 1.56886435  , -0.0193945412, 2.10014653  , 918.62915   , 30.9975967  , 819.375366  , 0.02        , 7           , 2           , 0           , 0
-0.190667436, -9.797764   , -0.0200750567, 0.000232347244, -0.000139493524, 0.000444221776, 1.56886673  , -0.0193989519, 2.10014534  , 918.6096    , 30.5657139  , 819.375366  , 0.03        , 7           , 3           , 0           , 0
-0.187859952, -9.784441   , -0.01747176 , 0.000462079246, 0.0007391629, 0.000684167549, 1.56887126  , -0.0194057785, 2.10015273  , 918.6096    , 30.5657139  , 819.375366  , 0.04        , 7           , 4           , 0           , 0
-0.179505438, -9.788358   , -0.00715134153, 0.0001200425, 0.000475340552, 4.48725768E-05, 1.56887233  , -0.0194062851, 2.1001575   , 918.6096    , 30.5657139  , 819.375366  , 0.05        , 7           , 5           , 0           , 0
-0.175337061, -9.782228   , -0.0117199654, -0.000344562053, 0.00062466797, 2.26641423E-05, 1.56886876  , -0.019406464, 2.1001637   , 918.6096    , 30.5657139  , 819.375366  , 0.06        , 7           , 6           , 0           , 0
-0.180423468, -9.796862   , -0.0115517257, 0.0007037474, 0.000284240145, 0.0002525489, 1.56887567  , -0.019409027, 2.10016656  , 918.6096    , 30.5657139  , 819.375366  , 0.07        , 7           , 7           , 0           , 0
-0.179968268, -9.789737   , -0.0141579928, 0.000254215644, -6.51365845E-05, -0.000420073833, 1.56887817  , -0.019404795, 2.10016584  , 918.6096    , 30.5657139  , 819.375366  , 0.08        , 7           , 8           , 5           , 5
-0.189762384, -9.792999   , -0.0140472827, 0.000571487937, -0.000374632073, -0.000644362532, 1.568884    , -0.0193983559, 2.100162    , 918.6096    , 30.5657139  , 819.375366  , 0.09        , 7           , 9           , 5           , 0.1
-0.18736513 , -9.793313   , -0.0143326567, -0.0003050181, -0.000374121242, -0.000106410866, 1.568881    , -0.0193973128, 2.10015821  , 918.6096    , 30.5657139  , 819.375366  , 0.1         , 7           , 10          , 0.1         , 0.1
-0.192229316, -9.802333   , -0.0135401785, -0.00027666596, 0.0002942559, -0.000368260371, 1.56889725  , -0.0193721838, 2.10016084  , 918.6096    , 30.5657139  , 819.5525    , 0.11        , 7           , 11          , 0.0109544508, 0.0109544508
-0.18872121 , -9.794764   , -0.0142579395, -0.0003312265, 0.000196505047, -0.0003694485, 1.568894    , -0.0193684883, 2.10016274  , 918.6096    , 30.5657139  , 819.5525    , 0.12        , 7           , 12          , 0.0346410163, 0
-0.18298611 , -9.790719   , -0.0170138963, 0.000340561877, 0.000136875547, 0.00010174964, 1.56889737  , -0.0193695016, 2.10016418  , 918.5886    , 30.6044521  , 819.5525    , 0.13        , 7           , 13          , 0           , 0
-0.180860221, -9.796945   , -0.0077789044, -0.00037117122, 0.0002830992, 0.000110847206, 1.56889355  , -0.0193705745, 2.100167    , 918.5886    , 30.6044521  , 819.5525    , 0.14        , 7           , 14          , -0.000284490641, 0.000454980531
-0.185277089, -9.794653   , -0.0120552378, -0.0004921855, 0.0003911968, -0.000355649157, 1.56888855  , -0.0193669684, 2.100171    , 918.5886    , 30.6044521  , 819.5525    , 0.15        , 7           , 15          , 0           , 0.000244343624
-0.189967781, -9.793372   , -0.0220186934, 0.000221320341, 0.0001180222, 8.137044E-05, 1.56889069  , -0.0193678029, 2.10017228  , 918.5886    , 30.6044521  , 819.5525    , 0.16        , 7           , 16          , 0           , 1.401298E-45
-0.195708439, -9.793622   , -0.0208528042, -0.000285349844, 7.609208E-05, 0.000572034041, 1.56888783  , -0.0193734672, 2.100173    , 918.5886    , 30.6044521  , 819.552551  , 0.17        , 7           , 20          , 0           , 0
-0.183668256, -9.792898   , -0.0151214628, 0.000175678957, 4.12284862E-07, -0.000347909139, 1.5688895   , -0.0193700083, 2.100173    , 918.5886    , 30.6044521  , 819.5526    , 0.18        , 7           , 21          , 0           , 0
-0.199072674, -9.795721   , -0.0136207994, -0.000310507778, -6.352307E-05, -0.000591614749, 1.5688864   , -0.0193641372, 2.10017228  , 918.5886    , 30.6044521  , 819.5527    , 0.19        , 7           , 22          , 0           , 0
-0.190085486, -9.782237   , -0.0225899071, -0.000570913951, -0.0002403229, -0.000505971257, 1.5688808   , -0.0193590987, 2.10017     , 918.5886    , 30.6044521  , 819.552734  , 0.2         , 7           , 40          , 0           , 0
-0.1976398  , -9.787809   , -0.019126486, 0.00021014  , 0.000115351257, -0.000163396238, 1.568893    , -0.01935433 , 2.10017085  , 918.5886    , 30.6044521  , 819.6481    , 0.21        , 7           , 41          , 0           , 0
-0.197463915, -9.791644   , -0.0163105968, 0.0007598391, 0.000180812931, -0.00058381795, 1.56890047  , -0.0193484873, 2.10017276  , 918.5886    , 30.6044521  , 819.648132  , 0.22        , 7           , 42          , 1           , 0
-0.199330166, -9.796784   , -0.0126933157, -0.0004710189, 0.0002961209, -0.000599353167, 1.5688957   , -0.019342497, 2.10017562  , 918.6824    , 30.6332855  , 819.6482    , 0.23        , 7           , 255         , 0           , 0
-0.197015911, -9.787858   , -0.0224169455, 0.0003264508, 4.58406E-05 , -0.000159480071, 1.568899    , -0.0193409156, 2.100176    , 918.6824    , 30.6332855  , 819.648254  , 0.24        , 7           , 255         , 0           , 0
-0.193784878, -9.795099   , -0.02498562 , 0.000226977063, -0.0001699457, 0.000871096971, 1.5689013   , -0.01934965 , 2.10017443  , 918.6824    , 30.6332855  , 819.6483    , 0.25        , 7           , 255         , 0           , 0
-0.184800386, -9.799964   , -0.02317874 , -0.000298235682, -0.000383896, 1.94742461E-05, 1.56889844  , -0.0193498582, 2.10017061  , 918.6824    , 30.6332855  , 819.6484    , 0.26        , 7           , 255         , 0           , 0
-0.195815235, -9.789743   , -0.0182617716, 0.0006035949, -0.000266385439, 0.000238755078, 1.56890452  , -0.0193522722, 2.100168    , 918.6824    , 30.6332855  , 819.648438  , 0.27        , 7           , 255         , 0           , 0
-0.192184061, -9.786066   , -0.0149744628, 0.000549720251, 0.000152615627, -8.292962E-05, 1.56891     , -0.0193514675, 2.10016942  , 918.6824    , 30.6332855  , 819.6485    , 0.28        , 7           , 255         , 0           , 0
-0.201009482, -9.798657   , -0.0156101659, -0.0008563358, -0.000215716529, -0.000285456161, 1.56890142  , -0.0193486065, 2.10016727  , 918.6824    , 30.6332855  , 819.64856   , 0.29        , 7           , 255         , 0           , 0
-0.18643555 , -9.800746   , -0.0230833553, -0.0001922102, 0.0005421513, 0.000345675158, 1.56889939  , -0.0193520337, 2.10017276  , 918.6824    , 30.6332855  , 819.6486    , 0.3         , 7           , 255         , 0           , 0
-0.1897295  , -9.79712    , -0.0165085681, 0.000801947841, -3.48683971E-05, -0.000462227035, 1.56890571  , -0.0193654187, 2.10017228  , 918.6824    , 30.6332855  , 819.396667  , 0.31        , 7           , 255         , 0           , 0
-0.1873159  , -9.7874     , -0.02348085 , 1.48308463E-05, 0.0006156104, -0.000436252332, 1.56890571  , -0.0193610359, 2.10017848  , 918.6824    , 30.6332855  , 819.3967    , 0.32        , 7           , 255         , 0           , 0
-0.180558115, -9.791176   , -0.0199381113, -6.06785761E-05, 0.0007631375, -0.0003101511, 1.568905    , -0.0193578769, 2.100186    , 918.675232  , 30.64414    , 819.3968    , 0.33        , 7           , 255         , 0           , 0
-0.189927369, -9.791307   , -0.00529182144, 0.000394326227, 0.000414478272, 0.0002910589, 1.56890869  , -0.0193608273, 2.10019016  , 918.675232  , 30.64414    , 819.396851  , 0.34        , 7           , 255         , 0           , 0
-0.189932317, -9.78731    , -0.00660275668, 0.0003017454, 0.000192402134, 8.83718E-05 , 1.56891179  , -0.0193616915, 2.100192    , 918.675232  , 30.64414    , 819.3969    , 0.35        , 7           , 255         , 0           , 0
-0.1861289  , -9.79900551 , -0.0115046948, -0.00020383409, 0.0003642471, -0.000580264663, 1.56890965  , -0.01935591 , 2.100196    , 918.675232  , 30.64414    , 819.397     , 0.36        , 7           , 255         , 0           , 0
-0.18797417 , -9.7988     , -0.02105016 , -8.702304E-05, 0.000249603036, -0.00108877546, 1.56890881  , -0.01934503 , 2.10019827  , 918.675232  , 30.64414    , 819.397034  , 0.37        , 7           , 255         , 0           , 0
-0.18017289 , -9.80349    , -0.02414527 , 0.000346909335, 0.000186257326, -0.000166999846, 1.56891215  , -0.0193433911, 2.10020018  , 918.675232  , 30.64414    , 819.3971    , 0.38        , 7           , 255         , 0           , 0
-0.1836758  , -9.796422   , -0.0187891573, 6.923711E-05, -0.000144253339, 0.0004941762, 1.568913    , -0.0193483084, 2.10019875  , 918.675232  , 30.64414    , 819.397156  , 0.39        , 7           , 255         , 0           , 0
-0.189590469, -9.78850651 , -0.011399935, -0.000405397324, 2.49082223E-05, -1.1117023E-05, 1.56890893  , -0.019348219, 2.100199    , 918.675232  , 30.64414    , 819.3972    , 0.4         , 7           , 255         , 0           , 0
-0.188886553, -9.786146   , -0.019498026, 0.0004460879, -0.0001627128, 0.000438111572, 1.568922    , -0.0193420183, 2.100197    , 918.675232  , 30.64414    , 819.2866    , 0.41        , 7           , 255         , 0           , 0
-0.1863651  , -9.793066   , -0.0158025362, 0.000194868873, -0.0005511758, 0.000162269309, 1.56892419  , -0.01934369 , 2.10019159  , 918.675232  , 30.64414    , 819.2867    , 0.42        , 7           , 255         , 0           , 0
-0.186104164, -9.786935   , -0.0144526688, -2.68261647E-05, -0.000480147864, 4.837959E-05, 1.56892407  , -0.0193441063, 2.10018682  , 918.685242  , 30.6587925  , 819.286743  , 0.43        , 7           , 255         , 0           , 0
-0.181208044, -9.790024   , -0.0194695778, -9.66728E-05, 0.000178151153, 0.00019830087, 1.568923    , -0.0193460733, 2.10018873  , 918.685242  , 30.6587925  , 819.2868    , 0.44        , 7           , 255         , 0           , 0
-0.1926761  , -9.799734   , -0.0208916571, 0.00059085153, 0.000132154877, -0.000545606, 1.568929    , -0.0193405878, 2.10019     , 918.685242  , 30.6587925  , 819.286865  , 0.45        , 7           , 255         , 0           , 0
-0.194756135, -9.79303    , -0.01899589 , 0.00016139423, -0.000226145727, -5.50174445E-06, 1.56893051  , -0.0193404984, 2.10018778  , 918.685242  , 30.6587925  , 819.2869    , 0.46        , 7           , 255         , 0           , 0
-0.189167783, -9.792909   , -0.02164812 , -0.000340724539, -2.3257744E-05, 0.000244086812, 1.56892717  , -0.0193429738, 2.10018754  , 918.685242  , 30.6587925  , 819.287     , 0.47        , 7           , 255         , 0           , 0
-0.190945685, -9.790888   , -0.0111227585, 0.0002803173, -5.32454578E-05, 0.000154369511, 1.56892991  , -0.0193445235, 2.100187    , 918.685242  , 30.6587925  , 819.287048  , 0.48        , 7           , 255         , 0           , 0
-0.191474363, -9.788577   , -0.014052406, -0.0005746714, -0.000120150507, 0.000126564788, 1.56892431  , -0.0193457752, 2.10018587  , 918.685242  , 30.6587925  , 819.2871    , 0.49        , 7           , 255         , 0           , 0
-0.189267412, -9.784798   , -0.0154250888, -0.000733548, 1.44353835E-05, 0.0002556756, 1.56891692  , -0.0193482786, 2.100186    , 918.685242  , 30.6587925  , 819.2872    , 0.5         , 7           , 255         , 0           , 0
-0.188021615, -9.794478   , -0.0169347338, 0.0004781149, 0.00030326852, 0.0001936664, 1.56892645  , -0.0193490237, 2.100189    , 918.685242  , 30.6587925  , 819.2017    , 0.51        , 7           , 255         , 0           , 0
-0.185728922, -9.800505   , -0.0229174  , -0.000201821385, 0.00023162298, 0.000894724159, 1.56892443  , -0.0193579365, 2.10019135  , 918.685242  , 30.6587925  , 819.2018    , 0.52        , 7           , 255         , 0           , 0
-0.176493049, -9.79925    , -0.0236254521, -0.0004937412, -0.0003486384, 0.000270935358, 1.56891954  , -0.0193606187, 2.10018778  , 918.64856   , 30.66836    , 819.201843  , 0.53        , 7           , 255         , 0           , 0
-0.187411815, -9.786803   , -0.0245942175, -2.79511441E-05, 0.000218656933, 0.00115042494, 1.5689193   , -0.0193720646, 2.10019     , 918.64856   , 30.66836    , 819.2019    , 0.54        , 7           , 255         , 0           , 0
-0.190004423, -9.788357   , -0.0209305231, 0.000319827377, -0.000203490577, 0.0006572282, 1.56892252  , -0.019378623, 2.100188    , 918.64856   , 30.66836    , 819.201965  , 0.55        , 7           , 255         , 0           , 0
-0.181291252, -9.797152   , -0.02429656 , 0.000106398875, -5.78330655E-05, 0.000343116641, 1.56892359  , -0.01938205 , 2.10018754  , 918.64856   , 30.66836    , 819.202     , 0.56        , 7           , 255         , 0           , 0
-0.196448445, -9.794851   , -0.0196457487, 0.0002772382, -4.10066277E-05, 0.0005672225, 1.56892633  , -0.0193877444, 2.100187    , 918.64856   , 30.66836    , 819.2021    , 0.57        , 7           , 255         , 0           , 0
-0.194575965, -9.795717   , -0.01424523 , 0.000360675622, -0.000425683975, 0.0002746181, 1.56893     , -0.0193904862, 2.10018277  , 918.64856   , 30.66836    , 819.202148  , 0.58        , 7           , 255         , 0           , 0
-0.195854768, -9.793122   , -0.01981088 , 0.000161936419, -0.000469026447, -7.537965E-05, 1.5689317   , -0.0193897113, 2.10017824  , 918.64856   , 30.66836    , 819.2022    , 0.59        , 7           , 255         , 0           , 0
-0.1907381  , -9.791413   , -0.0174789913, 1.40368938E-05, -0.00021046304, 8.140836E-06, 1.568932    , -0.0193898  , 2.100176    , 918.64856   , 30.66836    , 819.2023    , 0.6         , 7           , 255         , 0           , 0
-0.193037838, -9.7970295  , -0.0163700189, 0.0003716366, -0.000113279588, 0.000263723952, 1.56892931  , -0.0193889067, 2.10017514  , 918.64856   , 30.66836    , 819.2023    , 0.61        , 7           , 255         , 0           , 0
-0.187273175, -9.809402   , -0.0175249614, 0.000311384269, -0.000157717208, -0.000122733822, 1.56893241  , -0.0193876848, 2.10017347  , 918.64856   , 30.66836    , 819.202332  , 0.62        , 7           , 255         , 0           , 0
-0.187112257, -9.806402   , -0.012056401, -1.56941533E-05, 0.000336783763, 0.00021063129, 1.568932    , -0.0193898  , 2.10017681  , 918.6389    , 30.67019    , 819.2024    , 0.63        , 7           , 255         , 0           , 0
-0.191422775, -9.80367851 , -0.01835741 , 0.0002604732, 0.0006758981, -0.000580537249, 1.56893456  , -0.01938402 , 2.10018349  , 918.6389    , 30.67019    , 819.202454  , 0.64        , 7           , 255         , 0           , 0
-0.195300817, -9.805159   , -0.02338614 , -0.000116251409, -3.9135135E-05, -0.000863525667, 1.56893349  , -0.0193754043, 2.100183    , 918.6389    , 30.67019    , 819.2026    , 0.65        , 7           , 255         , 0           , 0
-0.191809013, -9.787333   , -0.0138631789, 0.000137883442, -0.000299912732, -2.95460341E-05, 1.5689348   , -0.0193751063, 2.10018015  , 918.6389    , 30.67019    , 819.2027    , 0.66        , 7           , 255         , 0           , 0
-0.186482653, -9.78185749 , -0.0162992738, 5.36677835E-05, 0.000247041869, -1.32111309E-05, 1.56893539  , -0.0193749275, 2.10018253  , 918.6389    , 30.67019    , 819.2028    , 0.67        , 7           , 255         , 0           , 0
-0.181122854, -9.787101   , -0.0221022014, -0.000398712116, -1.32846471E-05, 0.000304471527, 1.56893134  , -0.0193780269, 2.10018253  , 918.6389    , 30.67019    , 819.202942  , 0.68        , 7           , 255         , 0           , 0
-0.181427553, -9.794078   , -0.0187341962, 7.209217E-05, -0.00025517444, 0.000672097958, 1.568932    , -0.0193847343, 2.10018     , 918.6389    , 30.67019    , 819.203064  , 0.69        , 7           , 255         , 0           , 0
-0.185692936, -9.791823   , -0.0143709276, -0.000276565552, -0.000315995625, 0.000479189621, 1.56892931  , -0.0193895921, 2.10017681  , 918.6389    , 30.67019    , 819.2032    , 0.7         , 7           , 255         , 0           , 0
-0.182497218, -9.787251   , -0.02167171 , -0.000259137567, -0.000128844782, -2.54637853E-05, 1.5689292   , -0.0193846151, 2.10017538  , 918.6389    , 30.67019    , 819.2165    , 0.71        , 7           , 255         , 0           , 0
-0.185538724, -9.787168   , -0.0188582111, 0.000205497039, -0.0003612826, -0.000477062771, 1.56893122  , -0.0193798151, 2.1001718   , 918.6389    , 30.67019    , 819.2166    , 0.72        , 7           , 255         , 0           , 0
-0.198186383, -9.78732    , -0.0220970251, -1.42091594E-05, -8.56221E-05, -0.0006915148, 1.5689311   , -0.0193728711, 2.100171    , 918.636     , 30.6750755  , 819.216736  , 0.73        , 7           , 255         , 0           , 0
-0.190089777, -9.801311   , -0.0125772264, 0.000191206578, -0.0003440926, 0.0001501329, 1.56893313  , -0.0193743613, 2.10016775  , 918.636     , 30.6750755  , 819.216858  , 0.74        , 7           , 255         , 0           , 0
-0.19557336 , -9.795912   , -0.0192413609, 0.000241378526, -0.000218651418, 0.000748649065, 1.56893551  , -0.0193819311, 2.10016537  , 918.636     , 30.6750755  , 819.217     , 0.75        , 7           , 255         , 0           , 0
-0.1993931  , -9.799045   , -0.01598664 , 0.000177829745, 0.000662500039, 0.0004126997, 1.56893718  , -0.0193860754, 2.100172    , 918.636     , 30.6750755  , 819.2171    , 0.76        , 7           , 255         , 0           , 0
-0.191031083, -9.794798   , -0.0162775218, 5.213282E-06, 0.000345179957, 0.000353495125, 1.56893706  , -0.0193895623, 2.10017562  , 918.636     , 30.6750755  , 819.2172    , 0.77        , 7           , 255         , 0           , 0
-0.196067542, -9.796941   , -0.0163064934, 0.000401070574, -0.000285570044, 2.22893432E-05, 1.56894124  , -0.01938977 , 2.10017276  , 918.636     , 30.6750755  , 819.217346  , 0.78        , 7           , 255         , 0           , 0
-0.201975986, -9.787437   , -0.021177303, 0.0009086329, -0.0002083396, 0.00012895395, 1.5689503   , -0.0193910822, 2.10017061  , 918.636     , 30.6750755  , 819.217468  , 0.79        , 7           , 255         , 0           , 0
-0.193097472, -9.7979     , -0.0180811025, 9.65754152E-05, -0.000273138168, -0.000106195133, 1.56895125  , -0.01939004 , 2.100168    , 918.636     , 30.6750755  , 819.2176    , 0.8         , 7           , 255         , 0           , 0
-0.189900562, -9.792472   , -0.017223157, 0.0003059157, 7.767964E-05, -0.0008498387, 1.56895435  , -0.0193922166, 2.1001687   , 918.636     , 30.6750755  , 819.2313    , 0.81        , 7           , 255         , 0           , 0
-0.196118161, -9.789179   , -0.0128714172, 0.000774642569, 6.883807E-05, -0.000325088156, 1.5689621   , -0.0193889365, 2.10016918  , 918.636     , 30.6750755  , 819.231445  , 0.82        , 7           , 255         , 0           , 0
-0.19057712 , -9.788286   , -0.0194982179, 3.7744263E-05, 0.000432469184, -0.0004709727, 1.56896245  , -0.0193841383, 2.10017371  , 918.6501    , 30.677721   , 819.231567  , 0.83        , 7           , 255         , 0           , 0
-0.187450737, -9.793341   , -0.01890337 , 4.36855044E-05, -1.01758633E-05, -0.000302092783, 1.56896281  , -0.0193811562, 2.10017347  , 918.6501    , 30.677721   , 819.2317    , 0.84        , 7           , 255         , 0           , 0
-0.183707729, -9.797579   , -0.0168590732, -5.083601E-05, -0.0003856405, -0.000140076329, 1.56896245  , -0.0193798151, 2.10016966  , 918.6501    , 30.677721   , 819.2318    , 0.85        , 7           , 255         , 0           , 0
-0.196587756, -9.805987   , -0.0102480231, 0.000364886364, -0.000167861988, 0.000135450013, 1.568966    , -0.0193811562, 2.100168    , 918.6501    , 30.677721   , 819.231934  , 0.86        , 7           , 255         , 0           , 0
-0.189782292, -9.796733   , -0.0152255576, 7.210493E-05, -0.000123556412, -0.000232528328, 1.56896675  , -0.0193788316, 2.1001668   , 918.6501    , 30.677721   , 819.232056  , 0.87        , 7           , 255         , 0           , 0
-0.183949381, -9.790632   , -0.0231986977, 5.18178567E-05, -0.000383819919, 0.000286706869, 1.56896746  , -0.0193816926, 2.100163    , 918.6501    , 30.677721   , 819.232239  , 0.88        , 7           , 255         , 0           , 0
-0.199328572, -9.791657   , -0.0111590717, -0.000170557149, -0.0001551164, 0.000403078884, 1.56896567  , -0.0193857476, 2.10016131  , 918.6501    , 30.677721   , 819.2324    , 0.89        , 7           , 255         , 0           , 0
-0.2050492  , -9.796166   , -0.0176759176, -0.000746900449, 8.61471053E-05, -0.000370831083, 1.56895828  , -0.01938208 , 2.10016227  , 918.6501    , 30.677721   , 819.2326    , 0.9         , 7           , 255         , 0           , 0
-0.199471623, -9.800271   , -0.0254280157, -0.000235220767, -0.000163463992, -0.000566000468, 1.56896055  , -0.0193831846, 2.10016036  , 918.6501    , 30.677721   , 819.2272    , 0.91        , 7           , 255         , 0           , 0
-0.196417585, -9.79057    , -0.0139326556, -7.32757E-05, 0.000593025936, 0.000247215852, 1.56895971  , -0.0193857178, 2.10016656  , 918.6501    , 30.677721   , 819.227356  , 0.92        , 7           , 255         , 0           , 0
-0.195856959, -9.795813   , -0.0136290519, -0.0009996549, 0.000172727567, 0.000243805931, 1.56894982  , -0.0193881318, 2.10016823  , 918.6139    , 30.6794167  , 819.227539  , 0.93        , 7           , 255         , 0           , 0
-0.1937875  , -9.79908848 , -0.0192152616, -0.000307562936, 0.0001234921, 0.000149895932, 1.56894672  , -0.0193896815, 2.10016942  , 918.6139    , 30.6794167  , 819.2277    , 0.94        , 7           , 255         , 0           , 0
-0.193578   , -9.79376    , -0.0162504036, 0.0003840986, -5.32068952E-05, 0.000560078537, 1.56895053  , -0.0193952564, 2.100169    , 918.6139    , 30.6794167  , 819.2279    , 0.95        , 7           , 255         , 0           , 0
-0.19084467 , -9.793814   , -0.0158857536, -5.54749568E-05, -7.663292E-05, -5.373913E-05, 1.56894994  , -0.01939478 , 2.10016823  , 918.6139    , 30.6794167  , 819.2281    , 0.96        , 7           , 255         , 0           , 0
-0.186867326, -9.797244   , -0.009139439, -0.0003215843, 8.547888E-05, 0.000170377054, 1.56894672  , -0.0193964783, 2.10016918  , 918.6139    , 30.6794167  , 819.2283    , 0.97        , 7           , 255         , 0           , 0
-0.194769189, -9.808102   , -0.01183633 , 0.000114943265, -0.000157726434, 0.000450201856, 1.56894791  , -0.0194009785, 2.10016751  , 918.6139    , 30.6794167  , 819.228455  , 0.98        , 7           , 255         , 0           , 0
-0.190665066, -9.800922   , -0.0121290386, -0.000471968553, 6.89615263E-06, 0.000128903921, 1.56894326  , -0.0194022916, 2.10016751  , 918.6139    , 30.6794167  , 819.228638  , 0.99        , 7           , 255         , 0           , 0
-0.190609485, -9.79405    , -0.0185438842, -4.58882423E-05, -4.01685247E-06, -0.00089869817, 1.56894279  , -0.01939323 , 2.10016775  , 918.6139    , 30.6794167  , 819.2288    , 1           , 7           , 0           , 6.04823637  , 100
-0.181087881, -9.789142   , -0.0233514328, -0.0005403195, 1.57365E-05 , -0.0006685783, 1.56894326  , -0.0193940941, 2.10016775  , 918.6139    , 30.6794167  , 819.264     , 1.01        , 7           , 1           , 0           , 0
-0.189470679, -9.78974    , -0.008262641, -9.87426E-06, 0.000435652852, 0.000205453573, 1.5689429   , -0.01939618 , 2.100172    , 918.6139    , 30.6794167  , 819.2642    , 1.02        , 7           , 2           , 0           , 0
-0.1959119  , -9.798508   , -0.013764563, 0.000240151989, 0.000523621 , 0.000645025168, 1.56894517  , -0.01940265 , 2.10017729  , 918.6118    , 30.6813164  , 819.264465  , 1.03        , 7           , 3           , 0           , 0
-0.199807361, -9.787802   , -0.0237290636, 0.000407033716, 6.032776E-05, 0.000126815023, 1.56894922  , -0.01940393 , 2.100178    , 918.6118    , 30.6813164  , 819.2647    , 1.04        , 7           , 4           , 0           , 0
-0.191681653, -9.796434   , -0.0165579915, -0.000236291875, -0.00012451323, -0.000753348751, 1.568947    , -0.01939636 , 2.10017657  , 918.6118    , 30.6813164  , 819.264954  , 1.05        , 7           , 5           , 0           , 0
-0.185037225, -9.802047   , -0.0140593024, -0.000300533458, 8.338562E-05, -0.000101938465, 1.56894386  , -0.0193954054, 2.10017729  , 918.6118    , 30.6813164  , 819.2652    , 1.06        , 7           , 6           , 0           , 0
-0.192498028, -9.792315   , -0.0227719657, 0.000102241742, 0.000283581554, 0.00015836308, 1.56894481  , -0.0193970148, 2.10018015  , 918.6118    , 30.6813164  , 819.265442  , 1.07        , 7           , 7           , 0           , 0
-0.194384828, -9.786619   , -0.0180730782, 0.000882204738, 0.000237797562, -0.000486095261, 1.56895351  , -0.0193921272, 2.10018253  , 918.6118    , 30.6813164  , 819.2657    , 1.08        , 7           , 8           , 5           , 5
-0.196540147, -9.799741   , -0.0199901015, 0.0001378089, 8.03585863E-07, -0.000469651073, 1.568955    , -0.0193873867, 2.10018253  , 918.6118    , 30.6813164  , 819.2659    , 1.09        , 7           , 9           , 5           , 0.1
-0.192270547, -9.809114   , -0.0238850359, 0.000372073962, 0.000311766053, 5.385303E-05, 1.56895852  , -0.0193880424, 2.10018563  , 918.6118    , 30.6813164  , 819.2662    , 1.1         , 7           , 10          , 0.1         , 0.1
-0.192893   , -9.79947948 , -0.01834502 , 0.0003044279, 0.000513815554, -0.000184827775, 1.56896067  , -0.019390814, 2.10019088  , 918.6118    , 30.6813164  , 819.2981    , 1.11        , 7           , 11          , 0.009330113 , 0.009330113
-0.20356302 , -9.795939   , -0.01797647 , 4.9602284E-05, 0.000223647425, -4.99983435E-06, 1.56896114  , -0.0193906948, 2.100193    , 918.6118    , 30.6813164  , 819.298462  , 1.12        , 7           , 12          , 0.0346428268, 0
-0.190855473, -9.789141   , -0.019462131, 0.0005091557, -0.000409490953, 0.0004771062, 1.56896627  , -0.0193954948, 2.100189    , 918.6289    , 30.682539   , 819.2988    , 1.13        , 7           , 13          , 0           , 0
-0.187168315, -9.790355   , -0.02445354 , 0.000174689951, -0.000143986923, 0.000626423745, 1.568968    , -0.0194017533, 2.10018754  , 918.6289    , 30.682539   , 819.2992    , 1.14        , 7           , 14          , -0.000284505426, 0.000454980851
-0.189951152, -9.794933   , -0.0306062885, -0.000143698126, 0.000418564683, -0.000243553732, 1.56896651  , -0.01939934 , 2.10019159  , 918.6289    , 30.682539   , 819.299561  , 1.15        , 7           , 15          , 0           , 0.0002443191
-0.180711359, -9.792863   , -0.0220594313, -7.648399E-06, 0.000143549725, -0.0003727501, 1.56896639  , -0.0193956438, 2.100193    , 918.6289    , 30.682539   , 819.2999    , 1.16        , 7           , 16          , 0           , 1.401298E-45
-0.183842584, -9.797444   , -0.0187536981, 0.0005728756, 0.0003143048, 0.000515669934, 1.56897211  , -0.01940071 , 2.10019636  , 918.6289    , 30.682539   , 819.3003    , 1.17        , 7           , 20          , 0           , 0
-0.188207775, -9.792322   , -0.01666967 , 0.000392487564, -6.746585E-05, 0.000387909182, 1.568976    , -0.019404646, 2.10019541  , 918.6289    , 30.682539   , 819.300659  , 1.18        , 7           , 21          , 0           , 0
-0.191298768, -9.803653   , -0.0133036952, 0.000441965967, 2.65400158E-05, -0.000233381739, 1.56898046  , -0.0194022916, 2.100196    , 918.6289    , 30.682539   , 819.301     , 1.19        , 7           , 22          , 0           , 0
-0.190724   , -9.803929   , -0.0139374565, 6.09253329E-05, 0.000143544079, -0.00042377197, 1.568981    , -0.0193981174, 2.10019732  , 918.6289    , 30.682539   , 819.3014    , 1.2         , 7           , 40          , 0           , 0
-0.18832244 , -9.79836    , -0.0189859066, 0.000166056576, -0.0002635869, 0.000438949763, 1.56897914  , -0.0194020532, 2.10019469  , 918.6289    , 30.682539   , 819.3109    , 1.21        , 7           , 41          , 0           , 0
-0.1925724  , -9.800022   , -0.0165817738, 0.000208557816, -7.14499038E-06, 0.000113517308, 1.56898117  , -0.0194032155, 2.10019469  , 918.6289    , 30.682539   , 819.3113    , 1.22        , 7           , 42          , 1           , 0
-0.193926871, -9.793615   , -0.0144840553, -0.0001353772, 0.0004970437, -0.000184942575, 1.56897986  , -0.0194013361, 2.10019946  , 918.6397    , 30.68688    , 819.311646  , 1.23        , 7           , 255         , 0           , 0
-0.192325234, -9.79270649 , -0.0130740479, -0.00037388847, -0.000264230737, 0.0003136424, 1.56897616  , -0.0194044672, 2.100197    , 918.6397    , 30.68688    , 819.312     , 1.24        , 7           , 255         , 0           , 0
-0.185359284, -9.787679   , -0.0140287206, 0.00043474228, 0.000202366267, 0.000905736 , 1.56898057  , -0.01941347 , 2.100199    , 918.6397    , 30.68688    , 819.3124    , 1.25        , 7           , 255         , 0           , 0
-0.1863552  , -9.788393   , -0.0109804552, 0.0005813801, 0.0002690968, 0.000387380336, 1.5689863   , -0.0194174331, 2.10020161  , 918.6397    , 30.68688    , 819.312744  , 1.26        , 7           , 255         , 0           , 0
-0.188993365, -9.802741   , -0.0129359718, -0.0005241066, -0.000148998515, 0.000847370829, 1.568981    , -0.0194259584, 2.10020018  , 918.6397    , 30.68688    , 819.3132    , 1.27        , 7           , 255         , 0           , 0
-0.1955021  , -9.801332   , -0.0139015112, -0.0006659587, -0.000362897845, 0.0006675825, 1.56897449  , -0.019432636, 2.1001966   , 918.6397    , 30.68688    , 819.3136    , 1.28        , 7           , 255         , 0           , 0
-0.1924391  , -9.786089   , -0.0128742438, -0.00026668713, -0.0003748711, 0.000188706443, 1.56897187  , -0.0194346029, 2.10019279  , 918.6397    , 30.68688    , 819.314     , 1.29        , 7           , 255         , 0           , 0
-0.18330662 , -9.787743   , -0.01832616 , -1.27760577E-05, 0.000257186766, 0.000184240314, 1.56897151  , -0.01943642 , 2.10019541  , 918.6397    , 30.68688    , 819.314453  , 1.3         , 7           , 255         , 0           , 0
-0.191776365, -9.80141    , -0.0106036384, 5.0233677E-05, 0.000369073823, -0.000194032633, 1.56898034  , -0.0194338877, 2.100199    , 918.6397    , 30.68688    , 819.311646  , 1.31        , 7           , 255         , 0           , 0
-0.186039373, -9.799838   , -0.01303027 , -0.000588277937, 0.000218574423, -0.00031817847, 1.56897449  , -0.0194306076, 2.10020113  , 918.6397    , 30.68688    , 819.312     , 1.32        , 7           , 255         , 0           , 0
-0.194688633, -9.798968   , -0.015273626, -9.24214546E-05, 0.000220631191, 2.2090011E-05, 1.56897354  , -0.0194308162, 2.10020351  , 918.6093    , 30.6843014  , 819.312439  , 1.33        , 7           , 255         , 0           , 0
-0.196322754, -9.792786   , -0.0210725  , 0.000175232752, -0.000246115815, 0.0008184146, 1.56897533  , -0.0194390435, 2.10020113  , 918.6093    , 30.6843014  , 819.312866  , 1.34        , 7           , 255         , 0           , 0
-0.19719252 , -9.788222   , -0.0262634754, -0.000101722544, 0.000178844843, 0.000284997077, 1.56897438  , -0.0194418468, 2.1002028   , 918.6093    , 30.6843014  , 819.3133    , 1.35        , 7           , 255         , 0           , 0
-0.194080263, -9.791162   , -0.0234902576, 0.000314616074, -0.000119561038, -0.0004728641, 1.56897748  , -0.0194371361, 2.10020161  , 918.6093    , 30.6843014  , 819.3137    , 1.36        , 7           , 255         , 0           , 0
-0.192441046, -9.791516   , -0.02213871 , 0.0004944269, -0.00016029735, -0.000429760723, 1.56898248  , -0.0194328446, 2.1002      , 918.6093    , 30.6843014  , 819.314148  , 1.37        , 7           , 255         , 0           , 0
-0.200023487, -9.793249   , -0.01433794 , 0.000411485846, -2.72727339E-05, 0.000242106762, 1.56898665  , -0.0194352884, 2.1001997   , 918.6093    , 30.6843014  , 819.3146    , 1.38        , 7           , 255         , 0           , 0
-0.198297843, -9.799452   , -0.0166405551, 0.000450500345, 0.0004826035, 0.000452692359, 1.568991    , -0.0194398183, 2.10020447  , 918.6093    , 30.6843014  , 819.315     , 1.39        , 7           , 255         , 0           , 0
-0.196111187, -9.791639   , -0.0180048291, 0.0004630612, 0.000312414079, 4.02893347E-05, 1.56899559  , -0.0194402654, 2.10020781  , 918.6093    , 30.6843014  , 819.3154    , 1.4         , 7           , 255         , 0           , 0
-0.189960882, -9.794902   , -0.0194948949, -9.74568247E-05, -2.20222864E-06, 7.52261E-05 , 1.56899416  , -0.0194511451, 2.10020781  , 918.6093    , 30.6843014  , 819.3439    , 1.41        , 7           , 255         , 0           , 0
-0.197319865, -9.80295849 , -0.0276872553, -0.000242775248, -0.000189740938, -7.642931E-05, 1.56899166  , -0.0194504  , 2.100206    , 918.6093    , 30.6843014  , 819.3444    , 1.42        , 7           , 255         , 0           , 0
-0.195573524, -9.793554   , -0.0264272336, 0.0006932572, 0.000107809086, 4.17098636E-06, 1.56899858  , -0.01945043 , 2.100207    , 918.6236    , 30.6836243  , 819.345     , 1.43        , 7           , 255         , 0           , 0
-0.1881064  , -9.783897   , -0.019328095, 0.0007441037, -0.000372966751, 0.00051027094, 1.56900609  , -0.0194555577, 2.10020328  , 918.6236    , 30.6836243  , 819.3455    , 1.44        , 7           , 255         , 0           , 0
-0.190565079, -9.796544   , -0.008515544, -2.73666228E-06, 0.0002952853, 0.000678513548, 1.569006    , -0.0194623247, 2.10020614  , 918.6236    , 30.6836243  , 819.346069  , 1.45        , 7           , 255         , 0           , 0
-0.1910317  , -9.789892   , -0.01567277 , -0.000709161337, 0.000333207368, -0.000262306363, 1.56899881  , -0.01945964 , 2.10020971  , 918.6236    , 30.6836243  , 819.3466    , 1.46        , 7           , 255         , 0           , 0
-0.188901916, -9.791944   , -0.0116689159, 0.0003074115, 0.000309912837, 2.29086727E-05, 1.56900179  , -0.01945985 , 2.10021257  , 918.6236    , 30.6836243  , 819.347168  , 1.47        , 7           , 255         , 0           , 0
-0.183843687, -9.787855   , -0.0175446551, 0.0004166658, 0.000119840261, -2.541885E-06, 1.56900609  , -0.01945979 , 2.100214    , 918.6236    , 30.6836243  , 819.3477    , 1.48        , 7           , 255         , 0           , 0
-0.184141427, -9.796199   , -0.0191219822, 0.0004702546, -0.0004909764, -6.925402E-05, 1.56901085  , -0.0194591042, 2.100209    , 918.6236    , 30.6836243  , 819.348267  , 1.49        , 7           , 255         , 0           , 0
-0.190508366, -9.797865   , -0.0158949941, 0.0005385913, 0.000104345148, 0.00014429458, 1.56901622  , -0.0194605645, 2.10021     , 918.6236    , 30.6836243  , 819.3488    , 1.5         , 7           , 255         , 0           , 0
-0.188759953, -9.793758   , -0.0147202807, 0.000375316478, 0.000197843183, 0.0006194583, 1.56901836  , -0.0194652751, 2.100212    , 918.6236    , 30.6836243  , 819.358948  , 1.51        , 7           , 255         , 0           , 0
-0.186451957, -9.79324    , -0.0133685945, 0.000163407822, 8.14861851E-05, -8.017945E-05, 1.56902     , -0.0194645  , 2.10021281  , 918.6236    , 30.6836243  , 819.359558  , 1.52        , 7           , 255         , 0           , 0
-0.192361265, -9.796681   , -0.00577995135, 0.000247895368, -6.22530933E-06, 0.000342454063, 1.56902254  , -0.0194678381, 2.10021281  , 918.6376    , 30.6862011  , 819.360168  , 1.53        , 7           , 255         , 0           , 0
-0.194049314, -9.792972   , -0.01126794 , 0.000312689284, 0.000306097558, -0.00021368124, 1.56902552  , -0.0194657221, 2.100216    , 918.6376    , 30.6862011  , 819.3608    , 1.54        , 7           , 255         , 0           , 0
-0.191789314, -9.796029   , -0.0149217742, 0.00025249584, 0.000380542537, 0.00038491626, 1.569028    , -0.0194695666, 2.10021973  , 918.6376    , 30.6862011  , 819.3614    , 1.55        , 7           , 255         , 0           , 0
-0.196204334, -9.794705   , -0.0186241139, -0.00054572674, 0.000361545419, -0.000177556489, 1.56902242  , -0.0194677785, 2.1002233   , 918.6376    , 30.6862011  , 819.362     , 1.56        , 7           , 255         , 0           , 0
-0.18956852 , -9.802111   , -0.0123943817, -0.0005225091, 0.000568584248, -0.000241833681, 1.56901717  , -0.0194653645, 2.100229    , 918.6376    , 30.6862011  , 819.3626    , 1.57        , 7           , 255         , 0           , 0
-0.179087013, -9.798496   , -0.0201242  , -7.077845E-05, 0.0006428139, -0.000155019967, 1.56901634  , -0.0194638148, 2.10023546  , 918.6376    , 30.6862011  , 819.3632    , 1.58        , 7           , 255         , 0           , 0
-0.192408   , -9.791677   , -0.0163047649, -3.61583079E-06, -1.03390776E-05, 0.0004990803, 1.56901634  , -0.0194688216, 2.10023546  , 918.6376    , 30.6862011  , 819.363831  , 1.59        , 7           , 255         , 0           , 0
-0.1954673  , -9.795719   , -0.0138899656, -1.720438E-05, 0.000187708822, 0.0007416855, 1.5690161   , -0.019476274, 2.10023737  , 918.6376    , 30.6862011  , 819.364441  , 1.6         , 7           , 255         , 0           , 0
-0.191443145, -9.794574   , -0.0175023545, 7.108539E-05, 4.47950442E-05, 0.000555843231, 1.569024    , -0.0194815211, 2.10023761  , 918.6376    , 30.6862011  , 819.3582    , 1.61        , 7           , 255         , 0           , 0
-0.190269068, -9.79385    , -0.016147403, 9.095702E-05, 0.0004692527, -0.0005629058, 1.5690248   , -0.019475827, 2.10024238  , 918.6376    , 30.6862011  , 819.358765  , 1.62        , 7           , 255         , 0           , 0
-0.205840617, -9.786195   , -0.0127665279, 5.526365E-05, 0.000552690937, -0.000261222071, 1.56902528  , -0.0194731746, 2.10024786  , 918.576965  , 30.690136   , 819.3593    , 1.63        , 7           , 255         , 0           , 0
-0.203719765, -9.796435   , -0.0213216431, 6.150763E-05, 0.000213199062, 5.003708E-05, 1.56902575  , -0.01947374 , 2.10025024  , 918.576965  , 30.690136   , 819.3599    , 1.64        , 7           , 255         , 0           , 0
-0.188237026, -9.790138   , -0.0130789783, 4.17207921E-05, 0.000281185377, 0.0006034946, 1.56902611  , -0.01947982 , 2.10025287  , 918.576965  , 30.690136   , 819.360535  , 1.65        , 7           , 255         , 0           , 0
-0.191742569, -9.796745   , -0.0186952762, -5.977429E-05, 0.0002699946, 0.000168504455, 1.56902552  , -0.0194814913, 2.10025573  , 918.576965  , 30.690136   , 819.361145  , 1.66        , 7           , 255         , 0           , 0
-0.198916674, -9.80101    , -0.02663869 , 0.000241966758, 0.000195596018, -0.000111798348, 1.569028    , -0.0194803271, 2.10025764  , 918.576965  , 30.690136   , 819.361755  , 1.67        , 7           , 255         , 0           , 0
-0.192826271, -9.79542351 , -0.0207337011, -0.000173082313, -0.000127165287, -0.000140874981, 1.56902635  , -0.0194789264, 2.1002562   , 918.576965  , 30.690136   , 819.362366  , 1.68        , 7           , 255         , 0           , 0
-0.181459352, -9.78877    , -0.0156387072, 0.0003229537, -0.0001039762, -0.000192935069, 1.56902957  , -0.01947696 , 2.10025525  , 918.576965  , 30.690136   , 819.363     , 1.69        , 7           , 255         , 0           , 0
-0.187358   , -9.792299   , -0.01880854 , 5.52974234E-05, 0.000235004176, 0.000622182037, 1.56903017  , -0.01948319 , 2.10025764  , 918.576965  , 30.690136   , 819.3636    , 1.7         , 7           , 255         , 0           , 0
-0.185590431, -9.791983   , -0.0180505086, 0.00053159357, 0.000139443262, -0.000300123123, 1.56903338  , -0.0194860213, 2.100259    , 918.576965  , 30.690136   , 819.4243    , 1.71        , 7           , 255         , 0           , 0
-0.193542808, -9.80217552 , -0.0185162015, -0.000105086045, -2.73740443E-05, 6.8782625E-05, 1.56903243  , -0.0194866769, 2.10025859  , 918.576965  , 30.690136   , 819.425232  , 1.72        , 7           , 255         , 0           , 0
-0.192501575, -9.792569   , -0.01671515 , -0.0002546061, -0.00011341885, 0.000136222312, 1.56902993  , -0.0194880478, 2.10025764  , 918.6093    , 30.68688    , 819.426147  , 1.73        , 7           , 255         , 0           , 0
-0.18997243 , -9.790338   , -0.0158435758, -0.000142124481, -0.000381502643, -0.000491865, 1.5690285   , -0.01948313 , 2.10025382  , 918.6093    , 30.68688    , 819.427063  , 1.74        , 7           , 255         , 0           , 0
-0.187336728, -9.795199   , -0.01822002 , -7.305018E-05, 2.749858E-05, -0.000491618644, 1.5690279   , -0.019478241, 2.100254    , 918.6093    , 30.68688    , 819.428     , 1.75        , 7           , 255         , 0           , 0
-0.1787452  , -9.795865   , -0.0167379025, 0.000545280054, 0.000115335919, 0.0009377791, 1.56903327  , -0.01948766 , 2.10025525  , 918.6093    , 30.68688    , 819.4289    , 1.76        , 7           , 255         , 0           , 0
-0.189403445, -9.78908348 , -0.0110299848, 0.000471932552, 0.000437962182, -0.000144640857, 1.56903791  , -0.01948623 , 2.10025954  , 918.6093    , 30.68688    , 819.4298    , 1.77        , 7           , 255         , 0           , 0
-0.194591254, -9.792078   , -0.0122866714, 0.0002436442, -0.000120478478, -0.0006783017, 1.56904042  , -0.0194794629, 2.10025835  , 918.6093    , 30.68688    , 819.4307    , 1.78        , 7           , 255         , 0           , 0
-0.191862792, -9.79397    , -0.0217364673, 5.63340145E-05, -5.356624E-05, 0.000508361962, 1.569041    , -0.0194845609, 2.10025787  , 918.6093    , 30.68688    , 819.431641  , 1.79        , 7           , 255         , 0           , 0
-0.188134566, -9.789293   , -0.016607834, 8.84595356E-05, -4.19176649E-06, 0.000216741813, 1.56904185  , -0.0194866769, 2.10025787  , 918.6093    , 30.68688    , 819.432556  , 1.8         , 7           , 255         , 0           , 0
-0.194017678, -9.782379   , -0.0191986375, -0.000235777348, 7.76393863E-05, -0.0005124904, 1.56904113  , -0.0194776151, 2.10025859  , 918.6093    , 30.68688    , 819.4501    , 1.81        , 7           , 255         , 0           , 0
-0.190574244, -9.788381   , -0.0183464177, 0.000363254425, -7.97816E-05, -0.0005080041, 1.56904483  , -0.0194725189, 2.10025787  , 918.6093    , 30.68688    , 819.4511    , 1.82        , 7           , 255         , 0           , 0
-0.183209687, -9.793509   , -0.025231814, 0.000956013042, -0.000217742927, 0.0005113312, 1.56905448  , -0.0194776449, 2.10025573  , 918.687744  , 30.6905441  , 819.452148  , 1.83        , 7           , 255         , 0           , 0
-0.185648367, -9.79527    , -0.0195064731, 2.63975526E-05, 0.000426827726, 0.000143356359, 1.56905472  , -0.0194791649, 2.10025978  , 918.687744  , 30.6905441  , 819.4532    , 1.84        , 7           , 255         , 0           , 0
-0.189302951, -9.783445   , -0.0220555328, -1.92461885E-05, 0.000396160962, 0.0004338349, 1.56905448  , -0.0194835179, 2.10026383  , 918.687744  , 30.6905441  , 819.4542    , 1.85        , 7           , 255         , 0           , 0
-0.184253812, -9.794266   , -0.0191362742, 0.0003361812, -0.00034373306, -0.000119936405, 1.569058    , -0.0194823556, 2.10026026  , 918.687744  , 30.6905441  , 819.455261  , 1.86        , 7           , 255         , 0           , 0
-0.180900082, -9.796518   , -0.0163250752, -0.00029234204, -0.000194878288, 5.5379E-05  , 1.569055    , -0.0194829218, 2.10025859  , 918.687744  , 30.6905441  , 819.4563    , 1.87        , 7           , 255         , 0           , 0
-0.192634076, -9.80509    , -0.019862337, -0.000416878145, 0.0002538587, 0.000597540231, 1.56905079  , -0.0194889419, 2.100261    , 918.687744  , 30.6905441  , 819.457336  , 1.88        , 7           , 255         , 0           , 0
-0.191751152, -9.800099   , -0.0152275953, 0.000184839315, 0.000285327173, 0.0005418568, 1.56905258  , -0.0194943082, 2.10026383  , 918.687744  , 30.6905441  , 819.4584    , 1.89        , 7           , 255         , 0           , 0
-0.188557625, -9.798289   , -0.016365286, 0.000151146945, 0.000227831741, 0.000441127166, 1.569054    , -0.0194987189, 2.10026622  , 918.687744  , 30.6905441  , 819.4594    , 1.9         , 7           , 255         , 0           , 0
-0.191973165, -9.787913   , -0.0202185977, -0.000112737354, 0.000246179057, -0.000111965768, 1.56904793  , -0.0194912981, 2.10026884  , 918.687744  , 30.6905441  , 819.382568  , 1.91        , 7           , 255         , 0           , 0
-0.1805602  , -9.783983   , -0.0195330046, -0.00014915035, 0.000226860284, 0.000349503738, 1.56904638  , -0.019494785, 2.100271    , 918.687744  , 30.6905441  , 819.3832    , 1.92        , 7           , 255         , 0           , 0
-0.18433775 , -9.792976   , -0.0227938034, 0.000423548539, -0.000115180679, 0.000117295305, 1.56905067  , -0.0194959771, 2.10026979  , 918.6466    , 30.6913567  , 819.3838    , 1.93        , 7           , 255         , 0           , 0
-0.185810283, -9.794216   , -0.017144125, 0.0007657547, -0.000397314725, -0.000227045166, 1.56905842  , -0.0194936227, 2.10026574  , 918.6466    , 30.6913567  , 819.3844    , 1.94        , 7           , 255         , 0           , 0
-0.190133482, -9.783075   , -0.004531014, 0.000160256968, -0.000216830289, -0.00093187124, 1.56906009  , -0.0194842927, 2.1002636   , 918.6466    , 30.6913567  , 819.385     , 1.95        , 7           , 255         , 0           , 0
-0.19574903 , -9.784175   , -0.005541151, -0.000113208807, -8.934818E-06, -0.000587665068, 1.5690589   , -0.01947839 , 2.10026336  , 918.6466    , 30.6913567  , 819.3856    , 1.96        , 7           , 255         , 0           , 0
-0.188665912, -9.801062   , -0.0155346217, -0.000381914753, 1.967739E-05, 0.000446219085, 1.56905508  , -0.019482892, 2.1002636   , 918.6466    , 30.6913567  , 819.3862    , 1.97        , 7           , 255         , 0           , 0
-0.189349174, -9.790961   , -0.0194882639, -0.000194300257, 0.000202246534, -9.844192E-05, 1.569053    , -0.0194819085, 2.1002655   , 918.6466    , 30.6913567  , 819.386841  , 1.98        , 7           , 255         , 0           , 0
-0.1926194  , -9.802488   , -0.0285156183, -0.000101306563, 0.000281472865, 0.0004730534, 1.5690521   , -0.0194865875, 2.10026836  , 918.6466    , 30.6913567  , 819.387451  , 1.99        , 7           , 255         , 0           , 0
-0.185615808, -9.792181   , -0.0208379682, -0.0001405922, 0.000228242832, 0.000952652656, 1.56905055  , -0.0194960963, 2.10027075  , 918.6466    , 30.6913567  , 819.388062  , 2           , 7           , 0           , 7.04823637  , 200
-0.188765541, -9.785913   , -0.0156144649, -0.0002298292, 0.00019331192, 0.000250584562, 1.56904709  , -0.0194924  , 2.10027266  , 918.6466    , 30.6913567  , 819.366943  , 2.01        , 7           , 1           , 0           , 0
-0.196921274, -9.790569   , -0.0146746207, 0.0004337662, 6.405145E-05, 0.0007182233, 1.56905127  , -0.0194995832, 2.10027337  , 918.6466    , 30.6913567  , 819.367432  , 2.02        , 7           , 2           , 0           , 0
-0.1980087  , -9.796602   , -0.0194968134, 4.59337025E-06, 0.000408384745, 0.0008167608, 1.56905127  , -0.01950781 , 2.10027742  , 918.6443    , 30.6927147  , 819.3679    , 2.03        , 7           , 3           , 0           , 0
-0.188639835, -9.803837   , -0.0129762916, -0.000138106785, -3.79462144E-05, 0.0009524231, 1.56904984  , -0.01951735 , 2.10027719  , 918.6443    , 30.6927147  , 819.3684    , 2.04        , 7           , 4           , 0           , 0
-0.188714713, -9.794546   , -0.0115818735, 0.000460444251, 0.000328688038, 0.0004068688, 1.56905437  , -0.0195214637, 2.10028052  , 918.6443    , 30.6927147  , 819.3689    , 2.05        , 7           , 5           , 0           , 0
-0.185120732, -9.795942   , -0.009178279, -0.000144073274, 0.0004701422, -0.00061772106, 1.56905282  , -0.0195152927, 2.100285    , 918.6443    , 30.6927147  , 819.3694    , 2.06        , 7           , 6           , 0           , 0
-0.194893256, -9.796197   , -0.007333382, 0.0002838758, -0.000328915368, -0.0008313914, 1.5690558   , -0.0195069462, 2.10028172  , 918.6443    , 30.6927147  , 819.3699    , 2.07        , 7           , 7           , 0           , 0
-0.189084366, -9.796611   , -0.0110835442, 0.0005529223, 6.262833E-05, -2.18427158E-06, 1.56906128  , -0.0195069164, 2.10028243  , 918.6443    , 30.6927147  , 819.370361  , 2.08        , 7           , 8           , 5           , 5
-0.197052643, -9.804037   , -0.009982685, 8.64299946E-05, 8.517885E-05, -0.0003354387, 1.56906211  , -0.0195035487, 2.10028315  , 918.6443    , 30.6927147  , 819.37085   , 2.09        , 7           , 9           , 5           , 0.1
-0.195880711, -9.802702   , -0.0169134829, -0.000305548863, -0.000225991, 0.00087633275, 1.56905913  , -0.0195123423, 2.100281    , 918.6443    , 30.6927147  , 819.371338  , 2.1         , 7           , 10          , 0.1         , 0.1
-0.189301237, -9.802602   , -0.0171527471, 4.63028264E-05, -0.000115359464, 0.000237159664, 1.56906736  , -0.019516753, 2.10027981  , 918.6443    , 30.6927147  , 819.3545    , 2.11        , 7           , 11          , 0.008280266 , 0.008280268
-0.19379735 , -9.803612   , -0.0164560732, 0.000213541382, -0.000314514036, 0.0003849726, 1.5690695   , -0.01952063 , 2.10027671  , 918.6443    , 30.6927147  , 819.354858  , 2.12        , 7           , 12          , 0.0346481539, 0
-0.195292085, -9.801855   , -0.0117477551, 0.000158779992, 0.000142424309, 0.000888414448, 1.56907094  , -0.01952954 , 2.10027814  , 918.6365    , 30.69163    , 819.3552    , 2.13        , 7           , 13          , 0           , 0
-0.1990208  , -9.793505   , -0.00728029152, 0.0005986676, -3.41793639E-05, 0.000648870249, 1.569077    , -0.0195360389, 2.10027766  , 918.6365    , 30.69163    , 819.3556    , 2.14        , 7           , 14          , -0.00028453063, 0.000454981346
-0.192255646, -9.790192   , -0.00704884157, 0.0005330427, 0.000533726066, 0.000121773977, 1.56908238  , -0.01953726 , 2.10028315  , 918.6365    , 30.69163    , 819.355957  , 2.15        , 7           , 15          , 0           , 0.000244330149
-0.193168133, -9.801007   , -0.0171211641, 0.0006049556, 1.65533856E-06, -0.0005826034, 1.56908846  , -0.01953139 , 2.10028315  , 918.6365    , 30.69163    , 819.3563    , 2.16        , 7           , 16          , 0           , 1.401298E-45
-0.184354231, -9.805665   , -0.01661408 , 2.17897468E-06, 0.000375815085, 7.24592246E-05, 1.56908834  , -0.0195320752, 2.100287    , 918.6365    , 30.69163    , 819.35675   , 2.17        , 7           , 20          , 0           , 0
-0.191387221, -9.795073   , -0.009996897, 6.07466645E-05, 3.785157E-05, 0.000175192079, 1.569089    , -0.0195338335, 2.1002872   , 918.6365    , 30.69163    , 819.3572    , 2.18        , 7           , 21          , 0           , 0
-0.196712822, -9.792672   , -0.01341601 , -0.000191202853, -0.00012095453, 0.0005928698, 1.56908715  , -0.0195397958, 2.100286    , 918.6365    , 30.69163    , 819.3576    , 2.19        , 7           , 22          , 0           , 0
-0.189379856, -9.783519   , -0.0230960138, 0.0007750271, 0.0001659129, 0.000536986045, 1.5690949   , -0.01954516 , 2.10028768  , 918.6365    , 30.69163    , 819.358032  , 2.2         , 7           , 40          , 0           , 0
-0.195486367, -9.788694   , -0.012872   , 0.000785164768, 6.974442E-05, 0.0008068615, 1.56910777  , -0.0195551757, 2.10028839  , 918.6365    , 30.69163    , 819.3525    , 2.21        , 7           , 41          , 0           , 0
-0.197629064, -9.784917   , -0.006745725, 0.0002824958, 0.000346635818, 0.0003842523, 1.56911063  , -0.019558901, 2.10029173  , 918.6365    , 30.69163    , 819.352844  , 2.22        , 7           , 42          , 1           , 0
-0.192689434, -9.789406   , -0.009443046, -0.000104614883, 0.0004570649, -0.000354833843, 1.56910956  , -0.0195553843, 2.1002965   , 918.67395   , 30.6927814  , 819.3532    , 2.23        , 7           , 255         , 0           , 0
-0.197972968, -9.797882   , -0.02029853 , 2.35547486E-05, 0.0004142371, -0.0005336136, 1.56910956  , -0.01955002 , 2.10030055  , 918.67395   , 30.6927814  , 819.3536    , 2.24        , 7           , 255         , 0           , 0
-0.194941685, -9.796316   , -0.0119043794, -0.000260662957, 0.000151501386, -0.000829230354, 1.56910694  , -0.0195416734, 2.100302    , 918.67395   , 30.6927814  , 819.353943  , 2.25        , 7           , 255         , 0           , 0
-0.1864886  , -9.794615   , -0.0133899329, -0.000335351768, 9.553152E-05, -0.000184458069, 1.5691036   , -0.0195398554, 2.100303    , 918.67395   , 30.6927814  , 819.3543    , 2.26        , 7           , 255         , 0           , 0
-0.180003569, -9.792269   , -0.0213724878, 2.89172749E-05, -0.0003493698, -0.000194579508, 1.569104    , -0.0195379164, 2.1002996   , 918.67395   , 30.6927814  , 819.3547    , 2.27        , 7           , 255         , 0           , 0
-0.196742475, -9.793167   , -0.0255130418, 0.0002916868, 0.000186471909, 3.51044873E-05, 1.56910682  , -0.0195383336, 2.10030127  , 918.67395   , 30.6927814  , 819.355042  , 2.28        , 7           , 255         , 0           , 0
-0.191708475, -9.787062   , -0.0182665177, 0.000433477282, -0.000126337516, 7.979211E-05, 1.56911111  , -0.0195390787, 2.1003      , 918.67395   , 30.6927814  , 819.3554    , 2.29        , 7           , 255         , 0           , 0
-0.192017108, -9.792234   , -0.0161768328, 7.151556E-05, 7.245515E-05, -0.0002124472, 1.56911182  , -0.0195369031, 2.10030079  , 918.67395   , 30.6927814  , 819.3558    , 2.3         , 7           , 255         , 0           , 0
-0.187276   , -9.803379   , -0.0176239572, -0.000774564745, 0.000200476381, -0.000162215438, 1.56910622  , -0.019538125, 2.1003027   , 918.67395   , 30.6927814  , 819.301758  , 2.31        , 7           , 255         , 0           , 0
-0.193614528, -9.78583    , -0.022142563, -0.000381352671, -0.0001497863, 0.0001497801, 1.56910253  , -0.0195396766, 2.10030127  , 918.67395   , 30.6927814  , 819.3018    , 2.32        , 7           , 255         , 0           , 0
-0.185125351, -9.79332352 , -0.0256539881, 7.609109E-06, -2.58392247E-05, 0.00027125192, 1.56910253  , -0.0195423886, 2.10030079  , 918.638733  , 30.6923752  , 819.3019    , 2.33        , 7           , 255         , 0           , 0
-0.185419053, -9.788996   , -0.0158707947, 0.000483462965, -0.000124167418, 0.000809392659, 1.56910741  , -0.0195504967, 2.1002996   , 918.638733  , 30.6923752  , 819.301941  , 2.34        , 7           , 255         , 0           , 0
-0.181034356, -9.794991   , -0.0177337136, 5.948321E-05, -0.000174327724, 0.000320267252, 1.569108    , -0.0195537154, 2.100298    , 918.638733  , 30.6923752  , 819.302     , 2.35        , 7           , 255         , 0           , 0
-0.187236637, -9.802397   , -0.0165629145, -0.000404727063, -0.000411052315, -9.400537E-05, 1.569104    , -0.0195528213, 2.10029387  , 918.638733  , 30.6923752  , 819.302063  , 2.36        , 7           , 255         , 0           , 0
-0.184564427, -9.802539   , -0.0183908287, -0.000406629057, 0.000109725632, 0.000427581981, 1.5690999   , -0.0195570532, 2.10029483  , 918.638733  , 30.6923752  , 819.3021    , 2.37        , 7           , 255         , 0           , 0
-0.193459466, -9.807887   , -0.0158526171, -0.000213800289, 0.0001249251, 0.0002880112, 1.56909776  , -0.0195599459, 2.100296    , 918.638733  , 30.6923752  , 819.3022    , 2.38        , 7           , 255         , 0           , 0
-0.186349288, -9.802426   , -0.0110095507, -0.000150670618, 0.000164289318, -0.000520726549, 1.56909621  , -0.0195547882, 2.10029769  , 918.638733  , 30.6923752  , 819.302246  , 2.39        , 7           , 255         , 0           , 0
-0.190258726, -9.790777   , -0.0189467575, -0.000386071915, 0.000277055951, -0.000471774372, 1.56909227  , -0.01955008 , 2.10030055  , 918.638733  , 30.6923752  , 819.3023    , 2.4         , 7           , 255         , 0           , 0
-0.192898631, -9.79509    , -0.0198781136, 0.00025586196, 0.000246405631, -0.00018851881, 1.56909227  , -0.0195411369, 2.100303    , 918.638733  , 30.6923752  , 819.3008    , 2.41        , 7           , 255         , 0           , 0
-0.184832424, -9.794785   , -0.0201950017, 0.00060521916, 0.000193451444, -0.000208855461, 1.56909823  , -0.0195390489, 2.10030484  , 918.638733  , 30.6923752  , 819.300842  , 2.42        , 7           , 255         , 0           , 0
-0.190552145, -9.793996   , -0.0178935863, 0.000706967432, 0.000374788622, 0.0005969467, 1.56910527  , -0.0195449814, 2.10030866  , 918.6104    , 30.69129    , 819.3009    , 2.43        , 7           , 255         , 0           , 0
-0.193679139, -9.794775   , -0.0197454374, 0.0004647041, 0.000395741052, 0.00023182208, 1.56910992  , -0.0195472762, 2.10031271  , 918.6104    , 30.69129    , 819.300964  , 2.44        , 7           , 255         , 0           , 0
-0.191882432, -9.7932415  , -0.0145069882, -5.221786E-05, -0.000164294383, -0.000430351676, 1.56910932  , -0.0195429549, 2.100311    , 918.6104    , 30.69129    , 819.301     , 2.45        , 7           , 255         , 0           , 0
-0.19741042 , -9.794336   , -0.0176912863, 0.0005551589, 5.05980861E-05, 0.0006384351, 1.56911492  , -0.0195493046, 2.10031152  , 918.6104    , 30.69129    , 819.3011    , 2.46        , 7           , 255         , 0           , 0
-0.187762231, -9.797078   , -0.017721165, 0.0004440121, -2.97313381E-05, 0.00102322677, 1.56911933  , -0.0195595883, 2.100311    , 918.6104    , 30.69129    , 819.301147  , 2.47        , 7           , 255         , 0           , 0
-0.194384485, -9.78898048 , -0.018338101, 6.18432241E-05, 0.000364928826, 0.000207061239, 1.56911981  , -0.0195616744, 2.10031486  , 918.6104    , 30.69129    , 819.3012    , 2.48        , 7           , 255         , 0           , 0
-0.1889803  , -9.79683    , -0.0216753  , -0.000410541223, 0.0007646079, -0.000289268763, 1.56911552  , -0.019558752, 2.10032248  , 918.6104    , 30.69129    , 819.3013    , 2.49        , 7           , 255         , 0           , 0
-0.197377414, -9.793234   , -0.0116689149, -5.806476E-06, 0.000200642826, -0.000110383262, 1.5691154   , -0.01955768 , 2.10032439  , 918.6104    , 30.69129    , 819.301331  , 2.5         , 7           , 255         , 0           , 0
-0.195326284, -9.798737   , -0.009994613, 8.352478E-05, -7.014896E-05, 0.0003361135, 1.56911349  , -0.0195621513, 2.100324    , 918.6104    , 30.69129    , 819.338135  , 2.51        , 7           , 255         , 0           , 0
-0.192432642, -9.804731   , -0.0134888943, 0.0002554009, 0.000132363348, -0.000158153765, 1.569116    , -0.0195605718, 2.100325    , 918.6104    , 30.69129    , 819.33844   , 2.52        , 7           , 255         , 0           , 0
-0.182688147, -9.78639    , -0.0160394721, 0.00048043608, -0.000144161109, -0.00016037641, 1.56912088  , -0.01955893 , 2.10032368  , 918.609863  , 30.6948853  , 819.338745  , 2.53        , 7           , 255         , 0           , 0
-0.1893831  , -9.800697   , -0.0123361768, 0.000590201467, -1.53410947E-05, -0.000149269646, 1.56912684  , -0.01955741 , 2.10032344  , 918.609863  , 30.6948853  , 819.33905   , 2.54        , 7           , 255         , 0           , 0
-0.1866752  , -9.795764   , -0.006349735, -0.000326093461, -0.0002749547, -0.0003124299, 1.56912363  , -0.0195542816, 2.10032082  , 918.609863  , 30.6948853  , 819.339355  , 2.55        , 7           , 255         , 0           , 0
-0.188872263, -9.788425   , -0.0141143622, -0.0006193035, 3.33849457E-05, -9.34389245E-05, 1.56911743  , -0.0195533279, 2.100321    , 918.609863  , 30.6948853  , 819.339661  , 2.56        , 7           , 255         , 0           , 0
-0.198769033, -9.793757   , -0.0107560512, -0.000250741083, 0.0001485871, -0.000381278631, 1.56911492  , -0.0195494834, 2.10032248  , 918.609863  , 30.6948853  , 819.339966  , 2.57        , 7           , 255         , 0           , 0
-0.199059218, -9.793749   , -0.0153633337, -8.377188E-06, -6.487081E-05, -0.000484777673, 1.56911492  , -0.019544594, 2.10032177  , 918.609863  , 30.6948853  , 819.3403    , 2.58        , 7           , 255         , 0           , 0
-0.193820342, -9.796789   , -0.017055044, 0.00016837797, 7.855968E-06, -0.0004655906, 1.56911659  , -0.019539915, 2.100322    , 918.609863  , 30.6948853  , 819.3406    , 2.59        , 7           , 255         , 0           , 0
-0.198048666, -9.790579   , -0.0195771363, 0.000357372977, 3.203153E-05, 0.000443640864, 1.56912029  , -0.019544296, 2.10032225  , 918.609863  , 30.6948853  , 819.3409    , 2.6         , 7           , 255         , 0           , 0
-0.198800534, -9.793973   , -0.0235585682, -0.000285848684, -1.72503933E-05, 0.00032778483, 1.56912267  , -0.0195493642, 2.100322    , 918.609863  , 30.6948853  , 819.3732    , 2.61        , 7           , 255         , 0           , 0
-0.197824121, -9.790155   , -0.0264331251, 1.06812513E-05, 0.000227930461, 0.0006122481, 1.56912279  , -0.0195554737, 2.10032439  , 918.609863  , 30.6948853  , 819.3738    , 2.62        , 7           , 255         , 0           , 0
-0.193216711, -9.785722   , -0.0115708765, 0.000246478 , 0.000180884235, 0.0002664534, 1.569125    , -0.0195581261, 2.1003263   , 918.647461  , 30.69224    , 819.3743    , 2.63        , 7           , 255         , 0           , 0
-0.194679528, -9.790223   , -0.0100714955, 0.0005114521, 0.00010364523, 7.578399E-05, 1.56913018  , -0.019558901, 2.10032725  , 918.647461  , 30.69224    , 819.3749    , 2.64        , 7           , 255         , 0           , 0
-0.1931705  , -9.792662   , -0.0166393463, 0.00031743446, 0.000325719971, 2.52265017E-05, 1.56913328  , -0.0195591711, 2.10033059  , 918.647461  , 30.69224    , 819.3754    , 2.65        , 7           , 255         , 0           , 0
-0.184957042, -9.791835   , -0.0174572039, 0.000374252733, -0.000147419254, 0.000104431092, 1.56913722  , -0.0195601843, 2.100329    , 918.647461  , 30.69224    , 819.376     , 2.66        , 7           , 255         , 0           , 0
-0.1969233  , -9.795362   , -0.0163196549, 0.000540097244, 4.7454E-05  , 0.000481521682, 1.56914246  , -0.0195649527, 2.1003294   , 918.647461  , 30.69224    , 819.3765    , 2.67        , 7           , 255         , 0           , 0
-0.201456577, -9.796092   , -0.0155665679, 0.0005681607, 0.000241643254, -0.000462912139, 1.56914806  , -0.0195603929, 2.10033178  , 918.647461  , 30.69224    , 819.3771    , 2.68        , 7           , 255         , 0           , 0
-0.192427725, -9.801638   , -0.0260245167, 0.000164741708, 0.0005956264, -0.000161195669, 1.56914961  , -0.0195587818, 2.100338    , 918.647461  , 30.69224    , 819.3776    , 2.69        , 7           , 255         , 0           , 0
-0.187840179, -9.80213    , -0.020054033, -0.000143360492, 0.000484006741, 0.0005874393, 1.56914806  , -0.0195646547, 2.10034275  , 918.647461  , 30.69224    , 819.3782    , 2.7         , 7           , 255         , 0           , 0
-0.197222382, -9.806414   , -0.01138074 , -0.000341807783, -0.000101651618, 0.00024640272, 1.56914067  , -0.0195721369, 2.1003418   , 918.647461  , 30.69224    , 819.354     , 2.71        , 7           , 255         , 0           , 0
-0.200171113, -9.807944   , -0.008923858, 0.000249895762, 0.0001782217, 0.000464396522, 1.56914318  , -0.0195767861, 2.10034347  , 918.647461  , 30.69224    , 819.3544    , 2.72        , 7           , 255         , 0           , 0
-0.200215027, -9.789919   , -0.01605857 , 0.0004241085, 8.138773E-05, -0.0003316881, 1.56914735  , -0.019573478, 2.10034418  , 918.6267    , 30.69509    , 819.354736  , 2.73        , 7           , 255         , 0           , 0
-0.188653916, -9.790056   , -0.0162922386, 0.000534547667, 3.96831019E-05, -8.765182E-05, 1.56915271  , -0.0195725542, 2.10034466  , 918.6267    , 30.69509    , 819.3551    , 2.74        , 7           , 255         , 0           , 0
-0.186973244, -9.795766   , -0.0141343353, 0.000451654952, 4.167756E-06, 9.980021E-05, 1.56915724  , -0.0195735674, 2.10034466  , 918.6267    , 30.69509    , 819.355469  , 2.75        , 7           , 255         , 0           , 0
-0.189730912, -9.798584   , -0.00980394 , 0.00097331166, -8.22474249E-07, -4.42479068E-05, 1.5691669   , -0.01957309 , 2.10034466  , 918.6267    , 30.69509    , 819.355835  , 2.76        , 7           , 255         , 0           , 0
-0.189866856, -9.790982   , -0.0183721632, 0.000137004856, -0.000120685232, 0.0005761328, 1.56916821  , -0.0195788741, 2.10034347  , 918.6267    , 30.69509    , 819.356262  , 2.77        , 7           , 255         , 0           , 0
-0.192379013, -9.788236   , -0.0265542865, -5.169824E-05, -2.58846267E-05, 0.000276593462, 1.56916773  , -0.0195816457, 2.10034323  , 918.6267    , 30.69509    , 819.3567    , 2.78        , 7           , 255         , 0           , 0
-0.182696283, -9.796377   , -0.0135331629, -0.000108880253, 0.000253977982, 0.000480076735, 1.56916654  , -0.0195864439, 2.10034561  , 918.6267    , 30.69509    , 819.3571    , 2.79        , 7           , 255         , 0           , 0
-0.185102522, -9.794011   , -0.0165323112, -0.000113621238, -8.6048065E-05, 0.0003913898, 1.56916535  , -0.01959041 , 2.100345    , 918.6267    , 30.69509    , 819.357544  , 2.8         , 7           , 255         , 0           , 0
-0.189260215, -9.794933   , -0.0218007322, -0.000389000721, 4.56588168E-05, 0.000188008533, 1.56916308  , -0.0195913929, 2.10034537  , 918.6267    , 30.69509    , 819.3649    , 2.81        , 7           , 255         , 0           , 0
-0.197224766, -9.79428    , -0.01778454 , 0.000134423739, 0.000286148774, -0.000136209535, 1.5691644   , -0.019590022, 2.10034823  , 918.6267    , 30.69509    , 819.365356  , 2.82        , 7           , 255         , 0           , 0
-0.192200869, -9.799093   , -0.01650646 , -0.000446720427, 0.000250334881, 0.000161296339, 1.56915987  , -0.0195916314, 2.10035086  , 918.620056  , 30.6946144  , 819.3658    , 2.83        , 7           , 255         , 0           , 0
-0.194343746, -9.79989    , -0.0187881682, 0.000138127914, 7.29567E-05 , 0.000125376915, 1.56916118  , -0.0195929129, 2.10035157  , 918.620056  , 30.6946144  , 819.3662    , 2.84        , 7           , 255         , 0           , 0
-0.187839776, -9.787841   , -0.0174231175, -0.000145241531, 0.000499412534, -0.0001556434, 1.56915951  , -0.0195913631, 2.10035658  , 918.620056  , 30.6946144  , 819.366638  , 2.85        , 7           , 255         , 0           , 0
-0.182944983, -9.792676   , -0.0232797749, 0.000412170164, 0.000366847758, -0.000351948867, 1.56916356  , -0.0195879042, 2.10036016  , 918.620056  , 30.6946144  , 819.3671    , 2.86        , 7           , 255         , 0           , 0
-0.190502927, -9.794565   , -0.0206448473, 0.000643353 , 0.000205449556, -0.000454223366, 1.56917     , -0.0195833743, 2.100362    , 918.620056  , 30.6946144  , 819.3676    , 2.87        , 7           , 255         , 0           , 0
-0.187623292, -9.79978    , -0.0146241244, 0.000284385285, 0.000457891583, 0.0004587196, 1.56917274  , -0.0195880234, 2.10036683  , 918.620056  , 30.6946144  , 819.3681    , 2.88        , 7           , 255         , 0           , 0
-0.1931363  , -9.79797649 , -0.0262938645, -0.000140406424, 0.000495114131, 0.000132457964, 1.56917131  , -0.0195893962, 2.10037184  , 918.620056  , 30.6946144  , 819.3686    , 2.89        , 7           , 255         , 0           , 0
-0.194210336, -9.787021   , -0.0302819163, 0.000293191464, 3.508004E-05, 0.000135131151, 1.56917417  , -0.0195907969, 2.100372    , 918.620056  , 30.6946144  , 819.3691    , 2.9         , 7           , 255         , 0           , 0
-0.197378665, -9.793533   , -0.0197521672, 0.000147528655, 0.000133819936, -0.000313199882, 1.56916726  , -0.0195858777, 2.10037374  , 918.620056  , 30.6946144  , 819.384338  , 2.91        , 7           , 255         , 0           , 0
-0.189213291, -9.803713   , -0.01936638 , 0.000243892631, 0.000136058661, 0.0008836407, 1.56916976  , -0.01959473 , 2.10037518  , 918.620056  , 30.6946144  , 819.3849    , 2.92        , 7           , 255         , 0           , 0
-0.191153079, -9.777735   , -0.0250863042, 0.000714535941, -0.000236135646, 0.000925577 , 1.56917691  , -0.0196040012, 2.10037279  , 918.6392    , 30.6939354  , 819.385437  , 2.93        , 7           , 255         , 0           , 0
-0.19384706 , -9.793827   , -0.0198359545, 0.000476769463, -0.000303676818, -6.472983E-06, 1.5691818   , -0.0196039118, 2.10037     , 918.6392    , 30.6939354  , 819.386     , 2.94        , 7           , 255         , 0           , 0
-0.191137016, -9.792613   , -0.0211594738, 0.000186569931, 0.000287019 , -0.000400960562, 1.56918359  , -0.0195998587, 2.10037255  , 918.6392    , 30.6939354  , 819.386536  , 2.95        , 7           , 255         , 0           , 0
-0.187768608, -9.794177   , -0.0273399763, -9.93105059E-05, 0.0005800485, 0.000630222843, 1.5691824   , -0.0196060874, 2.10037851  , 918.6392    , 30.6939354  , 819.3871    , 2.96        , 7           , 255         , 0           , 0
-0.185607716, -9.794957   , -0.0180380456, 0.000463461853, -1.15724979E-05, 0.000133727881, 1.56918716  , -0.0196074583, 2.10037851  , 918.6392    , 30.6939354  , 819.387634  , 2.97        , 7           , 255         , 0           , 0
-0.183421537, -9.797067   , -0.0213181172, -0.000179543975, -0.00016049188, 0.000325221074, 1.56918538  , -0.0196107086, 2.10037684  , 918.6392    , 30.6939354  , 819.3882    , 2.98        , 7           , 255         , 0           , 0
-0.189932466, -9.791251   , -0.0148793682, 0.000263168768, 0.0005295246, 0.000223384675, 1.569188    , -0.019612914, 2.100382    , 918.6392    , 30.6939354  , 819.388733  , 2.99        , 7           , 255         , 0           , 0
-0.188481465, -9.787311   , -0.0137228351, 0.0006998994, 0.0008856953, 0.00117828092, 1.56919467  , -0.0196247175, 2.100391    , 918.6392    , 30.6939354  , 819.3893    , 3           , 7           , 0           , 8.048237    , 300
