Acc X       , Acc Y       , Acc Z       , Gyro X      , Gyro Y      , Gyro Z      , Euler X     , Euler Y     , Euler Z     , Pres X      , Pres Y      , Pres Z      , Time        , Status      , LowRate X   , LowRate Y   , LowRate Z    
-0.154005408, 0.131679967 , -9.783757   , 0           , 0           , 0           , -0.0134582259, -0.0157382023, 0           , 921.1478    , 32.6937141  , 796.699     , 0           , 2           , 0           , 5.50123167  , 0
-0.158573791, 0.136401922 , -9.791042   , 0.0001992709, -0.000335884455, 0.000201214716, -0.0134563409, -0.0157416575, 2.05737183E-06, 921.1478    , 32.6937141  , 796.699     , 0.01        , 3           , 1           , 0           , 0
-0.157573745, 0.136034444 , -9.792606   , 0.0003317537, -0.0006767741, -0.000193303, -0.0134529946, -0.0157484468, 2.15373234E-07, 921.1478    , 32.6937141  , 796.699     , 0.02        , 3           , 2           , 0           , 0
-0.153168768, 0.133976355 , -9.793104   , 6.093044E-05, 3.245432E-05, -0.000329473929, -0.0134523334, -0.0157481674, -3.08375138E-06, 921.11554   , 32.2571526  , 796.699     , 0.03        , 3           , 3           , 0           , 0
-0.161198124, 0.12735635  , -9.786484   , 0.0005796754, -0.000265929557, 0.0006459002, -0.0134466393, -0.01575074 , 3.41107238E-06, 921.11554   , 32.2571526  , 796.699     , 0.04        , 3           , 4           , 0           , 0
-0.167275518, 0.131066144 , -9.785495   , 3.43910651E-05, -0.000173561682, 0.0005177436, -0.0134463776, -0.0157524049, 8.611882E-06, 921.11554   , 32.2571526  , 796.699     , 0.05        , 3           , 5           , 0           , 0
-0.15912734 , 0.12504521  , -9.791361   , -0.0003218468, 0.00033765228, 0.00023159929, -0.0134496326, -0.0157489982, 1.08825006E-05, 921.11554   , 32.2571526  , 796.699     , 0.06        , 3           , 6           , 0           , 0
-0.155820891, 0.1394872   , -9.789743   , -0.000202242751, 0.000334180368, 0.0006261534, -0.0134517532, -0.0157455727, 1.709913E-05, 921.11554   , 32.2571526  , 796.699     , 0.07        , 3           , 7           , 0           , 0
-0.158991456, 0.136467412 , -9.78704548 , 0.000139346754, -0.000338879821, 0.000188395323, -0.0134503888, -0.0157489348, 1.90286846E-05, 921.11554   , 32.2571526  , 796.699     , 0.08        , 3           , 8           , 5           , 5
-0.157756582, 0.125982136 , -9.785584   , -3.28709139E-05, -0.000159188348, -7.59605755E-05, -0.0134507064, -0.0157505348, 1.82904769E-05, 921.11554   , 32.2571526  , 796.699     , 0.09        , 3           , 9           , 5           , 0.1
-0.156471342, 0.135863319 , -9.790323   , 0.000236362335, -0.00022818119, -0.0006736149, -0.0134482365, -0.0157529078, 1.15849589E-05, 921.11554   , 32.2571526  , 796.699     , 0.1         , 3           , 10          , 0.1         , 0.1
-0.149547353, 0.133908108 , -9.79441452 , 0.0006786042, -0.0007078543, -3.73566727E-05, -0.0134472214, -0.0157823414, 1.13976639E-05, 921.11554   , 32.2571526  , 796.989746  , 0.11        , 3           , 11          , 0.0109544508, 0.0109544508
-0.149585992, 0.134541065 , -9.794897   , 3.275962E-05, -0.000304886838, 0.0003080002, -0.013446942, -0.0157853458, 1.45186987E-05, 921.11554   , 32.2571526  , 796.989746  , 0.12        , 3           , 12          , 0.174642488 , 0
-0.162889674, 0.132607967 , -9.800646   , 0.0003066188, -7.072452E-05, 0.000682076 , -0.0134439841, -0.01578596 , 2.13490257E-05, 921.1337    , 32.2976532  , 796.989746  , 0.13        , 3           , 13          , 0           , 0
-0.154294744, 0.138127983 , -9.796717   , 0.0002500898, 0.000544433366, 4.549975E-05, -0.01344149 , -0.0157805122, 2.17308479E-05, 921.1337    , 32.2976532  , 796.989746  , 0.14        , 3           , 14          , -0.0007849056, -0.000863457564
-0.153836846, 0.1352197   , -9.79245    , -0.000194963533, 0.000108336681, -0.0007331904, -0.0134433229, -0.0157795288, 1.43843154E-05, 921.1337    , 32.2976532  , 796.989746  , 0.15        , 3           , 15          , 0           , -0.000193713815
-0.152608931, 0.131225035 , -9.792685   , 0.000339984515, -0.000332667027, -0.000116913929, -0.0134399068, -0.0157828685, 1.32598952E-05, 921.1337    , 32.2976532  , 796.989746  , 0.16        , 3           , 16          , 0           , 1.401298E-45
-0.155376881, 0.130960941 , -9.792065   , 0.000164735538, 2.46212585E-05, 0.000320411957, -0.0134383086, -0.0157825779, 1.64607191E-05, 921.1337    , 32.2976532  , 796.989746  , 0.17        , 3           , 20          , 0           , 0
-0.154022485, 0.121918224 , -9.787127   , 0.0007582718, 0.000395239651, 0.000586494338, -0.01343082 , -0.0157785472, 2.22726248E-05, 921.1337    , 32.2976532  , 796.989746  , 0.18        , 3           , 21          , 0           , 0
-0.165181726, 0.128212377 , -9.788683   , 1.80744682E-05, 0.000138647272, -6.934043E-05, -0.0134306271, -0.0157771688, 2.15605924E-05, 921.1337    , 32.2976532  , 796.989746  , 0.19        , 3           , 22          , 0           , 0
-0.162424266, 0.1329474   , -9.785243   , 0.000154905487, -0.000407239422, -0.0006461434, -0.0134289777, -0.0157813281, 1.515378E-05, 921.1337    , 32.2976532  , 796.989746  , 0.2         , 3           , 40          , 0           , 0
-0.1584811  , 0.1314784   , -9.792      , 0.000131844077, -0.000237024215, -0.000206204728, -0.0134288641, -0.01578919 , 1.31430661E-05, 921.1337    , 32.2976532  , 796.907837  , 0.21        , 3           , 41          , 0           , 0
-0.151887611, 0.140553668 , -9.800062   , 0.000335474935, 6.80073863E-05, 0.0002763387, -0.0134255514, -0.0157884732, 1.58973453E-05, 921.1337    , 32.2976532  , 796.9079    , 0.22        , 3           , 42          , 0           , 0
-0.1545063  , 0.138083309 , -9.784546   , 0.000202555035, -0.000386891945, 0.000563651847, -0.0134236151, -0.0157922655, 2.158586E-05, 921.087463  , 32.3165131  , 796.907959  , 0.23        , 3           , 255         , 0           , 0
-0.148723051, 0.144104049 , -9.790049   , 0.0003884264, 2.62815156E-05, 0.0005432771, -0.0134198181, -0.0157919284, 2.70151668E-05, 921.087463  , 32.3165131  , 796.908     , 0.24        , 3           , 255         , 0           , 0
-0.147465348, 0.135640457 , -9.78652    , 0.000145737547, -4.982465E-05, 0.000221994822, -0.0134183951, -0.0157923959, 2.92418081E-05, 921.087463  , 32.3165131  , 796.9081    , 0.25        , 3           , 255         , 0           , 0
-0.153675228, 0.132201239 , -9.780212   , -0.000240807829, -0.000308608229, 0.000332893454, -0.0134208556, -0.01579544 , 3.26121954E-05, 921.087463  , 32.3165131  , 796.908142  , 0.26        , 3           , 255         , 0           , 0
-0.1520808  , 0.132333755 , -9.789393   , 0.000197254878, -2.32764869E-05, -0.0005369675, -0.0134187965, -0.015795745, 2.72455745E-05, 921.087463  , 32.3165131  , 796.9082    , 0.27        , 3           , 255         , 0           , 0
-0.150028229, 0.130377874 , -9.786524   , 0.000258741726, 1.21089979E-05, -0.000362501, -0.0134161534, -0.0157956723, 2.36189E-05 , 921.087463  , 32.3165131  , 796.908264  , 0.28        , 3           , 255         , 0           , 0
-0.149269938, 0.1285424   , -9.788388   , -0.000136758375, -7.69957551E-05, 0.0006620637, -0.0134176249, -0.0157963522, 3.02499247E-05, 921.087463  , 32.3165131  , 796.9083    , 0.29        , 3           , 255         , 0           , 0
-0.146193147, 0.127066344 , -9.792208   , 9.577256E-05, -0.0002063943, 0.0008701761, -0.0134168062, -0.0157982986, 3.89794768E-05, 921.087463  , 32.3165131  , 796.9084    , 0.3         , 3           , 255         , 0           , 0
-0.159701645, 0.136302814 , -9.788625   , -0.000189998362, -6.43334351E-06, 0.000521636161, -0.0134317772, -0.0157818384, 4.44017569E-05, 921.087463  , 32.3165131  , 797.021     , 0.31        , 3           , 255         , 0           , 0
-0.150997251, 0.137957379 , -9.793734   , 0.000238732668, 1.20740733E-05, -0.000378875469, -0.01342933 , -0.01578177 , 4.06113431E-05, 921.087463  , 32.3165131  , 797.021057  , 0.32        , 3           , 255         , 0           , 0
-0.161746979, 0.1363201   , -9.788897   , 0.0008284294, -0.000270526973, 9.223877E-05, -0.0134210614, -0.0157844611, 4.15700742E-05, 921.131042  , 32.33544    , 797.0211    , 0.33        , 3           , 255         , 0           , 0
-0.1532778  , 0.137504384 , -9.791481   , 0.0009453397, -2.165517E-05, 0.0006363205, -0.0134117082, -0.0157845914, 4.79362279E-05, 921.131042  , 32.33544    , 797.0212    , 0.34        , 3           , 255         , 0           , 0
-0.1492618  , 0.1396997   , -9.790687   , 0.0008621477, -0.000391502865, 0.000165890771, -0.013403113, -0.01578848 , 4.96476459E-05, 921.131042  , 32.33544    , 797.02124   , 0.35        , 3           , 255         , 0           , 0
-0.153371423, 0.1328226   , -9.792567   , 0.000141815981, 0.0004338983, -0.0003023093, -0.0134016452, -0.0157841835, 4.656636E-05, 921.131042  , 32.33544    , 797.0213    , 0.36        , 3           , 255         , 0           , 0
-0.151518151, 0.13150984  , -9.795028   , -0.000199152739, -0.000276733539, -0.0003756928, -0.0134035777, -0.015787   , 4.284649E-05, 921.131042  , 32.33544    , 797.021362  , 0.37        , 3           , 255         , 0           , 0
-0.154193237, 0.136652842 , -9.793506   , 0.000157047238, -0.0005334072, -5.128428E-05, -0.013402   , -0.01579234 , 4.24051323E-05, 921.131042  , 32.33544    , 797.0214    , 0.38        , 3           , 255         , 0           , 0
-0.156022042, 0.131643176 , -9.789758   , 0.000599472143, -0.000534657156, -0.000412496971, -0.0133959437, -0.0157977436, 3.835176E-05, 921.131042  , 32.33544    , 797.0215    , 0.39        , 3           , 255         , 0           , 0
-0.154600888, 0.128682882 , -9.786833   , 0.0001444422, -0.0004285333, -0.000372677459, -0.0133944387, -0.0158020779, 3.468235E-05, 921.131042  , 32.33544    , 797.021545  , 0.4         , 3           , 255         , 0           , 0
-0.148755834, 0.1315584   , -9.790445   , 0.0001791247, 1.27868261E-05, 0.000205611053, -0.0134068113, -0.0158014148, 3.696005E-05, 921.131042  , 32.33544    , 796.9781    , 0.41        , 3           , 255         , 0           , 0
-0.155063823, 0.135869041 , -9.792409   , 0.0006102361, -0.000385874824, 0.000166758429, -0.0134007363, -0.01580525 , 3.86793654E-05, 921.131042  , 32.33544    , 796.978149  , 0.42        , 3           , 255         , 0           , 0
-0.161792785, 0.140988618 , -9.799108   , 0.000168014434, -3.25086876E-05, 0.000917081139, -0.0133992014, -0.0158054531, 4.78546353E-05, 921.0666    , 32.3460922  , 796.9782    , 0.43        , 3           , 255         , 0           , 0
-0.150155872, 0.132990345 , -9.800138   , -0.000107091677, -0.000147915387, 0.0005390012, -0.0134003572, -0.01580686 , 5.32645281E-05, 921.0666    , 32.3460922  , 796.9783    , 0.44        , 3           , 255         , 0           , 0
-0.154966384, 0.124884151 , -9.792486   , -0.000227451033, -0.000518778863, -0.00023531045, -0.0134025952, -0.01581208 , 5.098092E-05, 921.0666    , 32.3460922  , 796.978333  , 0.45        , 3           , 255         , 0           , 0
-0.153360367, 0.127594545 , -9.781467   , 0.0001284632, -0.000326785434, -0.000398931152, -0.0134012485, -0.0158154014, 4.70353662E-05, 921.0666    , 32.3460922  , 796.9784    , 0.46        , 3           , 255         , 0           , 0
-0.149531335, 0.1279114   , -9.788964   , -0.000436146336, -0.000382405065, 0.000399222481, -0.0134056741, -0.0158191677, 5.10788741E-05, 921.0666    , 32.3460922  , 796.978455  , 0.47        , 3           , 255         , 0           , 0
-0.153348476, 0.130291909 , -9.791235   , -0.000172899279, -0.000209413061, 0.0009776332, -0.0134075563, -0.0158211328, 6.08833834E-05, 921.0666    , 32.3460922  , 796.9785    , 0.48        , 3           , 255         , 0           , 0
-0.15361762 , 0.1254684   , -9.795686   , 0.000902081432, -0.000564065936, 0.0006019764, -0.0133986324, -0.0158266854, 6.697878E-05, 921.0666    , 32.3460922  , 796.9786    , 0.49        , 3           , 255         , 0           , 0
-0.1589534  , 0.124182366 , -9.796344   , 0.0007648218, -0.000697873358, -7.140798E-05, -0.0133909741, -0.015833674, 6.635818E-05, 921.0666    , 32.3460922  , 796.978638  , 0.5         , 3           , 255         , 0           , 0
-0.156903282, 0.130741045 , -9.785465   , 0.0004620111, 1.20452023E-05, -0.0005536277, -0.0133826854, -0.0158306323, 6.07635156E-05, 921.0666    , 32.3460922  , 797.0719    , 0.51        , 3           , 255         , 0           , 0
-0.158781886, 0.134007975 , -9.792923   , 0.00027010357, -0.000128767686, 0.000160894269, -0.0133800106, -0.015831897, 6.23897E-05 , 921.0666    , 32.3460922  , 797.072     , 0.52        , 3           , 255         , 0           , 0
-0.154941544, 0.142251611 , -9.786952   , -2.28072749E-05, 0.000175910071, 0.000263935624, -0.01338028 , -0.015830107, 6.500555E-05, 921.111     , 32.3576927  , 797.072144  , 0.53        , 3           , 255         , 0           , 0
-0.159433335, 0.142610908 , -9.791789   , -2.615375E-05, -0.000104587758, 0.00050966657, -0.0133806216, -0.0158310831, 7.011626E-05, 921.111     , 32.3576927  , 797.072266  , 0.54        , 3           , 255         , 0           , 0
-0.1598971  , 0.135641992 , -9.79262    , 0.000164718891, 0.000546309631, 0.0001919933, -0.0133790039, -0.0158255938, 7.19631062E-05, 921.111     , 32.3576927  , 797.0724    , 0.55        , 3           , 255         , 0           , 0
-0.152727321, 0.139703587 , -9.794004   , 0.000313397322, -0.000297962222, -0.0004061393, -0.0133758057, -0.0158286262, 6.79415243E-05, 921.111     , 32.3576927  , 797.0725    , 0.56        , 3           , 255         , 0           , 0
-0.154050276, 0.128930971 , -9.789639   , 0.000598670566, -0.0004004211, 0.000234102714, -0.0133698564, -0.0158325974, 7.033613E-05, 921.111     , 32.3576927  , 797.072632  , 0.57        , 3           , 255         , 0           , 0
-0.159333751, 0.133015171 , -9.798293   , 0.0007648669, -0.00033795333, 2.13991589E-05, -0.013362213, -0.01583597 , 7.059529E-05, 921.111     , 32.3576927  , 797.072754  , 0.58        , 3           , 255         , 0           , 0
-0.151476845, 0.1323982   , -9.793205   , 0.000484826218, -5.180482E-07, 0.00011215471, -0.0133573832, -0.0158359613, 7.171694E-05, 921.111     , 32.3576927  , 797.0729    , 0.59        , 3           , 255         , 0           , 0
-0.158945277, 0.131310284 , -9.791814   , 0.0002018371, 5.21958E-05 , -9.596249E-05, -0.01335535 , -0.0158354547, 7.075033E-05, 921.111     , 32.3576927  , 797.073     , 0.6         , 3           , 255         , 0           , 0
-0.156367168, 0.126765281 , -9.794876   , -0.000250297424, 2.01961375E-05, -9.7831944E-05, -0.0133718755, -0.0158409625, 6.999168E-05, 921.111     , 32.3576927  , 797.0657    , 0.61        , 3           , 255         , 0           , 0
-0.154543042, 0.136278    , -9.792204   , 6.862462E-05, -0.000158243347, 0.00012947114, -0.0133712105, -0.0158425272, 7.130757E-05, 921.111     , 32.3576927  , 797.0658    , 0.62        , 3           , 255         , 0           , 0
-0.155774355, 0.1355747   , -9.794154   , 3.067113E-05, -0.00022398564, 0.000435139867, -0.0133709731, -0.01584471 , 7.568896E-05, 921.1072    , 32.36129    , 797.0659    , 0.63        , 3           , 255         , 0           , 0
-0.158371717, 0.139469966 , -9.791483   , 0.0001931542, -0.0002315942, -0.0005705056, -0.0133689512, -0.0158471018, 7.00148E-05 , 921.1072    , 32.36129    , 797.06604   , 0.64        , 3           , 255         , 0           , 0
-0.1584511  , 0.132546246 , -9.787185   , -0.0001621464, 7.532077E-05, -5.74798032E-05, -0.0133705623, -0.0158463567, 6.942993E-05, 921.1072    , 32.36129    , 797.066162  , 0.65        , 3           , 255         , 0           , 0
-0.157091558, 0.132338315 , -9.793693   , -1.57398754E-05, -0.000290194526, -5.61724E-05, -0.0133707123, -0.0158492643, 6.8907E-05  , 921.1072    , 32.36129    , 797.0663    , 0.66        , 3           , 255         , 0           , 0
-0.154376715, 0.136520535 , -9.792558   , -0.000388248183, -0.000463278033, -0.000183557422, -0.0133745652, -0.0158539228, 6.713336E-05, 921.1072    , 32.36129    , 797.0664    , 0.67        , 3           , 255         , 0           , 0
-0.146773338, 0.134368777 , -9.80007    , 0.0002642931, 0.0002823174, -0.0004272945, -0.0133718541, -0.0158511549, 6.282262E-05, 921.1072    , 32.36129    , 797.0665    , 0.68        , 3           , 255         , 0           , 0
-0.152327508, 0.134400323 , -9.791081   , -2.85530114E-05, 9.63283237E-05, -0.0006355891, -0.0133720394, -0.01585028 , 5.64537841E-05, 921.1072    , 32.36129    , 797.06665   , 0.69        , 3           , 255         , 0           , 0
-0.163254991, 0.126234114 , -9.784084   , -0.000338267826, 0.00021941954, -0.000246903772, -0.013375381, -0.0158481188, 5.39553766E-05, 921.1072    , 32.36129    , 797.0668    , 0.7         , 3           , 255         , 0           , 0
-0.1666936  , 0.127345651 , -9.783831   , 0.000355343975, 0.000300310552, 0.0002958248, -0.0133800907, -0.0158468075, 5.70036354E-05, 921.1072    , 32.36129    , 797.067     , 0.71        , 3           , 255         , 0           , 0
-0.160398871, 0.133058757 , -9.793033   , 0.000394410628, 0.000130801462, 0.000384657964, -0.0133762062, -0.0158454515, 6.083277E-05, 921.1072    , 32.36129    , 797.067139  , 0.72        , 3           , 255         , 0           , 0
-0.151821822, 0.142665863 , -9.788111   , 0.000208703626, -5.846261E-05, 0.000283406116, -0.0133741647, -0.0158459973, 6.367468E-05, 921.1563    , 32.36502    , 797.067261  , 0.73        , 3           , 255         , 0           , 0
-0.148131877, 0.151279822 , -9.790276   , 0.001012843 , -0.000443527242, 0.0005457328, -0.0133641232, -0.015850354, 6.91913447E-05, 921.1563    , 32.36502    , 797.0674    , 0.74        , 3           , 255         , 0           , 0
-0.156862944, 0.14110373  , -9.789922   , 0.000219601672, -7.497327E-05, 0.000176803413, -0.013361956, -0.0158510786, 7.09694141E-05, 921.1563    , 32.36502    , 797.0675    , 0.75        , 3           , 255         , 0           , 0
-0.159788   , 0.132172212 , -9.786682   , 2.13180319E-05, 6.01192E-06 , 0.0005026745, -0.0133618228, -0.0158509519, 7.599542E-05, 921.1563    , 32.36502    , 797.0676    , 0.76        , 3           , 255         , 0           , 0
-0.1615623  , 0.129576564 , -9.790547   , 9.506277E-05, -0.000277033541, -0.000355521217, -0.0133608151, -0.0158537719, 7.24771744E-05, 921.1563    , 32.36502    , 797.067749  , 0.77        , 3           , 255         , 0           , 0
-0.1495856  , 0.128204778 , -9.795839   , 9.985815E-06, -0.000426856568, 0.000107657179, -0.0133607332, -0.0158580262, 7.36108E-05 , 921.1563    , 32.36502    , 797.0679    , 0.78        , 3           , 255         , 0           , 0
-0.1586661  , 0.130885452 , -9.784216   , 8.21970752E-05, -0.0004940968, 8.82001E-05 , -0.0133599257, -0.0158629548, 7.45588259E-05, 921.1563    , 32.36502    , 797.068     , 0.79        , 3           , 255         , 0           , 0
-0.1642176  , 0.124817707 , -9.782728   , -1.24878716E-05, -0.000328368857, -0.000169810737, -0.0133600244, -0.015866261, 7.29045641E-05, 921.1563    , 32.36502    , 797.0681    , 0.8         , 3           , 255         , 0           , 0
-0.15644069 , 0.128460452 , -9.779192   , -0.000433901674, -9.37841833E-07, -2.03481613E-05, -0.0133782336, -0.0158771556, 7.292147E-05, 921.1563    , 32.36502    , 797.006653  , 0.81        , 3           , 255         , 0           , 0
-0.148199752, 0.133994266 , -9.790647   , -8.139829E-05, 0.000209559337, 9.889013E-05, -0.0133790635, -0.0158750452, 7.38823437E-05, 921.1563    , 32.36502    , 797.0067    , 0.82        , 3           , 255         , 0           , 0
-0.148462012, 0.135314986 , -9.791237   , -0.000308689079, 0.000236529915, -0.00014854336, -0.0133821256, -0.015872702, 7.236524E-05, 921.1085    , 32.3676     , 797.0068    , 0.83        , 3           , 255         , 0           , 0
-0.157320812, 0.140038341 , -9.787341   , 0.000107063388, 0.00029540126, -0.0005963469, -0.01338096 , -0.0158698279, 6.63622E-05 , 921.1085    , 32.3676     , 797.006836  , 0.84        , 3           , 255         , 0           , 0
-0.147118032, 0.133992165 , -9.789181   , -4.67106E-05, -9.934197E-05, 0.0005196486, -0.0133815091, -0.0158707518, 7.157203E-05, 921.1085    , 32.3676     , 797.0069    , 0.85        , 3           , 255         , 0           , 0
-0.149375036, 0.137431651 , -9.799294   , 0.00085435214, 0.00022751803, -0.000224787422, -0.01337293 , -0.0158685073, 6.929372E-05, 921.1085    , 32.3676     , 797.006958  , 0.86        , 3           , 255         , 0           , 0
-0.15840438 , 0.133315891 , -9.790715   , 0.000792785 , 8.703396E-05, -0.0006874476, -0.0133648943, -0.0158677269, 6.24075037E-05, 921.1085    , 32.3676     , 797.007     , 0.87        , 3           , 255         , 0           , 0
-0.153776437, 0.123918794 , -9.792529   , 0.000251570484, -0.0005684674, -0.0005204745, -0.0133622969, -0.01587348 , 5.7278663E-05, 921.1085    , 32.3676     , 797.0071    , 0.88        , 3           , 255         , 0           , 0
-0.155505687, 0.123750463 , -9.792786   , -6.217859E-05, -0.000134629779, -0.0005045616, -0.0133628389, -0.0158748943, 5.225098E-05, 921.1085    , 32.3676     , 797.007141  , 0.89        , 3           , 255         , 0           , 0
-0.146276861, 0.126630977 , -9.788548   , -0.000155286223, 0.000495398941, -3.60747945E-05, -0.0133643858, -0.0158699472, 5.182402E-05, 921.1085    , 32.3676     , 797.0072    , 0.9         , 3           , 255         , 0           , 0
-0.146748543, 0.121691562 , -9.799761   , 8.695212E-05, -0.000144997379, -4.3873355E-05, -0.01336589 , -0.0158596672, 5.144244E-05, 921.1085    , 32.3676     , 797.0133    , 0.91        , 3           , 255         , 0           , 0
-0.148483664, 0.127219066 , -9.786348   , -6.3575455E-05, -0.0002874129, 0.000312219781, -0.0133665754, -0.0158624984, 5.46030969E-05, 921.1085    , 32.3676     , 797.0134    , 0.92        , 3           , 255         , 0           , 0
-0.1472266  , 0.1383745   , -9.78722    , -0.0005871068, 0.000118988741, 0.000963123341, -0.0133726  , -0.01586118 , 6.421854E-05, 921.1295    , 32.37038    , 797.01355   , 0.93        , 3           , 255         , 0           , 0
-0.147726148, 0.142218217 , -9.785612   , 0.000495367 , -0.000474769156, 0.0007155144, -0.01336776 , -0.01586583 , 7.143722E-05, 921.1295    , 32.37038    , 797.0137    , 0.94        , 3           , 255         , 0           , 0
-0.158115789, 0.144084454 , -9.784896   , -9.685109E-05, -0.000434838934, -0.000109485612, -0.0133687118, -0.0158701912, 7.040049E-05, 921.1295    , 32.37038    , 797.0138    , 0.95        , 3           , 255         , 0           , 0
-0.154700965, 0.134653285 , -9.788695   , 0.000170877785, -0.000625140965, -0.000864172238, -0.0133668669, -0.0158765558, 6.184222E-05, 921.1295    , 32.37038    , 797.0139    , 0.96        , 3           , 255         , 0           , 0
-0.150497764, 0.1300869   , -9.781004   , 0.0002003474, -0.0003862686, -0.0003018487, -0.0133648161, -0.0158804562, 5.88753246E-05, 921.1295    , 32.37038    , 797.014038  , 0.97        , 3           , 255         , 0           , 0
-0.156817347, 0.133794382 , -9.787783   , 0.000650215545, -2.94431229E-05, -0.000195485365, -0.0133582829, -0.0158807766, 5.69243821E-05, 921.1295    , 32.37038    , 797.01416   , 0.98        , 3           , 255         , 0           , 0
-0.150852591, 0.1235265   , -9.790346   , -0.000114957744, -0.000416970463, -0.000301525579, -0.0133593837, -0.0158849861, 5.396478E-05, 921.1295    , 32.37038    , 797.0143    , 0.99        , 3           , 255         , 0           , 0
-0.1459963  , 0.128915146 , -9.787447   , -0.000177640235, -0.000184012577, 0.0002743635, -0.0133612044, -0.01588679 , 5.67330353E-05, 921.1295    , 32.37038    , 797.0144    , 1           , 3           , 0           , 6.50123644  , 100
-0.16205509 , 0.132002339 , -9.786452   , -3.37500824E-05, -0.000686805055, 0.0004172789, -0.0133683188, -0.0158741921, 6.1104176E-05, 921.1295    , 32.37038    , 796.9965    , 1.01        , 3           , 1           , 0           , 0
-0.156161636, 0.13072218  , -9.793754   , -0.000143043289, -0.000379713543, 0.0004516057, -0.0133698219, -0.0158779267, 6.56710254E-05, 921.1295    , 32.37038    , 796.9966    , 1.02        , 3           , 2           , 0           , 0
-0.152485743, 0.133293554 , -9.795133   , -5.29441168E-05, -7.932127E-05, 0.000149578089, -0.0133703751, -0.0158787  , 6.717742E-05, 921.136841  , 32.3720741  , 796.996643  , 1.03        , 3           , 3           , 0           , 0
-0.152755857, 0.134735093 , -9.791357   , 0.000401842146, 0.000256528263, -0.000128814121, -0.013366336, -0.0158761516, 6.585498E-05, 921.136841  , 32.3720741  , 796.9967    , 1.04        , 3           , 4           , 0           , 0
-0.146149173, 0.137128592 , -9.795235   , 0.0005420715, -0.000321049883, -0.00123033568, -0.013360722, -0.0158795267, 5.35943836E-05, 921.136841  , 32.3720741  , 796.996765  , 1.05        , 3           , 5           , 0           , 0
-0.152729765, 0.136435479 , -9.795553   , -0.00033325312, -1.53414439E-05, -0.0003923204, -0.0133639919, -0.0158797316, 4.96731773E-05, 921.136841  , 32.3720741  , 796.9968    , 1.06        , 3           , 6           , 0           , 0
-0.158646271, 0.135229677 , -9.790487   , -0.0001684564, 0.000278773368, -0.000177943512, -0.0133656478, -0.01587697 , 4.78564762E-05, 921.136841  , 32.3720741  , 796.9969    , 1.07        , 3           , 7           , 0           , 0
-0.15141955 , 0.126023784 , -9.793683   , 5.9835962E-05, 3.488391E-05, -0.000279109052, -0.0133650051, -0.0158766583, 4.506069E-05, 921.136841  , 32.3720741  , 796.996948  , 1.08        , 3           , 8           , 5           , 5
-0.153732538, 0.119360805 , -9.790588   , -0.000153178349, -2.6866328E-06, -0.000232642269, -0.0133665  , -0.015876716, 4.273461E-05, 921.136841  , 32.3720741  , 796.997     , 1.09        , 3           , 9           , 5           , 0.1
-0.154893771, 0.123898365 , -9.800888   , -4.283391E-05, -3.44638247E-05, 0.000444154779, -0.0133669991, -0.015877001, 4.71808162E-05, 921.136841  , 32.3720741  , 796.9971    , 1.1         , 3           , 10          , 0.1         , 0.1
-0.155309945, 0.129072174 , -9.795395   , 8.730893E-05, -0.00046577293, -0.00019989346, -0.0133661153, -0.0158779677, 4.52444547E-05, 921.136841  , 32.3720741  , 796.9741    , 1.11        , 3           , 11          , 0.00899155252, 0.00899155252
-0.14579618 , 0.1376865   , -9.795215   , 0.000179844326, -0.000304330839, -0.000730413944, -0.0133642023, -0.0158811081, 3.79809062E-05, 921.136841  , 32.3720741  , 796.9742    , 1.12        , 3           , 12          , 0.174642846 , 0
-0.158417419, 0.1318381   , -9.80378    , -0.000112469192, 0.0004723562, 0.000178187 , -0.0133653544, -0.0158763621, 3.96996656E-05, 921.1557    , 32.37072    , 796.974243  , 1.13        , 3           , 13          , 0           , 0
-0.155124411, 0.12504068  , -9.79624    , 0.0004023751, 9.44345957E-05, 0.000283899542, -0.0133613767, -0.01587538 , 4.25260769E-05, 921.1557    , 32.37072    , 796.9743    , 1.14        , 3           , 14          , -0.0007848607, -0.000863488065
-0.159459949, 0.119469032 , -9.791521   , 0.000710738241, -0.000449199928, -2.95745413E-05, -0.0133542651, -0.0158798732, 4.22903322E-05, 921.1557    , 32.37072    , 796.974365  , 1.15        , 3           , 15          , 0           , -0.000193714892
-0.155699536, 0.129182667 , -9.795077   , 6.435206E-05, -0.000361686456, -0.0006688448, -0.0133535154, -0.0158835817, 3.56501041E-05, 921.1557    , 32.37072    , 796.9744    , 1.16        , 3           , 16          , 0           , 1.401298E-45
-0.1549442  , 0.141155049 , -9.795741   , 0.0007387048, 4.05202154E-05, -1.39939366E-05, -0.0133461272, -0.01588318 , 3.550475E-05, 921.1557    , 32.37072    , 796.9745    , 1.17        , 3           , 20          , 0           , 0
-0.15499787 , 0.136975169 , -9.788095   , 0.0005164812, -0.000144738, -0.00015853619, -0.013340936, -0.0158846471, 3.393869E-05, 921.1557    , 32.37072    , 796.974548  , 1.18        , 3           , 21          , 0           , 0
-0.141333491, 0.13466318  , -9.787559   , 0.000112975424, -0.000205398072, 0.000255288 , -0.0133398483, -0.0158866663, 3.6519E-05  , 921.1557    , 32.37072    , 796.9746    , 1.19        , 3           , 22          , 0           , 0
-0.153883636, 0.1279841   , -9.790068   , 6.51583541E-05, -0.000215828884, -8.255374E-05, -0.0133391833, -0.0158888362, 3.5722238E-05, 921.1557    , 32.37072    , 796.9747    , 1.2         , 3           , 40          , 0           , 0
-0.166646123, 0.133630484 , -9.79363    , -3.58995749E-06, -0.0002384216, 0.000128902786, -0.013340422, -0.01588619 , 3.70618836E-05, 921.1557    , 32.37072    , 796.934937  , 1.21        , 3           , 41          , 0           , 0
-0.164166048, 0.131340578 , -9.790834   , 3.32043273E-05, -5.85592934E-05, -0.000146809485, -0.013340068, -0.0158867948, 3.5601588E-05, 921.1557    , 32.37072    , 796.9349    , 1.22        , 3           , 42          , 0           , 0
-0.159411222, 0.127337292 , -9.785485   , 7.07188156E-05, -0.000139874173, 0.0002782244, -0.0133394059, -0.0158881564, 3.840253E-05, 921.112     , 32.3711243  , 796.9348    , 1.23        , 3           , 255         , 0           , 0
-0.157166049, 0.124462768 , -9.787577   , 2.85098213E-05, 0.0002887661, 0.000161490549, -0.0133391451, -0.0158852469, 3.997894E-05, 921.112     , 32.3711243  , 796.934753  , 1.24        , 3           , 255         , 0           , 0
-0.15969944 , 0.124948226 , -9.789706   , -0.000423261372, 0.000121189922, 0.000272532925, -0.0133434217, -0.015884   , 4.2688127E-05, 921.112     , 32.3711243  , 796.9347    , 1.25        , 3           , 255         , 0           , 0
-0.150200039, 0.131440714 , -9.788176   , 0.000199872069, -0.0005648482, 0.00134820817, -0.0133416383, -0.0158894677, 5.624574E-05, 921.112     , 32.3711243  , 796.934631  , 1.26        , 3           , 255         , 0           , 0
-0.152189359, 0.138518423 , -9.787115   , 2.623652E-06, -0.000167428982, 0.0002800345, -0.013341656, -0.0158911031, 5.90684576E-05, 921.112     , 32.3711243  , 796.9346    , 1.27        , 3           , 255         , 0           , 0
-0.155127421, 0.147098348 , -9.79363    , -5.325087E-05, -0.00011399528, 2.072117E-05, -0.0133421924, -0.01589224 , 5.92908764E-05, 921.112     , 32.3711243  , 796.9345    , 1.28        , 3           , 255         , 0           , 0
-0.148931816, 0.1353747   , -9.793299   , 0.000257739855, -0.000145656522, 0.00109667063, -0.01333979 , -0.01589355 , 7.02771649E-05, 921.112     , 32.3711243  , 796.934448  , 1.29        , 3           , 255         , 0           , 0
-0.1510061  , 0.129107237 , -9.7837925  , 0.000143887242, -0.0004954218, 0.0003457921, -0.0133384084, -0.0158984568, 7.380121E-05, 921.112     , 32.3711243  , 796.9344    , 1.3         , 3           , 255         , 0           , 0
-0.1545412  , 0.132321328 , -9.784613   , -0.00025125558, -0.0003954068, 0.000151304426, -0.0133466609, -0.0159054883, 7.5457916E-05, 921.112     , 32.3711243  , 796.9442    , 1.31        , 3           , 255         , 0           , 0
-0.153875977, 0.131468073 , -9.793889   , -0.0002494097, -0.000142585428, -0.000230303878, -0.0133491177, -0.0159069449, 7.31738837E-05, 921.112     , 32.3711243  , 796.9442    , 1.32        , 3           , 255         , 0           , 0
-0.16114521 , 0.131927088 , -9.794372   , -0.000225978438, -9.49431E-05, -0.000945299165, -0.0133512272, -0.0159080178, 6.37334451E-05, 921.0958    , 32.37601    , 796.9442    , 1.33        , 3           , 255         , 0           , 0
-0.1539168  , 0.129501641 , -9.795713   , -0.0002325736, -0.0002555565, 0.000605812937, -0.01335365 , -0.0159104913, 6.982577E-05, 921.0958    , 32.37601    , 796.9442    , 1.34        , 3           , 255         , 0           , 0
-0.155402437, 0.13250652  , -9.802152   , 0.0002586461, 9.70037654E-05, 0.000107797081, -0.01335108 , -0.0159095079, 7.089079E-05, 921.0958    , 32.37601    , 796.9442    , 1.35        , 3           , 255         , 0           , 0
-0.161218435, 0.124124788 , -9.787737   , -1.54837617E-05, 0.000277075218, 0.00064932747, -0.013351338, -0.0159066487, 7.734714E-05, 921.0958    , 32.37601    , 796.9442    , 1.36        , 3           , 255         , 0           , 0
-0.144844323, 0.128712237 , -9.787674   , -0.000204110518, 0.000155114452, 0.000568627438, -0.0133534689, -0.0159050226, 8.301278E-05, 921.0958    , 32.37601    , 796.9442    , 1.37        , 3           , 255         , 0           , 0
-0.145342976, 0.1265908   , -9.786729   , -0.000253001228, 0.000148553867, 0.000506017939, -0.0133560775, -0.01590347 , 8.80531661E-05, 921.0958    , 32.37601    , 796.9442    , 1.38        , 3           , 255         , 0           , 0
-0.158289239, 0.124373063 , -9.798333   , 6.02973159E-05, 0.000147496408, -6.70364243E-05, -0.0133554647, -0.0159020033, 8.736311E-05, 921.0958    , 32.37601    , 796.9442    , 1.39        , 3           , 255         , 0           , 0
-0.150101811, 0.1203994   , -9.787938   , 0.0005088359, 0.000234157545, -0.000313410652, -0.0133503256, -0.01589971 , 8.41977E-05 , 921.0958    , 32.37601    , 796.9442    , 1.4         , 3           , 255         , 0           , 0
-0.149138287, 0.121703528 , -9.788942   , 0.000127409527, -0.000491385057, -0.00013729943, -0.0133422324, -0.0158994626, 8.27821859E-05, 921.0958    , 32.37601    , 796.9698    , 1.41        , 3           , 255         , 0           , 0
-0.155801371, 0.132593021 , -9.790555   , 0.000229703728, -0.000239930989, -0.000738030649, -0.0133398175, -0.01590196 , 7.543381E-05, 921.0958    , 32.37601    , 796.9699    , 1.42        , 3           , 255         , 0           , 0
-0.149775371, 0.135029584 , -9.788707   , -0.00011638226, -0.000126802071, -0.0003376013, -0.0133409295, -0.0159032736, 7.207467E-05, 921.0914    , 32.37628    , 796.970032  , 1.43        , 3           , 255         , 0           , 0
-0.144624427, 0.139990956 , -9.794527   , 0.000574240345, -0.000235268788, -9.24992346E-05, -0.013335173, -0.0159056373, 7.118104E-05, 921.0914    , 32.37628    , 796.970154  , 1.44        , 3           , 255         , 0           , 0
-0.159725979, 0.133632153 , -9.791417   , 0.0003961576, -2.21659429E-05, 0.0005894933, -0.0133313062, -0.01590578 , 7.70790139E-05, 921.0914    , 32.37628    , 796.9703    , 1.45        , 3           , 255         , 0           , 0
-0.157845348, 0.137031332 , -9.789518   , 0.000274418155, -0.000139106472, 0.000723050034, -0.013328677, -0.0159070753, 8.432815E-05, 921.0914    , 32.37628    , 796.9704    , 1.46        , 3           , 255         , 0           , 0
-0.1617672  , 0.137693852 , -9.796848   , 0.0006834552, -7.042644E-05, 0.00017512562, -0.0133218709, -0.0159077588, 8.60888249E-05, 921.0914    , 32.37628    , 796.9705    , 1.47        , 3           , 255         , 0           , 0
-0.161931157, 0.134067655 , -9.796129   , 0.000271658 , -0.0004412848, 0.000495605462, -0.0133192334, -0.0159121  , 9.11037059E-05, 921.0914    , 32.37628    , 796.970642  , 1.48        , 3           , 255         , 0           , 0
-0.153577521, 0.134196192 , -9.800517   , -0.0001886817, -0.000114588009, 0.000103438295, -0.013321138, -0.0159132332, 9.21533647E-05, 921.0914    , 32.37628    , 796.970764  , 1.49        , 3           , 255         , 0           , 0
-0.154636189, 0.1324691   , -9.792955   , 0.0002857161, -0.000237420609, -0.0006461526, -0.0133181773, -0.0159156937, 8.572338E-05, 921.0914    , 32.37628    , 796.9709    , 1.5         , 3           , 255         , 0           , 0
-0.154240921, 0.132390887 , -9.790968   , -5.09122037E-05, -0.000239828893, -0.000473033928, -0.0133264055, -0.0159159787, 8.114895E-05, 921.0914    , 32.37628    , 796.9986    , 1.51        , 3           , 255         , 0           , 0
-0.150406212, 0.130996048 , -9.788938   , -0.0005159139, -0.000239906774, -0.000217203808, -0.01333153 , -0.0159184076, 7.900887E-05, 921.0914    , 32.37628    , 796.99884   , 1.52        , 3           , 255         , 0           , 0
-0.159068525, 0.135689273 , -9.788275   , -0.000331997231, 0.00012985908, -0.00032369257, -0.0133347986, -0.0159171522, 7.575458E-05, 921.1098    , 32.37601    , 796.9991    , 1.53        , 3           , 255         , 0           , 0
-0.16071026 , 0.133479282 , -9.798624   , -0.000295257953, 5.1064475E-05, -0.000207262492, -0.0133377183, -0.0159166679, 7.367512E-05, 921.1098    , 32.37601    , 796.9993    , 1.54        , 3           , 255         , 0           , 0
-0.142827183, 0.127885655 , -9.791434   , -0.000248317781, 0.000269059266, -0.0004097569, -0.0133401332, -0.0159140322, 6.95415947E-05, 921.1098    , 32.37601    , 796.9996    , 1.55        , 3           , 255         , 0           , 0
-0.152616352, 0.134315774 , -9.795149   , 7.059978E-05, -0.000583499961, 0.0001426035, -0.0133394515, -0.0159198437, 7.104548E-05, 921.1098    , 32.37601    , 796.9998    , 1.56        , 3           , 255         , 0           , 0
-0.158066541, 0.133440882 , -9.796903   , 0.000127799518, -0.000109285465, 0.000806974946, -0.0133383041, -0.015920829, 7.912991E-05, 921.1098    , 32.37601    , 797.000061  , 1.57        , 3           , 255         , 0           , 0
-0.146509811, 0.133960009 , -9.791282   , 0.000299125 , 3.739493E-06, 0.000777010166, -0.0133354347, -0.0159206875, 8.68996E-05 , 921.1098    , 32.37601    , 797.0003    , 1.58        , 3           , 255         , 0           , 0
-0.155916527, 0.128136709 , -9.792794   , 0.000286925642, 0.000241636822, 0.000176979942, -0.0133325933, -0.0159182474, 8.86372E-05 , 921.1098    , 32.37601    , 797.000549  , 1.59        , 3           , 255         , 0           , 0
-0.158319652, 0.124332644 , -9.788076   , -0.000319161278, 0.000286659924, -0.000323583023, -0.0133357327, -0.0159154236, 8.53631063E-05, 921.1098    , 32.37601    , 797.0008    , 1.6         , 3           , 255         , 0           , 0
-0.150231421, 0.136375517 , -9.792494   , -0.0002717377, 0.000217367837, 0.0007789788, -0.0133406315, -0.015908204, 9.31567338E-05, 921.1098    , 32.37601    , 797.006348  , 1.61        , 3           , 255         , 0           , 0
-0.14992559 , 0.135773987 , -9.789189   , 0.000578791543, -0.000116492738, 0.000350296934, -0.013334902, -0.0159093235, 9.667529E-05, 921.1098    , 32.37601    , 797.006653  , 1.62        , 3           , 255         , 0           , 0
-0.150554329, 0.149406135 , -9.793042   , 0.000616368954, -0.000186377671, 0.000568626 , -0.0133288288, -0.01591111 , 0.000102386475, 921.109     , 32.3756027  , 797.006958  , 1.63        , 3           , 255         , 0           , 0
-0.1477035  , 0.149365678 , -9.790262   , -2.70259334E-05, 0.000242586422, -0.000679393532, -0.0133289909, -0.015908774, 9.556013E-05, 921.109     , 32.3756027  , 797.007263  , 1.64        , 3           , 255         , 0           , 0
-0.158747122, 0.14140515  , -9.792628   , -0.000106982421, 6.520667E-05, 0.000180788527, -0.013330088, -0.0159080978, 9.73593342E-05, 921.109     , 32.3756027  , 797.007568  , 1.65        , 3           , 255         , 0           , 0
-0.156597525, 0.138665453 , -9.788237   , -0.000241631758, -0.00034169096, 0.0004909795, -0.0133325839, -0.0159114487, 0.000102314749, 921.109     , 32.3756027  , 797.0079    , 1.66        , 3           , 255         , 0           , 0
-0.146614522, 0.138262168 , -9.795305   , 6.946811E-05, -0.000421059784, 0.000429672771, -0.0133319581, -0.0159156043, 0.000106667678, 921.109     , 32.3756027  , 797.0082    , 1.67        , 3           , 255         , 0           , 0
-0.1481961  , 0.129271686 , -9.789988   , 0.000642671948, 0.000168768282, 0.000126755491, -0.0133255515, -0.0159138981, 0.000107912754, 921.109     , 32.3756027  , 797.0085    , 1.68        , 3           , 255         , 0           , 0
-0.156061247, 0.10448271  , -9.787752   , 0.000206174213, 0.000211544218, -0.0004179155, -0.0133234216, -0.0159118362, 0.000103705344, 921.109     , 32.3756027  , 797.0088    , 1.69        , 3           , 255         , 0           , 0
-0.162411749, 0.10834942  , -9.799489   , 0.000199347036, -0.000116028357, 6.904584E-05, -0.01332144 , -0.01591299 , 0.000104411265, 921.109     , 32.3756027  , 797.0091    , 1.7         , 3           , 255         , 0           , 0
-0.1573537  , 0.127734318 , -9.787737   , -0.000218622037, -0.000111941248, -0.0001137801, -0.0133300722, -0.01590645 , 0.000103391169, 921.109     , 32.3756027  , 797.014465  , 1.71        , 3           , 255         , 0           , 0
-0.1360245  , 0.154775769 , -9.79449749 , 8.181739E-05, -0.0005877944, 0.0004078613, -0.01332932 , -0.0159122739, 0.000107548192, 921.109     , 32.3756027  , 797.014832  , 1.72        , 3           , 255         , 0           , 0
-0.140088081, 0.152090281 , -9.792059   , 0.000248321739, -0.000408461725, -0.000359891041, -0.01332678 , -0.0159164052, 0.00010400368, 921.157166  , 32.3770943  , 797.0152    , 1.73        , 3           , 255         , 0           , 0
-0.174923986, 0.140338421 , -9.787481   , 5.735905E-05, 0.000136399 , -0.0005296583, -0.0133261215, -0.0159151126, 9.868885E-05, 921.157166  , 32.3770943  , 797.015564  , 1.74        , 3           , 255         , 0           , 0
-0.176989347, 0.131568342 , -9.789854   , -6.836158E-05, -3.73926E-07, -0.000348679838, -0.0133267492, -0.0159151629, 9.520205E-05, 921.157166  , 32.3770943  , 797.0159    , 1.75        , 3           , 255         , 0           , 0
-0.151578635, 0.1381311   , -9.788269   , 0.0005168397, -0.000285242277, -0.0002658096, -0.0133215394, -0.01591805 , 9.258194E-05, 921.157166  , 32.3770943  , 797.0163    , 1.76        , 3           , 255         , 0           , 0
-0.145045072, 0.134466231 , -9.792696   , -0.00010947464, 0.000606432848, -0.000225182084, -0.0133225974, -0.015912015, 9.02493048E-05, 921.157166  , 32.3770943  , 797.016663  , 1.77        , 3           , 255         , 0           , 0
-0.153352946, 0.117979445 , -9.787657   , 1.47338142E-05, 0.000379342557, -0.00038302195, -0.0133223888, -0.0159082767, 8.63685E-05 , 921.157166  , 32.3770943  , 797.017     , 1.78        , 3           , 255         , 0           , 0
-0.171860576, 0.118459031 , -9.78519249 , 0.0005787476, -0.00029179937, -0.000400568941, -0.0133165391, -0.0159112439, 8.24016242E-05, 921.157166  , 32.3770943  , 797.0174    , 1.79        , 3           , 255         , 0           , 0
-0.165530562, 0.119217917 , -9.780952   , 0.000288004347, -0.0002458421, 4.42514574E-05, -0.013313666, -0.015913697, 8.287688E-05, 921.157166  , 32.3770943  , 797.017761  , 1.8         , 3           , 255         , 0           , 0
-0.157251343, 0.123675741 , -9.784624   , -0.00021010905, -0.0001679589, 3.56856617E-07, -0.0133251958, -0.0159199312, 8.30529E-05 , 921.157166  , 32.3770943  , 796.967651  , 1.81        , 3           , 255         , 0           , 0
-0.152813271, 0.12293525  , -9.801601   , 0.000120833574, 0.000335816876, 0.0007153965, -0.0133241005, -0.0159164816, 9.016223E-05, 921.157166  , 32.3770943  , 796.9677    , 1.82        , 3           , 255         , 0           , 0
-0.153240442, 0.140054956 , -9.775906   , 0.00049525  , -0.0003653327, 0.000249471719, -0.0133191887, -0.0159200989, 9.270563E-05, 921.116638  , 32.3787231  , 796.9678    , 1.83        , 3           , 255         , 0           , 0
-0.155298486, 0.149853945 , -9.787157   , -0.000133652473, -0.000205001445, -0.000193001732, -0.0133204954, -0.0159221739, 9.08029E-05 , 921.116638  , 32.3787231  , 796.967834  , 1.84        , 3           , 255         , 0           , 0
-0.155849025, 0.136134908 , -9.786665   , 9.823521E-05, -0.000266240444, 0.000241203379, -0.0133195519, -0.0159248039, 9.325044E-05, 921.116638  , 32.3787231  , 796.9679    , 1.85        , 3           , 255         , 0           , 0
-0.161361769, 0.119456328 , -9.78637    , -0.000237873755, -0.000214301166, -7.57759844E-05, -0.0133219194, -0.015926959, 9.25212153E-05, 921.116638  , 32.3787231  , 796.967957  , 1.86        , 3           , 255         , 0           , 0
-0.156514928, 0.121153    , -9.79546452 , -0.000279057771, 0.0003377666, 0.00024209512, -0.0133247487, -0.0159235466, 9.48971938E-05, 921.116638  , 32.3787231  , 796.968     , 1.87        , 3           , 255         , 0           , 0
-0.151639849, 0.119016364 , -9.79379    , 8.061237E-06, 0.000372817682, 8.15550447E-06, -0.0133246686, -0.0159198176, 9.49290552E-05, 921.116638  , 32.3787231  , 796.9681    , 1.88        , 3           , 255         , 0           , 0
-0.152652144, 0.126940683 , -9.788345   , -7.339986E-08, -0.000189239508, -0.0003096691, -0.01332462 , -0.015921751, 9.18575461E-05, 921.116638  , 32.3787231  , 796.96814   , 1.89        , 3           , 255         , 0           , 0
-0.148142219, 0.1320047   , -9.790278   , 3.11317854E-06, 3.26836E-05 , -0.000163099874, -0.0133245634, -0.0159214456, 9.022217E-05, 921.116638  , 32.3787231  , 796.9682    , 1.9         , 3           , 255         , 0           , 0
-0.1565869  , 0.139543027 , -9.798845   , -0.00017494004, 0.000376891869, 0.0005541314, -0.0133226337, -0.0159133822, 9.565339E-05, 921.116638  , 32.3787231  , 796.9697    , 1.91        , 3           , 255         , 0           , 0
-0.165104553, 0.137033179 , -9.793533   , 2.369663E-05, -0.000387168257, -0.000476744957, -0.0133223208, -0.0159173161, 9.093746E-05, 921.116638  , 32.3787231  , 796.9698    , 1.92        , 3           , 255         , 0           , 0
-0.1496646  , 0.13995418  , -9.788158   , -0.0003778374, -7.22990953E-05, 0.000333818549, -0.0133261532, -0.0159179941, 9.428532E-05, 921.123962  , 32.37954    , 796.969849  , 1.93        , 3           , 255         , 0           , 0
-0.147851139, 0.140668944 , -9.791339   , -0.000347438559, -0.000100739184, 3.97957629E-05, -0.0133296335, -0.0159189943, 9.469669E-05, 921.123962  , 32.37954    , 796.9699    , 1.94        , 3           , 255         , 0           , 0
-0.159163952, 0.138661623 , -9.796295   , 0.0003603951, 0.000157152128, -0.0009703404, -0.0133258756, -0.0159175526, 8.497223E-05, 921.123962  , 32.37954    , 796.97      , 1.95        , 3           , 255         , 0           , 0
-0.147784635, 0.123902678 , -9.782362   , -0.000201599963, -0.000136807677, -0.0003503972, -0.0133278361, -0.0159189645, 8.148644E-05, 921.123962  , 32.37954    , 796.970032  , 1.96        , 3           , 255         , 0           , 0
-0.153506055, 0.133943766 , -9.7866745  , 0.0006308891, -0.0004064492, 0.000470057828, -0.0133216009, -0.0159229655, 8.62412344E-05, 921.123962  , 32.37954    , 796.9701    , 1.97        , 3           , 255         , 0           , 0
-0.152592063, 0.130743444 , -9.793467   , 0.000205924327, -0.000254591, 0.0005666828, -0.013319632, -0.0159254335, 9.194204E-05, 921.123962  , 32.37954    , 796.9702    , 1.98        , 3           , 255         , 0           , 0
-0.156572923, 0.12057887  , -9.796469   , 7.915456E-05, -3.34321521E-06, 0.0004106675, -0.0133189047, -0.015925413, 9.60492E-05 , 921.123962  , 32.37954    , 796.970337  , 1.99        , 3           , 255         , 0           , 0
-0.162340984, 0.117812656 , -9.791777   , 0.000294911966, 9.147829E-05, 0.000299242238, -0.0133160064, -0.0159244575, 9.902949E-05, 921.123962  , 32.37954    , 796.970459  , 2           , 3           , 0           , 7.50123644  , 200
-0.1560389  , 0.1279813   , -9.789691   , 7.79076363E-05, -0.000100541976, -0.000102385558, -0.0133192455, -0.015923705, 9.808328E-05, 921.123962  , 32.37954    , 796.963     , 2.01        , 3           , 1           , 0           , 0
-0.1482584  , 0.140165448 , -9.790745   , 0.0005922419, -7.901358E-05, 0.0003520693, -0.0133133782, -0.01592445 , 0.00010161454, 921.123962  , 32.37954    , 796.9631    , 2.02        , 3           , 2           , 0           , 0
-0.145833418, 0.145304531 , -9.793917   , -0.000292979123, -0.000494537235, 0.000838757842, -0.0133164432, -0.0159292873, 0.000110068075, 921.1285    , 32.37974    , 796.963135  , 2.03        , 3           , 3           , 0           , 0
-0.150657982, 0.140440866 , -9.798932   , 8.176139E-05, -0.000257476873, 0.00023068802, -0.0133156646, -0.0159318261, 0.000112409274, 921.1285    , 32.37974    , 796.9632    , 2.04        , 3           , 4           , 0           , 0
-0.149956375, 0.130876616 , -9.802503   , 0.000525634037, -0.0003027225, 0.0006716993, -0.0133105144, -0.0159347635, 0.000119166638, 921.1285    , 32.37974    , 796.963257  , 2.05        , 3           , 5           , 0           , 0
-0.148743838, 0.140373811 , -9.784055   , 0.000404527877, -0.0004913386, 0.000574475736, -0.0133065619, -0.0159395989, 0.000124976868, 921.1285    , 32.37974    , 796.9633    , 2.06        , 3           , 6           , 0           , 0
-0.150017723, 0.13215     , -9.789493   , 6.447703E-05, -2.99845124E-05, 0.000176426329, -0.0133059444, -0.0159398764, 0.000126745159, 921.1285    , 32.37974    , 796.9634    , 2.07        , 3           , 7           , 0           , 0
-0.146143332, 0.118543051 , -9.79609    , 0.0005349973, -0.000172845845, 0.000217957975, -0.0133006312, -0.0159415752, 0.000128947766, 921.1285    , 32.37974    , 796.96344   , 2.08        , 3           , 8           , 5           , 5
-0.147985488, 0.12794736  , -9.787723   , -0.00021605083, -0.000630845141, 0.0003443265, -0.0133028468, -0.01594784 , 0.000132474976, 921.1285    , 32.37974    , 796.9635    , 2.09        , 3           , 9           , 5           , 0.1
-0.15446505 , 0.126705974 , -9.792392   , -0.000156199152, -0.000160066353, -0.000276095263, -0.0133043649, -0.0159494728, 0.000129735286, 921.1285    , 32.37974    , 796.963562  , 2.1         , 3           , 10          , 0.1         , 0.1
-0.15353331 , 0.13361676  , -9.790243   , 0.000316862715, -0.000337608159, -0.0003921171, -0.0133068487, -0.0159395654, 0.000125950028, 921.1285    , 32.37974    , 796.951355  , 2.11        , 3           , 11          , 0.007891745 , 0.007891744
-0.15835768 , 0.133416638 , -9.794374   , -0.0001755833, -0.000113835325, -0.0007304556, -0.0133084869, -0.0159408  , 0.000118660508, 921.1285    , 32.37974    , 796.951355  , 2.12        , 3           , 12          , 0.174643889 , 0
-0.150145441, 0.133634239 , -9.788263   , -7.032673E-05, -0.000364684267, -0.0002552691, -0.0133091491, -0.015944479, 0.000116156312, 921.097351  , 32.3781128  , 796.951355  , 2.13        , 3           , 13          , 0           , 0
-0.158274651, 0.129172891 , -9.791597   , -0.000400530116, -0.0004742078, -0.00012440476, -0.0133131342, -0.0159492381, 0.000114975366, 921.097351  , 32.3781128  , 796.951355  , 2.14        , 3           , 14          , -0.0007847846, -0.000863578171
-0.15826562 , 0.124482825 , -9.788745   , 8.06749449E-05, -0.000266495044, -0.000431621, -0.01331226 , -0.01595196 , 0.000110694571, 921.097351  , 32.3781128  , 796.951355  , 2.15        , 3           , 15          , 0           , -0.000193717278
-0.149572164, 0.1393018   , -9.796001   , -4.91783139E-05, -0.000177369453, 0.000256076542, -0.0133127924, -0.0159537  , 0.000113278991, 921.097351  , 32.3781128  , 796.951355  , 2.16        , 3           , 16          , 0           , 1.401298E-45
-0.150595456, 0.13268961  , -9.79001    , -0.000164829311, -8.365314E-06, -0.000166459766, -0.0133144148, -0.0159538053, 0.000111615489, 921.097351  , 32.3781128  , 796.951355  , 2.17        , 3           , 20          , 0           , 0
-0.157758743, 0.129142687 , -9.78591251 , 0.000162122422, -0.000526032643, -0.000320653, -0.0133127421, -0.0159591045, 0.000108478933, 921.097351  , 32.3781128  , 796.951355  , 2.18        , 3           , 21          , 0           , 0
-0.15574874 , 0.130681992 , -9.792158   , 0.000529533252, -0.000125828781, -0.0005391679, -0.0133073619, -0.0159604345, 0.000103103936, 921.097351  , 32.3781128  , 796.951355  , 2.19        , 3           , 22          , 0           , 0
-0.162637964, 0.123866677 , -9.798081   , 0.000365692249, 0.000166644633, -1.52380962E-05, -0.0133037036, -0.0159587711, 0.0001029294, 921.097351  , 32.3781128  , 796.951355  , 2.2         , 3           , 40          , 0           , 0
-0.16448018 , 0.12974076  , -9.790354   , -0.000339443854, -0.000224871212, -0.000531261438, -0.0133084506, -0.0159594733, 9.76695737E-05, 921.097351  , 32.3781128  , 796.9798    , 2.21        , 3           , 41          , 0           , 0
-0.1492712  , 0.129188627 , -9.803845   , -0.000174688874, -0.000332194031, 5.05503267E-05, -0.0133102061, -0.01596279 , 9.821931E-05, 921.097351  , 32.3781128  , 796.98      , 2.22        , 3           , 42          , 0           , 0
-0.140616179, 0.141377956 , -9.789479   , -7.436931E-05, -0.000246991869, 0.0002665902, -0.0133109922, -0.0159652233, 0.000100918121, 921.133362  , 32.38015    , 796.980164  , 2.23        , 3           , 255         , 0           , 0
-0.154448748, 0.148149878 , -9.789598   , -0.0007708765, 0.000151413376, -0.000156882161, -0.0133186765, -0.0159637313, 9.932911E-05, 921.133362  , 32.38015    , 796.980347  , 2.24        , 3           , 255         , 0           , 0
-0.15130949 , 0.139257073 , -9.784459   , -0.000107745233, -6.5590255E-05, -0.000126161845, -0.0133197336, -0.0159644037, 9.807622E-05, 921.133362  , 32.38015    , 796.9805    , 2.25        , 3           , 255         , 0           , 0
-0.156590566, 0.1333057   , -9.793878   , 0.000169157924, -0.0004355976, -6.995624E-05, -0.013318033, -0.0159687679, 9.743466E-05, 921.133362  , 32.38015    , 796.9807    , 2.26        , 3           , 255         , 0           , 0
-0.164029539, 0.135123044 , -9.795118   , 0.000115039235, 3.24604334E-05, -1.03828934E-05, -0.0133168809, -0.0159684438, 9.73265051E-05, 921.133362  , 32.38015    , 796.9809    , 2.27        , 3           , 255         , 0           , 0
-0.147561193, 0.139526218 , -9.787031   , -0.0003282164, -4.018075E-05, -0.000230134174, -0.0133201256, -0.015968876, 9.503049E-05, 921.133362  , 32.38015    , 796.9811    , 2.28        , 3           , 255         , 0           , 0
-0.14852877 , 0.127541736 , -9.789507   , 0.000160688767, -0.000272158533, 9.941786E-05, -0.0133185359, -0.0159715842, 9.6060925E-05, 921.133362  , 32.38015    , 796.981262  , 2.29        , 3           , 255         , 0           , 0
-0.156770468, 0.118940212 , -9.78642    , -2.986635E-05, 0.000157074945, 0.0005362318, -0.0133189205, -0.0159699414, 0.0001014024, 921.133362  , 32.38015    , 796.981445  , 2.3         , 3           , 255         , 0           , 0
-0.153023481, 0.1258463   , -9.78084    , 0.0005340797, 8.210016E-06, 0.000379141 , -0.0133223273, -0.0159630142, 0.000105331426, 921.133362  , 32.38015    , 796.9599    , 2.31        , 3           , 255         , 0           , 0
-0.156029329, 0.130425721 , -9.785395   , -0.0001815235, -0.00019567128, 0.0006438704, -0.0133242449, -0.0159648843, 0.000111796282, 921.133362  , 32.38015    , 796.959961  , 2.32        , 3           , 255         , 0           , 0
-0.152950138, 0.1324036   , -9.787646   , 0.000225662137, -0.00025843078, -0.000201636067, -0.0133219576, -0.0159674957, 0.000109814326, 921.1461    , 32.3790627  , 796.96      , 2.33        , 3           , 255         , 0           , 0
-0.154842556, 0.1318228   , -9.786304   , 0.0004233226, -0.000121407385, 0.000206411321, -0.0133177582, -0.01596868 , 0.000111894646, 921.1461    , 32.3790627  , 796.9601    , 2.34        , 3           , 255         , 0           , 0
-0.161582842, 0.137621015 , -9.79748    , -0.0004357794, 0.000143458485, -0.000222257469, -0.01332208 , -0.0159672759, 0.000109652923, 921.1461    , 32.3790627  , 796.960144  , 2.35        , 3           , 255         , 0           , 0
-0.159802556, 0.13510187  , -9.792064   , -0.000350221933, 0.000346536166, 0.000219929876, -0.0133256167, -0.0159637835, 0.000111806083, 921.1461    , 32.3790627  , 796.9602    , 2.36        , 3           , 255         , 0           , 0
-0.159404218, 0.133553162 , -9.789095   , 0.0005034588, -8.142617E-05, -0.000142657882, -0.01332056 , -0.0159646142, 0.000110390334, 921.1461    , 32.3790627  , 796.960266  , 2.37        , 3           , 255         , 0           , 0
-0.154057533, 0.130349353 , -9.79233    , 0.0008889082, -0.000436137721, 0.00035146263, -0.0133117288, -0.01596893 , 0.000113963091, 921.1461    , 32.3790627  , 796.9603    , 2.38        , 3           , 255         , 0           , 0
-0.152225569, 0.133758366 , -9.795076   , 0.000101338548, -0.000155740941, 0.000118314681, -0.0133107333, -0.01597047 , 0.000115166986, 921.1461    , 32.3790627  , 796.9604    , 2.39        , 3           , 255         , 0           , 0
-0.159802929, 0.144835815 , -9.798063   , -0.00037336984, 1.71991414E-05, -0.000182019969, -0.0133144371, -0.01597032 , 0.000113344468, 921.1461    , 32.3790627  , 796.960449  , 2.4         , 3           , 255         , 0           , 0
-0.167383313, 0.142359808 , -9.782033   , -0.00017501699, -0.0006380636, 0.000112383474, -0.0133235436, -0.015976714, 0.000114670489, 921.1461    , 32.3790627  , 796.924561  , 2.41        , 3           , 255         , 0           , 0
-0.156077653, 0.139093786 , -9.788404   , 0.000174819608, -0.000620514445, 0.000766703044, -0.0133219194, -0.015982816, 0.0001224203, 921.1461    , 32.3790627  , 796.924438  , 2.42        , 3           , 255         , 0           , 0
-0.157573432, 0.1332868   , -9.785421   , -0.0005873654, -0.000450348074, 0.000330240116, -0.0133278463, -0.0159872733, 0.000125782724, 921.1597    , 32.38361    , 796.9243    , 2.43        , 3           , 255         , 0           , 0
-0.1650527  , 0.12546353  , -9.789598   , -0.000214508676, -5.60836634E-06, -0.000282934256, -0.0133299455, -0.0159873646, 0.000122954079, 921.1597    , 32.38361    , 796.9242    , 2.44        , 3           , 255         , 0           , 0
-0.152618721, 0.13288711  , -9.796361   , 0.0002443386, -0.000109513, 2.91841425E-05, -0.0133275082, -0.0159884561, 0.000123260528, 921.1597    , 32.38361    , 796.9241    , 2.45        , 3           , 255         , 0           , 0
-0.150393292, 0.128715545 , -9.79163551 , -0.0005039139, -0.0004949902, 0.0005830884, -0.0133326408, -0.0159933269, 0.000129157474, 921.1597    , 32.38361    , 796.92395   , 2.46        , 3           , 255         , 0           , 0
-0.1566957  , 0.126855224 , -9.78488    , -4.6322064E-05, 0.000157912553, -0.0006173634, -0.013333004, -0.01599183 , 0.0001229627, 921.1597    , 32.38361    , 796.9238    , 2.47        , 3           , 255         , 0           , 0
-0.156406775, 0.1399249   , -9.786043   , -0.000241916918, 2.16637854E-05, -0.0004357219, -0.0133353537, -0.015991671, 0.000118602511, 921.1597    , 32.38361    , 796.9237    , 2.48        , 3           , 255         , 0           , 0
-0.156764731, 0.13253364  , -9.789271   , -0.0001520025, -9.43648047E-05, -0.00019640557, -0.0133368429, -0.0159926414, 0.000116651019, 921.1597    , 32.38361    , 796.9236    , 2.49        , 3           , 255         , 0           , 0
-0.164502725, 0.135668755 , -9.798462   , -0.000319518556, -0.000439252646, 0.000133195048, -0.0133400578, -0.0159970112, 0.000118041557, 921.1597    , 32.38361    , 796.923462  , 2.5         , 3           , 255         , 0           , 0
-0.149822   , 0.134464279 , -9.785104   , -6.0630322E-05, -1.94384484E-06, -0.000256163446, -0.0133486642, -0.0160016157, 0.0001156088, 921.1597    , 32.38361    , 796.87384   , 2.51        , 3           , 255         , 0           , 0
-0.163436621, 0.132208079 , -9.796391   , -0.000239342568, -0.000135049748, -0.0003661627, -0.013350999, -0.0160030145, 0.000111965142, 921.1597    , 32.38361    , 796.8734    , 2.52        , 3           , 255         , 0           , 0
-0.155694172, 0.137950629 , -9.783855   , -0.000311042531, 0.00010244333, -0.0003413017, -0.0133540565, -0.0160020366, 0.0001085384, 921.1098    , 32.37988    , 796.873     , 2.53        , 3           , 255         , 0           , 0
-0.1455806  , 0.134072512 , -9.79134    , 0.000289928634, 0.00012360228, -0.000227756711, -0.0133511191, -0.0160008315, 0.000106244304, 921.1098    , 32.37988    , 796.872559  , 2.54        , 3           , 255         , 0           , 0
-0.155279383, 0.135286376 , -9.789473   , -0.000381993, 0.000192552747, -0.000282593362, -0.0133548928, -0.01599894 , 0.000103392609, 921.1098    , 32.37988    , 796.872131  , 2.55        , 3           , 255         , 0           , 0
-0.156952947, 0.133610576 , -9.797556   , -0.000243950752, -0.0002517397, -0.000120886805, -0.0133573133, -0.0160014778, 0.000102217346, 921.1098    , 32.37988    , 796.8717    , 2.56        , 3           , 255         , 0           , 0
-0.154670477, 0.134844884 , -9.791371   , -1.02305785E-06, -1.547177E-05, 9.51150141E-05, -0.0133573385, -0.01600162 , 0.000103170583, 921.1098    , 32.37988    , 796.8713    , 2.57        , 3           , 255         , 0           , 0
-0.161083281, 0.131438732 , -9.791956   , 0.000239622022, -0.000266639341, 0.000235193875, -0.01335498 , -0.0160042532, 0.00010555816, 921.1098    , 32.37988    , 796.87085   , 2.58        , 3           , 255         , 0           , 0
-0.1586832  , 0.125291422 , -9.78458    , -0.000118381169, -0.0002897409, -0.0006328621, -0.0133560635, -0.0160072334, 9.926815E-05, 921.1098    , 32.37988    , 796.8704    , 2.59        , 3           , 255         , 0           , 0
-0.1544916  , 0.126641065 , -9.7881     , -0.0002713271, -0.0002587274, -0.000970555353, -0.0133586219, -0.01600995 , 8.959702E-05, 921.1098    , 32.37988    , 796.87      , 2.6         , 3           , 255         , 0           , 0
-0.1565643  , 0.1303288   , -9.783758   , -6.824784E-05, 0.000122138532, -0.000216822285, -0.0133635374, -0.0160062257, 8.74807447E-05, 921.1098    , 32.37988    , 796.894958  , 2.61        , 3           , 255         , 0           , 0
-0.154138252, 0.135257438 , -9.801592   , 0.000195565168, -0.000467668637, 0.000427158317, -0.0133616505, -0.0160108432, 9.181488E-05, 921.1098    , 32.37988    , 796.894653  , 2.62        , 3           , 255         , 0           , 0
-0.15321064 , 0.1356949   , -9.779649   , 0.000141620054, -0.0001899869, 0.000750097446, -0.0133603523, -0.0160126425, 9.93413341E-05, 921.1031    , 32.38069    , 796.894348  , 2.63        , 3           , 255         , 0           , 0
-0.151363969, 0.1281819   , -9.785856   , -4.70514642E-05, 8.128071E-05, 0.0007341226, -0.0133609409, -0.0160117317, 0.000106671796, 921.1031    , 32.38069    , 796.894043  , 2.64        , 3           , 255         , 0           , 0
-0.161750227, 0.1291348   , -9.783933   , 0.000376543438, -0.000446098158, 0.000246613781, -0.0133572156, -0.0160161611, 0.000109197572, 921.1031    , 32.38069    , 796.893738  , 2.65        , 3           , 255         , 0           , 0
-0.16233702 , 0.128938958 , -9.788242   , 0.00039595  , 2.02786759E-05, -0.0005804807, -0.0133531652, -0.0160160363, 0.000103389975, 921.1031    , 32.38069    , 796.8935    , 2.66        , 3           , 255         , 0           , 0
-0.1600039  , 0.131273955 , -9.783934   , 0.000172263128, -0.000133474241, 0.000103029743, -0.0133514581, -0.0160173569, 0.000104438106, 921.1031    , 32.38069    , 796.89325   , 2.67        , 3           , 255         , 0           , 0
-0.1510549  , 0.130157709 , -9.788324   , -5.75748854E-05, -0.000119762379, 7.842347E-06, -0.0133520355, -0.0160185546, 0.000104532533, 921.1031    , 32.38069    , 796.893     , 2.68        , 3           , 255         , 0           , 0
-0.1554573  , 0.130817473 , -9.794554   , -0.000340698985, 5.081267E-05, 4.775182E-06, -0.0133554414, -0.0160180461, 0.00010457349, 921.1031    , 32.38069    , 796.892761  , 2.69        , 3           , 255         , 0           , 0
-0.160803765, 0.127183467 , -9.792412   , -0.000368696637, -0.000164188212, -0.000199734845, -0.0133590968, -0.0160197131, 0.00010259806, 921.1031    , 32.38069    , 796.8925    , 2.7         , 3           , 255         , 0           , 0
-0.157542646, 0.12978062  , -9.788625   , -0.0005577543, 1.00142788E-05, -0.0006245286, -0.0133643914, -0.0160193965, 9.634839E-05, 921.1031    , 32.38069    , 796.923645  , 2.71        , 3           , 255         , 0           , 0
-0.158517689, 0.127610534 , -9.799961   , 0.0004448145, 2.59917E-05 , 0.000173711771, -0.0133599695, -0.0160191134, 9.808207E-05, 921.1031    , 32.38069    , 796.9236    , 2.72        , 3           , 255         , 0           , 0
-0.158953458, 0.1351661   , -9.786938   , 0.000126063183, -0.000143364072, 0.0001756862, -0.0133587392, -0.0160205234, 9.98581163E-05, 921.1351    , 32.38232    , 796.9235    , 2.73        , 3           , 255         , 0           , 0
-0.154489636, 0.130984619 , -9.794074   , 0.00010585651, -0.000552867539, -0.000240969763, -0.0133576421, -0.0160260834, 9.752223E-05, 921.1351    , 32.38232    , 796.923462  , 2.74        , 3           , 255         , 0           , 0
-0.148039147, 0.127127975 , -9.787019   , -8.456642E-06, -0.000116064213, -0.0007763157, -0.0133576021, -0.0160273481, 8.977447E-05, 921.1351    , 32.38232    , 796.9234    , 2.75        , 3           , 255         , 0           , 0
-0.1529241  , 0.133604929 , -9.78441    , 0.000249064 , -6.647769E-05, -0.000165788428, -0.0133550866, -0.0160280354, 8.812544E-05, 921.1351    , 32.38232    , 796.92334   , 2.76        , 3           , 255         , 0           , 0
-0.15908353 , 0.129759    , -9.787859   , 0.0005018096, -0.000163848512, -8.533205E-05, -0.0133500546, -0.0160296876, 8.729399E-05, 921.1351    , 32.38232    , 796.9233    , 2.77        , 3           , 255         , 0           , 0
-0.158623636, 0.132922232 , -9.78924751 , 0.000341457519, -0.000423564925, -0.0003933812, -0.013346578, -0.0160339735, 8.3416664E-05, 921.1351    , 32.38232    , 796.9232    , 2.78        , 3           , 255         , 0           , 0
-0.157869056, 0.133080617 , -9.784734   , 0.0002693747, -9.347603E-05, 0.00020074808, -0.0133439163, -0.0160348825, 8.543665E-05, 921.1351    , 32.38232    , 796.923157  , 2.79        , 3           , 255         , 0           , 0
-0.156224281, 0.128110766 , -9.789468   , 0.000553079532, -4.16789553E-05, 0.00024790928, -0.0133384261, -0.0160352662, 8.792135E-05, 921.1351    , 32.38232    , 796.9231    , 2.8         , 3           , 255         , 0           , 0
-0.150077552, 0.12970081  , -9.79156    , -0.000526153133, -8.213206E-05, 1.60010386E-05, -0.013343798, -0.016034456, 8.809405E-05, 921.1351    , 32.38232    , 796.9063    , 2.81        , 3           , 255         , 0           , 0
-0.151040211, 0.132074863 , -9.789564   , -0.000364208478, 0.000149101659, 1.65905076E-05, -0.0133474423, -0.0160329621, 8.824004E-05, 921.1351    , 32.38232    , 796.9061    , 2.82        , 3           , 255         , 0           , 0
-0.1502146  , 0.133613735 , -9.778639   , -0.0002494956, -2.88930023E-05, -0.000171065461, -0.0133499093, -0.0160332732, 8.653322E-05, 921.109436  , 32.3818436  , 796.905945  , 2.83        , 3           , 255         , 0           , 0
-0.160405725, 0.138288349 , -9.787374   , -1.3569952E-06, 0.000311199343, -0.0001968367, -0.0133498916, -0.0160301886, 8.452328E-05, 921.109436  , 32.3818436  , 796.905762  , 2.84        , 3           , 255         , 0           , 0
-0.15723823 , 0.14240706  , -9.791125   , -0.000231624581, -0.0002031604, -0.0005741094, -0.0133521166, -0.0160322953, 7.88092148E-05, 921.109436  , 32.3818436  , 796.9056    , 2.85        , 3           , 255         , 0           , 0
-0.15250352 , 0.130001515 , -9.802907   , 0.000222990348, -0.0003123993, -0.00031176582, -0.0133498367, -0.01603546 , 7.57332236E-05, 921.109436  , 32.3818436  , 796.905457  , 2.86        , 3           , 255         , 0           , 0
-0.147492975, 0.135685384 , -9.790179   , 0.000230869337, -0.0005664889, 0.000435239868, -0.0133475978, -0.0160410628, 8.01613E-05 , 921.109436  , 32.3818436  , 796.905334  , 2.87        , 3           , 255         , 0           , 0
-0.15405558 , 0.137464017 , -9.790308   , -0.000204820069, -0.000118919241, 0.0002978731, -0.0133496933, -0.0160422139, 8.31559446E-05, 921.109436  , 32.3818436  , 796.9052    , 2.88        , 3           , 255         , 0           , 0
-0.15298374 , 0.132586271 , -9.78615952 , -0.000222779228, 9.59304743E-05, -2.811219E-05, -0.0133519182, -0.0160412584, 8.286201E-05, 921.109436  , 32.3818436  , 796.9051    , 2.89        , 3           , 255         , 0           , 0
-0.15710339 , 0.132741243 , -9.790887   , 0.000384601 , 9.098527E-05, -0.000642485043, -0.0133479694, -0.0160404351, 7.642494E-05, 921.109436  , 32.3818436  , 796.904968  , 2.9         , 3           , 255         , 0           , 0
-0.162203863, 0.126186565 , -9.787486   , -0.00045368768, 0.000362223946, -0.000715716742, -0.0133605534, -0.0160289165, 6.93501352E-05, 921.109436  , 32.3818436  , 796.9264    , 2.91        , 3           , 255         , 0           , 0
-0.149648279, 0.1297023   , -9.78333    , 0.000511962338, 0.000188574952, -0.0003960133, -0.0133553706, -0.0160270836, 6.536476E-05, 921.109436  , 32.3818436  , 796.9264    , 2.92        , 3           , 255         , 0           , 0
-0.149042159, 0.132928684 , -9.770653   , 0.000488242251, 8.047826E-05, -0.000277197367, -0.013350443, -0.0160263162, 6.2582E-05  , 921.166931  , 32.3821831  , 796.9264    , 2.93        , 3           , 255         , 0           , 0
-0.153126389, 0.1421685   , -9.782051   , 3.95963434E-06, 2.249924E-05, 4.95991844E-06, -0.0133504029, -0.01602609 , 6.262859E-05, 921.166931  , 32.3821831  , 796.9264    , 2.94        , 3           , 255         , 0           , 0
-0.153539926, 0.130259365 , -9.793501   , 0.000224878488, 0.000214681844, -0.000369324844, -0.0133480961, -0.0160239935, 5.890664E-05, 921.166931  , 32.3821831  , 796.9264    , 2.95        , 3           , 255         , 0           , 0
-0.151885331, 0.136283323 , -9.784816   , -0.0004024555, -7.178431E-05, 0.000656510936, -0.0133522255, -0.0160246249, 6.548142E-05, 921.166931  , 32.3821831  , 796.9264    , 2.96        , 3           , 255         , 0           , 0
-0.154761389, 0.127652377 , -9.791796   , -0.00031718536, -0.0003911875, 0.00017188114, -0.0133554256, -0.0160285141, 6.72525E-05 , 921.166931  , 32.3821831  , 796.9264    , 2.97        , 3           , 255         , 0           , 0
-0.162826821, 0.131471083 , -9.790447   , -0.000695309544, -0.000527024735, -0.0005480867, -0.0133622894, -0.0160338543, 6.184194E-05, 921.166931  , 32.3821831  , 796.9264    , 2.98        , 3           , 255         , 0           , 0
-0.161854059, 0.137598231 , -9.786869   , 0.000206816941, -8.77782E-05, 9.190261E-05, -0.0133602358, -0.01603472 , 6.27727059E-05, 921.166931  , 32.3821831  , 796.9264    , 2.99        , 3           , 255         , 0           , 0
-0.1517802  , 0.131646365 , -9.780683   , 0.0001178481, -0.0004906588, -0.000581747037, -0.0133589655, -0.0160397049, 5.702072E-05, 921.166931  , 32.3821831  , 796.9264    , 3           , 3           , 0           , 8.501237    , 300
-0.1484284  , 0.124042287 , -9.787099   , 3.3993274E-08, -9.999995E-05, -0.0006357684, -0.01336579 , -0.0160345472, 5.07873738E-05, 921.166931  , 32.3821831  , 796.8641    , 3.01        , 3           , 1           , 0           , 0
-0.1492932  , 0.134773433 , -9.781668   , -0.000172088563, 0.0001939116, 9.839892E-05, -0.0133675262, -0.0160325952, 5.17454573E-05, 921.166931  , 32.3821831  , 796.8637    , 3.02        , 3           , 2           , 0           , 0
-0.14707841 , 0.12579605  , -9.789606   , 0.000271405152, -0.0002207912, 0.0003107387, -0.0133648627, -0.0160347614, 5.48824E-05 , 921.128967  , 32.3800125  , 796.863342  , 3.03        , 3           , 3           , 0           , 0
-0.149297312, 0.128587082 , -9.791937   , 0.000184350181, 1.10973488E-05, 0.00053354213, -0.0133631052, -0.016034577, 6.021641E-05, 921.128967  , 32.3800125  , 796.863     , 3.04        , 3           , 4           , 0           , 0
-0.14669311 , 0.122734979 , -9.792178   , -0.00029461534, -0.000291193719, 0.000543200935, -0.0133661395, -0.0160374176, 6.56874254E-05, 921.128967  , 32.3800125  , 796.8626    , 3.05        , 3           , 5           , 0           , 0
-0.154930443, 0.137687236 , -9.79077    , -6.011699E-05, -0.000139339129, 0.000189950733, -0.01336677 , -0.0160387848, 6.760557E-05, 921.128967  , 32.3800125  , 796.862244  , 3.06        , 3           , 6           , 0           , 0
-0.150502861, 0.143150836 , -9.788336   , -0.0002644137, -3.268395E-05, 0.0004649022, -0.0133694895, -0.01603905 , 7.225903E-05, 921.128967  , 32.3800125  , 796.8619    , 3.07        , 3           , 7           , 0           , 0
-0.153233588, 0.138982221 , -9.795899   , 0.0007721422, -0.000142586767, 0.0002721853, -0.0133618116, -0.0160404388, 7.499999E-05, 921.128967  , 32.3800125  , 796.8615    , 3.08        , 3           , 8           , 5           , 5
-0.152371913, 0.13377735  , -9.786585   , 0.0009794345, 0.000261667941, 0.000128220126, -0.0133520374, -0.0160378031, 7.62472555E-05, 921.128967  , 32.3800125  , 796.861145  , 3.09        , 3           , 9           , 5           , 0.1
-0.152330637, 0.1398817   , -9.798929   , 0.000422217854, -0.000107514323, -0.000406102, -0.0133477505, -0.0160389338, 7.22005352E-05, 921.128967  , 32.3800125  , 796.8608    , 3.1         , 3           , 10          , 0.1         , 0.1
-0.159037113, 0.136121631 , -9.79054    , 0.00017563178, -7.24657439E-05, 0.0005604243, -0.01335027 , -0.0160263181, 7.788163E-05, 921.128967  , 32.3800125  , 796.860962  , 3.11        , 3           , 11          , 0.007017231 , 0.00701722968
-0.164252132, 0.142167062 , -9.786184   , 0.000402860634, -0.000199230446, 0.0009963396, -0.0133464029, -0.016028177, 8.787176E-05, 921.128967  , 32.3800125  , 796.8606    , 3.12        , 3           , 12          , 0.174645633 , 0
-0.160538256, 0.128384322 , -9.797594   , 0.0007288761, -0.000305074558, 0.00125765637, -0.0133393155, -0.01603106 , 0.000100489211, 921.1026    , 32.38171    , 796.8602    , 3.13        , 3           , 13          , 0           , 0
-0.150602877, 0.132451862 , -9.800584   , -0.000195823377, 9.001279E-05, 0.000689206063, -0.013341384, -0.0160300676, 0.000107369357, 921.1026    , 32.38171    , 796.859863  , 3.14        , 3           , 14          , -0.0007845793, -0.0008637469
-0.1443009  , 0.131790727 , -9.79289    , -0.000342295622, 0.000123965612, 0.0003579495, -0.0133448625, -0.01602878 , 0.000110932364, 921.1026    , 32.38171    , 796.8595    , 3.15        , 3           , 15          , 0           , -0.000193722779
-0.148893088, 0.132918209 , -9.800624   , 0.0009432349, -0.0006443656, -0.000205069, -0.0133353993, -0.01603525 , 0.000108967579, 921.1026    , 32.38171    , 796.859131  , 3.16        , 3           , 16          , 0           , 1.401298E-45
-0.164245933, 0.139876321 , -9.784072   , 0.000117785239, -0.0009827116, -0.0006875392, -0.0133341132, -0.0160451662, 0.000102223123, 921.1026    , 32.38171    , 796.858765  , 3.17        , 3           , 20          , 0           , 0
-0.1533122  , 0.1320393   , -9.791306   , 9.711023E-05, -0.000206517579, -0.000339648861, -0.0133330878, -0.0160472766, 9.885413E-05, 921.1026    , 32.38171    , 796.8584    , 3.18        , 3           , 21          , 0           , 0
-0.1484327  , 0.133261919 , -9.787246   , -6.179861E-05, 0.000190554361, 0.0005339559, -0.0133337919, -0.0160453  , 0.000104168357, 921.1026    , 32.38171    , 796.858032  , 3.19        , 3           , 22          , 0           , 0
-0.1485056  , 0.131269917 , -9.794535   , -0.000101600075, 5.30363177E-05, 8.767079E-05, -0.0133348219, -0.0160447583, 0.000105038016, 921.1026    , 32.38171    , 796.857666  , 3.2         , 3           , 40          , 0           , 0
-0.151350409, 0.140430838 , -9.785775   , -7.692067E-05, -0.0003090995, 0.0004990297, -0.013341222, -0.0160431769, 0.000110158646, 921.1026    , 32.38171    , 796.8958    , 3.21        , 3           , 41          , 0           , 0
-0.154417232, 0.1373755   , -9.801289   , -8.041662E-05, -0.000247086, 5.46185038E-05, -0.013342035, -0.0160456412, 0.0001107378, 921.1026    , 32.38171    , 796.8957    , 3.22        , 3           , 42          , 0           , 0
-0.1507726  , 0.136642143 , -9.778259   , 0.000395062933, 0.0002272405, -0.000372427516, -0.0133380257, -0.0160434153, 0.000106983156, 921.0982    , 32.3837433  , 796.895569  , 3.23        , 3           , 255         , 0           , 0
-0.153979629, 0.131389454 , -9.783186   , 0.000421537552, 1.0211661E-05, 7.066496E-05, -0.0133338207, -0.0160433035, 0.000107688458, 921.0982    , 32.3837433  , 796.895447  , 3.24        , 3           , 255         , 0           , 0
-0.153012276, 0.136605635 , -9.79702    , 7.278402E-05, 0.000316871156, 0.000384582265, -0.0133331539, -0.0160400849, 0.000111492096, 921.0982    , 32.3837433  , 796.8953    , 3.25        , 3           , 255         , 0           , 0
-0.1582212  , 0.137443274 , -9.791097   , -0.00024368515, -0.0003400427, -0.000679020945, -0.0133354831, -0.0160435773, 0.000104747116, 921.0982    , 32.3837433  , 796.8952    , 3.26        , 3           , 255         , 0           , 0
-0.156620815, 0.132017642 , -9.791297   , 0.000362365448, -1.34854345E-05, -0.000114921058, -0.01333184 , -0.0160437282, 0.000103599705, 921.0982    , 32.3837433  , 796.8951    , 3.27        , 3           , 255         , 0           , 0
-0.159404665, 0.13184157  , -9.797107   , -5.16289729E-05, -0.000511867634, -0.000229048121, -0.0133323194, -0.0160488766, 0.000101377424, 921.0982    , 32.3837433  , 796.894958  , 3.28        , 3           , 255         , 0           , 0
-0.158598021, 0.129885    , -9.794456   , 6.649882E-05, -4.35528345E-05, -9.002398E-05, -0.01333164 , -0.0160493236, 0.000100482968, 921.0982    , 32.3837433  , 796.894836  , 3.29        , 3           , 255         , 0           , 0
-0.153134137, 0.133681267 , -9.794184   , 0.0004234395, -0.000162652985, -0.000143799887, -0.0133273844, -0.0160509683, 9.906664E-05, 921.0982    , 32.3837433  , 796.8947    , 3.3         , 3           , 255         , 0           , 0
-0.152947947, 0.135334849 , -9.793772   , -0.000301610155, -0.000235776941, -0.0005576566, -0.0133377062, -0.016049603, 9.36401E-05 , 921.0982    , 32.3837433  , 796.93396   , 3.31        , 3           , 255         , 0           , 0
-0.155602053, 0.132300377 , -9.792693   , 0.0001767347, -0.000144674152, 0.000779964554, -0.0133360634, -0.016050946, 0.000101459154, 921.0982    , 32.3837433  , 796.9341    , 3.32        , 3           , 255         , 0           , 0
-0.149393529, 0.127159134 , -9.793518   , -0.000501676754, -0.000224999443, 0.0002132106, -0.013341113, -0.0160531625, 0.000103621293, 921.1696    , 32.38144    , 796.9342    , 3.33        , 3           , 255         , 0           , 0
-0.155453458, 0.1327863   , -9.7851305  , -0.00036622578, -0.000460562471, -0.000614565, -0.0133446762, -0.0160578489, 9.753699E-05, 921.1696    , 32.38144    , 796.9343    , 3.34        , 3           , 255         , 0           , 0
-0.151640609, 0.131986231 , -9.791849   , 0.000680794241, -0.000421842968, -0.000349829381, -0.0133378152, -0.0160621163, 9.409494E-05, 921.1696    , 32.38144    , 796.9345    , 3.35        , 3           , 255         , 0           , 0
-0.143581629, 0.12694934  , -9.788499   , 0.000306365022, -0.000101940881, 0.000265120674, -0.013334794, -0.0160631  , 9.675978E-05, 921.1696    , 32.38144    , 796.9347    , 3.36        , 3           , 255         , 0           , 0
-0.156386808, 0.1305354   , -9.802172   , -0.000151615764, -0.000101134123, 0.0007452251, -0.01333643 , -0.01606401 , 0.000104225634, 921.1696    , 32.38144    , 796.9349    , 3.37        , 3           , 255         , 0           , 0
-0.157292873, 0.132669836 , -9.792354   , -0.00030093122, -0.000453949615, 0.00036974746, -0.013339499, -0.0160685  , 0.0001079837, 921.1696    , 32.38144    , 796.935059  , 3.38        , 3           , 255         , 0           , 0
-0.161388755, 0.142893583 , -9.785707   , 3.8684113E-05, 0.000191323925, 0.000123933583, -0.013339133, -0.01606657 , 0.000109197535, 921.1696    , 32.38144    , 796.935242  , 3.39        , 3           , 255         , 0           , 0
-0.153170854, 0.136712044 , -9.785945   , 0.000420693978, -0.00036819448, 0.000140053831, -0.0133349486, -0.01607023 , 0.000110647205, 921.1696    , 32.38144    , 796.9354    , 3.4         , 3           , 255         , 0           , 0
-0.1514704  , 0.135288626 , -9.797621   , 0.000427450519, -0.000348948583, 0.000506642566, -0.0133348564, -0.01606727 , 0.0001158261, 921.1696    , 32.38144    , 796.8676    , 3.41        , 3           , 255         , 0           , 0
-0.148925349, 0.135146171 , -9.790716   , 0.000109491812, -0.000106525316, 0.000442768942, -0.0133338319, -0.016068276, 0.000120268058, 921.1696    , 32.38144    , 796.8674    , 3.42        , 3           , 255         , 0           , 0
-0.15259403 , 0.130394667 , -9.786795   , 0.0003622825, 9.429891E-05, 0.0008379229, -0.0133303441, -0.0160672255, 0.000128634842, 921.160339  , 32.3830643  , 796.8671    , 3.43        , 3           , 255         , 0           , 0
-0.157342583, 0.134968564 , -9.789506   , -0.0003072151, 3.47687746E-05, -0.000384686835, -0.0133333532, -0.0160669256, 0.00012478327, 921.160339  , 32.3830643  , 796.8669    , 3.44        , 3           , 255         , 0           , 0
-0.154972762, 0.1362052   , -9.793114   , -0.000129605585, -0.000189921877, -8.699359E-05, -0.0133346356, -0.0160688367, 0.000123938647, 921.160339  , 32.3830643  , 796.866638  , 3.45        , 3           , 255         , 0           , 0
-0.159862846, 0.134232432 , -9.794054   , 0.000691066147, -1.8431514E-05, -0.00013988014, -0.0133277029, -0.01606904 , 0.000122542275, 921.160339  , 32.3830643  , 796.8664    , 3.46        , 3           , 255         , 0           , 0
-0.157256529, 0.125665754 , -9.79391    , 1.73134613E-05, 0.0001163297, 2.551952E-05, -0.0133275334, -0.0160678737, 0.000122781974, 921.160339  , 32.3830643  , 796.86615   , 3.47        , 3           , 255         , 0           , 0
-0.157211334, 0.138256475 , -9.788478   , 0.000171569234, 0.00045021507, -0.000208623853, -0.0133257834, -0.0160634  , 0.000120635719, 921.160339  , 32.3830643  , 796.8659    , 3.48        , 3           , 255         , 0           , 0
-0.160973564, 0.13991569  , -9.7836895  , -0.0008181277, -0.000439415744, -0.000272064237, -0.0133339223, -0.016067829, 0.0001179736, 921.160339  , 32.3830643  , 796.865662  , 3.49        , 3           , 255         , 0           , 0
-0.1517854  , 0.134323865 , -9.789856   , -0.000594812038, -1.8059276E-05, 0.000123296064, -0.0133398892, -0.0160679948, 0.000119209 , 921.160339  , 32.3830643  , 796.8654    , 3.5         , 3           , 255         , 0           , 0
-0.15127115 , 0.12643297  , -9.793739   , 9.07196663E-05, -0.000211293, -0.00049131026, -0.0133458748, -0.0160663873, 0.000114436007, 921.160339  , 32.3830643  , 796.8209    , 3.51        , 3           , 255         , 0           , 0
-0.157040283, 0.13993907  , -9.801723   , 0.000133889087, 4.056713E-05, 0.000151234446, -0.01334456 , -0.0160659626, 0.000115942952, 921.160339  , 32.3830643  , 796.8204    , 3.52        , 3           , 255         , 0           , 0
-0.1574485  , 0.136641055 , -9.771887   , -0.000269815442, -0.000500643044, 0.0003849035, -0.01334732 , -0.0160709154, 0.000119858865, 921.1187    , 32.38456    , 796.8198    , 3.53        , 3           , 255         , 0           , 0
-0.159260154, 0.132760882 , -9.783579   , 0.000136014365, -0.0005262672, 0.000645610038, -0.0133460658, -0.0160760935, 0.000126385319, 921.1187    , 32.38456    , 796.8193    , 3.54        , 3           , 255         , 0           , 0
-0.158287555, 0.147188514 , -9.793696   , 0.0005218683, 0.000103725237, -0.000131398192, -0.0133408261, -0.0160750728, 0.000125057486, 921.1187    , 32.38456    , 796.8187    , 3.55        , 3           , 255         , 0           , 0
-0.155863762, 0.140458256 , -9.791877   , 0.000488010526, -0.000160680735, 0.000360913 , -0.0133360038, -0.0160766318, 0.0001286881, 921.1187    , 32.38456    , 796.8182    , 3.56        , 3           , 255         , 0           , 0
-0.166728333, 0.139827088 , -9.78821    , 0.000266835734, -0.0002684506, 0.000416702853, -0.0133334035, -0.01607926 , 0.000132890986, 921.1187    , 32.38456    , 796.8176    , 3.57        , 3           , 255         , 0           , 0
-0.15744333 , 0.140865237 , -9.791649   , 0.0001989897, 0.00028282695, -0.0002972093, -0.0133313648, -0.0160764717, 0.00012988114, 921.1187    , 32.38456    , 796.817139  , 3.58        , 3           , 255         , 0           , 0
-0.1505213  , 0.141828865 , -9.796031   , 0.0009950093, 6.83494145E-05, -0.000661322, -0.0133213094, -0.0160758737, 0.0001232587, 921.1187    , 32.38456    , 796.81665   , 3.59        , 3           , 255         , 0           , 0
-0.158974975, 0.1347175   , -9.803252   , 0.000339221238, 0.0002457212, -0.0005819904, -0.0133178243, -0.0160734989, 0.000117405973, 921.1187    , 32.38456    , 796.816162  , 3.6         , 3           , 255         , 0           , 0
-0.155721217, 0.128872    , -9.788854   , 0.000330234878, -0.000371996837, -0.000516880071, -0.0133267008, -0.016077036, 0.000112483758, 921.1187    , 32.38456    , 796.8377    , 3.61        , 3           , 255         , 0           , 0
-0.151169509, 0.128095224 , -9.797452   , 0.000269091979, -0.000125137565, -0.0004949512, -0.0133239292, -0.0160783511, 0.000107550841, 921.1187    , 32.38456    , 796.837341  , 3.62        , 3           , 255         , 0           , 0
-0.149522185, 0.127882361 , -9.792791   , -6.63736137E-06, 0.000289709424, 0.000628843845, -0.0133240968, -0.01607537 , 0.000113800772, 921.1087    , 32.3819122  , 796.837     , 3.63        , 3           , 255         , 0           , 0
-0.154995471, 0.12130712  , -9.797363   , -0.000156030816, 0.000420781318, -0.000144454476, -0.0133256325, -0.0160711836, 0.00011230012, 921.1087    , 32.3819122  , 796.8366    , 3.64        , 3           , 255         , 0           , 0
-0.150062859, 0.124374151 , -9.786536   , 0.000510606566, -0.000100251287, -0.000418485142, -0.01332046 , -0.01607224 , 0.000108128574, 921.1087    , 32.3819122  , 796.836243  , 3.65        , 3           , 255         , 0           , 0
-0.149139   , 0.129784137 , -9.795372   , -0.0002930789, 0.000307902345, -2.66886345E-05, -0.0133233871, -0.0160691645, 0.00010782067, 921.1087    , 32.3819122  , 796.8359    , 3.66        , 3           , 255         , 0           , 0
-0.148513526, 0.131242156 , -9.790224   , -1.43103534E-06, -0.000371655275, -0.000477865338, -0.0133233257, -0.0160729457, 0.000103091465, 921.1087    , 32.3819122  , 796.8355    , 3.67        , 3           , 255         , 0           , 0
-0.145782471, 0.129093081 , -9.78362    , 0.0006165665, -0.0003385002, -0.00059680955, -0.0133170653, -0.01607641 , 9.716837E-05, 921.1087    , 32.3819122  , 796.835144  , 3.68        , 3           , 255         , 0           , 0
-0.154218078, 0.135248646 , -9.788752   , 7.547572E-05, 0.000226196891, -0.000124367158, -0.01331629 , -0.0160741657, 9.589455E-05, 921.1087    , 32.3819122  , 796.8348    , 3.69        , 3           , 255         , 0           , 0
-0.1511677  , 0.1471573   , -9.793417   , 0.000676445663, -0.0002459649, -0.000114860857, -0.0133095086, -0.0160766412, 9.47786757E-05, 921.1087    , 32.3819122  , 796.8344    , 3.7         , 3           , 255         , 0           , 0
-0.147061735, 0.134488255 , -9.803933   , 0.000449971558, -5.466945E-05, -0.0004710848, -0.0133046843, -0.0160666164, 9.00710438E-05, 921.1087    , 32.3819122  , 796.8677    , 3.71        , 3           , 255         , 0           , 0
-0.155115366, 0.141306877 , -9.797284   , -0.000139310083, 9.241159E-05, -0.000336804835, -0.0133060236, -0.0160657372, 8.669065E-05, 921.1087    , 32.3819122  , 796.867554  , 3.72        , 3           , 255         , 0           , 0
-0.16551736 , 0.136035413 , -9.787755   , -9.399897E-06, 2.59168446E-05, 0.00017363533, -0.0133061456, -0.016065456, 8.84235851E-05, 921.1109    , 32.3808937  , 796.867432  , 3.73        , 3           , 255         , 0           , 0
-0.15732792 , 0.129679084 , -9.784481   , 0.000371819944, 0.000224370742, -0.0004344721, -0.0133023569, -0.01606327 , 8.40489447E-05, 921.1109    , 32.3808937  , 796.8673    , 3.74        , 3           , 255         , 0           , 0
-0.158044547, 0.133737847 , -9.787946   , 0.000358815218, 0.000110536 , 0.000209603037, -0.0132988039, -0.01606214 , 8.61303051E-05, 921.1109    , 32.3808937  , 796.8672    , 3.75        , 3           , 255         , 0           , 0
-0.152401954, 0.133991569 , -9.791193   , 0.0003049107, -0.0002750944, 0.000175394132, -0.0132957827, -0.0160648637, 8.792086E-05, 921.1109    , 32.3808937  , 796.867065  , 3.76        , 3           , 255         , 0           , 0
-0.157729939, 0.127886444 , -9.789518   , 5.04208147E-05, -0.000647322042, 0.000237453758, -0.0132953171, -0.0160713065, 9.038151E-05, 921.1109    , 32.3808937  , 796.866943  , 3.77        , 3           , 255         , 0           , 0
-0.15315862 , 0.127947509 , -9.790033   , -0.0002852531, -0.000173228676, 0.000182566073, -0.0132982  , -0.01607301 , 9.223022E-05, 921.1109    , 32.3808937  , 796.8668    , 3.78        , 3           , 255         , 0           , 0
-0.1512787  , 0.129653886 , -9.79624    , -0.00016554544, 0.000202560448, 0.00069805095, -0.0132999672, -0.0160708912, 9.91839E-05 , 921.1109    , 32.3808937  , 796.8667    , 3.79        , 3           , 255         , 0           , 0
-0.154245466, 0.126098573 , -9.786373   , 5.357375E-06, -0.0003824964, 0.000118837124, -0.0132999327, -0.0160747021, 0.000100423153, 921.1109    , 32.3808937  , 796.8666    , 3.8         , 3           , 255         , 0           , 0
-0.159621984, 0.132730871 , -9.787089   , -0.000175709138, -0.000238831446, -0.000863471942, -0.01330456 , -0.0160737559, 9.186845E-05, 921.1109    , 32.3808937  , 796.892334  , 3.81        , 3           , 255         , 0           , 0
-0.163136914, 0.130775675 , -9.795706   , 0.000120995915, 6.75521442E-05, -0.00119851553, -0.0133031588, -0.0160732418, 7.987411E-05, 921.1109    , 32.3808937  , 796.8924    , 3.82        , 3           , 255         , 0           , 0
-0.141041   , 0.134853452 , -9.78951    , 0.00029022136, -0.000316626334, 0.00017127904, -0.0133002847, -0.01607638 , 8.162904E-05, 921.120361  , 32.38456    , 796.892456  , 3.83        , 3           , 255         , 0           , 0
-0.154771224, 0.14310126  , -9.7931     , 0.000144330552, -0.000470523781, -0.000201703282, -0.0132988095, -0.0160811115, 7.967456E-05, 921.120361  , 32.38456    , 796.8925    , 3.84        , 3           , 255         , 0           , 0
-0.156076089, 0.140931919 , -9.787453   , -0.00018042163, 0.000274987426, -0.000293281279, -0.013300566, -0.0160784014, 7.67051242E-05, 921.120361  , 32.38456    , 796.8926    , 3.85        , 3           , 255         , 0           , 0
-0.15258427 , 0.141401976 , -9.788464   , -0.000381490448, 0.000328823342, -0.000147205108, -0.0133043565, -0.0160751324, 7.51893E-05 , 921.120361  , 32.38456    , 796.892639  , 3.86        , 3           , 255         , 0           , 0
-0.155334383, 0.138593018 , -9.788593   , 0.000208379119, -6.66157575E-06, 0.0001476043, -0.0133022964, -0.016075179, 7.66662561E-05, 921.120361  , 32.38456    , 796.8927    , 3.87        , 3           , 255         , 0           , 0
-0.1540294  , 0.1274266   , -9.781447   , 0.000268709031, 0.000198381662, -0.000571992365, -0.0132995192, -0.01607327 , 7.091985E-05, 921.120361  , 32.38456    , 796.892761  , 3.88        , 3           , 255         , 0           , 0
-0.14922078 , 0.1233084   , -9.791966   , 0.00030764754, -0.000293273653, 0.0005688948, -0.0132965334, -0.0160761271, 7.664789E-05, 921.120361  , 32.38456    , 796.8928    , 3.89        , 3           , 255         , 0           , 0
-0.151255757, 0.129631564 , -9.794475   , 0.000195117434, 4.67069331E-05, 0.000255995372, -0.0132946232, -0.016075626, 7.920167E-05, 921.120361  , 32.38456    , 796.8929    , 3.9         , 3           , 255         , 0           , 0
-0.1545648  , 0.124781944 , -9.787954   , 0.000172471919, 5.34969149E-06, 0.000370765134, -0.0133004291, -0.01606866 , 8.30287245E-05, 921.120361  , 32.38456    , 796.9016    , 3.91        , 3           , 255         , 0           , 0
-0.150191262, 0.121604048 , -9.786318   , 0.0007414778, -0.0002987443, 7.94451553E-05, -0.0132930269, -0.0160716344, 8.386291E-05, 921.120361  , 32.38456    , 796.901733  , 3.92        , 3           , 255         , 0           , 0
-0.159839123, 0.133596286 , -9.792086   , 0.000107089 , -9.491248E-05, -0.000200193535, -0.0132919252, -0.0160726123, 8.187357E-05, 921.089661  , 32.3840141  , 796.901855  , 3.93        , 3           , 255         , 0           , 0
-0.150774762, 0.134074733 , -9.794634   , 0.000142881239, -8.023606E-05, 0.000260639063, -0.0132905385, -0.01607338 , 8.449065E-05, 921.089661  , 32.3840141  , 796.902     , 3.94        , 3           , 255         , 0           , 0
-0.159451649, 0.136850685 , -9.792674   , -0.000188268954, -5.68590476E-05, -0.000426462037, -0.0132923508, -0.0160740037, 8.023352E-05, 921.089661  , 32.3840141  , 796.9021    , 3.95        , 3           , 255         , 0           , 0
-0.157716721, 0.130136773 , -9.798843   , -0.000240330584, -3.74899246E-05, -0.000343235384, -0.0132947  , -0.0160744246, 7.68061E-05 , 921.089661  , 32.3840141  , 796.9022    , 3.96        , 3           , 255         , 0           , 0
-0.147125155, 0.1377144   , -9.791421   , -4.46797931E-05, -0.000114529743, -0.000781534065, -0.0132950209, -0.0160756744, 6.9005866E-05, 921.089661  , 32.3840141  , 796.902344  , 3.97        , 3           , 255         , 0           , 0
-0.1494919  , 0.133557975 , -9.787076   , 2.0622625E-05, 1.93528831E-05, -1.49272091E-06, -0.0132948151, -0.01607548 , 6.898836E-05, 921.089661  , 32.3840141  , 796.902466  , 3.98        , 3           , 255         , 0           , 0
-0.156691581, 0.126366019 , -9.790826   , 0.000156545662, -0.000271192635, 0.000518133631, -0.0132933324, -0.0160781238, 7.420584E-05, 921.089661  , 32.3840141  , 796.9026    , 3.99        , 3           , 255         , 0           , 0
-0.155078009, 0.134861872 , -9.790794   , 0.000645924942, 6.669451E-05, -1.44416554E-05, -0.0132868718, -0.016077457, 7.405255E-05, 921.089661  , 32.3840141  , 796.9027    , 4           , 3           , 0           , 9.501237    , 400
-0.156814665, 0.136634886 , -9.786196   , -0.000448529783, 0.0001597167, -0.000194695182, -0.0132932682, -0.0160705447, 7.211555E-05, 921.089661  , 32.3840141  , 796.9534    , 4.01        , 3           , 1           , 0           , 0
-0.15409933 , 0.127287477 , -9.794733   , -0.0005922232, -0.000222733652, 2.65151029E-05, -0.0132991951, -0.0160727669, 7.24103156E-05, 921.089661  , 32.3840141  , 796.953857  , 4.02        , 3           , 2           , 0           , 0
-0.153994367, 0.1274682   , -9.774777   , 6.39255159E-05, -0.0002217106, 0.000362508174, -0.013298613, -0.016074935, 7.606493E-05, 921.140259  , 32.3837433  , 796.9543    , 4.03        , 3           , 3           , 0           , 0
-0.149602324, 0.134281561 , -9.786497   , -0.0005797826, 9.21697938E-05, 0.000136255228, -0.0133044329, -0.0160739943, 7.74152359E-05, 921.140259  , 32.3837433  , 796.9547    , 4.04        , 3           , 4           , 0           , 0
-0.159313411, 0.130452126 , -9.790495   , 0.0002143358, -0.000306105532, 0.000146192673, -0.0133023132, -0.016077036, 7.891792E-05, 921.140259  , 32.3837433  , 796.955139  , 4.05        , 3           , 5           , 0           , 0
-0.149469569, 0.142266467 , -9.791573   , 0.0008755913, -7.053546E-05, -7.775045E-06, -0.0132935559, -0.016077742, 7.884955E-05, 921.140259  , 32.3837433  , 796.955566  , 4.06        , 3           , 6           , 0           , 0
-0.156662658, 0.1346998   , -9.785197   , 0.00103704468, -0.000271127035, -5.96430473E-05, -0.0132831782, -0.01608046 , 7.828913E-05, 921.140259  , 32.3837433  , 796.956     , 4.07        , 3           , 7           , 0           , 0
-0.164382249, 0.13137421  , -9.780521   , 8.236535E-05, -0.000365528918, 0.0004267895, -0.0132824238, -0.0160840563, 8.260565E-05, 921.140259  , 32.3837433  , 796.9564    , 4.08        , 3           , 8           , 5           , 5
-0.155230254, 0.1265247   , -9.786148   , 0.000436245 , 3.34798242E-05, 0.000197747926, -0.0132780923, -0.016083695, 8.457872E-05, 921.140259  , 32.3837433  , 796.956848  , 4.09        , 3           , 9           , 5           , 0.1
-0.149912372, 0.127510265 , -9.792791   , 0.000358564663, -6.85029663E-05, 0.000108157692, -0.0132745244, -0.0160843655, 8.5669395E-05, 921.140259  , 32.3837433  , 796.9573    , 4.1         , 3           , 10          , 0.1         , 0.1
-0.151789755, 0.13813664  , -9.790962   , 0.000589831267, -0.000125881, 0.000776018365, -0.0132726459, -0.0160798151, 9.350903E-05, 921.140259  , 32.3837433  , 796.928467  , 4.11        , 3           , 11          , 0.00648148544, 0.00648148265
-0.143339142, 0.135886073 , -9.786604   , 0.000366219261, -0.000389140041, -0.000406837265, -0.01326892 , -0.0160837583, 8.949224E-05, 921.140259  , 32.3837433  , 796.9287    , 4.12        , 3           , 12          , 0.174648076 , 0
-0.162321761, 0.132695124 , -9.78894    , -2.00140057E-05, -0.0003662813, -0.000112426933, -0.0132691031, -0.016087437, 8.841655E-05, 921.149     , 32.3818436  , 796.928955  , 4.13        , 3           , 13          , 0           , 0
-0.160926983, 0.128125    , -9.789456   , -0.000412752037, -0.000147104554, 0.000439220021, -0.0132733006, -0.0160888489, 9.282835E-05, 921.149     , 32.3818436  , 796.9292    , 4.14        , 3           , 14          , -0.0007842394, -0.000864088943
-0.150372237, 0.129475236 , -9.790502   , 0.000108435052, 8.817541E-05, 0.000158918585, -0.0132722426, -0.0160879456, 9.44058556E-05, 921.149     , 32.3818436  , 796.929443  , 4.15        , 3           , 15          , 0           , -0.000193732791
-0.15205428 , 0.135782927 , -9.785579   , 0.0005645281, -7.1843795E-05, 6.342419E-05, -0.0132666081, -0.0160886552, 9.504964E-05, 921.149     , 32.3818436  , 796.9297    , 4.16        , 3           , 16          , 0           , 1.401298E-45
-0.157127067, 0.133172959 , -9.792873   , -0.000198259018, -0.0002846822, -0.000225185417, -0.0132685555, -0.0160915311, 9.28355148E-05, 921.149     , 32.3818436  , 796.929932  , 4.17        , 3           , 20          , 0           , 0
-0.147981569, 0.137194544 , -9.79207    , 3.42907151E-06, -0.000174310931, 0.000378424127, -0.0132685816, -0.0160932224, 9.664295E-05, 921.149     , 32.3818436  , 796.9302    , 4.18        , 3           , 21          , 0           , 0
-0.154957458, 0.128364474 , -9.803331   , 0.000447185885, 0.000512712868, 0.000224466334, -0.0132641466, -0.0160880666, 9.881964E-05, 921.149     , 32.3818436  , 796.9304    , 4.19        , 3           , 22          , 0           , 0
-0.159963086, 0.1311568   , -9.790009   , 6.027572E-05, 6.17941259E-05, 0.000149581392, -0.0132635683, -0.0160874315, 0.000100307283, 921.149     , 32.3818436  , 796.930664  , 4.2         , 3           , 40          , 0           , 0
-0.1531273  , 0.1312785   , -9.791828   , -0.000260171422, -0.000106015417, -4.05139581E-05, -0.01327096 , -0.0160830244, 9.999336E-05, 921.149     , 32.3818436  , 796.8932    , 4.21        , 3           , 41          , 0           , 0
-0.155090421, 0.122683719 , -9.79793549 , -0.000207959034, -0.000316329242, 0.0005987286, -0.0132731367, -0.016086109, 0.00010602273, 921.149     , 32.3818436  , 796.89325   , 4.22        , 3           , 42          , 0           , 0
-0.153435022, 0.123634495 , -9.7898     , 5.63287758E-05, -0.00019727269, 0.00064420735, -0.0132726775, -0.0160879958, 0.0001124911, 921.1316    , 32.38225    , 796.8933    , 4.23        , 3           , 255         , 0           , 0
-0.154273823, 0.131421    , -9.789411   , 0.000375728152, -0.0003910127, 0.0003561774, -0.0132689793, -0.0160918571, 0.000116104828, 921.1316    , 32.38225    , 796.8934    , 4.24        , 3           , 255         , 0           , 0
-0.152961344, 0.129811957 , -9.79263    , 0.0001733129, -1.04786013E-05, -0.000200197057, -0.0132672144, -0.0160919875, 0.0001141042, 921.1316    , 32.38225    , 796.893433  , 4.25        , 3           , 255         , 0           , 0
-0.139839679, 0.1340827   , -9.784906   , -4.520634E-05, -3.28971073E-05, 0.000698323245, -0.0132677779, -0.016092224, 0.000121091922, 921.1316    , 32.38225    , 796.8935    , 4.26        , 3           , 255         , 0           , 0
-0.150011569, 0.1275579   , -9.780268   , 0.000230452686, -0.000139661075, -0.000154685709, -0.0132654486, -0.01609364 , 0.000119563563, 921.1316    , 32.38225    , 796.893555  , 4.27        , 3           , 255         , 0           , 0
-0.161253422, 0.13660644  , -9.792224   , 0.000352369156, -8.613616E-05, -0.0004651412, -0.0132618519, -0.0160945635, 0.000114923518, 921.1316    , 32.38225    , 796.8936    , 4.28        , 3           , 255         , 0           , 0
-0.1606726  , 0.138572544 , -9.79001    , 0.000381304446, -0.00033208594, -0.000217661829, -0.0132580036, -0.01609791 , 0.000112790884, 921.1316    , 32.38225    , 796.8937    , 4.29        , 3           , 255         , 0           , 0
-0.157335371, 0.130484462 , -9.78736    , -2.82722758E-05, -0.000507917546, -0.00107816863, -0.0132581145, -0.0161031336, 0.000102076352, 921.1316    , 32.38225    , 796.893738  , 4.3         , 3           , 255         , 0           , 0
-0.150799826, 0.133432552 , -9.789843   , -0.000469832623, -0.000399926736, -0.000111370377, -0.0132640516, -0.01610056 , 0.000101035876, 921.1316    , 32.38225    , 796.886047  , 4.31        , 3           , 255         , 0           , 0
-0.154165983, 0.137853131 , -9.789786   , -3.31998453E-05, 5.472731E-05, -0.000345143955, -0.0132643273, -0.0161000583, 9.757711E-05, 921.1316    , 32.38225    , 796.886047  , 4.32        , 3           , 255         , 0           , 0
-0.160816   , 0.138862565 , -9.795343   , 0.000732372457, 0.000197487359, -0.00130214554, -0.0132567929, -0.0160982553, 8.45292452E-05, 921.132446  , 32.38225    , 796.886047  , 4.33        , 3           , 255         , 0           , 0
-0.158087969, 0.135508329 , -9.790173   , 0.00016536261, -0.0003038018, -0.0008521819, -0.0132550029, -0.0161014069, 7.604755E-05, 921.132446  , 32.38225    , 796.886047  , 4.34        , 3           , 255         , 0           , 0
-0.14198938 , 0.1350202   , -9.789656   , -0.000189478043, -8.47326E-05, -0.000408325635, -0.013256833, -0.0161023084, 7.19754462E-05, 921.132446  , 32.38225    , 796.886047  , 4.35        , 3           , 255         , 0           , 0
-0.1460397  , 0.134717584 , -9.788958   , 0.000230525271, -0.0005406709, 0.0004967622, -0.013254608, -0.0161076486, 7.701483E-05, 921.132446  , 32.38225    , 796.886047  , 4.36        , 3           , 255         , 0           , 0
-0.1528563  , 0.14135614  , -9.793257   , 7.317169E-05, -0.0004384226, 5.54801954E-05, -0.0132538872, -0.0161120221, 7.762775E-05, 921.132446  , 32.38225    , 796.886047  , 4.37        , 3           , 255         , 0           , 0
-0.150681123, 0.132977992 , -9.794544   , 0.00020893669, 7.818348E-05, -2.09745776E-05, -0.0132517936, -0.0161112417, 7.740765E-05, 921.132446  , 32.38225    , 796.886047  , 4.38        , 3           , 255         , 0           , 0
-0.159211174, 0.128140241 , -9.787137   , 0.0003905234, -0.000520541857, -0.000323226152, -0.0132478373, -0.0161164925, 7.42442862E-05, 921.132446  , 32.38225    , 796.886047  , 4.39        , 3           , 255         , 0           , 0
-0.158392817, 0.124220058 , -9.787612   , 6.279489E-05, 0.000171135936, 2.610698E-05, -0.0132472133, -0.0161147751, 7.44827E-05 , 921.132446  , 32.38225    , 796.886047  , 4.4         , 3           , 255         , 0           , 0
-0.156740576, 0.125672668 , -9.788207   , 0.00100670161, -0.000455390255, 0.000268180971, -0.0132441763, -0.0161123723, 7.7337434E-05, 921.132446  , 32.38225    , 796.8787    , 4.41        , 3           , 255         , 0           , 0
-0.151258513, 0.128001437 , -9.788347   , 0.000899155159, 9.340921E-05, 0.00081567443, -0.0132353175, -0.0161113329, 8.548197E-05, 921.132446  , 32.38225    , 796.8787    , 4.42        , 3           , 255         , 0           , 0
-0.151423991, 0.132719189 , -9.786795   , 0.0006582317, 0.000485434779, 0.000125836581, -0.0132287554, -0.0161064677, 8.667614E-05, 921.0879    , 32.3843536  , 796.8787    , 4.43        , 3           , 255         , 0           , 0
-0.150150314, 0.126092181 , -9.799074   , 0.000259651337, -0.000523454451, -0.000270965043, -0.013226117, -0.0161117334, 8.403567E-05, 921.0879    , 32.3843536  , 796.8787    , 4.44        , 3           , 255         , 0           , 0
-0.154782265, 0.127319887 , -9.79278    , -0.000305871479, -0.000330565439, -1.89712446E-05, -0.0132291717, -0.01611504 , 8.3889674E-05, 921.0879    , 32.3843536  , 796.8787    , 4.45        , 3           , 255         , 0           , 0
-0.16884093 , 0.131883144 , -9.794519   , -1.75317982E-05, -0.000124862127, 0.0005038064, -0.0132294279, -0.0161162224, 8.894434E-05, 921.0879    , 32.3843536  , 796.8787    , 4.46        , 3           , 255         , 0           , 0
-0.159692436, 0.125165164 , -9.786825   , 0.0005800134, -0.000236216292, 0.00039414037, -0.0132236928, -0.01611853 , 9.291707E-05, 921.0879    , 32.3843536  , 796.8787    , 4.47        , 3           , 255         , 0           , 0
-0.1683484  , 0.129292935 , -9.791218   , 0.0007319873, 2.30753212E-05, -6.31696E-05, -0.0132163642, -0.0161183067, 9.22823237E-05, 921.0879    , 32.3843536  , 796.8787    , 4.48        , 3           , 255         , 0           , 0
-0.166345969, 0.1279985   , -9.793492   , 0.000276971958, 0.0001678011, -0.000477738533, -0.0132135171, -0.0161166955, 8.74826655E-05, 921.0879    , 32.3843536  , 796.8787    , 4.49        , 3           , 255         , 0           , 0
-0.158700079, 0.14336367  , -9.795821   , 0.000420491968, -2.00692448E-05, -0.000185249053, -0.0132092824, -0.0161169171, 8.563279E-05, 921.0879    , 32.3843536  , 796.8787    , 4.5         , 3           , 255         , 0           , 0
-0.164373279, 0.131900176 , -9.791855   , 0.000358715 , -0.000151894637, -0.0007287139, -0.0132058933, -0.0161197055, 7.837065E-05, 921.0879    , 32.3843536  , 796.935242  , 4.51        , 3           , 255         , 0           , 0
-0.166593641, 0.1280406   , -9.795926   , 0.000255136925, 7.673213E-05, -0.00030503684, -0.013203294, -0.01611898 , 7.53101049E-05, 921.0879    , 32.3843536  , 796.9356    , 4.52        , 3           , 255         , 0           , 0
-0.154034242, 0.13318558  , -9.797471   , 0.00046410982, 4.03504819E-05, 0.000362864026, -0.0131987119, -0.0161185283, 7.893349E-05, 921.0858    , 32.38327    , 796.936     , 4.53        , 3           , 255         , 0           , 0
-0.154326022, 0.138812929 , -9.786681   , 0.0003301826, 0.00024265598, -8.187842E-05, -0.0131953964, -0.0161161162, 7.8082674E-05, 921.0858    , 32.38327    , 796.93634   , 4.54        , 3           , 255         , 0           , 0
-0.151692212, 0.129718348 , -9.783028   , 0.000192874868, 0.000154219451, -6.247236E-05, -0.0131934574, -0.0161145777, 7.743758E-05, 921.0858    , 32.38327    , 796.9367    , 4.55        , 3           , 255         , 0           , 0
-0.152113765, 0.123318538 , -9.789246   , 1.81986252E-06, 0.000384474348, -0.00056920253, -0.0131933475, -0.0161108077, 7.16947252E-05, 921.0858    , 32.38327    , 796.9371    , 4.56        , 3           , 255         , 0           , 0
-0.1618586  , 0.127977416 , -9.790383   , 4.78166039E-05, 3.088091E-05, -0.000331196235, -0.0131928157, -0.0161105432, 6.837863E-05, 921.0858    , 32.38327    , 796.937439  , 4.57        , 3           , 255         , 0           , 0
-0.153225765, 0.12697506  , -9.787284   , 6.994861E-05, 0.0004208248, -0.0005557803, -0.013192025, -0.0161064137, 6.276522E-05, 921.0858    , 32.38327    , 796.9378    , 4.58        , 3           , 255         , 0           , 0
-0.152554587, 0.126769572 , -9.786507   , -8.713687E-07, -0.000331679941, -0.0006218816, -0.0131919337, -0.01610981 , 5.659004E-05, 921.0858    , 32.38327    , 796.9382    , 4.59        , 3           , 255         , 0           , 0
-0.155746967, 0.128118932 , -9.784358   , -0.000177351118, -0.000202034716, 0.000213468214, -0.0131937414, -0.0161118  , 5.87514078E-05, 921.0858    , 32.38327    , 796.938538  , 4.6         , 3           , 255         , 0           , 0
