Acc X       , Acc Y       , Acc Z       , Gyro X      , Gyro Y      , Gyro Z      , Euler X     , Euler Y     , Euler Z     , Pres X      , Pres Y      , Pres Z      , Time        , Status      , LowRate X   , LowRate Y   , LowRate Z    
-0.175100178, 9.790594    , -0.04070825 , -5.67874959E-05, -0.0002641749, -0.000213325111, -1.56696451 , -0.0170908254, 1.63009524  , 920.9997    , 29.349781   , 798.4153    , 1.62        , 7           , 255         , 0           , 0
-0.173429817, 9.80026     , -0.0400606655, -0.0003589054, -0.000193177955, 0.000150129315, -1.5669682  , -0.0170893054, 1.63009715  , 920.9909    , 29.35073    , 798.415039  , 1.63        , 7           , 255         , 0           , 0
-0.166784018, 9.790483    , -0.03773783 , -0.000739311741, -0.000107164262, -2.79886881E-05, -1.56697571 , -0.0170895737, 1.63009822  , 920.9909    , 29.35073    , 798.4148    , 1.64        , 7           , 255         , 0           , 0
-0.160083026, 9.792656    , -0.0335694626, -0.000974049733, 3.92776E-05 , -0.00017576883, -1.56698537 , -0.0170913618, 1.63009775  , 920.9909    , 29.35073    , 798.414551  , 1.65        , 7           , 255         , 0           , 0
-0.16931951 , 9.796305    , -0.03978188 , 0.0002848933, -0.000114373746, 2.59226654E-05, -1.56698251 , -0.0170911532, 1.63009894  , 920.9909    , 29.35073    , 798.4143    , 1.66        , 7           , 255         , 0           , 0
-0.1734713  , 9.804037    , -0.03362379 , -3.62648279E-07, -8.148677E-05, 0.000314958568, -1.56698263 , -0.0170880221, 1.63009977  , 920.9909    , 29.35073    , 798.414063  , 1.67        , 7           , 255         , 0           , 0
-0.168845862, 9.797503    , -0.0359529369, 0.00113084051, -0.000145633123, -0.0002941802, -1.5669713  , -0.0170909446, 1.6301012   , 920.9909    , 29.35073    , 798.4138    , 1.68        , 7           , 255         , 0           , 0
-0.162147641, 9.791874    , -0.0342533961, 0.0007018895, 0.000214895 , -0.000337928243, -1.56696427 , -0.0170942824, 1.63009894  , 920.9909    , 29.35073    , 798.4136    , 1.69        , 7           , 255         , 0           , 0
-0.164002553, 9.79274     , -0.040062733, 6.99903467E-06, 3.01215332E-05, -0.000238343739, -1.56696415 , -0.017096756, 1.63009858  , 920.9909    , 29.35073    , 798.4133    , 1.7         , 7           , 255         , 0           , 0
-0.163539231, 9.789378    , -0.0412042849, -0.0002138679, -0.000216485292, -0.000323211163, -1.56696582 , -0.01710254 , 1.63010061  , 920.9909    , 29.35073    , 798.375549  , 1.71        , 7           , 255         , 0           , 0
-0.168062359, 9.788023    , -0.0439828634, 0.000243667891, -0.000274511462, 0.000177503767, -1.56696332 , -0.0171008687, 1.63010347  , 920.9909    , 29.35073    , 798.375061  , 1.72        , 7           , 255         , 0           , 0
-0.170929864, 9.79807949  , -0.0367269143, -9.836489E-05, 0.000119792414, 0.0008486913, -1.56696427 , -0.0170923453, 1.63010228  , 920.982056  , 29.3503933  , 798.374634  , 1.73        , 7           , 255         , 0           , 0
-0.163694173, 9.794126    , -0.0353782773, -0.000150177671, 0.000172590953, 0.000101577811, -1.56696582 , -0.0170913022, 1.63010061  , 920.982056  , 29.3503933  , 798.3742    , 1.74        , 7           , 255         , 0           , 0
-0.166034549, 9.789587    , -0.0354747176, 0.000145443657, 6.21108338E-05, 0.000417383359, -1.56696439 , -0.017087128, 1.6301      , 920.982056  , 29.3503933  , 798.3738    , 1.75        , 7           , 255         , 0           , 0
-0.157290816, 9.792411    , -0.03950424 , -7.63576245E-05, 5.96838072E-05, 0.000948169967, -1.566965   , -0.0170776211, 1.63009942  , 920.982056  , 29.3503933  , 798.373352  , 1.76        , 7           , 255         , 0           , 0
-0.168704584, 9.794075    , -0.0320212767, 0.000161277392, 0.000108901062, -4.9312046E-05, -1.56696343 , -0.0170781277, 1.63009846  , 920.982056  , 29.3503933  , 798.3729    , 1.77        , 7           , 255         , 0           , 0
-0.161496684, 9.794423    , -0.02612995 , 4.93212428E-05, -0.00038235262, 0.0001606507, -1.566963   , -0.0170765482, 1.63010216  , 920.982056  , 29.3503933  , 798.3725    , 1.78        , 7           , 255         , 0           , 0
-0.1676097  , 9.79159     , -0.033181183, -0.0002684258, 6.438675E-05, -0.000243875082, -1.5669657  , -0.0170789622, 1.63010156  , 920.982056  , 29.3503933  , 798.3721    , 1.79        , 7           , 255         , 0           , 0
-0.173262492, 9.779637    , -0.036090374, 0.0003758542, 0.000138176256, -0.000177183843, -1.566962   , -0.01708072 , 1.63010013  , 920.982056  , 29.3503933  , 798.371643  , 1.8         , 7           , 255         , 0           , 0
-0.168236524, 9.781343    , -0.0403916  , -0.000134113754, 9.46106156E-05, 0.000407185 , -1.56696773 , -0.01707306 , 1.63009942  , 920.982056  , 29.3503933  , 798.3476    , 1.81        , 7           , 255         , 0           , 0
-0.166986391, 9.789553    , -0.0370517671, -0.000347023655, -0.000407885876, -0.00030446786, -1.5669713  , -0.0170761012, 1.63010347  , 920.982056  , 29.3503933  , 798.347046  , 1.82        , 7           , 255         , 0           , 0
-0.1657212  , 9.793327    , -0.028369898, 9.444854E-05, -0.000282590976, -8.291699E-05, -1.56697047 , -0.0170769058, 1.63010621  , 920.9195    , 29.3518848  , 798.3465    , 1.83        , 7           , 255         , 0           , 0
-0.1636357  , 9.801311    , -0.0405661538, 0.000118732452, 0.00018656021, -0.000135276961, -1.56696916 , -0.0170783363, 1.6301043   , 920.9195    , 29.3518848  , 798.345947  , 1.84        , 7           , 255         , 0           , 0
-0.164863452, 9.795123    , -0.0420251936, 7.19514355E-05, 0.000455253874, 0.000466972531, -1.56696832 , -0.0170736257, 1.63009977  , 920.9195    , 29.3518848  , 798.3454    , 1.85        , 7           , 255         , 0           , 0
-0.172037333, 9.796326    , -0.03386633 , 0.000362271181, 5.185511E-05, 0.000480388757, -1.56696475 , -0.0170688871, 1.6300993   , 920.9195    , 29.3518848  , 798.344849  , 1.86        , 7           , 255         , 0           , 0
-0.167752191, 9.795148    , -0.0375770964, 0.0007292143, 8.37543048E-05, 0.000465955527, -1.56695747 , -0.0170642678, 1.63009846  , 920.9195    , 29.3518848  , 798.3443    , 1.87        , 7           , 255         , 0           , 0
-0.161817908, 9.792362    , -0.0361298658, 0.0005268771, 0.000101814861, 9.902805E-05, -1.56695223 , -0.0170632247, 1.63009739  , 920.9195    , 29.3518848  , 798.34375   , 1.88        , 7           , 255         , 0           , 0
-0.1653223  , 9.802977    , -0.0382916145, 0.000138150092, 0.000200086739, 0.000351922936, -1.56695092 , -0.017059736, 1.63009536  , 920.9195    , 29.3518848  , 798.3432    , 1.89        , 7           , 255         , 0           , 0
-0.171834871, 9.795042    , -0.0424352363, 0.000135954673, 3.569643E-05, -8.97388963E-05, -1.56694949 , -0.0170606  , 1.630095    , 920.9195    , 29.3518848  , 798.342651  , 1.9         , 7           , 255         , 0           , 0
-0.163322181, 9.793565    , -0.042905584, -0.000109853296, 0.000112284557, 0.000484472461, -1.56695008 , -0.01705473 , 1.63009393  , 920.9195    , 29.3518848  , 798.3946    , 1.91        , 7           , 255         , 0           , 0
-0.155366153, 9.789076    , -0.0435108468, -0.000657087832, -9.389676E-05, 0.000219055248, -1.56695664 , -0.0170525834, 1.63009489  , 920.9195    , 29.3518848  , 798.394348  , 1.92        , 7           , 255         , 0           , 0
-0.163820416, 9.786355    , -0.0351525173, -0.000230894861, -3.444217E-05, 0.000656068 , -1.566959   , -0.0170460548, 1.63009524  , 920.9291    , 29.3530388  , 798.3941    , 1.93        , 7           , 255         , 0           , 0
-0.173961863, 9.799456    , -0.0298415683, 0.000125915642, -0.00019700086, -0.000864058151, -1.56695783 , -0.01705467 , 1.630097    , 920.9291    , 29.3530388  , 798.39386   , 1.94        , 7           , 255         , 0           , 0
-0.172105759, 9.807933    , -0.029457042, -0.000604397268, -0.000168587139, -0.000561652647, -1.566964   , -0.017060332, 1.63009882  , 920.9291    , 29.3530388  , 798.3936    , 1.95        , 7           , 255         , 0           , 0
-0.167283982, 9.812222    , -0.0331949852, -0.0008884446, -0.000284906069, -0.000290303462, -1.56697285 , -0.0170631651, 1.63010156  , 920.9291    , 29.3530388  , 798.3934    , 1.96        , 7           , 255         , 0           , 0
-0.16803357 , 9.80719     , -0.0365294926, -0.00037772092, -0.00026429072, 0.000362668157, -1.56697667 , -0.0170595273, 1.63010418  , 920.9291    , 29.3530388  , 798.3931    , 1.97        , 7           , 255         , 0           , 0
-0.169285282, 9.797551    , -0.04076416 , -0.000725165068, -0.000204875309, -0.000491863, -1.56698394 , -0.0170644466, 1.63010609  , 920.9291    , 29.3530388  , 798.3929    , 1.98        , 7           , 255         , 0           , 0
-0.167697459, 9.79661751  , -0.0377414152, -0.000393790164, -0.000356628327, -0.000444914971, -1.566988   , -0.0170689765, 1.63010979  , 920.9291    , 29.3530388  , 798.392639  , 1.99        , 7           , 255         , 0           , 0
-0.162868828, 9.79293     , -0.03255855 , -0.000349060982, -0.000476193673, -0.000195011715, -1.56699145 , -0.0170709137, 1.63011444  , 920.9291    , 29.3530388  , 798.3924    , 2           , 7           , 0           , 7.02723646  , 200
-0.173937172, 9.80649     , -0.0336732753, -0.000490463455, -2.73836777E-05, 0.000414514623, -1.56699884 , -0.01706534 , 1.63011479  , 920.9291    , 29.3530388  , 798.42865   , 2.01        , 7           , 1           , 0           , 0
-0.170627862, 9.799231    , -0.0271376073, -0.000403613318, -0.00012626173, -9.629302E-05, -1.56700277 , -0.0170662943, 1.630116    , 920.9291    , 29.3530388  , 798.42865   , 2.02        , 7           , 2           , 0           , 0
-0.158998221, 9.791834    , -0.0309911612, 1.49632979E-05, -0.000206694938, -0.000150106265, -1.56700265 , -0.0170677546, 1.63011813  , 920.959534  , 29.3518848  , 798.42865   , 2.03        , 7           , 3           , 0           , 0
-0.1546393  , 9.79274     , -0.0270425119, -9.873019E-05, 3.32220225E-05, -0.000479478767, -1.56700361 , -0.0170725826, 1.63011777  , 920.959534  , 29.3518848  , 798.42865   , 2.04        , 7           , 4           , 0           , 0
-0.1646464  , 9.79534     , -0.0218279883, -0.0003204304, -0.000245950068, 3.352188E-05, -1.567007   , -0.0170722548, 1.63012028  , 920.959534  , 29.3518848  , 798.42865   , 2.05        , 7           , 5           , 0           , 0
-0.173638061, 9.793986    , -0.0276240222, -0.000364092, -0.00071887963, 0.000787436555, -1.56701076 , -0.0170645062, 1.63012743  , 920.959534  , 29.3518848  , 798.42865   , 2.06        , 7           , 6           , 0           , 0
-0.1725882  , 9.794663    , -0.0389409438, 0.000136256334, 0.000118648051, -0.000183947588, -1.56700933 , -0.0170663241, 1.63012624  , 920.959534  , 29.3518848  , 798.42865   , 2.07        , 7           , 7           , 0           , 0
-0.169387147, 9.799864    , -0.03644837 , -0.0004991876, 0.000165460166, 0.000254224753, -1.56701422 , -0.0170637611, 1.63012469  , 920.959534  , 29.3518848  , 798.42865   , 2.08        , 7           , 8           , 5           , 5
-0.1603248  , 9.801834    , -0.0320262127, -0.000102969265, 1.85705721E-06, -0.000303236331, -1.56701529 , -0.01706683 , 1.63012457  , 920.959534  , 29.3518848  , 798.42865   , 2.09        , 7           , 9           , 5           , 0.1
-0.166350216, 9.789568    , -0.0353438966, -0.000515447, 5.08422963E-05, 0.000302756263, -1.56702042 , -0.01706382 , 1.63012409  , 920.959534  , 29.3518848  , 798.42865   , 2.1         , 7           , 10          , 0.1         , 0.1
-0.163285419, 9.802298    , -0.0415683463, -0.000152182256, -2.266129E-05, 0.00021739176, -1.56703329 , -0.0170602426, 1.63012445  , 920.959534  , 29.3518848  , 798.423767  , 2.11        , 7           , 11          , 0.008246417 , 0.00824642
-0.160924882, 9.793495    , -0.0356094949, -0.000192754349, -8.988776E-06, -3.611311E-05, -1.56703532 , -0.01706057 , 1.63012469  , 920.959534  , 29.3518848  , 798.423767  , 2.12        , 7           , 12          , 0.03464815  , 0
-0.1626831  , 9.792912    , -0.0326147936, -0.000439327065, -0.000232142513, -6.354012E-05, -1.56703961 , -0.0170611963, 1.630127    , 920.9431    , 29.3543949  , 798.423767  , 2.13        , 7           , 13          , 0           , 0
-0.158640116, 9.793183    , -0.036284782, -6.785752E-05, -0.000308311428, -0.000403065758, -1.56704044 , -0.0170652214, 1.63013017  , 920.9431    , 29.3543949  , 798.423767  , 2.14        , 7           , 14          , 0.000162070646, 0.001133068
-0.161926746, 9.803156    , -0.0331714675, 0.000565417 , -0.0001645363, -0.0004955876, -1.56703472 , -0.017070258, 1.63013172  , 920.9431    , 29.3543949  , 798.423767  , 2.15        , 7           , 15          , 0           , 0.0003194778
-0.1698914  , 9.796187    , -0.0380526744, -0.000174142056, 0.0002922539, -0.0009804522, -1.56703639 , -0.0170800053, 1.63012862  , 920.9431    , 29.3543949  , 798.423767  , 2.16        , 7           , 16          , 0           , 1.401298E-45
-0.169158012, 9.784903    , -0.036572855, -0.00037788332, 0.000241838745, 0.0004198773, -1.56704009 , -0.0170758031, 1.63012612  , 920.9431    , 29.3543949  , 798.423767  , 2.17        , 7           , 20          , 0           , 0
-0.166212529, 9.791807    , -0.0394273773, -0.000162458411, 0.000109736575, 0.000362147985, -1.56704175 , -0.0170722846, 1.63012516  , 920.9431    , 29.3543949  , 798.423767  , 2.18        , 7           , 21          , 0           , 0
-0.157625362, 9.795903    , -0.038883   , 0.000133775669, -8.446921E-05, -0.000266083458, -1.56704032 , -0.0170749668, 1.63012588  , 920.9431    , 29.3543949  , 798.423767  , 2.19        , 7           , 22          , 0           , 0
-0.168007016, 9.79072     , -0.0361549072, 0.00100417645, -0.0003305548, -0.0002461551, -1.56703031 , -0.0170773529, 1.6301291   , 920.9431    , 29.3543949  , 798.423767  , 2.2         , 7           , 40          , 0           , 0
-0.173298344, 9.794687    , -0.0329561122, 0.000175727575, 8.59678257E-05, -0.000594489451, -1.56702852 , -0.0170760415, 1.63012815  , 920.9431    , 29.3543949  , 798.440247  , 2.21        , 7           , 41          , 0           , 0
-0.16478157 , 9.790623    , -0.0322240777, -0.000214363623, -0.000147638377, -1.860928E-05, -1.56703055 , -0.01707628 , 1.63012958  , 920.9431    , 29.3543949  , 798.440369  , 2.22        , 7           , 42          , 1           , 0
-0.16288422 , 9.793931    , -0.0310885552, 0.0005831917, 0.000188464182, 0.000110192341, -1.56702471 , -0.0170752052, 1.63012767  , 920.9752    , 29.35236    , 798.4405    , 2.23        , 7           , 255         , 0           , 0
-0.163227081, 9.797376    , -0.0338490978, 0.000945924 , -0.000245787262, 0.000192018546, -1.56701529 , -0.0170732383, 1.63012993  , 920.9752    , 29.35236    , 798.4406    , 2.24        , 7           , 255         , 0           , 0
-0.158664629, 9.791741    , -0.0314009674, -2.61308887E-05, -0.00048726867, 0.0005102885, -1.56701565 , -0.0170682613, 1.63013494  , 920.9752    , 29.35236    , 798.440735  , 2.25        , 7           , 255         , 0           , 0
-0.167200729, 9.794302    , -0.0326934867, 0.000145290964, 0.000119069591, -0.000314518024, -1.5670141  , -0.01707139 , 1.63013375  , 920.9752    , 29.35236    , 798.440857  , 2.26        , 7           , 255         , 0           , 0
-0.176898688, 9.783681    , -0.0250173118, 0.000261530222, -7.130706E-05, -0.000130335422, -1.56701159 , -0.0170726422, 1.63013446  , 920.9752    , 29.35236    , 798.441     , 2.27        , 7           , 255         , 0           , 0
-0.170153543, 9.798812    , -0.0308372378, -0.0005135597, 8.178875E-06, -0.000111265588, -1.5670166  , -0.0170737747, 1.63013434  , 920.9752    , 29.35236    , 798.4411    , 2.28        , 7           , 255         , 0           , 0
-0.170917362, 9.798122    , -0.03917952 , -0.000485999335, 2.044416E-05, -0.0005920554, -1.56702149 , -0.0170797072, 1.63013411  , 920.9752    , 29.35236    , 798.4412    , 2.29        , 7           , 255         , 0           , 0
-0.163680881, 9.792643    , -0.037778303, 0.000102547448, -9.101862E-05, -0.0007784235, -1.56702054 , -0.0170875154, 1.63013494  , 920.9752    , 29.35236    , 798.441345  , 2.3         , 7           , 255         , 0           , 0
-0.166862637, 9.795042    , -0.0311505981, -0.000559813, -7.164152E-05, 0.0001721479, -1.56703544 , -0.0170856677, 1.63013577  , 920.9752    , 29.35236    , 798.4145    , 2.31        , 7           , 255         , 0           , 0
-0.16359961 , 9.788976    , -0.0356121548, -0.0007701308, 0.0002956211, 0.000208390091, -1.56704307 , -0.0170836113, 1.63013279  , 920.9752    , 29.35236    , 798.4144    , 2.32        , 7           , 255         , 0           , 0
-0.170273781, 9.803892    , -0.0334834643, -0.0005735127, 0.0002152978, 0.0003890573, -1.56704879 , -0.0170797072, 1.63013065  , 920.985     , 29.35616    , 798.414368  , 2.33        , 7           , 255         , 0           , 0
-0.1655876  , 9.795887    , -0.0340506472, -0.00022416687, 9.265961E-06, -0.000370414025, -1.567051   , -0.0170835219, 1.63013065  , 920.985     , 29.35616    , 798.4143    , 2.34        , 7           , 255         , 0           , 0
-0.158462018, 9.797835    , -0.03863535 , -7.889494E-05, -0.000240946189, -0.000329194445, -1.56705177 , -0.0170868  , 1.630133    , 920.985     , 29.35616    , 798.414246  , 2.35        , 7           , 255         , 0           , 0
-0.156393051, 9.79594     , -0.029112529, 0.000412140682, 0.000144623336, -0.00019181786, -1.5670476  , -0.01708871 , 1.6301316   , 920.985     , 29.35616    , 798.4142    , 2.36        , 7           , 255         , 0           , 0
-0.1575167  , 9.796577    , -0.03239719 , -0.000346586166, 0.000247490825, -0.0001990992, -1.567051   , -0.0170907062, 1.6301291   , 920.985     , 29.35616    , 798.4141    , 2.37        , 7           , 255         , 0           , 0
-0.169993386, 9.802126    , -0.0331533663, 0.0004778573, 9.349431E-05, 0.000480326271, -1.56704628 , -0.0170857869, 1.63012815  , 920.985     , 29.35616    , 798.414063  , 2.38        , 7           , 255         , 0           , 0
-0.172778085, 9.791511    , -0.03357716 , 8.571328E-05, -8.44226452E-05, 0.000249310076, -1.56704533 , -0.0170832835, 1.63012886  , 920.985     , 29.35616    , 798.414     , 2.39        , 7           , 255         , 0           , 0
-0.1641094  , 9.792702    , -0.0306420922, 0.0003561293, 0.000157050439, -4.59346629E-05, -1.56704175 , -0.01708379 , 1.63012719  , 920.985     , 29.35616    , 798.414     , 2.4         , 7           , 255         , 0           , 0
-0.163620144, 9.780115    , -0.0379344821, -2.410423E-06, -1.3732817E-05, -0.000213135019, -1.56704819 , -0.0170805715, 1.63012743  , 920.985     , 29.35616    , 798.3775    , 2.41        , 7           , 255         , 0           , 0
-0.1658094  , 9.789938    , -0.0345640965, 0.0003979212, -0.000249588164, -0.000550476, -1.56704426 , -0.0170860849, 1.63012993  , 920.985     , 29.35616    , 798.377258  , 2.42        , 7           , 255         , 0           , 0
-0.172498256, 9.799497    , -0.03932135 , -6.04087763E-05, -0.00044792972, -0.000250891142, -1.567045   , -0.01708865 , 1.63013446  , 920.9498    , 29.352766   , 798.377     , 2.43        , 7           , 255         , 0           , 0
-0.170391753, 9.792916    , -0.0380024575, 0.000465424149, -0.000205622579, -8.262962E-05, -1.56704032 , -0.0170894545, 1.63013649  , 920.9498    , 29.352766   , 798.3768    , 2.44        , 7           , 255         , 0           , 0
-0.173170567, 9.784861    , -0.0355966762, 0.000320604944, 0.000310227158, 0.000346588145, -1.56703711 , -0.0170859061, 1.63013339  , 920.9498    , 29.352766   , 798.3765    , 2.45        , 7           , 255         , 0           , 0
-0.1656645  , 9.79548     , -0.0351475626, 0.0003977553, -0.000256640138, 0.0003185335, -1.56703317 , -0.0170827173, 1.630136    , 920.9498    , 29.352766   , 798.3763    , 2.46        , 7           , 255         , 0           , 0
-0.171270773, 9.797159    , -0.0319155455, 0.0003172754, -0.000440202944, 3.2124226E-05, -1.56703    , -0.017082449, 1.6301403   , 920.9498    , 29.352766   , 798.376038  , 2.47        , 7           , 255         , 0           , 0
-0.188869447, 9.800946    , -0.0371590853, 8.12515354E-05, -0.000110904104, 0.0005807555, -1.56702924 , -0.0170766972, 1.6301415   , 920.9498    , 29.352766   , 798.3758    , 2.48        , 7           , 255         , 0           , 0
-0.185970023, 9.801323    , -0.0296775214, -4.40313E-05, -0.00015242456, -0.000214369662, -1.56702971 , -0.017078843, 1.630143    , 920.9498    , 29.352766   , 798.375549  , 2.49        , 7           , 255         , 0           , 0
-0.179903373, 9.794036    , -0.0356351063, -0.000587389, -2.16230983E-05, -3.38919926E-05, -1.56703556 , -0.017079141, 1.63014328  , 920.9498    , 29.352766   , 798.3753    , 2.5         , 7           , 255         , 0           , 0
-0.180373564, 9.789266    , -0.038691055, 6.88759756E-05, -0.000326035952, -0.000180714429, -1.56703746 , -0.0170941334, 1.6301465   , 920.9498    , 29.352766   , 798.3903    , 2.51        , 7           , 255         , 0           , 0
-0.168754444, 9.794219    , -0.0296053533, -0.000789522659, -0.0002096619, 0.0008117261, -1.56704533 , -0.0170859955, 1.63014865  , 920.9498    , 29.352766   , 798.3902    , 2.52        , 7           , 255         , 0           , 0
-0.173941419, 9.789755    , -0.0307721831, 5.96803147E-05, -0.000243398768, 0.000384454761, -1.56704485 , -0.01708218 , 1.630151    , 920.964     , 29.35419    , 798.3901    , 2.53        , 7           , 255         , 0           , 0
-0.168808311, 9.793512    , -0.02895636 , -2.8469789E-05, -0.0004331462, -0.000151997781, -1.56704521 , -0.0170836709, 1.63015532  , 920.964     , 29.35419    , 798.389954  , 2.54        , 7           , 255         , 0           , 0
-0.173827723, 9.795012    , -0.02897782 , -3.427136E-06, -0.0003612528, -0.00021931142, -1.56704521 , -0.0170859657, 1.6301589   , 920.964     , 29.35419    , 798.389832  , 2.55        , 7           , 255         , 0           , 0
-0.165885   , 9.79377     , -0.0268821064, 0.000260168366, -0.000126661733, 4.234168E-05, -1.56704283 , -0.0170855783, 1.63016021  , 920.964     , 29.35419    , 798.3897    , 2.56        , 7           , 255         , 0           , 0
-0.1589329  , 9.797118    , -0.0337303281, 1.6516482E-05, -0.0002084815, 0.000272682257, -1.56704271 , -0.0170828365, 1.63016224  , 920.964     , 29.35419    , 798.3896    , 2.57        , 7           , 255         , 0           , 0
-0.1599767  , 9.785953    , -0.03683526 , -0.000161455755, 0.000519902445, 0.0004046246, -1.56704414 , -0.0170787238, 1.63015711  , 920.964     , 29.35419    , 798.389465  , 2.58        , 7           , 255         , 0           , 0
-0.166073367, 9.795646    , -0.0350904465, -0.000195572968, -4.927686E-05, 2.70937744E-05, -1.567046   , -0.0170784555, 1.63015759  , 920.964     , 29.35419    , 798.389343  , 2.59        , 7           , 255         , 0           , 0
-0.1687425  , 9.792349    , -0.0326193459, 0.000225558528, 1.928932E-05, -0.000615707948, -1.56704378 , -0.017084565, 1.63015735  , 920.964     , 29.35419    , 798.3892    , 2.6         , 7           , 255         , 0           , 0
-0.163355663, 9.793489    , -0.03389398 , 9.2110844E-05, 0.000500725466, -0.0005613172, -1.56705272 , -0.0170927923, 1.63015258  , 920.964     , 29.35419    , 798.3834    , 2.61        , 7           , 255         , 0           , 0
-0.155199409, 9.798164    , -0.0346293971, -0.0001306317, 0.00013643282, -0.0007159547, -1.567054   , -0.0170999151, 1.63015115  , 920.964     , 29.35419    , 798.38324   , 2.62        , 7           , 255         , 0           , 0
-0.163304836, 9.790205    , -0.03646506 , 0.000635724457, -6.73620962E-05, -0.0004973635, -1.56704772 , -0.0171049237, 1.63015175  , 920.954651  , 29.35487    , 798.383057  , 2.63        , 7           , 255         , 0           , 0
-0.1703588  , 9.796653    , -0.0390538946, -0.000204168027, -9.304413E-05, 0.000117825024, -1.56704974 , -0.0171037316, 1.63015282  , 920.954651  , 29.35487    , 798.3829    , 2.64        , 7           , 255         , 0           , 0
-0.162201375, 9.784998    , -0.0346205458, -3.759032E-05, -0.0002445588, 1.21159828E-05, -1.56705022 , -0.0171037018, 1.63015521  , 920.954651  , 29.35487    , 798.3827    , 2.65        , 7           , 255         , 0           , 0
-0.167906716, 9.7883      , -0.03359603 , -0.0008048186, -4.849257E-05, 0.000146630075, -1.56705832 , -0.0171022415, 1.63015568  , 920.954651  , 29.35487    , 798.3825    , 2.66        , 7           , 255         , 0           , 0
-0.164424524, 9.785139    , -0.03160459 , -0.000680262863, 0.0005271813, 6.145067E-05, -1.567065   , -0.0171015859, 1.63015044  , 920.954651  , 29.35487    , 798.3823    , 2.67        , 7           , 255         , 0           , 0
-0.1630104  , 9.79472351  , -0.0368837938, -0.0005080494, 5.2798423E-05, -0.0004403777, -1.56707    , -0.0171060562, 1.63015     , 920.954651  , 29.35487    , 798.382141  , 2.68        , 7           , 255         , 0           , 0
-0.174004123, 9.797811    , -0.0246608425, -0.0006324819, 0.0003894813, -0.000582859153, -1.56707621 , -0.0171118081, 1.630146    , 920.954651  , 29.35487    , 798.381958  , 2.69        , 7           , 255         , 0           , 0
-0.170788214, 9.792663    , -0.0329851769, -0.000621709856, 0.000228418037, 0.00016655674, -1.56708241 , -0.0171101689, 1.63014376  , 920.954651  , 29.35487    , 798.3818    , 2.7         , 7           , 255         , 0           , 0
-0.1674761  , 9.795968    , -0.03854229 , -0.0005234938, 4.78019938E-05, 0.0006687602, -1.56709385 , -0.0170989018, 1.6301434   , 920.954651  , 29.35487    , 798.3899    , 2.71        , 7           , 255         , 0           , 0
-0.1640114  , 9.796429    , -0.0354841948, -0.00030685775, 0.000398450182, -0.000209586375, -1.56709683 , -0.0171010178, 1.63013947  , 920.954651  , 29.35487    , 798.3898    , 2.72        , 7           , 255         , 0           , 0
-0.161945045, 9.79770851  , -0.0415254757, -0.0005149155, -0.000299360079, 3.604041E-05, -1.567102   , -0.01710072 , 1.63014245  , 920.9932    , 29.35704    , 798.389648  , 2.73        , 7           , 255         , 0           , 0
-0.1644771  , 9.800737    , -0.042664852, -0.000457926479, -7.63332937E-05, 9.52979E-05 , -1.5671066  , -0.0170997363, 1.63014317  , 920.9932    , 29.35704    , 798.3896    , 2.74        , 7           , 255         , 0           , 0
-0.171768412, 9.80598     , -0.0286815464, -0.0007026565, -0.0001777503, -0.0003425334, -1.56711364 , -0.0171031356, 1.63014507  , 920.9932    , 29.35704    , 798.3895    , 2.75        , 7           , 255         , 0           , 0
-0.170078665, 9.797025    , -0.03845925 , -0.000182340518, -0.0001771985, 0.000619017461, -1.56711543 , -0.0170968752, 1.63014674  , 920.9932    , 29.35704    , 798.389465  , 2.76        , 7           , 255         , 0           , 0
-0.1698562  , 9.792681    , -0.0319283754, -0.000508920755, 0.000119738164, 0.0006412781, -1.56712055 , -0.0170904975, 1.63014555  , 920.9932    , 29.35704    , 798.3894    , 2.77        , 7           , 255         , 0           , 0
-0.171304375, 9.796411    , -0.03812299 , -0.000520912348, -0.000126241124, -0.0004457568, -1.5671258  , -0.0170949083, 1.63014686  , 920.9932    , 29.35704    , 798.389343  , 2.78        , 7           , 255         , 0           , 0
-0.1696168  , 9.79543     , -0.0398944281, -3.89500929E-05, -0.000622373656, 0.000103189843, -1.56712627 , -0.017093895, 1.63015306  , 920.9932    , 29.35704    , 798.3893    , 2.79        , 7           , 255         , 0           , 0
-0.167246282, 9.79819     , -0.0429419056, 0.000449725485, -0.000196155277, 1.04642822E-05, -1.56712186 , -0.0170938056, 1.63015509  , 920.9932    , 29.35704    , 798.3892    , 2.8         , 7           , 255         , 0           , 0
-0.166392758, 9.799143    , -0.035862796, -8.36516338E-05, 0.000102014863, 0.000220926682, -1.56712    , -0.0170918982, 1.630154    , 920.9932    , 29.35704    , 798.3431    , 2.81        , 7           , 255         , 0           , 0
-0.168663055, 9.794406    , -0.0301997773, -0.00031434343, 3.190397E-05, 2.11506267E-06, -1.567123   , -0.0170918684, 1.63015366  , 920.9932    , 29.35704    , 798.3427    , 2.82        , 7           , 255         , 0           , 0
-0.167769223, 9.789923    , -0.04537322 , -5.1378127E-05, 0.000222889124, 0.0004716188, -1.56712353 , -0.0170871876, 1.63015151  , 920.9663    , 29.35453    , 798.342346  , 2.83        , 7           , 255         , 0           , 0
-0.160102844, 9.796761    , -0.04088173 , -0.0006736955, -0.000455543166, 0.000606455258, -1.56713033 , -0.0170810781, 1.63015592  , 920.9663    , 29.35453    , 798.342     , 2.84        , 7           , 255         , 0           , 0
-0.164495409, 9.793012    , -0.0363633558, -0.0008677452, -0.000412027177, -0.000430961518, -1.567139   , -0.0170854  , 1.63016     , 920.9663    , 29.35453    , 798.3416    , 2.85        , 7           , 255         , 0           , 0
-0.1749287  , 9.791223    , -0.0389050432, -0.0009473718, -5.00470633E-05, -0.000496760069, -1.56714857 , -0.0170904379, 1.63016033  , 920.9663    , 29.35453    , 798.341248  , 2.86        , 7           , 255         , 0           , 0
-0.171914846, 9.79949     , -0.0364056453, -0.0008305978, 0.000220683869, -0.000236673528, -1.56715691 , -0.0170927625, 1.63015807  , 920.9663    , 29.35453    , 798.3409    , 2.87        , 7           , 255         , 0           , 0
-0.164978638, 9.801893    , -0.03480154 , -0.00055349624, 0.000101550366, 0.000185137353, -1.56716239 , -0.0170909148, 1.630157    , 920.9663    , 29.35453    , 798.3405    , 2.88        , 7           , 255         , 0           , 0
-0.167194292, 9.798439    , -0.02937755 , 0.000715962262, 2.57112551E-05, 0.0003816084, -1.56715524 , -0.017087128, 1.63015676  , 920.9663    , 29.35453    , 798.340149  , 2.89        , 7           , 255         , 0           , 0
-0.159144178, 9.792387    , -0.0297818929, 0.000731255335, 7.138378E-05, 0.000401537545, -1.567148   , -0.0170831643, 1.630156    , 920.9663    , 29.35453    , 798.3398    , 2.9         , 7           , 255         , 0           , 0
-0.1604276  , 9.790007    , -0.0380706377, 6.764791E-05, -0.000113612157, -0.0001366135, -1.56714725 , -0.0170830451, 1.63015723  , 920.9663    , 29.35453    , 798.337646  , 2.91        , 7           , 255         , 0           , 0
-0.177207187, 9.793276    , -0.03538331 , 0.000173115288, 0.0002997897, -0.0003747388, -1.56714559 , -0.01708677 , 1.63015425  , 920.9663    , 29.35453    , 798.3373    , 2.92        , 7           , 255         , 0           , 0
-0.17292729 , 9.788927    , -0.0342324637, 0.000295800448, 0.000162664219, -0.0001846654, -1.56714261 , -0.01708859 , 1.6301527   , 920.984558  , 29.35426    , 798.3369    , 2.93        , 7           , 255         , 0           , 0
-0.1709542  , 9.805204    , -0.0302831437, 0.000632710638, 0.000280515524, -0.000215394335, -1.56713629 , -0.0170907658, 1.63014984  , 920.984558  , 29.35426    , 798.336548  , 2.94        , 7           , 255         , 0           , 0
-0.166900948, 9.807101    , -0.0295089837, -0.000390460162, 0.000334497076, 0.000152940076, -1.5671401  , -0.017089216, 1.6301465   , 920.984558  , 29.35426    , 798.3362    , 2.95        , 7           , 255         , 0           , 0
-0.164129019, 9.801678    , -0.0295085944, -0.00115600415, -0.000134565169, -0.000117128729, -1.56715167 , -0.0170904081, 1.63014781  , 920.984558  , 29.35426    , 798.3358    , 2.96        , 7           , 255         , 0           , 0
-0.166940421, 9.790678    , -0.03329623 , -0.000768675352, -0.0004017701, -0.000260649947, -1.56715941 , -0.01709303 , 1.63015175  , 920.984558  , 29.35426    , 798.335449  , 2.97        , 7           , 255         , 0           , 0
-0.167025909, 9.793551    , -0.0297782961, 6.14932651E-05, -0.00011524267, -0.000483862648, -1.56715882 , -0.0170978885, 1.630153    , 920.984558  , 29.35426    , 798.3351    , 2.98        , 7           , 255         , 0           , 0
-0.16204448 , 9.795675    , -0.02945194 , 0.000216787419, 0.0004541279, -0.0004888552, -1.56715667 , -0.0171027482, 1.63014841  , 920.984558  , 29.35426    , 798.3347    , 2.99        , 7           , 255         , 0           , 0
-0.177004263, 9.791608    , -0.0287725218, -5.50068653E-05, 0.000228932826, -0.000271479541, -1.56715715 , -0.01710549 , 1.63014591  , 920.984558  , 29.35426    , 798.334351  , 3           , 7           , 0           , 8.027237    , 300
-0.17447266 , 9.781628    , -0.03654773 , 0.0001844726, 3.54399672E-05, 0.000130395347, -1.567162   , -0.0171061158, 1.63014579  , 920.984558  , 29.35426    , 798.307556  , 3.01        , 7           , 1           , 0           , 0
-0.17050311 , 9.788882    , -0.0386237  , -7.418974E-05, -0.0002809227, 0.0004138563, -1.56716287 , -0.0171019435, 1.63014865  , 920.984558  , 29.35426    , 798.307068  , 3.02        , 7           , 2           , 0           , 0
-0.171400309, 9.795727    , -0.0319367722, -0.000676253, 5.45955263E-05, -0.000293779332, -1.56716967 , -0.0171049535, 1.630148    , 920.9575    , 29.3563633  , 798.3066    , 3.03        , 7           , 3           , 0           , 0
-0.16788058 , 9.795238    , -0.04439573 , -0.000374185067, 0.000117360963, 0.0005216636, -1.56717336 , -0.0170997661, 1.63014686  , 920.9575    , 29.3563633  , 798.3061    , 3.04        , 7           , 4           , 0           , 0
-0.1639888  , 9.792952    , -0.03445093 , -0.000156794791, -0.0004058223, 0.000697274168, -1.567175   , -0.0170928221, 1.630151    , 920.9575    , 29.3563633  , 798.3056    , 3.05        , 7           , 5           , 0           , 0
-0.1666474  , 9.788156    , -0.0355133079, 0.0001496284, -0.000126794679, 1.6701495E-05, -1.5671736  , -0.0170927327, 1.63015234  , 920.9575    , 29.3563633  , 798.3051    , 3.06        , 7           , 6           , 0           , 0
-0.165476754, 9.793973    , -0.0346494727, 0.000447129016, 0.000139012118, -0.0004782399, -1.56716919 , -0.01709756 , 1.63015091  , 920.9575    , 29.3563633  , 798.3046    , 3.07        , 7           , 7           , 0           , 0
-0.1770539  , 9.79121     , -0.0338829346, 0.0004916669, 0.0007707388, -0.000146932871, -1.56716406 , -0.01709905 , 1.63014317  , 920.9575    , 29.3563633  , 798.304138  , 3.08        , 7           , 8           , 5           , 5
-0.169843331, 9.792648    , -0.03425107 , -0.00018801463, 9.438419E-05, -0.000173654436, -1.567166   , -0.01710078 , 1.63014221  , 920.9575    , 29.3563633  , 798.30365   , 3.09        , 7           , 9           , 5           , 0.1
-0.165557161, 9.78823948  , -0.030573383, 0.0004585213, -0.000281275366, 0.000229979632, -1.56716132 , -0.0170984548, 1.63014507  , 920.9575    , 29.3563633  , 798.303162  , 3.1         , 7           , 10          , 0.1         , 0.1
-0.1674197  , 9.784747    , -0.0326941535, 0.0005121275, -0.0009359728, 0.000160869531, -1.56715631 , -0.0171011668, 1.63015425  , 920.9575    , 29.3563633  , 798.318848  , 3.11        , 7           , 11          , 0.00752242142, 0.00752242561
-0.17182374 , 9.791692    , -0.03097787 , 0.0001161839, -0.000231283018, -0.000229312616, -1.56715524 , -0.0171034634, 1.63015664  , 920.9575    , 29.3563633  , 798.3185    , 3.12        , 7           , 12          , 0.034656994 , 0
-0.17247656 , 9.806147    , -0.0369107053, 0.000311703421, -0.0001450656, 0.0002507234, -1.56715214 , -0.0171009582, 1.63015819  , 920.9211    , 29.3569736  , 798.3181    , 3.13        , 7           , 13          , 0           , 0
-0.169575125, 9.799179    , -0.0374155156, -0.000455797, -0.000333587232, 0.000664261 , -1.56715679 , -0.017094342, 1.63016152  , 920.9211    , 29.3569736  , 798.317749  , 3.14        , 7           , 14          , 0.000162216122, 0.00113307056
-0.1629838  , 9.788843    , -0.0421915725, -0.000534950464, 0.000141247874, 0.000108412351, -1.567162   , -0.017093299, 1.63016009  , 920.9211    , 29.3569736  , 798.3174    , 3.15        , 7           , 15          , 0           , 0.0003195026
-0.166355148, 9.789777    , -0.0373130143, -0.00018939338, 0.00025289238, 0.0002463188, -1.567164   , -0.0170908254, 1.63015759  , 920.9211    , 29.3569736  , 798.317     , 3.16        , 7           , 16          , 0           , 1.401298E-45
-0.168296814, 9.796732    , -0.0395605862, 9.6462245E-05, 0.000210064 , -3.97975673E-05, -1.567163   , -0.017091183, 1.63015544  , 920.9211    , 29.3569736  , 798.31665   , 3.17        , 7           , 20          , 0           , 0
-0.167723075, 9.78958     , -0.0418065377, 0.000856373459, -9.222655E-06, 0.000415366783, -1.56715441 , -0.0170870088, 1.63015568  , 920.9211    , 29.3569736  , 798.3163    , 3.18        , 7           , 21          , 0           , 0
-0.159275681, 9.790959    , -0.0305835  , 0.0009952938, -0.000454589434, -0.000243925708, -1.56714451 , -0.0170895439, 1.63016021  , 920.9211    , 29.3569736  , 798.3159    , 3.19        , 7           , 22          , 0           , 0
-0.158462659, 9.792654    , -0.0322542973, 0.0001865313, -0.000374347321, -7.139373E-05, -1.56714284 , -0.0170902  , 1.63016379  , 920.9211    , 29.3569736  , 798.315552  , 3.2         , 7           , 40          , 0           , 0
-0.158667788, 9.79386     , -0.03985082 , 0.0005156698, -5.292974E-05, -0.000116583877, -1.56713665 , -0.0170894545, 1.63016427  , 920.9211    , 29.3569736  , 798.3812    , 3.21        , 7           , 41          , 0           , 0
-0.162713677, 9.797864    , -0.0366178975, 0.000241292073, -0.00062647037, -0.000534259132, -1.56713426 , -0.0170948189, 1.63017058  , 920.9211    , 29.3569736  , 798.3813    , 3.22        , 7           , 42          , 1           , 0
-0.173462644, 9.796282    , -0.03146593 , 0.000470814877, -0.0003506468, -3.59577825E-05, -1.56712973 , -0.0170952659, 1.630174    , 920.971741  , 29.3564987  , 798.381348  , 3.23        , 7           , 255         , 0           , 0
-0.179504454, 9.805435    , -0.03771211 , -1.53090368E-05, -0.0002176165, 2.08991987E-05, -1.56712985 , -0.0170951169, 1.63017631  , 920.971741  , 29.3564987  , 798.3814    , 3.24        , 7           , 255         , 0           , 0
-0.171101421, 9.795054    , -0.0389810279, -0.0005729089, -0.0002089619, -0.000586321636, -1.56713569 , -0.017100988, 1.63017833  , 920.971741  , 29.3564987  , 798.3815    , 3.25        , 7           , 255         , 0           , 0
-0.169645712, 9.792432    , -0.03705771 , -0.0001941491, -0.0003610726, -0.0008445182, -1.56713772 , -0.0171094239, 1.63018191  , 920.971741  , 29.3564987  , 798.381531  , 3.26        , 7           , 255         , 0           , 0
-0.164302334, 9.790567    , -0.0414043  , 0.000748005463, 3.93299852E-05, -0.000408390682, -1.56713021 , -0.0171135366, 1.63018155  , 920.971741  , 29.3564987  , 798.3816    , 3.27        , 7           , 255         , 0           , 0
-0.173432186, 9.788633    , -0.03551388 , 0.0001275119, -0.0001272998, 9.284061E-05, -1.567129   , -0.0171126425, 1.63018274  , 920.971741  , 29.3564987  , 798.381653  , 3.28        , 7           , 255         , 0           , 0
-0.1748506  , 9.790346    , -0.03753208 , 0.00023266302, -0.00031182752, -0.000162737779, -1.56712675 , -0.0171142239, 1.63018584  , 920.971741  , 29.3564987  , 798.3817    , 3.29        , 7           , 255         , 0           , 0
-0.169410378, 9.798698    , -0.03853178 , -0.0002065691, -0.0003590678, -0.0006454025, -1.5671289  , -0.01712075 , 1.63018942  , 920.971741  , 29.3564987  , 798.3818    , 3.3         , 7           , 255         , 0           , 0
-0.168159217, 9.801092    , -0.03578    , 0.000213640014, -0.00014898146, 7.213268E-06, -1.56712425 , -0.0171243269, 1.630191    , 920.971741  , 29.3564987  , 798.3665    , 3.31        , 7           , 255         , 0           , 0
-0.171637923, 9.809174    , -0.0354944  , -3.75494419E-05, -0.000385834835, 0.000243295886, -1.56712472 , -0.0171219129, 1.6301949   , 920.971741  , 29.3564987  , 798.366455  , 3.32        , 7           , 255         , 0           , 0
-0.172855929, 9.796697    , -0.03410506 , -0.0002855292, 0.000282421 , 7.603163E-05, -1.56712747 , -0.0171211082, 1.630192    , 920.9689    , 29.3562946  , 798.3664    , 3.33        , 7           , 255         , 0           , 0
-0.1708139  , 9.795828    , -0.03531973 , -0.0001591193, 2.89217569E-05, -0.000146245933, -1.567129   , -0.0171226878, 1.6301918   , 920.9689    , 29.3562946  , 798.366333  , 3.34        , 7           , 255         , 0           , 0
-0.158719212, 9.803295    , -0.03644944 , 0.000229745317, -0.000236950815, -0.0006135988, -1.56712687 , -0.01712874 , 1.63019407  , 920.9689    , 29.3562946  , 798.366333  , 3.35        , 7           , 255         , 0           , 0
-0.162468627, 9.795874    , -0.0355821177, -0.000236255844, -0.000206814322, -0.0005152682, -1.56712914 , -0.0171338953, 1.63019609  , 920.9689    , 29.3562946  , 798.366333  , 3.36        , 7           , 255         , 0           , 0
-0.1639469  , 9.789916    , -0.0405889824, -7.087085E-05, -0.000568674761, 3.00337852E-05, -1.56713    , -0.0171335675, 1.63020182  , 920.9689    , 29.3562946  , 798.366333  , 3.37        , 7           , 255         , 0           , 0
-0.164586142, 9.795515    , -0.0425639227, 0.000260522735, 0.000327361282, 7.019518E-05, -1.56712735 , -0.0171329118, 1.63019848  , 920.9689    , 29.3562946  , 798.366333  , 3.38        , 7           , 255         , 0           , 0
-0.171950251, 9.795643    , -0.03635779 , -0.000318262639, 9.286613E-05, 9.582835E-05, -1.56713057 , -0.0171319582, 1.63019753  , 920.9689    , 29.3562946  , 798.366333  , 3.39        , 7           , 255         , 0           , 0
-0.167740792, 9.792702    , -0.04090815 , -0.00013725656, -0.000476539717, 0.0007387431, -1.567132   , -0.0171245951, 1.63020229  , 920.9689    , 29.3562946  , 798.366333  , 3.4         , 7           , 255         , 0           , 0
-0.17116724 , 9.794825    , -0.0355624743, -0.0006958164, -0.00086978043, 0.000596754136, -1.56713724 , -0.017117979, 1.630211    , 920.9689    , 29.3562946  , 798.3571    , 3.41        , 7           , 255         , 0           , 0
-0.164112613, 9.790307    , -0.03235648 , 0.000168182363, -0.0007571167, 0.000714765745, -1.56713569 , -0.0171108842, 1.63021851  , 920.9689    , 29.3562946  , 798.357056  , 3.42        , 7           , 255         , 0           , 0
-0.167463645, 9.791107    , -0.03433455 , 0.000255420367, -0.000190144929, 0.000264212635, -1.56713319 , -0.017108202, 1.63022041  , 920.9805    , 29.3585339  , 798.357     , 3.43        , 7           , 255         , 0           , 0
-0.161743134, 9.78562     , -0.0296035968, 4.53278481E-05, -0.000218942179, 0.000307169423, -1.56713271 , -0.0171051919, 1.63022256  , 920.9805    , 29.3585339  , 798.356934  , 3.44        , 7           , 255         , 0           , 0
-0.168719813, 9.79470348  , -0.03055205 , 8.90941E-06 , -0.0006078866, -0.0004818862, -1.56713271 , -0.01711002 , 1.63022864  , 920.9805    , 29.3585339  , 798.3569    , 3.45        , 7           , 255         , 0           , 0
-0.160466239, 9.799893    , -0.03695379 , -0.000170398227, -0.0001350122, -0.000233611529, -1.5671345  , -0.0171123743, 1.63023     , 920.9805    , 29.3585339  , 798.3568    , 3.46        , 7           , 255         , 0           , 0
-0.1715852  , 9.794982    , -0.0316591375, -0.000122189551, 0.000101844314, 0.00101031445, -1.56713569 , -0.0171022713, 1.63022888  , 920.9805    , 29.3585339  , 798.35675   , 3.47        , 7           , 255         , 0           , 0
-0.166403651, 9.789195    , -0.03447124 , 1.30755361E-05, 0.000158224837, 0.0006377748, -1.56713557 , -0.0170958918, 1.63022721  , 920.9805    , 29.3585339  , 798.3567    , 3.48        , 7           , 255         , 0           , 0
-0.1549126  , 9.794588    , -0.0395428576, 0.000389890338, -0.000356248056, -0.000237916611, -1.56713176 , -0.0170982461, 1.63023078  , 920.9805    , 29.3585339  , 798.3566    , 3.49        , 7           , 255         , 0           , 0
-0.162474468, 9.801749    , -0.03692632 , 0.000371181872, 9.247102E-06, 0.000105547515, -1.567128   , -0.0170972031, 1.63023067  , 920.9805    , 29.3585339  , 798.356567  , 3.5         , 7           , 255         , 0           , 0
-0.169415385, 9.791773    , -0.0417605862, -0.0003246622, 0.000108138542, 0.0005936292, -1.56713426 , -0.0170866214, 1.63022959  , 920.9805    , 29.3585339  , 798.3325    , 3.51        , 7           , 255         , 0           , 0
-0.160807014, 9.784572    , -0.0345877632, -0.000385062245, 0.0001765386, -0.000296346378, -1.56713808 , -0.0170895737, 1.63022792  , 920.9805    , 29.3585339  , 798.332336  , 3.52        , 7           , 255         , 0           , 0
-0.160046831, 9.792562    , -0.0415037461, 0.0004942015, 0.0005321001, 0.000340086757, -1.56713307 , -0.0170861147, 1.63022256  , 920.956238  , 29.3556843  , 798.332153  , 3.53        , 7           , 255         , 0           , 0
-0.154268861, 9.79129     , -0.0353520475, -1.48546387E-05, 0.000240519643, 6.1091414E-05, -1.56713319 , -0.0170855783, 1.63022029  , 920.956238  , 29.3556843  , 798.332     , 3.54        , 7           , 255         , 0           , 0
-0.168071955, 9.787462    , -0.0329098627, -0.000200721217, -2.54601473E-05, 0.0003486111, -1.56713521 , -0.0170821212, 1.63022041  , 920.956238  , 29.3556843  , 798.3318    , 3.55        , 7           , 255         , 0           , 0
-0.164957449, 9.791519    , -0.04307295 , -0.000553107064, -0.00024116179, 0.0002756305, -1.56714082 , -0.01707941 , 1.630223    , 920.956238  , 29.3556843  , 798.3316    , 3.56        , 7           , 255         , 0           , 0
-0.174054071, 9.800902    , -0.03682471 , -0.0007717468, -6.646023E-05, 0.000699390366, -1.56714857 , -0.0170724336, 1.63022375  , 920.956238  , 29.3556843  , 798.3314    , 3.57        , 7           , 255         , 0           , 0
-0.1620729  , 9.804193    , -0.0319612026, -0.0002723055, 0.0002267526, 0.000891144562, -1.56715119 , -0.0170635227, 1.63022149  , 920.956238  , 29.3556843  , 798.331238  , 3.58        , 7           , 255         , 0           , 0
-0.160071209, 9.784673    , -0.0376923867, -0.000375687436, -0.00024098705, -0.000157901057, -1.567155   , -0.0170651618, 1.63022387  , 920.956238  , 29.3556843  , 798.331055  , 3.59        , 7           , 255         , 0           , 0
-0.165701658, 9.780911    , -0.03766748 , -0.000236245891, 0.0001366759, -0.000904969347, -1.56715727 , -0.0170742515, 1.63022244  , 920.956238  , 29.3556843  , 798.3309    , 3.6         , 7           , 255         , 0           , 0
-0.170128569, 9.792171    , -0.0369269773, -9.066559E-05, 3.07022128E-06, -0.000723660458, -1.56715512 , -0.01707446 , 1.63022244  , 920.956238  , 29.3556843  , 798.3447    , 3.61        , 7           , 255         , 0           , 0
-0.170851737, 9.794881    , -0.03574896 , 9.75823641E-05, -4.629488E-05, -0.000127776526, -1.567154   , -0.0170757733, 1.6302228   , 920.956238  , 29.3556843  , 798.3446    , 3.62        , 7           , 255         , 0           , 0
-0.163283169, 9.795275    , -0.034336403, 0.000284591166, -0.000175032008, -0.000276823761, -1.56715131 , -0.0170785151, 1.63022447  , 920.954041  , 29.35711    , 798.3445    , 3.63        , 7           , 255         , 0           , 0
-0.163354635, 9.798134    , -0.0326766074, -4.73990876E-05, -0.000322022068, -0.000163555087, -1.56715178 , -0.0170802139, 1.6302278   , 920.954041  , 29.35711    , 798.34436   , 3.64        , 7           , 255         , 0           , 0
-0.165823191, 9.793076    , -0.03208632 , -0.000287825, -1.04358187E-05, 0.000265021285, -1.56715465 , -0.0170775019, 1.63022792  , 920.954041  , 29.35711    , 798.344238  , 3.65        , 7           , 255         , 0           , 0
-0.180066809, 9.796114    , -0.0337165669, 1.29256805E-05, -0.000283063564, 0.0009531285, -1.56715465 , -0.0170679037, 1.63023055  , 920.954041  , 29.35711    , 798.3441    , 3.66        , 7           , 255         , 0           , 0
-0.181964353, 9.791597    , -0.0351333059, -8.037598E-05, -6.01826468E-05, 0.0005563773, -1.56715536 , -0.017062299, 1.63023126  , 920.954041  , 29.35711    , 798.344     , 3.67        , 7           , 255         , 0           , 0
-0.165146172, 9.797546    , -0.0281210449, 0.000246833777, 2.55645718E-05, -0.000305317983, -1.56715286 , -0.01706534 , 1.6302309   , 920.954041  , 29.35711    , 798.3439    , 3.68        , 7           , 255         , 0           , 0
-0.164031982, 9.792752    , -0.03692248 , 0.0005106061, -6.397895E-05, -0.0005094643, -1.56714785 , -0.017070407, 1.63023162  , 920.954041  , 29.35711    , 798.34375   , 3.69        , 7           , 255         , 0           , 0
-0.165523678, 9.795245    , -0.0383814573, -0.0002906643, -0.0004437113, 0.000446801248, -1.56715071 , -0.0170658771, 1.63023591  , 920.954041  , 29.35711    , 798.3437    , 3.7         , 7           , 255         , 0           , 0
-0.1630123  , 9.79584     , -0.0374574848, -0.000761805859, 5.83917135E-05, -0.00046406372, -1.56716037 , -0.0170732681, 1.63023531  , 920.954041  , 29.35711    , 798.359131  , 3.71        , 7           , 255         , 0           , 0
-0.163877726, 9.791094    , -0.0349567421, -0.000720987038, 9.8714605E-05, 0.000367460278, -1.56716752 , -0.0170696322, 1.63023436  , 920.954041  , 29.35711    , 798.359131  , 3.72        , 7           , 255         , 0           , 0
-0.164951086, 9.79382     , -0.0325700641, -0.0006211783, -0.000266951276, 0.000285079557, -1.56717384 , -0.01706686 , 1.630237    , 920.9671    , 29.35962    , 798.359131  , 3.73        , 7           , 255         , 0           , 0
-0.170869961, 9.793581    , -0.03582593 , 0.000166104262, 9.911379E-05, 7.017495E-05, -1.56717217 , -0.0170661155, 1.630236    , 920.9671    , 29.35962    , 798.359131  , 3.74        , 7           , 255         , 0           , 0
-0.16542092 , 9.805954    , -0.0400875323, 7.81866256E-05, 1.42095378E-05, -0.0008198912, -1.56717145 , -0.017074341, 1.63023591  , 920.9671    , 29.35962    , 798.359131  , 3.75        , 7           , 255         , 0           , 0
-0.161492988, 9.798412    , -0.03147295 , -8.206612E-05, 7.467577E-05, -0.0005526382, -1.56717229 , -0.0170797966, 1.6302352   , 920.9671    , 29.35962    , 798.359131  , 3.76        , 7           , 255         , 0           , 0
-0.1631162  , 9.801517    , -0.04092006 , 0.00035909994, -0.000171203748, -0.000531065569, -1.56716871 , -0.0170851313, 1.63023686  , 920.9671    , 29.35962    , 798.359131  , 3.77        , 7           , 255         , 0           , 0
-0.170494542, 9.802881    , -0.0477921925, 0.000354387041, -7.142569E-05, -0.000282106135, -1.56716514 , -0.0170879327, 1.63023758  , 920.9671    , 29.35962    , 798.359131  , 3.78        , 7           , 255         , 0           , 0
-0.16901502 , 9.798212    , -0.0365827978, 2.3451139E-05, -9.324611E-05, -0.0001904068, -1.5671649  , -0.0170898419, 1.63023853  , 920.9671    , 29.35962    , 798.359131  , 3.79        , 7           , 255         , 0           , 0
-0.160865009, 9.801018    , -0.03263972 , -4.75905254E-05, 0.000171232619, 0.000336910569, -1.56716526 , -0.0170864128, 1.63023674  , 920.9671    , 29.35962    , 798.359131  , 3.8         , 7           , 255         , 0           , 0
-0.156876862, 9.799266    , -0.0287513882, 0.000231108745, 0.000104340957, -3.074907E-06, -1.567161   , -0.01708388 , 1.63023567  , 920.9671    , 29.35962    , 798.353638  , 3.81        , 7           , 255         , 0           , 0
-0.159376949, 9.795572    , -0.04070021 , 9.940591E-05, -0.000174476125, -0.0010665803, -1.56716    , -0.01709464 , 1.63023722  , 920.9671    , 29.35962    , 798.353638  , 3.82        , 7           , 255         , 0           , 0
-0.165261641, 9.791713    , -0.0382593647, -0.000411850284, -8.90287338E-05, 0.000197752641, -1.56716406 , -0.0170927029, 1.63023829  , 920.952148  , 29.35738    , 798.353638  , 3.83        , 7           , 255         , 0           , 0
-0.167813361, 9.802607    , -0.0309467316, -0.000352493749, -0.0003537939, -0.000540364359, -1.56716764 , -0.0170980673, 1.63024175  , 920.952148  , 29.35738    , 798.353638  , 3.84        , 7           , 255         , 0           , 0
-0.16638    , 9.790138    , -0.0322582349, 0.000101020996, -9.287335E-05, -0.00040538708, -1.56716669 , -0.0171021521, 1.63024271  , 920.952148  , 29.35738    , 798.353638  , 3.85        , 7           , 255         , 0           , 0
-0.1660496  , 9.789287    , -0.0341003239, -8.207179E-05, -8.76539852E-05, 0.0005768526, -1.56716752 , -0.0170963686, 1.63024366  , 920.952148  , 29.35738    , 798.353638  , 3.86        , 7           , 255         , 0           , 0
-0.172348991, 9.793904    , -0.0400579646, 4.52860259E-05, -0.0003445322, -0.0004389027, -1.56716716 , -0.01710078 , 1.63024688  , 920.952148  , 29.35738    , 798.353638  , 3.87        , 7           , 255         , 0           , 0
-0.181683868, 9.808225    , -0.0391130038, -0.000325236761, 0.000233339379, 0.0001493074, -1.56717038 , -0.01709923 , 1.63024461  , 920.952148  , 29.35738    , 798.353638  , 3.88        , 7           , 255         , 0           , 0
-0.172583908, 9.790236    , -0.03796535 , -0.000118116543, -0.000304662273, -0.0002612576, -1.56717157 , -0.0171018839, 1.63024759  , 920.952148  , 29.35738    , 798.353638  , 3.89        , 7           , 255         , 0           , 0
-0.170437783, 9.787891    , -0.0349283442, -0.0001217877, -4.52223467E-05, -0.0004999696, -1.56717277 , -0.01710686 , 1.63024807  , 920.952148  , 29.35738    , 798.353638  , 3.9         , 7           , 255         , 0           , 0
-0.169657677, 9.798075    , -0.0334041566, 9.45021E-05 , -0.000240937457, 7.34033529E-06, -1.56717181 , -0.0171074867, 1.63025045  , 920.952148  , 29.35738    , 798.3703    , 3.91        , 7           , 255         , 0           , 0
-0.1711398  , 9.796136    , -0.03175077 , -0.000400227233, -0.000550524, -0.000182089716, -1.56717587 , -0.0171093345, 1.63025594  , 920.952148  , 29.35738    , 798.3704    , 3.92        , 7           , 255         , 0           , 0
-0.173082992, 9.79932     , -0.03526964 , -0.000348944683, -0.0002677258, -4.4309767E-05, -1.56717944 , -0.0171098113, 1.63025856  , 920.9584    , 29.3593483  , 798.370544  , 3.93        , 7           , 255         , 0           , 0
-0.173524141, 9.790416    , -0.03480389 , -0.0008786275, -2.3602508E-05, -6.641698E-06, -1.56718814 , -0.01710987 , 1.6302588   , 920.9584    , 29.3593483  , 798.370667  , 3.94        , 7           , 255         , 0           , 0
-0.167894363, 9.790202    , -0.0282594357, -0.00065355096, -0.000140932156, 4.10363136E-05, -1.5671947  , -0.0171093643, 1.63026035  , 920.9584    , 29.3593483  , 798.3708    , 3.95        , 7           , 255         , 0           , 0
-0.173325613, 9.794883    , -0.0289050229, 0.000333880133, 0.000241623959, -0.000672412454, -1.56719136 , -0.0171161015, 1.63025773  , 920.9584    , 29.3593483  , 798.3709    , 3.96        , 7           , 255         , 0           , 0
-0.166468412, 9.794073    , -0.0297414549, 5.16235741E-05, -9.033724E-05, -0.0006688497, -1.567191   , -0.0171228368, 1.63025868  , 920.9584    , 29.3593483  , 798.371033  , 3.97        , 7           , 255         , 0           , 0
-0.164893389, 9.801641    , -0.0304357912, -0.000201418341, -0.000119159929, 0.000277133484, -1.567193   , -0.0171201546, 1.63025987  , 920.9584    , 29.3593483  , 798.371155  , 3.98        , 7           , 255         , 0           , 0
-0.173618227, 9.790974    , -0.03517411 , -0.0004104908, -3.97183467E-05, 0.00121788331, -1.5671972  , -0.0171079636, 1.63026023  , 920.9584    , 29.3593483  , 798.3713    , 3.99        , 7           , 255         , 0           , 0
-0.167621374, 9.791729    , -0.0378818  , -6.723925E-05, -0.0005911089, 0.000765581 , -1.567198   , -0.0171004217, 1.63026607  , 920.9584    , 29.3593483  , 798.3714    , 4           , 7           , 0           , 9.027237    , 400
-0.160659581, 9.803002    , -0.03943668 , -0.000193388478, -0.0002974444, -5.917059E-05, -1.56720424 , -0.0171048641, 1.63026917  , 920.9584    , 29.3593483  , 798.3768    , 4.01        , 7           , 1           , 0           , 0
-0.162132621, 9.796021    , -0.0349694863, 4.06458275E-06, -9.93624562E-05, 0.000512889 , -1.56720424 , -0.0170997065, 1.63027012  , 920.9584    , 29.3593483  , 798.376953  , 4.02        , 7           , 2           , 0           , 0
-0.161391839, 9.78954     , -0.03721447 , 0.0007671183, -0.000170541, 0.000144827674, -1.56719649 , -0.0170982163, 1.63027179  , 920.9788    , 29.35765    , 798.377136  , 4.03        , 7           , 3           , 0           , 0
-0.176609278, 9.790171    , -0.03466659 , 0.0004826675, -0.000191962288, 0.0005093608, -1.56719172 , -0.01709309 , 1.63027382  , 920.9788    , 29.35765    , 798.3773    , 4.04        , 7           , 4           , 0           , 0
-0.17232506 , 9.788959    , -0.031223828, -1.09088141E-05, -4.59692674E-05, 0.0006411917, -1.56719184 , -0.0170865916, 1.63027418  , 920.9788    , 29.35765    , 798.3775    , 4.05        , 7           , 5           , 0           , 0
-0.170087248, 9.79191     , -0.0277673  , 2.18618661E-05, 1.66170066E-05, 0.0006095831, -1.5671916  , -0.0170805417, 1.630274    , 920.9788    , 29.35765    , 798.3777    , 4.06        , 7           , 6           , 0           , 0
-0.160515964, 9.79069     , -0.0360994339, -1.71437277E-05, -4.91192332E-05, 2.749826E-05, -1.56719172 , -0.0170803629, 1.63027453  , 920.9788    , 29.35765    , 798.377869  , 4.07        , 7           , 7           , 0           , 0
-0.166832536, 9.786352    , -0.0355165824, 0.000777435955, -0.000203156029, -0.000196608133, -1.567184   , -0.01708236 , 1.63027656  , 920.9788    , 29.35765    , 798.378052  , 4.08        , 7           , 8           , 5           , 5
-0.181160018, 9.786278    , -0.04153813 , 5.515598E-06, -0.0005773506, 5.45796065E-05, -1.56718409 , -0.017081853, 1.6302824   , 920.9788    , 29.35765    , 798.378235  , 4.09        , 7           , 9           , 5           , 0.1
-0.176480964, 9.789302    , -0.0280167963, -0.0004811499, -0.0008176802, -0.000417058938, -1.5671891  , -0.0170859657, 1.63029039  , 920.9788    , 29.35765    , 798.3784    , 4.1         , 7           , 10          , 0.1         , 0.1
-0.176543459, 9.789639    , -0.038216792, -4.136513E-05, -1.08968234E-05, -0.0002535481, -1.56719077 , -0.0170914512, 1.63029051  , 920.9788    , 29.35765    , 798.3536    , 4.11        , 7           , 11          , 0.00695716776, 0.00695717568
-0.167882279, 9.784838    , -0.03181951 , 0.0007168567, -0.000223460316, -0.0004706335, -1.56718361 , -0.01709616 , 1.63029265  , 920.9788    , 29.35765    , 798.3536    , 4.12        , 7           , 12          , 0.0346693471, 0
-0.168094635, 9.791905    , -0.0337924771, 0.00025025598, -0.000328482362, 6.268424E-05, -1.56718111 , -0.0170955341, 1.63029611  , 920.9781    , 29.3572445  , 798.353638  , 4.13        , 7           , 13          , 0           , 0
-0.172246337, 9.797221    , -0.0355548  , 1.49349216E-05, -3.866607E-05, -5.336039E-05, -1.56718087 , -0.0170961  , 1.63029647  , 920.9781    , 29.3572445  , 798.3537    , 4.14        , 7           , 14          , 0.000162220414, 0.00113307068
-0.172006458, 9.796591    , -0.0363742635, 0.0004766409, 0.000331984716, 0.000327056419, -1.5671761  , -0.0170928221, 1.63029313  , 920.9781    , 29.3572445  , 798.35376   , 4.15        , 7           , 15          , 0           , 0.000319490646
-0.169558614, 9.79617     , -0.0387781933, 0.00017425511, 8.97328136E-05, 4.96291032E-05, -1.56717432 , -0.0170923155, 1.63029218  , 920.9781    , 29.3572445  , 798.3538    , 4.16        , 7           , 16          , 0           , 1.401298E-45
-0.163686171, 9.804932    , -0.03026477 , -0.000349641661, -0.0004898042, 0.000582635868, -1.567178   , -0.0170865022, 1.63029718  , 920.9781    , 29.3572445  , 798.3539    , 4.17        , 7           , 20          , 0           , 0
-0.163476869, 9.796325    , -0.0298000332, 0.000152348366, 9.782496E-06, 0.000663288054, -1.56717646 , -0.017079886, 1.63029706  , 920.9781    , 29.3572445  , 798.353943  , 4.18        , 7           , 21          , 0           , 0
-0.16903396 , 9.793064    , -0.03761535 , -0.000388514483, -8.034171E-06, -6.577477E-05, -1.5671804  , -0.0170805715, 1.63029718  , 920.9781    , 29.3572445  , 798.354     , 4.19        , 7           , 22          , 0           , 0
-0.175752789, 9.785952    , -0.0348075479, 0.000169781648, -0.000571982237, 0.000468394574, -1.56717873 , -0.0170759223, 1.63030291  , 920.9781    , 29.3572445  , 798.354065  , 4.2         , 7           , 40          , 0           , 0
-0.1804547  , 9.786786    , -0.0268042982, 0.000241541449, 0.000201722025, -0.0002537201, -1.56717753 , -0.01708233 , 1.63030088  , 920.9781    , 29.3572445  , 798.334045  , 4.21        , 7           , 41          , 0           , 0
-0.171846718, 9.785914    , -0.041283533, 0.000326605659, 0.00054295396, 0.000254747 , -1.5671742  , -0.017079737, 1.63029552  , 920.9781    , 29.3572445  , 798.334     , 4.22        , 7           , 42          , 1           , 0
-0.17224595 , 9.799448    , -0.0425365567, 0.000382124 , 0.000490475562, -9.612371E-05, -1.56717026 , -0.01708069 , 1.63029051  , 920.9773    , 29.3568382  , 798.3339    , 4.23        , 7           , 255         , 0           , 0
-0.1713964  , 9.793365    , -0.0307525061, 0.0004358846, 8.629495E-05, -0.0005192972, -1.56716585 , -0.0170858465, 1.63028967  , 920.9773    , 29.3568382  , 798.333862  , 4.24        , 7           , 255         , 0           , 0
-0.178742886, 9.794214    , -0.0398740619, -0.000133094785, -0.0008364454, -0.000240071575, -1.5671674  , -0.01708832 , 1.630298    , 920.9773    , 29.3568382  , 798.3338    , 4.25        , 7           , 255         , 0           , 0
-0.175162554, 9.79809     , -0.0345609076, -0.0002524426, -0.0006905796, 0.00043418858, -1.56717    , -0.0170839988, 1.63030493  , 920.9773    , 29.3568382  , 798.33374   , 4.26        , 7           , 255         , 0           , 0
-0.1696661  , 9.798193    , -0.03678559 , -0.000385068823, -0.000178637565, 0.000105051207, -1.567174   , -0.0170828961, 1.63030672  , 920.9773    , 29.3568382  , 798.3337    , 4.27        , 7           , 255         , 0           , 0
-0.166016012, 9.794825    , -0.0421158262, -0.00117134524, 5.879556E-06, 0.000368407054, -1.56718564 , -0.0170792  , 1.63030672  , 920.9773    , 29.3568382  , 798.3336    , 4.28        , 7           , 255         , 0           , 0
-0.152498931, 9.784116    , -0.0349439979, 0.0002855015, -0.000116598792, 0.000116073177, -1.56718278 , -0.0170780681, 1.63030779  , 920.9773    , 29.3568382  , 798.333557  , 4.29        , 7           , 255         , 0           , 0
-0.166555181, 9.784998    , -0.0363376364, 0.0005249443, -0.0003891565, 6.08933624E-06, -1.56717765 , -0.0170779489, 1.63031161  , 920.9773    , 29.3568382  , 798.3335    , 4.3         , 7           , 255         , 0           , 0
-0.176429182, 9.787947    , -0.0373844467, 0.000542333757, -8.385081E-05, -0.0009622958, -1.5671705  , -0.01709324 , 1.63031232  , 920.9773    , 29.3568382  , 798.3177    , 4.31        , 7           , 255         , 0           , 0
-0.172980189, 9.800962    , -0.0385181271, 0.00012633625, -0.000373667222, 4.222017E-05, -1.56716931 , -0.0170928221, 1.630316    , 920.9773    , 29.3568382  , 798.3175    , 4.32        , 7           , 255         , 0           , 0
-0.170886159, 9.79748     , -0.034182705, -0.00018319067, -3.95280076E-05, 0.000316294929, -1.5671711  , -0.0170896631, 1.6303165   , 920.9519    , 29.3585339  , 798.3173    , 4.33        , 7           , 255         , 0           , 0
-0.17723456 , 9.796572    , -0.0383679122, 0.0004799452, -2.9780902E-05, 0.000161561911, -1.56716633 , -0.0170880221, 1.63031685  , 920.9519    , 29.3585339  , 798.317139  , 4.34        , 7           , 255         , 0           , 0
-0.161914542, 9.800894    , -0.0361491069, 0.0001756579, 8.720276E-05, -9.625564E-05, -1.56716454 , -0.0170889478, 1.6303159   , 920.9519    , 29.3585339  , 798.317     , 4.35        , 7           , 255         , 0           , 0
-0.161093742, 9.797976    , -0.03546973 , -0.0005417868, -4.476984E-05, -0.000315750949, -1.56717    , -0.0170920771, 1.63031626  , 920.9519    , 29.3585339  , 798.3169    , 4.36        , 7           , 255         , 0           , 0
-0.1656737  , 9.791641    , -0.03954055 , 5.37621381E-05, -0.0003069233, -0.000317199272, -1.56716955 , -0.0170951765, 1.63031924  , 920.9519    , 29.3585339  , 798.3168    , 4.37        , 7           , 255         , 0           , 0
-0.164298   , 9.785681    , -0.0329601839, 0.000386671163, 1.31238485E-05, -0.00096439023, -1.56716561 , -0.0171048045, 1.630319    , 920.9519    , 29.3585339  , 798.31665   , 4.38        , 7           , 255         , 0           , 0
-0.1670632  , 9.791769    , -0.0301349349, 0.0002658707, 5.439995E-05, -0.000188904, -1.567163   , -0.0171066523, 1.63031852  , 920.9519    , 29.3585339  , 798.3165    , 4.39        , 7           , 255         , 0           , 0
-0.165712252, 9.794228    , -0.0321213678, 0.000318916223, 0.000276061241, 0.00017076431, -1.56715965 , -0.0171049237, 1.63031578  , 920.9519    , 29.3585339  , 798.3164    , 4.4         , 7           , 255         , 0           , 0
-0.1759179  , 9.798381    , -0.0317712948, -0.000216341752, -8.09395E-05, 0.00043516283, -1.56716192 , -0.0171019137, 1.63031662  , 920.9519    , 29.3585339  , 798.338867  , 4.41        , 7           , 255         , 0           , 0
-0.167683765, 9.792851    , -0.0328439251, -0.0004931567, 5.99962659E-05, 0.000132243382, -1.56716681 , -0.01710054 , 1.630316    , 920.9519    , 29.3585339  , 798.338867  , 4.42        , 7           , 255         , 0           , 0
-0.167064324, 9.79004     , -0.03840696 , -0.000605413632, -4.54925466E-05, 6.90401939E-05, -1.56717288 , -0.0170998555, 1.63031638  , 920.9234    , 29.356905   , 798.338867  , 4.43        , 7           , 255         , 0           , 0
-0.1643497  , 9.799774    , -0.04393067 , -0.000623292639, -0.000217051362, 0.0008647408, -1.5671792  , -0.0170912426, 1.63031864  , 920.9234    , 29.356905   , 798.338867  , 4.44        , 7           , 255         , 0           , 0
-0.171769619, 9.797972    , -0.03808143 , -5.045537E-05, 7.392955E-06, -0.000130044267, -1.56717968 , -0.0170925539, 1.63031852  , 920.9234    , 29.356905   , 798.338867  , 4.45        , 7           , 255         , 0           , 0
-0.174729809, 9.792141    , -0.0334780551, -0.0003246612, -0.0001821405, 6.979442E-05, -1.567183   , -0.0170918982, 1.63032031  , 920.9234    , 29.356905   , 798.338867  , 4.46        , 7           , 255         , 0           , 0
-0.166278973, 9.790518    , -0.0364383757, 0.00018313984, 0.000338793732, 0.000364782783, -1.56718111 , -0.0170882  , 1.630317    , 920.9234    , 29.356905   , 798.338867  , 4.47        , 7           , 255         , 0           , 0
-0.163584784, 9.796356    , -0.03585703 , 0.000196286186, 0.000362304039, -7.648108E-06, -1.56717908 , -0.01708829 , 1.6303134   , 920.9234    , 29.356905   , 798.338867  , 4.48        , 7           , 255         , 0           , 0
-0.163891971, 9.795194    , -0.0400207564, -0.000126092229, -0.000109377084, -0.0003443788, -1.56718028 , -0.01709163 , 1.63031435  , 920.9234    , 29.356905   , 798.338867  , 4.49        , 7           , 255         , 0           , 0
-0.170849755, 9.794415    , -0.0350252762, -0.0003264666, -1.24861253E-05, -0.000380388228, -1.56718349 , -0.0170954447, 1.63031447  , 920.9234    , 29.356905   , 798.338867  , 4.5         , 7           , 255         , 0           , 0
-0.168015167, 9.796004    , -0.0385408625, -0.0007576226, -0.00023881509, -2.69946468E-05, -1.56718957 , -0.0170974713, 1.63031685  , 920.9234    , 29.356905   , 798.3985    , 4.51        , 7           , 255         , 0           , 0
-0.171262026, 9.794749    , -0.0438494161, -0.00114178658, -0.000205537945, 0.00062697276, -1.567201   , -0.017091183, 1.63031888  , 920.9234    , 29.356905   , 798.398865  , 4.52        , 7           , 255         , 0           , 0
-0.168700963, 9.799868    , -0.0370818339, -0.000263403781, -0.0002641427, 0.001293531 , -1.56720364 , -0.0170782767, 1.63032138  , 920.9627    , 29.35989    , 798.399231  , 4.53        , 7           , 255         , 0           , 0
-0.173566163, 9.794731    , -0.036021173, 0.000195158747, -2.36016931E-05, 0.000158928422, -1.56720173 , -0.0170767866, 1.63032174  , 920.9627    , 29.35989    , 798.3996    , 4.54        , 7           , 255         , 0           , 0
-0.168220684, 9.786439    , -0.0330974162, 0.000754567271, 0.000197666348, -0.0005717435, -1.56719422 , -0.0170825087, 1.63031971  , 920.9627    , 29.35989    , 798.399963  , 4.55        , 7           , 255         , 0           , 0
-0.172391772, 9.784472    , -0.03643557 , 0.0007168087, -0.000242470764, 0.0002015149, -1.56718719 , -0.0170805417, 1.6303221   , 920.9627    , 29.35989    , 798.4003    , 4.56        , 7           , 255         , 0           , 0
-0.166550547, 9.791085    , -0.0409330651, -0.000200840965, 0.000133036054, -0.000134477741, -1.5671891  , -0.0170819722, 1.63032067  , 920.9627    , 29.35989    , 798.4007    , 4.57        , 7           , 255         , 0           , 0
-0.16117242 , 9.79101     , -0.0384197235, -0.000728798565, 0.000127570122, 7.047033E-05, -1.56719637 , -0.0170812272, 1.63031948  , 920.9627    , 29.35989    , 798.4011    , 4.58        , 7           , 255         , 0           , 0
-0.161537737, 9.790187    , -0.0359678529, -0.000129127089, -9.745604E-05, -0.000620777835, -1.56719768 , -0.0170874856, 1.63032031  , 920.9627    , 29.35989    , 798.40155   , 4.59        , 7           , 255         , 0           , 0
-0.161866218, 9.798729    , -0.0320102051, -0.000434608839, -0.000114743365, -0.000212298939, -1.56720209 , -0.0170895737, 1.6303215   , 920.9627    , 29.35989    , 798.402     , 4.6         , 7           , 255         , 0           , 0
-0.16190964 , 9.79721     , -0.0348003581, -0.00065738993, -0.000110060675, 0.00038700772, -1.56720555 , -0.0170857571, 1.63032258  , 920.9627    , 29.35989    , 798.397     , 4.61        , 7           , 255         , 0           , 0
-0.170905843, 9.798019    , -0.0345345661, -0.0005448846, -0.000352048082, 0.00047628826, -1.567211   , -0.0170809589, 1.630326    , 920.9627    , 29.35989    , 798.397339  , 4.62        , 7           , 255         , 0           , 0
-0.16299367 , 9.789655    , -0.0309856571, -0.000115988325, 0.000107504544, -3.21138068E-05, -1.56721222 , -0.0170812868, 1.630325    , 920.981934  , 29.3600941  , 798.3977    , 4.63        , 7           , 255         , 0           , 0
-0.165219039, 9.795405    , -0.03542754 , -0.00086382177, 6.338849E-05, 0.000293092 , -1.56722081 , -0.0170784555, 1.63032436  , 920.981934  , 29.3600941  , 798.3981    , 4.64        , 7           , 255         , 0           , 0
-0.160636753, 9.796534    , -0.0388369821, -0.001064186, -0.000216246641, 0.0008845377, -1.56723154 , -0.0170695428, 1.63032651  , 920.981934  , 29.3600941  , 798.398438  , 4.65        , 7           , 255         , 0           , 0
-0.158694535, 9.807301    , -0.0408262648, -0.00069647684, -0.000414570968, 0.00019063818, -1.56723857 , -0.0170676652, 1.63033056  , 920.981934  , 29.3600941  , 798.3988    , 4.66        , 7           , 255         , 0           , 0
-0.168315738, 9.798758    , -0.0393519551, -0.0005429106, -0.0003422656, 0.0007971969, -1.567244   , -0.0170596763, 1.630334    , 920.981934  , 29.3600941  , 798.3992    , 4.67        , 7           , 255         , 0           , 0
