Acc X       , Acc Y       , Acc Z       , Gyro X      , Gyro Y      , Gyro Z      , Euler X     , Euler Y     , Euler Z     , Pres X      , Pres Y      , Pres Z      , Time        , Status      , LowRate X   , LowRate Y   , LowRate Z    
-0.09288377 , -0.08925415 , -9.786316   , 0           , 0           , 0           , 0.009120048 , -0.009490509, 0           , 919.808044  , 31.8845634  , 808.755859  , 0           , 2           , 0           , 5.01723146  , 0
-0.09695993 , -0.08923803 , -9.786944   , 0.000425634673, -7.23527337E-05, 0.000294778234, 0.009124241 , -0.009491476, 2.94111487E-06, 919.808044  , 31.8845634  , 808.755859  , 0.01        , 3           , 1           , 0           , 0
-0.100078918, -0.0955666751, -9.801573   , 0.0003443203, 0.000117281015, -0.000480305665, 0.00912773  , -0.009490259, -1.85113083E-06, 919.808044  , 31.8845634  , 808.755859  , 0.02        , 3           , 2           , 0           , 0
-0.09443635 , -0.08726758 , -9.803429   , 0.00017066882, 4.76560672E-07, -0.000207906443, 0.009129456 , -0.009490236, -3.930107E-06, 919.7644    , 31.4471855  , 808.755859  , 0.03        , 3           , 3           , 0           , 0
-0.09666759 , -0.09062694 , -9.789234   , 9.495317E-05, 0.000381973863, -0.000114998868, 0.009130416 , -0.009486406, -5.04520131E-06, 919.7644    , 31.4471855  , 808.755859  , 0.04        , 3           , 4           , 0           , 0
-0.103478178, -0.09551091 , -9.785566   , 0.000403514015, -8.782206E-05, -0.000334134762, 0.009134483 , -0.009487254, -8.394498E-06, 919.7644    , 31.4471855  , 808.755859  , 0.05        , 3           , 5           , 0           , 0
-0.103010133, -0.09009043 , -9.790796   , -9.956997E-05, -1.23992795E-05, -2.842794E-05, 0.00913349  , -0.009487376, -8.679903E-06, 919.7644    , 31.4471855  , 808.755859  , 0.06        , 3           , 6           , 0           , 0
-0.100945756, -0.0965581  , -9.79899    , 0.0001410963, -1.83587836E-05, 0.000171574517, 0.009134884 , -0.009487575, -6.96587176E-06, 919.7644    , 31.4471855  , 808.755859  , 0.07        , 3           , 7           , 0           , 0
-0.104148187, -0.105151519, -9.780047   , -0.000243051734, 0.000204194439, 0.000168659622, 0.009132436 , -0.009485549, -5.260656E-06, 919.7644    , 31.4471855  , 808.755859  , 0.08        , 3           , 8           , 5           , 5
-0.09588619 , -0.09657775 , -9.805041   , -0.000136789226, -0.000178189774, -0.0006217216, 0.009131129 , -0.009487274, -1.14940094E-05, 919.7644    , 31.4471855  , 808.755859  , 0.09        , 3           , 9           , 5           , 0.1
-0.0925125256, -0.08946629 , -9.8000555  , -0.000138669275, 0.000178188231, 0.00034244475, 0.00912971  , -0.009485524, -8.05337E-06, 919.7644    , 31.4471855  , 808.755859  , 0.1         , 3           , 10          , 0.1         , 0.1
-0.08950147 , -0.08658596 , -9.807155   , -0.000161705539, 7.77485548E-05, 0.000501086237, 0.009144238 , -0.009507753, -3.18950515E-06, 919.7644    , 31.4471855  , 809.1497    , 0.11        , 3           , 11          , 0.0109544508, 0.0109544508
-0.09178658 , -0.0809194446, -9.798163   , 0.00049705815, -9.202091E-05, -2.91479755E-05, 0.009149211 , -0.009508669, -3.48939034E-06, 919.7644    , 31.4471855  , 809.1497    , 0.12        , 3           , 12          , 0.174642488 , 0
-0.0924854651, -0.08347204 , -9.795584   , 0.000287046336, -0.000614959747, 0.000176213784, 0.009152066 , -0.009514832, -1.78356731E-06, 919.8031    , 31.48633    , 809.1497    , 0.13        , 3           , 13          , 0           , 0
-0.09253695 , -0.09242901 , -9.787873   , 0.0001451645, -8.974392E-05, 0.0006077794, 0.009153459 , -0.009515785, 4.28588237E-06, 919.8031    , 31.48633    , 809.1497    , 0.14        , 3           , 14          , -0.0006775148, -0.000204303433
-0.102939092, -0.08830635 , -9.799359   , 0.000170304265, -7.629096E-05, 0.00103524409, 0.009155064 , -0.009516643, 1.46311168E-05, 919.8031    , 31.48633    , 809.1497    , 0.15        , 3           , 15          , 0           , -1.73473882E-06
-0.09759554 , -0.09343728 , -9.79667    , -0.000247984077, -0.000472920248, 0.00133755733, 0.009152456 , -0.009521492, 2.79631186E-05, 919.8031    , 31.48633    , 809.1497    , 0.16        , 3           , 16          , 0           , 1.401298E-45
-0.103740774, -0.0925785452, -9.801075   , 0.000129422056, -0.000124254686, 0.000176774236, 0.009153733 , -0.009522752, 2.971944E-05, 919.8031    , 31.48633    , 809.1498    , 0.17        , 3           , 20          , 0           , 0
-0.100729607, -0.08610712 , -9.792447   , 0.0005930149, 0.0005387267, -3.3441167E-05, 0.00915966649, -0.009517361, 2.943436E-05, 919.8031    , 31.48633    , 809.149841  , 0.18        , 3           , 21          , 0           , 0
-0.09440289 , -0.0946754  , -9.798687   , 0.00107688783, 0.000588298659, -0.0004807414, 0.00917048  , -0.00951143447, 2.46809741E-05, 919.8031    , 31.48633    , 809.1499    , 0.19        , 3           , 22          , 0           , 0
-0.0931722149, -0.0817269757, -9.794872   , 0.000109623012, -0.00017454107, -0.000236085558, 0.00917159952, -0.009513158, 2.230416E-05, 919.8031    , 31.48633    , 809.149963  , 0.2         , 3           , 40          , 0           , 0
-0.09448031 , -0.0875007361, -9.798691   , 0.000373420567, 8.686475E-06, 0.000564271759, 0.009170029 , -0.009521469, 2.799755E-05, 919.8031    , 31.48633    , 808.9753    , 0.21        , 3           , 41          , 0           , 0
-0.0900365  , -0.08974345 , -9.791014   , -0.000129809079, -0.000118501455, -0.000167263366, 0.009168747 , -0.009522638, 2.631409E-05, 919.8031    , 31.48633    , 808.975342  , 0.22        , 3           , 42          , 0           , 0
-0.0979201049, -0.08586533 , -9.791302   , 0.000301235676, -0.000370314083, -0.000201901057, 0.009171779 , -0.00952632353, 2.4261175E-05, 919.7685    , 31.5142136  , 808.9754    , 0.23        , 3           , 255         , 0           , 0
-0.0963979661, -0.08820073 , -9.785011   , 0.000544622657, -0.0004627429, -0.00080832903, 0.0091773   , -0.009530876, 1.61356E-05 , 919.7685    , 31.5142136  , 808.975464  , 0.24        , 3           , 255         , 0           , 0
-0.08662635 , -0.0922560543, -9.787981   , 0.00013619737, -0.000216852146, 4.9620463E-05, 0.009178657 , -0.009533048, 1.66118953E-05, 919.7685    , 31.5142136  , 808.9755    , 0.25        , 3           , 255         , 0           , 0
-0.0844427943, -0.09577591 , -9.792564   , 7.48416642E-06, -0.000367980479, 0.0004390614, 0.009178691 , -0.009536768, 2.0968635E-05, 919.7685    , 31.5142136  , 808.9756    , 0.26        , 3           , 255         , 0           , 0
-0.08948715 , -0.08739466 , -9.793964   , -0.000172802072, 0.0002690998, 9.719126E-05, 0.009176953 , -0.009534086, 2.19652247E-05, 919.7685    , 31.5142136  , 808.975647  , 0.27        , 3           , 255         , 0           , 0
-0.09536965 , -0.08096109 , -9.788864   , 6.49816939E-05, -4.575719E-06, 2.819936E-05, 0.0091776   , -0.00953413453, 2.22467843E-05, 919.7685    , 31.5142136  , 808.9757    , 0.28        , 3           , 255         , 0           , 0
-0.09698446 , -0.08614856 , -9.788815   , 0.000809715246, 0.000313688884, 0.0008667824, 0.009185616 , -0.009531079, 3.0943218E-05, 919.7685    , 31.5142136  , 808.975769  , 0.29        , 3           , 255         , 0           , 0
-0.09263092 , -0.08267601 , -9.794132   , 0.000294725527, -4.29152569E-05, 8.061926E-05, 0.009188553 , -0.009531516, 3.17454469E-05, 919.7685    , 31.5142136  , 808.9758    , 0.3         , 3           , 255         , 0           , 0
-0.08296837 , -0.08247863 , -9.795365   , 0.000211972074, -0.000265953015, -0.000417218078, 0.00918063  , -0.009530036, 2.76450282E-05, 919.7685    , 31.5142136  , 809.022     , 0.31        , 3           , 255         , 0           , 0
-0.08931012 , -0.0852315351, -9.797174   , 0.000372039358, 0.000161258853, -0.000421742356, 0.009184391 , -0.009528385, 2.34424988E-05, 919.7685    , 31.5142136  , 809.022034  , 0.32        , 3           , 255         , 0           , 0
-0.105528854, -0.09082533 , -9.787187   , 0.000243717834, -0.000237759188, 0.000540211156, 0.009186776 , -0.009530812, 2.882266E-05, 919.782532  , 31.529274   , 809.0221    , 0.33        , 3           , 255         , 0           , 0
-0.09035283 , -0.08879842 , -9.798517   , 0.0002567657, -3.72642971E-05, 0.000399812852, 0.009189306 , -0.009531221, 3.28172719E-05, 919.782532  , 31.529274   , 809.022156  , 0.34        , 3           , 255         , 0           , 0
-0.086201   , -0.09099548 , -9.803699   , 0.000149982981, -0.000450462569, 0.000347487163, 0.009190772 , -0.009535757, 3.62506726E-05, 919.782532  , 31.529274   , 809.0222    , 0.35        , 3           , 255         , 0           , 0
-0.09402183 , -0.08749239 , -9.793675   , -3.626244E-05, -0.000415849732, 0.000546820753, 0.009190358 , -0.009539966, 4.16805451E-05, 919.782532  , 31.529274   , 809.0223    , 0.36        , 3           , 255         , 0           , 0
-0.0928167254, -0.08544733 , -9.80211    , 0.000395662442, -0.00046595087, -3.10877549E-05, 0.009194317 , -0.009544623, 4.132684E-05, 919.782532  , 31.529274   , 809.022339  , 0.37        , 3           , 255         , 0           , 0
-0.08751659 , -0.09092595 , -9.802004   , -0.0003467314, 2.75056082E-05, 0.000233635219, 0.009190829 , -0.009544369, 4.36656774E-05, 919.782532  , 31.529274   , 809.0224    , 0.38        , 3           , 255         , 0           , 0
-0.0951512  , -0.09320152 , -9.792849   , -0.0005424529, -0.000266869552, -0.000604948145, 0.009185462 , -0.009546982, 3.75918025E-05, 919.782532  , 31.529274   , 809.022461  , 0.39        , 3           , 255         , 0           , 0
-0.08573188 , -0.08846933 , -9.79394    , -0.000187836355, -0.000339700258, -0.000170887361, 0.009183601 , -0.009550363, 3.58517718E-05, 919.782532  , 31.529274   , 809.0225    , 0.4         , 3           , 255         , 0           , 0
-0.09064375 , -0.0953632  , -9.797026   , 0.000113050453, -0.000479412818, 0.0006004805, 0.009179691 , -0.009547816, 4.18599921E-05, 919.782532  , 31.529274   , 809.0134    , 0.41        , 3           , 255         , 0           , 0
-0.0878140852, -0.087021634, -9.793838   , -0.000135119888, -0.00020336709, -0.000193676067, 0.009178358 , -0.009549832, 3.990461E-05, 919.782532  , 31.529274   , 809.0135    , 0.42        , 3           , 255         , 0           , 0
-0.09813787 , -0.08852712 , -9.789616   , 0.000320128223, -0.000150760432, 0.000355148659, 0.00918152649, -0.009551371, 4.344217E-05, 919.81134   , 31.5404682  , 809.01355   , 0.43        , 3           , 255         , 0           , 0
-0.108996414, -0.08190106 , -9.78978    , 0.000288447074, -0.000129707478, 0.0003704255, 0.009184375 , -0.009552703, 4.713444E-05, 919.81134   , 31.5404682  , 809.0136    , 0.44        , 3           , 255         , 0           , 0
-0.09927603 , -0.0788465738, -9.797212   , 0.000332884345, 0.000264348375, 0.000143477708, 0.00918769  , -0.009550073, 4.85934579E-05, 919.81134   , 31.5404682  , 809.0137    , 0.45        , 3           , 255         , 0           , 0
-0.08887632 , -0.08590287 , -9.787218   , 0.000584167661, -0.0003092454, -0.000225002659, 0.009193553 , -0.009553143, 4.631506E-05, 919.81134   , 31.5404682  , 809.013733  , 0.46        , 3           , 255         , 0           , 0
-0.09806673 , -0.09315082 , -9.791725   , -6.834307E-05, -0.000245220115, -3.33305652E-05, 0.009192873 , -0.009555592, 4.59592229E-05, 919.81134   , 31.5404682  , 809.0138    , 0.47        , 3           , 255         , 0           , 0
-0.0955169052, -0.09526951 , -9.790751   , 0.000487454585, -0.0004154394, 5.6104047E-05, 0.009197742 , -0.00955975149, 4.64820478E-05, 919.81134   , 31.5404682  , 809.013855  , 0.48        , 3           , 255         , 0           , 0
-0.0878701061, -0.09348492 , -9.787535   , -0.0004289727, -0.000224829564, -0.000300532469, 0.00919348  , -0.009561971, 4.34561152E-05, 919.81134   , 31.5404682  , 809.0139    , 0.49        , 3           , 255         , 0           , 0
-0.09305352 , -0.09605861 , -9.794458   , -0.000226431584, -6.368471E-05, 0.000653885363, 0.009191154 , -0.009562668, 4.99889829E-05, 919.81134   , 31.5404682  , 809.014     , 0.5         , 3           , 255         , 0           , 0
-0.0993384942, -0.0886648148, -9.786566   , -0.000341125531, -0.000148492341, -0.0001424594, 0.009186149 , -0.009569317, 4.856615E-05, 919.81134   , 31.5404682  , 808.955139  , 0.51        , 3           , 255         , 0           , 0
-0.09893828 , -0.09601482 , -9.791376   , 8.120353E-05, -9.247978E-05, -0.000544010545, 0.009187012 , -0.009570192, 4.31176741E-05, 919.81134   , 31.5404682  , 808.9552    , 0.52        , 3           , 255         , 0           , 0
-0.09026253 , -0.0890561938, -9.799633   , 0.000372138456, -7.7140925E-05, -0.000197063317, 0.009190752 , -0.009570946, 4.113999E-05, 919.803467  , 31.5471172  , 808.955261  , 0.53        , 3           , 255         , 0           , 0
-0.0981016457, -0.08418099 , -9.796779   , -9.19631E-05, 6.980114E-05, -0.000253824139, 0.009189857 , -0.009570224, 3.86082065E-05, 919.803467  , 31.5471172  , 808.9553    , 0.54        , 3           , 255         , 0           , 0
-0.0972904637, -0.09283044 , -9.793454   , -0.000179033435, 8.78064748E-05, 0.000152100809, 0.009188052 , -0.009569361, 4.01372527E-05, 919.803467  , 31.5471172  , 808.9554    , 0.55        , 3           , 255         , 0           , 0
-0.09865408 , -0.08990621 , -9.788132   , 0.000283484755, -0.000181071257, 2.02068532E-05, 0.009190885 , -0.009571173, 4.03226768E-05, 919.803467  , 31.5471172  , 808.955444  , 0.56        , 3           , 255         , 0           , 0
-0.09868495 , -0.0862353  , -9.792471   , 0.0002914075, 0.0005716204, -0.000174796049, 0.009193817 , -0.009565442, 3.86272841E-05, 919.803467  , 31.5471172  , 808.9555    , 0.57        , 3           , 255         , 0           , 0
-0.09202983 , -0.09286557 , -9.800882   , 0.0007821915, 0.000295230828, 0.000192196749, 0.009201619 , -0.009562507, 4.05763676E-05, 919.803467  , 31.5471172  , 808.955566  , 0.58        , 3           , 255         , 0           , 0
-0.0981498659, -0.0984228  , -9.80372    , 0.000277780782, -2.56331987E-05, -0.000114350347, 0.009204409 , -0.009562753, 3.943053E-05, 919.803467  , 31.5471172  , 808.9557    , 0.59        , 3           , 255         , 0           , 0
-0.08672138 , -0.0906244144, -9.803604   , 0.0001962739, 0.000226237229, -0.0007189779, 0.00920644  , -0.009560425, 3.22617234E-05, 919.803467  , 31.5471172  , 808.9558    , 0.6         , 3           , 255         , 0           , 0
-0.09617631 , -0.09310974 , -9.801485   , 0.000232839113, -8.725967E-05, 0.000214752974, 0.009211332 , -0.00956748 , 3.43764441E-05, 919.803467  , 31.5471172  , 808.9285    , 0.61        , 3           , 255         , 0           , 0
-0.100485004, -0.08248624 , -9.790619   , 0.000337535661, -0.000360082544, -6.34540856E-06, 0.009214707 , -0.00957108 , 3.42798121E-05, 919.803467  , 31.5471172  , 808.9286    , 0.62        , 3           , 255         , 0           , 0
-0.0945608  , -0.088087514, -9.793749   , 9.066705E-05, -4.52892127E-05, 0.0001950326, 0.009215594 , -0.00957155 , 3.62259343E-05, 919.7915    , 31.5528831  , 808.92865   , 0.63        , 3           , 255         , 0           , 0
-0.0872370452, -0.09928498 , -9.7956295  , 0.000370823342, 5.971566E-05, -0.000225062322, 0.009219325 , -0.009570934, 3.39808539E-05, 919.7915    , 31.5528831  , 808.9288    , 0.64        , 3           , 255         , 0           , 0
-0.0938565955, -0.09052167 , -9.802564   , -0.000198361638, 0.000128467334, -5.45595576E-05, 0.009217346 , -0.009569644, 3.344712E-05, 919.7915    , 31.5528831  , 808.9289    , 0.65        , 3           , 255         , 0           , 0
-0.0979494  , -0.08420248 , -9.795349   , -2.353685E-05, -0.0002438946, 0.000506536453, 0.009217062 , -0.00957213 , 3.84898922E-05, 919.7915    , 31.5528831  , 808.929     , 0.66        , 3           , 255         , 0           , 0
-0.0974869  , -0.07860744 , -9.795264   , 0.0005928386, -0.000185811208, 0.0002142787, 0.009222968 , -0.009574007, 4.06154977E-05, 919.7915    , 31.5528831  , 808.929138  , 0.67        , 3           , 255         , 0           , 0
-0.09992979 , -0.08064674 , -9.798811   , 0.0001031438, 0.000150560285, 0.0005283747, 0.009223948 , -0.009572551, 4.591301E-05, 919.7915    , 31.5528831  , 808.92926   , 0.68        , 3           , 255         , 0           , 0
-0.09760828 , -0.0841360539, -9.800219   , -6.46173139E-05, 0.000332135 , -0.000534145744, 0.009223353 , -0.00956918 , 4.060231E-05, 919.7915    , 31.5528831  , 808.9294    , 0.69        , 3           , 255         , 0           , 0
-0.09946032 , -0.08581838 , -9.805308   , 4.581758E-05, -0.000479661, 1.49630077E-05, 0.00922380947, -0.009573977, 4.0707695E-05, 919.7915    , 31.5528831  , 808.9295    , 0.7         , 3           , 255         , 0           , 0
-0.101554714, -0.0895762  , -9.795982   , 0.000657554 , 0.000363473373, -0.000320589985, 0.009221133 , -0.009577221, 3.76243042E-05, 919.7915    , 31.5528831  , 808.925842  , 0.71        , 3           , 255         , 0           , 0
-0.09553639 , -0.0908465758, -9.790352   , -0.0003088115, 4.083637E-05, -0.000327392452, 0.009218075 , -0.009576782, 3.435422E-05, 919.7915    , 31.5528831  , 808.925964  , 0.72        , 3           , 255         , 0           , 0
-0.09569241 , -0.09013436 , -9.793193   , -0.0002241506, -1.40130724E-05, 0.000171394859, 0.009215818 , -0.009576938, 3.606684E-05, 919.7827    , 31.5504417  , 808.9261    , 0.73        , 3           , 255         , 0           , 0
-0.09105512 , -0.089582935, -9.797012   , -0.000260702043, -5.27446537E-05, 0.000105232823, 0.0092132   , -0.00957747549, 3.71142778E-05, 919.7827    , 31.5504417  , 808.9262    , 0.74        , 3           , 255         , 0           , 0
-0.0794588253, -0.09527431 , -9.799023   , -4.7993206E-05, 7.77119858E-05, -4.36389128E-05, 0.009212725 , -0.009576694, 3.66850545E-05, 919.7827    , 31.5504417  , 808.926331  , 0.75        , 3           , 255         , 0           , 0
-0.08627984 , -0.0855078548, -9.797035   , -0.000508212659, -0.000341595849, 0.000392217538, 0.009207605 , -0.009580146, 4.05757E-05 , 919.7827    , 31.5504417  , 808.926453  , 0.76        , 3           , 255         , 0           , 0
-0.09213157 , -0.0904028863, -9.796492   , 3.15133366E-05, -0.00017960892, -0.000471996638, 0.009207966 , -0.00958189648, 3.58392936E-05, 919.7827    , 31.5504417  , 808.9266    , 0.77        , 3           , 255         , 0           , 0
-0.1016413  , -0.0947445557, -9.786777   , -0.00027214695, -0.0002618205, -5.361463E-05, 0.009205248 , -0.00958451 , 3.52790521E-05, 919.7827    , 31.5504417  , 808.9267    , 0.78        , 3           , 255         , 0           , 0
-0.08818252 , -0.08141611 , -9.79904652 , -0.000463870179, 0.000297300576, -5.53050668E-05, 0.009200617 , -0.009581531, 3.475338E-05, 919.7827    , 31.5504417  , 808.9268    , 0.79        , 3           , 255         , 0           , 0
-0.08389303 , -0.08237206 , -9.793429   , -0.000385747233, 0.000116308162, 0.000619653 , 0.0091967   , -0.009580428, 4.09604727E-05, 919.7827    , 31.5504417  , 808.926941  , 0.8         , 3           , 255         , 0           , 0
-0.08972027 , -0.08948838 , -9.805934   , 7.648155E-05, 0.000215931475, -1.731546E-05, 0.009193717 , -0.009571492, 4.08430642E-05, 919.7827    , 31.5504417  , 808.935     , 0.81        , 3           , 255         , 0           , 0
-0.102499679, -0.083466664, -9.7937     , 0.0007640511, -0.00034467713, -0.000147930521, 0.009201371 , -0.009574925, 3.93320843E-05, 919.7827    , 31.5504417  , 808.9351    , 0.82        , 3           , 255         , 0           , 0
-0.09808537 , -0.08480814 , -9.790296   , 0.000372811337, -0.000166600774, 0.000290077616, 0.009205072 , -0.009576617, 4.22174635E-05, 919.794739  , 31.5597343  , 808.935242  , 0.83        , 3           , 255         , 0           , 0
-0.103753611, -0.09155901 , -9.791039   , 6.28070557E-05, 3.14941E-05 , -0.000123437843, 0.009205712 , -0.009576291, 4.09860149E-05, 919.794739  , 31.5597343  , 808.935364  , 0.84        , 3           , 255         , 0           , 0
-0.10851302 , -0.093200244, -9.799225   , -0.000172960863, 0.000441654847, 7.56607E-05 , 0.009203974 , -0.009571882, 4.17832562E-05, 919.794739  , 31.5597343  , 808.9355    , 0.85        , 3           , 255         , 0           , 0
-0.09976284 , -0.09584774 , -9.809118   , 9.467069E-06, 0.000494942651, -0.00045680083, 0.009204113 , -0.009566891, 3.72609029E-05, 919.794739  , 31.5597343  , 808.9356    , 0.86        , 3           , 255         , 0           , 0
-0.08817369 , -0.08537877 , -9.788631   , -0.000361564627, 0.000443768018, 3.01940181E-05, 0.009200493 , -0.009562456, 3.76036842E-05, 919.794739  , 31.5597343  , 808.9357    , 0.87        , 3           , 255         , 0           , 0
-0.0858045146, -0.0901751146, -9.778482   , -6.104162E-05, -0.000374409428, 4.502895E-05, 0.00919988  , -0.009566204, 3.801951E-05, 919.794739  , 31.5597343  , 808.935852  , 0.88        , 3           , 255         , 0           , 0
-0.08675957 , -0.0958767161, -9.789865   , 0.000240743044, -0.00020269581, 6.825551E-05, 0.00920228  , -0.009568238, 3.86833963E-05, 919.794739  , 31.5597343  , 808.936     , 0.89        , 3           , 255         , 0           , 0
-0.082420744, -0.08215363 , -9.79936    , 0.000116702751, -0.000159882708, -0.000213829131, 0.00920346752, -0.009569816, 3.6530444E-05, 919.794739  , 31.5597343  , 808.9361    , 0.9         , 3           , 255         , 0           , 0
-0.0878719538, -0.09242939 , -9.803159   , 0.0002256011, -0.000264981936, -0.00012794997, 0.009202899 , -0.009574732, 3.52537281E-05, 919.794739  , 31.5597343  , 808.9289    , 0.91        , 3           , 255         , 0           , 0
-0.09000684 , -0.08570496 , -9.79336548 , -7.860357E-05, -6.775516E-05, 0.000131957611, 0.009202102 , -0.009575421, 3.656704E-05, 919.794739  , 31.5597343  , 808.929     , 0.92        , 3           , 255         , 0           , 0
-0.09946765 , -0.08112464 , -9.792403   , 0.000278655032, -2.110735E-05, -0.0002285379, 0.00920491  , -0.009575611, 3.427976E-05, 919.8471    , 31.560482   , 808.929138  , 0.93        , 3           , 255         , 0           , 0
-0.0976537  , -0.09508378 , -9.782867   , -0.000175799767, -0.000232414968, 0.000442298275, 0.009203109 , -0.009577976, 3.868126E-05, 919.8471    , 31.560482   , 808.92926   , 0.94        , 3           , 255         , 0           , 0
-0.09524998 , -0.09819217 , -9.788547   , 2.20618676E-06, -6.835624E-05, 0.0005113313, 0.009203083 , -0.009578706, 4.378817E-05, 919.8471    , 31.560482   , 808.9294    , 0.95        , 3           , 255         , 0           , 0
-0.09943783 , -0.0883461  , -9.796637   , 0.000612121657, 9.06091E-06 , 0.000691082561, 0.00920913648, -0.00957868 , 5.06996839E-05, 919.8471    , 31.560482   , 808.9295    , 0.96        , 3           , 255         , 0           , 0
-0.08823748 , -0.0915432349, -9.80048    , 0.000658829347, 5.700873E-06, -0.000118844408, 0.009215736 , -0.009578611, 4.95117929E-05, 919.8471    , 31.560482   , 808.9296    , 0.97        , 3           , 255         , 0           , 0
-0.0913655758, -0.09625839 , -9.79593    , -1.0383781E-05, -4.24758618E-05, 0.0001793352, 0.009215616 , -0.009579052, 5.13011873E-05, 919.8471    , 31.560482   , 808.929749  , 0.98        , 3           , 255         , 0           , 0
-0.09673747 , -0.09074491 , -9.794974   , -0.000443738536, -8.41636938E-05, -0.0005346417, 0.009211229 , -0.009579844, 4.594713E-05, 919.8471    , 31.560482   , 808.9299    , 0.99        , 3           , 255         , 0           , 0
-0.0957124457, -0.09342446 , -9.801877   , -0.000167295744, -0.0001389917, -0.0005958909, 0.009209613 , -0.009581179, 3.99755445E-05, 919.8471    , 31.560482   , 808.930054  , 1           , 3           , 0           , 6.017236    , 100
-0.09428662 , -0.082530275, -9.802193   , -0.0003231034, -0.000208876678, -0.000692396949, 0.009209611 , -0.009584165, 3.3002194E-05, 919.8471    , 31.560482   , 808.8666    , 1.01        , 3           , 1           , 0           , 0
-0.0855084658, -0.09255972 , -9.802031   , 0.000281797053, 0.0004834394, -4.19255666E-05, 0.009212433 , -0.009579328, 3.26274749E-05, 919.8471    , 31.560482   , 808.866638  , 1.02        , 3           , 2           , 0           , 0
-0.09084138 , -0.0979519561, -9.794708   , -0.000108687847, -0.000151539571, 5.81401328E-05, 0.009211341 , -0.009580848, 3.3194905E-05, 919.836     , 31.5632629  , 808.8667    , 1.03        , 3           , 3           , 0           , 0
-0.097664386, -0.0941269845, -9.787027   , 8.937821E-05, -0.000284999725, -0.000131329318, 0.009212248 , -0.00958368648, 3.185538E-05, 919.836     , 31.5632629  , 808.86676   , 1.04        , 3           , 4           , 0           , 0
-0.100726768, -0.08352171 , -9.775794   , 0.00011553592, 0.0002623778, 0.000579981366, 0.009213347 , -0.009581117, 3.767924E-05, 919.836     , 31.5632629  , 808.8668    , 1.05        , 3           , 5           , 0           , 0
-0.0940413848, -0.08358709 , -9.785863   , 0.000185229816, -0.000248252676, 0.0001660745, 0.00921518449, -0.009583615, 3.93170776E-05, 919.836     , 31.5632629  , 808.8669    , 1.06        , 3           , 6           , 0           , 0
-0.09081556 , -0.0808640644, -9.788819   , 0.000371364527, 4.564965E-05, -0.000242641647, 0.00921892  , -0.009583135, 3.68949331E-05, 919.836     , 31.5632629  , 808.866943  , 1.07        , 3           , 7           , 0           , 0
-0.101344481, -0.09075155 , -9.793848   , -0.000194232678, -4.85529E-05, -0.000314706151, 0.009217008 , -0.009583593, 3.37434576E-05, 919.836     , 31.5632629  , 808.867     , 1.08        , 3           , 8           , 5           , 5
-0.09318532 , -0.0897027552, -9.794034   , -0.000223164679, 6.545115E-05, -0.0003544046, 0.00921481  , -0.009582905, 3.02055214E-05, 919.836     , 31.5632629  , 808.867065  , 1.09        , 3           , 9           , 5           , 0.1
-0.089865014, -0.0827048644, -9.788101   , 0.000215652428, -6.748701E-05, -0.0003087311, 0.009216996 , -0.009583552, 2.71120571E-05, 919.836     , 31.5632629  , 808.8671    , 1.1         , 3           , 10          , 0.1         , 0.1
-0.0979819447, -0.08138225 , -9.792983   , -0.00038061064, -0.000112317037, -0.000184549674, 0.009204753 , -0.00958466 , 2.53372837E-05, 919.836     , 31.5632629  , 808.8248    , 1.11        , 3           , 11          , 0.009308214 , 0.009308215
-0.09804823 , -0.076484   , -9.788867   , -8.034607E-05, 0.000127682782, -0.000284827431, 0.009203976 , -0.009583357, 2.25008243E-05, 919.836     , 31.5632629  , 808.824768  , 1.12        , 3           , 12          , 0.174642846 , 0
-0.09481934 , -0.08656562 , -9.792798   , 0.000102290418, -3.42435524E-05, -0.000310922274, 0.009205028 , -0.009583671, 1.93885171E-05, 919.817566  , 31.5626526  , 808.8247    , 1.13        , 3           , 13          , 0           , 0
-0.08509605 , -0.09830372 , -9.801617   , -6.300269E-05, 0.0002855591, -0.0003602634, 0.009204434 , -0.009580782, 1.58122421E-05, 919.817566  , 31.5626526  , 808.824646  , 1.14        , 3           , 14          , -0.0006774901, -0.000204297074
-0.09322368 , -0.08457352 , -9.793634   , 0.000242699985, -0.0001355992, -6.98932345E-05, 0.009206869 , -0.00958213 , 1.5100838E-05, 919.817566  , 31.5626526  , 808.8246    , 1.15        , 3           , 15          , 0           , -1.735033E-06
-0.09464657 , -0.097123906, -9.792411   , 0.000376670185, -1.95354078E-05, 0.0004588397, 0.00921059  , -0.009582368, 1.96873389E-05, 919.817566  , 31.5626526  , 808.8245    , 1.16        , 3           , 16          , 0           , 1.401298E-45
-0.08492424 , -0.095332   , -9.791744   , -0.000257533742, -1.22608035E-05, -0.000256634172, 0.00920804  , -0.009582466, 1.71199263E-05, 919.817566  , 31.5626526  , 808.824463  , 1.17        , 3           , 20          , 0           , 0
-0.08039699 , -0.09136315 , -9.794368   , 9.99402255E-05, -0.000226747419, 0.000116410272, 0.00920902751, -0.009584744, 1.82631211E-05, 919.817566  , 31.5626526  , 808.8244    , 1.18        , 3           , 21          , 0           , 0
-0.0936926454, -0.08577803 , -9.79556751 , 0.000315523648, -0.000171781867, 0.0003955432, 0.009212145 , -0.009586499, 2.22026447E-05, 919.817566  , 31.5626526  , 808.824341  , 1.19        , 3           , 22          , 0           , 0
-0.09163772 , -0.08835165 , -9.799387   , 0.0006480124, -0.00013950665, 0.000691511552, 0.00921856053, -0.00958795752, 2.91047618E-05, 919.817566  , 31.5626526  , 808.8243    , 1.2         , 3           , 40          , 0           , 0
-0.09035644 , -0.08385031 , -9.791595   , -1.54143781E-05, 0.000729234249, 0.000213913489, 0.009213882 , -0.009574092, 3.13541677E-05, 919.817566  , 31.5626526  , 808.8066    , 1.21        , 3           , 41          , 0           , 0
-0.09342166 , -0.0861240551, -9.798801   , 0.0005744362, 0.0003983929, 3.38119244E-05, 0.009219623 , -0.00957011152, 3.1728996E-05, 919.817566  , 31.5626526  , 808.806458  , 1.22        , 3           , 42          , 0           , 0
-0.09098349 , -0.08586442 , -9.79747    , -0.000406485051, -6.09121344E-06, 0.0005276417, 0.009215508 , -0.009570221, 3.700474E-05, 919.770142  , 31.5653667  , 808.806335  , 1.23        , 3           , 255         , 0           , 0
-0.09629607 , -0.07907189 , -9.794859   , -0.000110081746, 2.51202728E-05, 0.000482834759, 0.009214361 , -0.009570015, 4.18352975E-05, 919.770142  , 31.5653667  , 808.8063    , 1.24        , 3           , 255         , 0           , 0
-0.0985397249, -0.0873124152, -9.801597   , -0.000348743168, 6.2502324E-05, 0.000152268025, 0.00921085849, -0.009569405, 4.33637E-05 , 919.770142  , 31.5653667  , 808.8062    , 1.25        , 3           , 255         , 0           , 0
-0.08964799 , -0.08149175 , -9.790329   , 0.0005178993, 0.000287653646, -5.58085922E-05, 0.009216044 , -0.009566522, 4.283213E-05, 919.770142  , 31.5653667  , 808.806152  , 1.26        , 3           , 255         , 0           , 0
-0.0968650356, -0.08755137 , -9.793389   , 0.000310138334, -6.33156E-05, -0.0003217149, 0.009219176 , -0.009567126, 3.96092037E-05, 919.770142  , 31.5653667  , 808.8061    , 1.27        , 3           , 255         , 0           , 0
-0.0937321857, -0.08802169 , -9.789385   , -0.000198981434, -0.000154486086, -0.000350505463, 0.00921722  , -0.009568638, 3.6089983E-05, 919.770142  , 31.5653667  , 808.806     , 1.28        , 3           , 255         , 0           , 0
-0.08849541 , -0.08117495 , -9.790219   , 9.905291E-05, 4.1990832E-05, -0.000178515023, 0.009218228 , -0.009568201, 3.430874E-05, 919.770142  , 31.5653667  , 808.805969  , 1.29        , 3           , 255         , 0           , 0
-0.08463283 , -0.093004   , -9.793766   , 0.0004648421, -0.000102272388, -0.0006896674, 0.009222942 , -0.009569161, 2.74027861E-05, 919.770142  , 31.5653667  , 808.8059    , 1.3         , 3           , 255         , 0           , 0
-0.0885749459, -0.08899296 , -9.793673   , 0.000334005628, -3.44041619E-05, -0.0001559959, 0.009213072 , -0.009565601, 2.59662029E-05, 919.770142  , 31.5653667  , 808.839     , 1.31        , 3           , 255         , 0           , 0
-0.0945582241, -0.08277829 , -9.799312   , -9.11100651E-05, 0.0003625437, -0.000536434643, 0.009212213 , -0.009561927, 2.0635367E-05, 919.770142  , 31.5653667  , 808.83905   , 1.32        , 3           , 255         , 0           , 0
-0.09429345 , -0.093648985, -9.791829   , -0.000179526862, 0.000335369026, -0.0006769006, 0.009210482 , -0.009558511, 1.38974019E-05, 919.8074    , 31.5671978  , 808.8391    , 1.33        , 3           , 255         , 0           , 0
-0.0978823751, -0.09065956 , -9.791906   , -0.000309687981, -0.0003329095, -0.000270883582, 0.009207413 , -0.009561815, 1.11579693E-05, 919.8074    , 31.5671978  , 808.8392    , 1.34        , 3           , 255         , 0           , 0
-0.103269145, -0.0873655155, -9.804893   , -0.000175348658, 9.553506E-05, 0.0002364283, 0.009205636 , -0.009560881, 1.35309938E-05, 919.8074    , 31.5671978  , 808.839233  , 1.35        , 3           , 255         , 0           , 0
-0.0913462862, -0.09098211 , -9.794729   , -0.000110013, -0.0001287332, 0.000486227073, 0.009204489 , -0.009562213, 1.83813154E-05, 919.8074    , 31.5671978  , 808.8393    , 1.36        , 3           , 255         , 0           , 0
-0.087022014, -0.09299765 , -9.797792   , 0.000174254121, -0.0001068507, -0.000419393153, 0.009206272 , -0.009563245, 1.41776354E-05, 919.8074    , 31.5671978  , 808.839355  , 1.37        , 3           , 255         , 0           , 0
-0.101008967, -0.09012288 , -9.800891   , 0.000418469222, 0.00029034965, -0.00106115721, 0.009210557 , -0.009560242, 3.593039E-06, 919.8074    , 31.5671978  , 808.8394    , 1.38        , 3           , 255         , 0           , 0
-0.110830769, -0.0854618251, -9.803087   , -0.0004701311, 0.000141161858, -0.000461235933, 0.0092059   , -0.0095587885, -1.00622719E-06, 919.8074    , 31.5671978  , 808.8395    , 1.39        , 3           , 255         , 0           , 0
-0.1001422  , -0.09288208 , -9.796625   , -3.16777732E-06, -0.000233735918, -0.000247719436, 0.009205893 , -0.009561103, -3.50488335E-06, 919.8074    , 31.5671978  , 808.839539  , 1.4         , 3           , 255         , 0           , 0
-0.08362292 , -0.0948715955, -9.806648   , 2.38947687E-05, 0.000234461113, -0.000127919382, 0.009204827 , -0.009565646, -4.74987928E-06, 919.8074    , 31.5671978  , 808.8306    , 1.41        , 3           , 255         , 0           , 0
-0.0948057  , -0.09124364 , -9.795613   , -0.000492776046, 0.0005380558, 0.0001932076, 0.00919988  , -0.009560283, -2.76833384E-06, 919.8074    , 31.5671978  , 808.8306    , 1.42        , 3           , 255         , 0           , 0
-0.0951487347, -0.08642173 , -9.790678   , 0.000134268426, 0.0002898933, 0.0005788115, 0.009201168 , -0.009557437, 3.04632817E-06, 919.802551  , 31.5646877  , 808.8306    , 1.43        , 3           , 255         , 0           , 0
-0.0909104  , -0.07744629 , -9.796524   , 0.0003953883, -3.38890241E-05, 0.000204661323, 0.009205102 , -0.009557796, 5.089776E-06, 919.802551  , 31.5646877  , 808.8307    , 1.44        , 3           , 255         , 0           , 0
-0.09023632 , -0.08807795 , -9.79638    , 0.000338014652, -0.000240453111, -0.000238730965, 0.009208505 , -0.009560178, 2.68038525E-06, 919.802551  , 31.5646877  , 808.83075   , 1.45        , 3           , 255         , 0           , 0
-0.091753155, -0.08336624 , -9.792576   , 3.51723866E-05, 4.580681E-06, 0.000340360129, 0.00920882449, -0.009560164, 6.08432856E-06, 919.802551  , 31.5646877  , 808.8308    , 1.46        , 3           , 255         , 0           , 0
-0.0996874943, -0.08599828 , -9.799474   , 0.000405797 , 0.00014858869, -0.000289445423, 0.00921291  , -0.009558652, 3.20362324E-06, 919.802551  , 31.5646877  , 808.8309    , 1.47        , 3           , 255         , 0           , 0
-0.09187375 , -0.08891412 , -9.797214   , 0.0004534115, 5.210092E-05, -0.000288988347, 0.009217472 , -0.009558104, 3.1860327E-07, 919.802551  , 31.5646877  , 808.830933  , 1.48        , 3           , 255         , 0           , 0
-0.09319208 , -0.0888024941, -9.78909    , -3.704318E-05, 0.000118913114, 0.000133816036, 0.009217087 , -0.009556927, 1.66769667E-06, 919.802551  , 31.5646877  , 808.831     , 1.49        , 3           , 255         , 0           , 0
-0.102126017, -0.09838813 , -9.795517   , -0.0003606727, -0.0004979099, 0.000203957272, 0.009213462 , -0.009561924, 3.66134554E-06, 919.802551  , 31.5646877  , 808.831055  , 1.5         , 3           , 255         , 0           , 0
-0.09766029 , -0.085028626, -9.791319   , -0.000210133439, -0.0004429546, 7.149116E-05, 0.009207117 , -0.009565639, 4.37596827E-06, 919.802551  , 31.5646877  , 808.8282    , 1.51        , 3           , 255         , 0           , 0
-0.09177784 , -0.08322011 , -9.817603   , 0.000184991746, 0.000292958866, 0.000203979638, 0.009208947 , -0.00956273 , 6.44269358E-06, 919.802551  , 31.5646877  , 808.828247  , 1.52        , 3           , 255         , 0           , 0
-0.09609543 , -0.0827473551, -9.797041   , -0.000292983255, 0.000126059575, 0.000402890117, 0.009205978 , -0.009561505, 1.04831161E-05, 919.8305    , 31.5659771  , 808.8283    , 1.53        , 3           , 255         , 0           , 0
-0.0908510238, -0.0795092  , -9.787888   , -0.0002743759, 0.000333390257, -0.0003289562, 0.009203266 , -0.009558141, 7.22431241E-06, 919.8305    , 31.5659771  , 808.828369  , 1.54        , 3           , 255         , 0           , 0
-0.0879201442, -0.08596736 , -9.791439   , -0.000460607931, 7.476965E-05, -0.00112243113, 0.009198767 , -0.00955729 , -3.99287865E-06, 919.8305    , 31.5659771  , 808.8284    , 1.55        , 3           , 255         , 0           , 0
-0.09272996 , -0.08679572 , -9.797318   , -0.00066390587, 0.000288788462, 0.0002757681, 0.009192103 , -0.009554428, -1.20870459E-06, 919.8305    , 31.5659771  , 808.8285    , 1.56        , 3           , 255         , 0           , 0
-0.0960047245, -0.0859200358, -9.790972   , -0.0003996645, 0.000117535121, -0.000226509845, 0.009188128 , -0.009553231, -3.46295383E-06, 919.8305    , 31.5659771  , 808.828552  , 1.57        , 3           , 255         , 0           , 0
-0.101208471, -0.088303864, -9.791039   , -0.000654444, -0.000248099619, -4.43984536E-05, 0.009181588 , -0.009555709, -3.92970969E-06, 919.8305    , 31.5659771  , 808.8286    , 1.58        , 3           , 255         , 0           , 0
-0.09472885 , -0.09594659 , -9.79542    , 0.000313553348, -0.000277232175, -0.000163191668, 0.009184739 , -0.009558466, -5.58705233E-06, 919.8305    , 31.5659771  , 808.8287    , 1.59        , 3           , 255         , 0           , 0
-0.09838051 , -0.09395457 , -9.79849    , -0.000162075623, 4.59853036E-05, 0.000371646427, 0.009183083 , -0.009558041, -1.86644854E-06, 919.8305    , 31.5659771  , 808.828735  , 1.6         , 3           , 255         , 0           , 0
-0.09048651 , -0.09557479 , -9.793608   , -0.0002711148, -0.0002454429, 0.0003879336, 0.009172651 , -0.00956303347, 2.063749E-06, 919.8305    , 31.5659771  , 808.796143  , 1.61        , 3           , 255         , 0           , 0
-0.09652865 , -0.09353812 , -9.801226   , -0.000163856428, -7.724947E-05, -0.0003580955, 0.009171047 , -0.009563773, -1.524212E-06, 919.8305    , 31.5659771  , 808.796     , 1.62        , 3           , 255         , 0           , 0
-0.0912966654, -0.09220051 , -9.789901   , 8.303556E-05, -0.000238737717, -0.0009862487, 0.009171972 , -0.009566071, -1.14083859E-05, 919.7967    , 31.5693684  , 808.7959    , 1.63        , 3           , 255         , 0           , 0
-0.09882818 , -0.0863541961, -9.797804   , -0.0004750433, 1.05446525E-05, -0.0005638116, 0.009167275 , -0.009565914, -1.70454168E-05, 919.7967    , 31.5693684  , 808.7958    , 1.64        , 3           , 255         , 0           , 0
-0.09567368 , -0.09056439 , -9.800738   , 6.235641E-05, 1.20051263E-05, 0.000186325691, 0.009167882 , -0.009565811, -1.51810973E-05, 919.7967    , 31.5693684  , 808.795654  , 1.65        , 3           , 255         , 0           , 0
-0.0957704559, -0.09499678 , -9.788001   , 0.000530552468, -0.000309636933, -3.40404076E-05, 0.00917319  , -0.00956890453, -1.5549891E-05, 919.7967    , 31.5693684  , 808.795532  , 1.66        , 3           , 255         , 0           , 0
-0.08318458 , -0.09599018 , -9.787402   , 0.000193282292, -0.0004156378, 0.0005576948, 0.009175069 , -0.009573109, -1.00111838E-05, 919.7967    , 31.5693684  , 808.7954    , 1.67        , 3           , 255         , 0           , 0
-0.08583162 , -0.09221941 , -9.80487251 , -5.04945638E-05, -0.000148746578, 0.000811149366, 0.009174486 , -0.009574671, -1.91351182E-06, 919.7967    , 31.5693684  , 808.7953    , 1.68        , 3           , 255         , 0           , 0
-0.09487939 , -0.0917856842, -9.802973   , -0.000116172712, 5.63092035E-05, 0.000186557329, 0.009173307 , -0.00957412552, -4.28136957E-08, 919.7967    , 31.5693684  , 808.795166  , 1.69        , 3           , 255         , 0           , 0
-0.0942777842, -0.08214768 , -9.79855    , 0.00056138006, 4.807026E-05, -0.000310191535, 0.009178949 , -0.009573617, -3.14025442E-06, 919.7967    , 31.5693684  , 808.795044  , 1.7         , 3           , 255         , 0           , 0
-0.09600814 , -0.07707535 , -9.798349   , 0.0008171308, 0.000126019149, 6.55377444E-05, 0.009190787 , -0.00957014 , -2.50847575E-06, 919.7967    , 31.5693684  , 808.8027    , 1.71        , 3           , 255         , 0           , 0
-0.09390128 , -0.09309536 , -9.798517   , 0.000607147464, -0.0003231987, -0.0001705784, 0.009196876 , -0.009573354, -4.243937E-06, 919.7967    , 31.5693684  , 808.8026    , 1.72        , 3           , 255         , 0           , 0
-0.09495153 , -0.0887936056, -9.794028   , 0.0003018611, -0.000166024489, -0.000116243755, 0.009199903 , -0.009575005, -5.42161933E-06, 919.836365  , 31.5712013  , 808.802551  , 1.73        , 3           , 255         , 0           , 0
-0.100444719, -0.092394866, -9.798613   , 0.000331352348, 9.010798E-05, 0.0002241542, 0.009203196 , -0.009574125, -3.171837E-06, 919.836365  , 31.5712013  , 808.8025    , 1.74        , 3           , 255         , 0           , 0
-0.1004148  , -0.08861418 , -9.793364   , 0.000160756521, -0.000185832876, 4.25913277E-05, 0.0092048   , -0.009575986, -2.76303717E-06, 919.836365  , 31.5712013  , 808.8024    , 1.75        , 3           , 255         , 0           , 0
-0.09758789 , -0.07982689 , -9.798741   , -0.000129400869, -0.000409679924, -3.80770834E-05, 0.00920351  , -0.00958007947, -3.18150751E-06, 919.836365  , 31.5712013  , 808.802368  , 1.76        , 3           , 255         , 0           , 0
-0.0959558859, -0.0803796053, -9.800344   , -6.1708095E-05, -0.000302720728, 0.000284593552, 0.009202865 , -0.009583132, -3.63490784E-07, 919.836365  , 31.5712013  , 808.8023    , 1.77        , 3           , 255         , 0           , 0
-0.08922227 , -0.08810449 , -9.792201   , -0.00016559154, -0.000334665849, 0.0005318023, 0.009201159 , -0.009586529, 4.923619E-06, 919.836365  , 31.5712013  , 808.802246  , 1.78        , 3           , 255         , 0           , 0
-0.0792472  , -0.09247205 , -9.788112   , -0.000226773729, -0.000397424534, 4.78803349E-06, 0.00919889  , -0.009590503, 4.93494144E-06, 919.836365  , 31.5712013  , 808.8022    , 1.79        , 3           , 255         , 0           , 0
-0.09079461 , -0.09207271 , -9.797335   , -0.000312518969, 2.41394882E-05, 0.0003214342, 0.009195736 , -0.009590291, 8.151426E-06, 919.836365  , 31.5712013  , 808.8021    , 1.8         , 3           , 255         , 0           , 0
-0.09686334 , -0.09069552 , -9.800772   , 0.000208945654, 0.0003163648, 0.0006378951, 0.009191534 , -0.00958729 , 1.46190505E-05, 919.836365  , 31.5712013  , 808.7642    , 1.81        , 3           , 255         , 0           , 0
-0.09595513 , -0.09106406 , -9.801889   , -0.000251670368, -1.657047E-05, 0.0004653907, 0.009188972 , -0.009587497, 1.92713342E-05, 919.836365  , 31.5712013  , 808.764     , 1.82        , 3           , 255         , 0           , 0
-0.09348275 , -0.09375356 , -9.794748   , -0.000368049077, 0.000180784016, 0.0006952262, 0.009185225 , -0.009585753, 2.62400554E-05, 919.817932  , 31.5684185  , 808.763733  , 1.83        , 3           , 255         , 0           , 0
-0.09766047 , -0.08970819 , -9.78467751 , -0.00050739717, 0.0004108245, 0.000436144153, 0.00918011  , -0.009581685, 3.06391339E-05, 919.817932  , 31.5684185  , 808.7635    , 1.84        , 3           , 255         , 0           , 0
-0.09013578 , -0.08462586 , -9.785169   , -0.00017690094, -0.00048723456, -0.000257682521, 0.009178366 , -0.009586534, 2.80176337E-05, 919.817932  , 31.5684185  , 808.763245  , 1.85        , 3           , 255         , 0           , 0
-0.09369372 , -0.08001456 , -9.787473   , -3.997446E-05, -0.000566613162, 0.000238099965, 0.009177945 , -0.009592221, 3.0346584E-05, 919.817932  , 31.5684185  , 808.763     , 1.86        , 3           , 255         , 0           , 0
-0.08508283 , -0.0810883641, -9.785749   , 0.000283568021, -0.000371148635, 0.000513125444, 0.009180732 , -0.00959598 , 3.54436561E-05, 919.817932  , 31.5684185  , 808.762756  , 1.87        , 3           , 255         , 0           , 0
-0.09850257 , -0.08325922 , -9.793375   , 0.0003088731, -0.000173636261, -0.000125626815, 0.009183832 , -0.009597705, 3.41714767E-05, 919.817932  , 31.5684185  , 808.7625    , 1.88        , 3           , 255         , 0           , 0
-0.0930445343, -0.08952858 , -9.797213   , 0.0002430676, -1.54058071E-05, 0.0001257891, 0.00918625  , -0.00959787052, 3.54279218E-05, 919.817932  , 31.5684185  , 808.762268  , 1.89        , 3           , 255         , 0           , 0
-0.09125732 , -0.08624057 , -9.795519   , 0.000151932531, -0.0001381341, 0.0002862448, 0.00918774  , -0.009599278, 3.82776234E-05, 919.817932  , 31.5684185  , 808.762     , 1.9         , 3           , 255         , 0           , 0
-0.09868454 , -0.0840431452, -9.791928   , 0.0004216915, -0.000162949742, -8.475112E-05, 0.009184346 , -0.009600114, 3.74883457E-05, 919.817932  , 31.5684185  , 808.749     , 1.91        , 3           , 255         , 0           , 0
-0.0957892239, -0.08097091 , -9.793174   , 7.981458E-05, -0.000184138989, -0.0008439033, 0.009185223 , -0.009601878, 2.90325752E-05, 919.817932  , 31.5684185  , 808.7487    , 1.92        , 3           , 255         , 0           , 0
-0.09520467 , -0.0886327252, -9.791128   , 0.000162357115, 0.000226053453, -0.0003898375, 0.009186882 , -0.009599582, 2.51550537E-05, 919.792358  , 31.5688267  , 808.7484    , 1.93        , 3           , 255         , 0           , 0
-0.09394525 , -0.08926196 , -9.80061    , 0.000210942992, -5.952934E-05, -4.16893054E-05, 0.009188996 , -0.009600174, 2.47326971E-05, 919.792358  , 31.5688267  , 808.7481    , 1.94        , 3           , 255         , 0           , 0
-0.09444036 , -0.09852134 , -9.799475   , 0.000258472341, 0.0004457978, -0.0001830564, 0.009191598 , -0.009595699, 2.29431462E-05, 919.792358  , 31.5688267  , 808.7478    , 1.95        , 3           , 255         , 0           , 0
-0.0904120654, -0.0877709761, -9.792216   , 0.0006024579, 0.00072752597, -0.000167402279, 0.009197639 , -0.009588406, 2.133605E-05, 919.792358  , 31.5688267  , 808.7475    , 1.96        , 3           , 255         , 0           , 0
-0.08577432 , -0.08056811 , -9.794703   , -0.000374870957, 6.501017E-05, 0.000299868436, 0.009193863 , -0.009587784, 2.43406521E-05, 919.792358  , 31.5688267  , 808.7472    , 1.97        , 3           , 255         , 0           , 0
-0.09322873 , -0.08528868 , -9.780739   , 0.000166734448, 1.73105072E-05, 0.000141124518, 0.009195517 , -0.009587624, 2.575346E-05, 919.792358  , 31.5688267  , 808.7469    , 1.98        , 3           , 255         , 0           , 0
-0.100250676, -0.09132147 , -9.78759    , 0.000873864454, 7.472471E-05, -0.0007233565, 0.00920432247, -0.009586812, 1.85269255E-05, 919.792358  , 31.5688267  , 808.7466    , 1.99        , 3           , 255         , 0           , 0
-0.0998015553, -0.08619802 , -9.793007   , -0.000437890063, -0.0003272547, -0.00032636855, 0.009199974 , -0.009590054, 1.52331977E-05, 919.792358  , 31.5688267  , 808.7463    , 2           , 3           , 0           , 7.017236    , 200
-0.09404583 , -0.08769213 , -9.795904   , 0.000304085028, -0.0005870975, 1.12622183E-06, 0.009195864 , -0.009597915, 1.52590928E-05, 919.792358  , 31.5688267  , 808.7659    , 2.01        , 3           , 1           , 0           , 0
-0.0872275  , -0.0791916251, -9.795811   , -4.49654763E-05, -0.0001843144, 0.000450976862, 0.00919537153, -0.009599799, 1.97518148E-05, 919.792358  , 31.5688267  , 808.765747  , 2.02        , 3           , 2           , 0           , 0
-0.094259195, -0.08684597 , -9.791834   , -0.000230656937, 0.000237039261, -0.000218402987, 0.009193084 , -0.00959740952, 1.758962E-05, 919.7758    , 31.5674686  , 808.765564  , 2.03        , 3           , 3           , 0           , 0
-0.0992244855, -0.0844144747, -9.792355   , 0.000190276827, 0.0004998447, 3.782951E-05, 0.009194984 , -0.009592415, 1.801386E-05, 919.7758    , 31.5674686  , 808.7654    , 2.04        , 3           , 4           , 0           , 0
-0.102053091, -0.0879631639, -9.794287   , 0.0003522927, -0.00023005456, 9.914833E-05, 0.009198497 , -0.00959472451, 1.89841685E-05, 919.7758    , 31.5674686  , 808.7652    , 2.05        , 3           , 5           , 0           , 0
-0.09786787 , -0.08980133 , -9.793409   , 0.00013739831, 0.000112409965, 0.0004123608, 0.009199832 , -0.009593638, 2.31180347E-05, 919.7758    , 31.5674686  , 808.765     , 2.06        , 3           , 6           , 0           , 0
-0.09491022 , -0.08316982 , -9.798903   , -0.000430656481, -0.000200743336, -0.000217356544, 0.009195547 , -0.009595625, 2.09260434E-05, 919.7758    , 31.5674686  , 808.764832  , 2.07        , 3           , 7           , 0           , 0
-0.08528988 , -0.09059957 , -9.78844452 , -4.196854E-05, 3.394131E-05, -0.000415529677, 0.009195166 , -0.009595248, 1.67739618E-05, 919.7758    , 31.5674686  , 808.764648  , 2.08        , 3           , 8           , 5           , 5
-0.0876758  , -0.0944050252, -9.791811   , 0.0002495045, 0.000113683658, 0.000861972454, 0.009197579 , -0.00959419 , 2.540396E-05, 919.7758    , 31.5674686  , 808.764465  , 2.09        , 3           , 9           , 5           , 0.1
-0.08712053 , -0.08240203 , -9.798216   , 0.00040441734, -0.000327806978, 2.46437467E-05, 0.009201619 , -0.009597471, 2.56202275E-05, 919.7758    , 31.5674686  , 808.7643    , 2.1         , 3           , 10          , 0.1         , 0.1
-0.08588576 , -0.09357466 , -9.796922   , 0.000267649128, -0.000763271062, -3.87926048E-05, 0.009196519 , -0.009602827, 2.52367972E-05, 919.7758    , 31.5674686  , 808.8027    , 2.11        , 3           , 11          , 0.0082302615, 0.008230261
-0.0974898562, -0.09309511 , -9.791448   , 0.000330703857, 0.0002314005, -0.0004427216, 0.009199869 , -0.009600473, 2.08309575E-05, 919.7758    , 31.5674686  , 808.802734  , 2.12        , 3           , 12          , 0.174643889 , 0
-0.08558381 , -0.08573988 , -9.801254   , -0.000272466277, 0.0002009261, -0.0009667711, 0.009197237 , -0.009598375, 1.11819363E-05, 919.8227    , 31.56964    , 808.8028    , 2.13        , 3           , 13          , 0           , 0
-0.08769145 , -0.08244686 , -9.803602   , 0.000339137565, -0.0002582611, 7.788429E-06, 0.009200627 , -0.009600957, 1.12360631E-05, 919.8227    , 31.56964    , 808.802856  , 2.14        , 3           , 14          , -0.000677368836, -0.000204304743
-0.0992393643, -0.08504942 , -9.790961   , -2.47096177E-05, -0.0002681153, 0.0003244009, 0.009200349 , -0.009603669, 1.44553351E-05, 919.8227    , 31.56964    , 808.8029    , 2.15        , 3           , 15          , 0           , -1.73612079E-06
-0.0851541  , -0.08401082 , -9.792538   , -8.001394E-05, 3.312633E-05, -0.000123863763, 0.009199561 , -0.009603324, 1.32197738E-05, 919.8227    , 31.56964    , 808.80304   , 2.16        , 3           , 16          , 0           , 1.401298E-45
-0.08870337 , -0.087229386, -9.792684   , -1.21951452E-05, 0.000312727236, -0.0006513359, 0.009199502 , -0.009600137, 6.735319E-06, 919.8227    , 31.56964    , 808.803162  , 2.17        , 3           , 20          , 0           , 0
-0.09311676 , -0.08572404 , -9.803225   , 2.270157E-06, -0.000209309874, 9.01809544E-05, 0.009199515 , -0.009602239, 7.61785E-06 , 919.8227    , 31.56964    , 808.8033    , 2.18        , 3           , 21          , 0           , 0
-0.102809153, -0.0853889361, -9.798925   , -0.0003730976, -0.0003033257, 0.000478181842, 0.009195738 , -0.009605316, 1.23716709E-05, 919.8227    , 31.56964    , 808.8034    , 2.19        , 3           , 22          , 0           , 0
-0.09843225 , -0.08774961 , -9.788257   , -0.000160899071, 0.000453637447, 0.0007256643, 0.009194059 , -0.009600846, 1.96698657E-05, 919.8227    , 31.56964    , 808.8035    , 2.2         , 3           , 40          , 0           , 0
-0.09770458 , -0.09196908 , -9.787878   , 0.0001908569, 0.000134717309, -2.51170222E-05, 0.009189802 , -0.009596218, 1.94902823E-05, 919.8227    , 31.56964    , 808.778442  , 2.21        , 3           , 41          , 0           , 0
-0.0965053961, -0.08813262 , -9.790865   , -0.000228725257, 3.26564768E-05, 5.72474964E-05, 0.009187509 , -0.009595896, 2.006575E-05, 919.8227    , 31.56964    , 808.7784    , 2.22        , 3           , 42          , 0           , 0
-0.100001216, -0.081151   , -9.797716   , 0.0007001496, -0.0001730969, 0.000457192218, 0.009194467 , -0.009597669, 2.46216732E-05, 919.817     , 31.5692329  , 808.7783    , 2.23        , 3           , 255         , 0           , 0
-0.09007551 , -0.0791561455, -9.804983   , 0.000825091032, 0.000175109366, 9.93715548E-06, 0.009202714 , -0.009595919, 2.47371554E-05, 919.817     , 31.5692329  , 808.778259  , 2.24        , 3           , 255         , 0           , 0
-0.09144025 , -0.08602289 , -9.801816   , 0.000205215067, -5.299691E-06, -0.000182767326, 0.00920478348, -0.009595956, 2.29090329E-05, 919.817     , 31.5692329  , 808.7782    , 2.25        , 3           , 255         , 0           , 0
-0.08378701 , -0.08085962 , -9.78787    , 1.79197523E-05, 0.000301186374, -0.000110877241, 0.00920497347, -0.00959293451, 2.18280056E-05, 919.817     , 31.5692329  , 808.778137  , 2.26        , 3           , 255         , 0           , 0
-0.09303563 , -0.0914263  , -9.778875   , 9.346288E-06, -5.65604423E-05, -0.000326647452, 0.009205098 , -0.00959347 , 1.85563949E-05, 919.817     , 31.5692329  , 808.7781    , 2.27        , 3           , 255         , 0           , 0
-0.09559876 , -0.09609667 , -9.786405   , 0.000465845282, -2.70419259E-05, 1.36870867E-05, 0.009209755 , -0.009593742, 1.86907728E-05, 919.817     , 31.5692329  , 808.778     , 2.28        , 3           , 255         , 0           , 0
-0.09516102 , -0.0864669159, -9.795657   , -2.36739288E-05, 0.000226323667, 0.000380420737, 0.009209482 , -0.009591514, 2.25157419E-05, 919.817     , 31.5692329  , 808.777954  , 2.29        , 3           , 255         , 0           , 0
-0.104363345, -0.09020891 , -9.79685    , -8.67657363E-05, 0.000267986034, 0.0005187226, 0.009208565 , -0.009588881, 2.77275485E-05, 919.817     , 31.5692329  , 808.7779    , 2.3         , 3           , 255         , 0           , 0
-0.09662721 , -0.09178165 , -9.78814    , 0.0003354205, 6.23472151E-05, 1.44870955E-05, 0.009204844 , -0.009590127, 2.79459709E-05, 919.817     , 31.5692329  , 808.763245  , 2.31        , 3           , 255         , 0           , 0
-0.09310404 , -0.08261345 , -9.797532   , 0.000274214544, -7.14823254E-05, 0.000165531586, 0.00920757  , -0.009590858, 2.9594672E-05, 919.817     , 31.5692329  , 808.7631    , 2.32        , 3           , 255         , 0           , 0
-0.088284716, -0.08567917 , -9.796009   , 0.0005657274, 0.000203929434, -0.000139079973, 0.009213239 , -0.009588806, 2.822268E-05, 919.845459  , 31.5686226  , 808.763     , 2.33        , 3           , 255         , 0           , 0
-0.08414409 , -0.091896   , -9.798892   , 0.0006128522, -0.000240085647, 0.000295612524, 0.00921934  , -0.009591234, 3.115661E-05, 919.845459  , 31.5686226  , 808.7629    , 2.34        , 3           , 255         , 0           , 0
-0.0942096  , -0.09202458 , -9.795226   , 4.10922221E-05, -9.041905E-05, 0.000158746378, 0.009219735 , -0.009592153, 3.27357E-05 , 919.845459  , 31.5686226  , 808.762756  , 2.35        , 3           , 255         , 0           , 0
-0.08424145 , -0.100343846, -9.794619   , 0.0005688245, 0.000577985 , 0.0004719833, 0.009225377 , -0.009586418, 3.750873E-05, 919.845459  , 31.5686226  , 808.762634  , 2.36        , 3           , 255         , 0           , 0
-0.0936911553, -0.103985652, -9.790588   , 0.000220121467, 0.000202611234, 0.000428737781, 0.009227537 , -0.009584432, 4.181471E-05, 919.845459  , 31.5686226  , 808.7625    , 2.37        , 3           , 255         , 0           , 0
-0.105737187, -0.08909935 , -9.80351448 , 0.0005494857, 0.00013499464, 0.0003943574, 0.009232995 , -0.009583117, 4.577065E-05, 919.845459  , 31.5686226  , 808.7624    , 2.38        , 3           , 255         , 0           , 0
-0.09897003 , -0.09319785 , -9.796221   , 0.0001554903, 4.71775129E-05, 0.000614319055, 0.00923449  , -0.009582703, 5.19180649E-05, 919.845459  , 31.5686226  , 808.762268  , 2.39        , 3           , 255         , 0           , 0
-0.0910997838, -0.09098607 , -9.79276    , -8.734997E-05, 0.000267657684, -0.000173445733, 0.009233633 , -0.00958001148, 5.02083567E-05, 919.845459  , 31.5686226  , 808.762146  , 2.4         , 3           , 255         , 0           , 0
-0.1010087  , -0.08088601 , -9.791656   , 0.000386001717, -0.000373813848, 0.000185080047, 0.009241098 , -0.009581902, 5.198988E-05, 919.845459  , 31.5686226  , 808.711731  , 2.41        , 3           , 255         , 0           , 0
-0.101370811, -0.0918411538, -9.797177   , -0.000238328241, -0.000149393789, 0.000876942649, 0.00923863053, -0.009583478, 6.07453E-05 , 919.845459  , 31.5686226  , 808.7113    , 2.42        , 3           , 255         , 0           , 0
-0.0944521055, -0.08629867 , -9.787057   , 0.000190383173, -2.61465611E-05, -9.432322E-06, 0.009240534 , -0.009583739, 6.064857E-05, 919.8055    , 31.5718117  , 808.7109    , 2.43        , 3           , 255         , 0           , 0
-0.09367291 , -0.0783865154, -9.80135    , 8.053798E-05, -0.00029896677, -8.27253E-05, 0.009241348 , -0.00958672 , 5.979371E-05, 919.8055    , 31.5718117  , 808.710449  , 2.44        , 3           , 255         , 0           , 0
-0.09420642 , -0.08314582 , -9.792402   , -0.000368482084, 0.000177385766, 0.0003239597, 0.009237632 , -0.009584976, 6.304962E-05, 919.8055    , 31.5718117  , 808.71      , 2.45        , 3           , 255         , 0           , 0
-0.09151563 , -0.0793702453, -9.801079   , -0.000316902646, -0.000121681122, -0.000244356517, 0.009234486 , -0.00958617 , 6.059487E-05, 919.8055    , 31.5718117  , 808.7096    , 2.46        , 3           , 255         , 0           , 0
-0.08604758 , -0.09458286 , -9.794881   , 0.00016483193, 0.000461476215, 0.000674951 , 0.00923607  , -0.009581618, 6.738686E-05, 919.8055    , 31.5718117  , 808.709167  , 2.47        , 3           , 255         , 0           , 0
-0.0821001157, -0.09380216 , -9.784446   , 0.0003270616, 0.000526327931, 5.17541048E-05, 0.009239336 , -0.00957636 , 6.795301E-05, 919.8055    , 31.5718117  , 808.70874   , 2.48        , 3           , 255         , 0           , 0
-0.08609983 , -0.08967811 , -9.785077   , 0.000273584825, -2.850726E-05, -8.155356E-05, 0.009242078 , -0.009576637, 6.713487E-05, 919.8055    , 31.5718117  , 808.7083    , 2.49        , 3           , 255         , 0           , 0
-0.08920355 , -0.09401576 , -9.800705   , -8.26997E-06, -0.000183807642, 0.000353143347, 0.009241962 , -0.009578507, 7.064923E-05, 919.8055    , 31.5718117  , 808.7079    , 2.5         , 3           , 255         , 0           , 0
-0.09417722 , -0.0889014751, -9.804157   , 0.000221317692, 0.000292187033, 0.000461600081, 0.009237005 , -0.009571473, 7.53603454E-05, 919.8055    , 31.5718117  , 808.7175    , 2.51        , 3           , 255         , 0           , 0
-0.085206   , -0.09823086 , -9.800964   , -0.0004069507, -0.000258163025, 0.000122800979, 0.009232923 , -0.009574066, 7.656447E-05, 919.8055    , 31.5718117  , 808.717163  , 2.52        , 3           , 255         , 0           , 0
-0.0909331962, -0.09449961 , -9.801185   , 7.746252E-05, 3.128675E-05, -0.0007611619, 0.009233771 , -0.009573682, 6.895591E-05, 919.8028    , 31.5729637  , 808.7168    , 2.53        , 3           , 255         , 0           , 0
-0.09745158 , -0.08897115 , -9.790288   , -0.000182949821, -0.000170344647, 1.89738239E-05, 0.009231939 , -0.009575387, 6.912993E-05, 919.8028    , 31.5729637  , 808.716431  , 2.54        , 3           , 255         , 0           , 0
-0.100342132, -0.085921064, -9.801106   , 0.000130393659, -0.000165747842, 0.0006358455, 0.009233184 , -0.009577103, 7.547293E-05, 919.8028    , 31.5729637  , 808.716064  , 2.55        , 3           , 255         , 0           , 0
-0.0949344  , -0.08760576 , -9.801941   , 0.000166450511, 4.82550822E-05, 7.322117E-05, 0.009234841 , -0.009576628, 7.620958E-05, 919.8028    , 31.5729637  , 808.7157    , 2.56        , 3           , 255         , 0           , 0
-0.08679408 , -0.0881521255, -9.794977   , 0.000435598253, 0.000247294141, 0.000434391462, 0.009239156 , -0.009574195, 8.057624E-05, 919.8028    , 31.5729637  , 808.715332  , 2.57        , 3           , 255         , 0           , 0
-0.0895202756, -0.08901726 , -9.800137   , 5.016866E-05, -8.851504E-05, -0.000196716152, 0.009239676 , -0.009575062, 7.860095E-05, 919.8028    , 31.5729637  , 808.714966  , 2.58        , 3           , 255         , 0           , 0
-0.09522213 , -0.08824609 , -9.798133   , -0.000454512541, -0.00011427539, -0.000315055542, 0.009235161 , -0.009576175, 7.543989E-05, 919.8028    , 31.5729637  , 808.7146    , 2.59        , 3           , 255         , 0           , 0
-0.100065067, -0.0806955844, -9.79338551 , 0.0002892627, 6.972763E-05, -0.0005892011, 0.00923811  , -0.009575424, 6.955445E-05, 919.8028    , 31.5729637  , 808.714233  , 2.6         , 3           , 255         , 0           , 0
-0.09978185 , -0.09554754 , -9.801703   , 0.000462795724, -8.90650263E-05, 0.0004417091, 0.009240425 , -0.009575763, 7.398496E-05, 919.8028    , 31.5729637  , 808.7269    , 2.61        , 3           , 255         , 0           , 0
-0.09254991 , -0.0872524753, -9.792229   , 0.0002524182, -0.000471748324, 0.0005306491, 0.009242899 , -0.009580528, 7.9247744E-05, 919.8028    , 31.5729637  , 808.7267    , 2.62        , 3           , 255         , 0           , 0
-0.09139127 , -0.0857543  , -9.796986   , -0.000222847273, 8.595917E-05, 8.890517E-05, 0.009240661 , -0.009579676, 8.014471E-05, 919.785767  , 31.5692329  , 808.72644   , 2.63        , 3           , 255         , 0           , 0
-0.0894591361, -0.0995915756, -9.792262   , 0.0002540033, -8.887111E-05, -0.000161805438, 0.009243215 , -0.00958055 , 7.851849E-05, 919.785767  , 31.5692329  , 808.7262    , 2.64        , 3           , 255         , 0           , 0
-0.0891862959, -0.09611163 , -9.794076   , -0.000391019857, -0.000390356261, 0.000129120774, 0.009239294 , -0.009584466, 7.97735847E-05, 919.785767  , 31.5692329  , 808.725952  , 2.65        , 3           , 255         , 0           , 0
-0.09393065 , -0.0915945  , -9.78757    , -0.000299135922, -0.000254083367, 3.601793E-05, 0.0092362985, -0.00958701 , 8.01102942E-05, 919.785767  , 31.5692329  , 808.7257    , 2.66        , 3           , 255         , 0           , 0
-0.09841851 , -0.0941928551, -9.791336   , -0.0002578511, 0.0001284877, 0.000422764424, 0.009233679 , -0.009585764, 8.434972E-05, 919.785767  , 31.5692329  , 808.725464  , 2.67        , 3           , 255         , 0           , 0
-0.09500533 , -0.09204695 , -9.793795   , -0.000282874156, 4.800895E-06, 0.000252872967, 0.009230825 , -0.009585739, 8.687883E-05, 919.785767  , 31.5692329  , 808.7252    , 2.68        , 3           , 255         , 0           , 0
-0.0877585262, -0.0914595947, -9.787158   , -1.38581381E-05, -0.0006204919, 0.000154289868, 0.009230671 , -0.009591958, 8.836444E-05, 919.785767  , 31.5692329  , 808.725     , 2.69        , 3           , 255         , 0           , 0
-0.086359255, -0.09195101 , -9.800207   , -0.000243943185, -0.000229707715, 0.00074219954, 0.00922816247, -0.009594323, 9.576506E-05, 919.785767  , 31.5692329  , 808.724731  , 2.7         , 3           , 255         , 0           , 0
-0.100898527, -0.0866818652, -9.79321    , -0.0002479115, -8.514835E-06, -0.000566418632, 0.009229962 , -0.00959130749, 9.005968E-05, 919.785767  , 31.5692329  , 808.759644  , 2.71        , 3           , 255         , 0           , 0
-0.0998823047, -0.08028397 , -9.794574   , -0.000193261192, -8.37273546E-07, -0.000548319542, 0.009228082 , -0.009591265, 8.457654E-05, 919.785767  , 31.5692329  , 808.759644  , 2.72        , 3           , 255         , 0           , 0
-0.105780922, -0.09209864 , -9.79163    , 0.00033807382, -3.052676E-05, -0.0003498272, 0.009231497 , -0.00959153753, 8.10755155E-05, 919.8176    , 31.5721512  , 808.759644  , 2.73        , 3           , 255         , 0           , 0
-0.100778438, -0.08958769 , -9.790243   , -0.000325685425, 0.0002373953, 8.211049E-05, 0.009228232 , -0.009589171, 8.191852E-05, 919.8176    , 31.5721512  , 808.759644  , 2.74        , 3           , 255         , 0           , 0
-0.09411843 , -0.08408393 , -9.779509   , -7.65374862E-05, 0.0004469033, -3.68738474E-05, 0.00922747049, -0.009584699, 8.159101E-05, 919.8176    , 31.5721512  , 808.759644  , 2.75        , 3           , 255         , 0           , 0
-0.09039921 , -0.08486489 , -9.786506   , 0.000102679362, 0.000166846541, 0.000421811565, 0.009228456 , -0.009583068, 8.582444E-05, 919.8176    , 31.5721512  , 808.759644  , 2.76        , 3           , 255         , 0           , 0
-0.0886325  , -0.07713708 , -9.792348   , -0.000221908034, -6.07654219E-05, -0.00027662082, 0.009226262 , -0.009583651, 8.305268E-05, 919.8176    , 31.5721512  , 808.759644  , 2.77        , 3           , 255         , 0           , 0
-0.09671501 , -0.08720193 , -9.800319   , -9.371643E-05, 5.88244875E-05, -0.0001782884, 0.00922534149, -0.009583046, 8.127527E-05, 919.8176    , 31.5721512  , 808.759644  , 2.78        , 3           , 255         , 0           , 0
-0.09755875 , -0.08301066 , -9.787488   , 0.000202826486, -6.145658E-05, -0.000199205577, 0.00922739  , -0.009583644, 7.92775754E-05, 919.8176    , 31.5721512  , 808.759644  , 2.79        , 3           , 255         , 0           , 0
-0.094284445, -0.0878224447, -9.787172   , 0.000449598185, -0.000394384959, 0.0004936003, 0.00923183747, -0.009587633, 8.41770743E-05, 919.8176    , 31.5721512  , 808.759644  , 2.8         , 3           , 255         , 0           , 0
-0.08922102 , -0.0941045  , -9.785209   , 0.0006785089, 0.000368832174, 0.000170704123, 0.009225137 , -0.009592051, 8.604736E-05, 919.8176    , 31.5721512  , 808.746033  , 2.81        , 3           , 255         , 0           , 0
-0.08051969 , -0.087820746, -9.790754   , 0.0006261955, 0.000249071047, -0.0001098309, 0.009231408 , -0.00958955 , 8.497207E-05, 919.8176    , 31.5721512  , 808.746     , 2.82        , 3           , 255         , 0           , 0
-0.09511492 , -0.08110478 , -9.791113   , -9.231793E-05, 0.000156915965, -0.000747992133, 0.009230557 , -0.009587911, 7.750679E-05, 919.7976    , 31.572422   , 808.7459    , 2.83        , 3           , 255         , 0           , 0
-0.09519273 , -0.0845046937, -9.800634   , -0.0003063656, 0.000195522167, -0.000160963391, 0.00922751  , -0.009585941, 7.591523E-05, 919.7976    , 31.572422   , 808.74585   , 2.84        , 3           , 255         , 0           , 0
-0.08894418 , -0.08191628 , -9.791428   , 0.0009245166, 0.0004000528, 0.00016694417, 0.009236737 , -0.009581955, 7.762158E-05, 919.7976    , 31.572422   , 808.7458    , 2.85        , 3           , 255         , 0           , 0
-0.0947722942, -0.0869854242, -9.796404   , 0.0002189097, 0.000123901758, 0.000187999554, 0.009238906 , -0.009580733, 7.951297E-05, 919.7976    , 31.572422   , 808.7457    , 2.86        , 3           , 255         , 0           , 0
-0.09441864 , -0.09226238 , -9.797121   , 0.000100987789, -0.00014885026, 0.000172103464, 0.009239899 , -0.009582238, 8.122023E-05, 919.7976    , 31.572422   , 808.745667  , 2.87        , 3           , 255         , 0           , 0
-0.101739347, -0.08967292 , -9.803024   , -5.500042E-05, 5.09198871E-05, -0.000406717125, 0.009239388 , -0.009581691, 7.715784E-05, 919.7976    , 31.572422   , 808.7456    , 2.88        , 3           , 255         , 0           , 0
-0.09945832 , -0.09358934 , -9.81337    , 0.000378565775, 0.0006492114, 4.00831159E-05, 0.00924317  , -0.009575203, 7.76186644E-05, 919.7976    , 31.572422   , 808.745544  , 2.89        , 3           , 255         , 0           , 0
-0.08968845 , -0.09243806 , -9.808617   , 0.000552395941, 0.000255261781, 0.0002000331, 0.009248675 , -0.009572669, 7.96425447E-05, 919.7976    , 31.572422   , 808.7455    , 2.9         , 3           , 255         , 0           , 0
-0.08577206 , -0.09137876 , -9.780603   , 0.000164478784, -0.000214004453, -4.0587438E-05, 0.009247184 , -0.00957326 , 7.924695E-05, 919.7976    , 31.572422   , 808.7617    , 2.91        , 3           , 255         , 0           , 0
-0.08948828 , -0.08497307 , -9.778946   , -1.66111859E-05, 0.000216166387, 0.000658561767, 0.009246956 , -0.00957116 , 8.58524145E-05, 919.7976    , 31.572422   , 808.7618    , 2.92        , 3           , 255         , 0           , 0
-0.08792166 , -0.08864423 , -9.800047   , 0.00011111045, -0.0003032453, 0.000201250208, 0.009248047 , -0.009574211, 8.783683E-05, 919.798035  , 31.5700474  , 808.761841  , 2.93        , 3           , 255         , 0           , 0
-0.08654277 , -0.0917885751, -9.806746   , 9.51539259E-05, -6.076353E-05, -2.28225472E-05, 0.009249001 , -0.009574817, 8.760298E-05, 919.798035  , 31.5700474  , 808.7619    , 2.94        , 3           , 255         , 0           , 0
-0.0859117359, -0.09748882 , -9.800591   , -0.000341822626, -4.128192E-05, 0.00040749833, 0.009245544 , -0.009575266, 9.167406E-05, 919.798035  , 31.5700474  , 808.761963  , 2.95        , 3           , 255         , 0           , 0
-0.09266896 , -0.09383705 , -9.781355   , 0.00011880754, -2.760638E-05, -0.000183860146, 0.00924675  , -0.009575525, 8.983295E-05, 919.798035  , 31.5700474  , 808.762     , 2.96        , 3           , 255         , 0           , 0
-0.09743726 , -0.09256951 , -9.785112   , 0.000280771434, -6.435427E-05, 0.000236387074, 0.009249535 , -0.009576191, 9.2190814E-05, 919.798035  , 31.5700474  , 808.7621    , 2.97        , 3           , 255         , 0           , 0
-0.08791338 , -0.08903896 , -9.789234   , -4.62651369E-05, 7.526076E-05, 0.0007457364, 0.009249001 , -0.009575508, 9.96549861E-05, 919.798035  , 31.5700474  , 808.762146  , 2.98        , 3           , 255         , 0           , 0
-0.09149428 , -0.0873250738, -9.801336   , -0.000218410918, 0.000355029915, 6.276142E-05, 0.009246811 , -0.009571963, 0.0001003154, 919.798035  , 31.5700474  , 808.7622    , 2.99        , 3           , 255         , 0           , 0
-0.09435842 , -0.08346157 , -9.801321   , 0.000197957212, 0.0001008938, 0.0004971968, 0.009248743 , -0.009571   , 0.0001052966, 919.798035  , 31.5700474  , 808.762268  , 3           , 3           , 0           , 8.017237    , 300
-0.103999533, -0.07979664 , -9.798262   , -0.00027404353, 0.00055991835, 0.000167804756, 0.009244913 , -0.009557272, 0.000107036649, 919.798035  , 31.5700474  , 808.775452  , 3.01        , 3           , 1           , 0           , 0
-0.100163914, -0.08457135 , -9.788915   , 0.000334849959, 0.0003032101, -0.0005984364, 0.009248318 , -0.009554183, 0.000101080434, 919.798035  , 31.5700474  , 808.7756    , 3.02        , 3           , 2           , 0           , 0
-0.101588547, -0.09479767 , -9.788004   , -9.689259E-05, -0.0003044103, -0.0010224079, 0.009247446 , -0.009557134, 9.082841E-05, 919.828369  , 31.5708618  , 808.7757    , 3.03        , 3           , 3           , 0           , 0
-0.100250028, -0.0881845  , -9.794311   , 0.000303682464, -0.00047894218, -0.000546900963, 0.009250536 , -0.00956187 , 8.53152451E-05, 919.828369  , 31.5708618  , 808.7758    , 3.04        , 3           , 4           , 0           , 0
-0.0832570642, -0.08761976 , -9.807786   , 0.0001631644, -0.000298613333, -0.000346331741, 0.009252201 , -0.009564825, 8.182437E-05, 919.828369  , 31.5708618  , 808.77594   , 3.05        , 3           , 5           , 0           , 0
-0.08788904 , -0.09414011 , -9.802846   , -4.70608356E-05, -0.000171233129, -0.0003237473, 0.009251761 , -0.009566507, 7.857113E-05, 919.828369  , 31.5708618  , 808.776062  , 3.06        , 3           , 6           , 0           , 0
-0.09455091 , -0.100783966, -9.78441    , -0.000219569658, 0.000234527266, 4.56851958E-05, 0.00924956147, -0.009564166, 7.904968E-05, 919.828369  , 31.5708618  , 808.7762    , 3.07        , 3           , 7           , 0           , 0
-0.08800135 , -0.08814889 , -9.779533   , 0.000243326474, 2.55086779E-05, -0.000391255133, 0.009252032 , -0.009563875, 7.51395637E-05, 919.828369  , 31.5708618  , 808.7763    , 3.08        , 3           , 8           , 5           , 5
-0.08450963 , -0.08686379 , -9.787975   , 0.000126437808, -0.0003745536, 0.000212303014, 0.00925327651, -0.009567639, 7.72279E-05 , 919.828369  , 31.5708618  , 808.7764    , 3.09        , 3           , 9           , 5           , 0.1
-0.0811493546, -0.08256503 , -9.788903   , 2.19842186E-05, 3.09292955E-05, 0.0003240001, 0.009253465 , -0.009567359, 8.047069E-05, 919.828369  , 31.5708618  , 808.77655   , 3.1         , 3           , 10          , 0.1         , 0.1
-0.0919143856, -0.0865143  , -9.798193   , 0.0003409873, 0.0001431179, 0.000886490569, 0.009252799 , -0.009563594, 8.93868E-05 , 919.828369  , 31.5708618  , 808.745056  , 3.11        , 3           , 11          , 0.00745802233, 0.00745802
-0.09643642 , -0.08645826 , -9.800282   , -0.000384822953, 5.31952974E-05, 0.0006172616, 0.009248891 , -0.009563119, 9.55642E-05 , 919.828369  , 31.5708618  , 808.745     , 3.12        , 3           , 12          , 0.174645633 , 0
-0.09493562 , -0.08273147 , -9.786528   , 8.974853E-05, 4.375966E-05, 0.001131466 , 0.009249682 , -0.009562783, 0.00010688266, 919.8307    , 31.5733719  , 808.744934  , 3.13        , 3           , 13          , 0           , 0
-0.09946163 , -0.08646242 , -9.790891   , -0.0003535949, -0.000265959941, 0.000358729769, 0.009246112 , -0.009565476, 0.000110445282, 919.8307    , 31.5733719  , 808.7449    , 3.14        , 3           , 14          , -0.0006772262, -0.000204367185
-0.103138849, -0.0941423  , -9.790934   , 0.000189451239, 0.0004091408, -0.000478732, 0.009248053 , -0.009561339, 0.000105695908, 919.8307    , 31.5733719  , 808.7448    , 3.15        , 3           , 15          , 0           , -1.73691183E-06
-0.08959875 , -0.08492348 , -9.79357    , -0.000200015027, -0.0002984828, -0.000456022652, 0.009246095 , -0.009564282, 0.0001011082, 919.8307    , 31.5733719  , 808.744751  , 3.16        , 3           , 16          , 0           , 1.401298E-45
-0.0933480337, -0.093667075, -9.800397   , -0.0002967809, 0.0002507147, -5.84522422E-05, 0.009243131 , -0.00956177153, 0.000100546873, 919.8307    , 31.5733719  , 808.7447    , 3.17        , 3           , 20          , 0           , 0
-0.106084451, -0.08930656 , -9.793631   , 0.000199569447, 0.000246286538, 0.000243748233, 0.009245103 , -0.00955933053, 0.000103007034, 919.8307    , 31.5733719  , 808.7446    , 3.18        , 3           , 21          , 0           , 0
-0.09244796 , -0.0876317546, -9.788644   , 8.54081E-05 , -0.000126406492, 0.0003015538, 0.009245928 , -0.009560622, 0.000106010826, 919.8307    , 31.5733719  , 808.744568  , 3.19        , 3           , 22          , 0           , 0
-0.08721916 , -0.0998975  , -9.796022   , 0.000566590345, -0.0007318212, 4.874213E-05, 0.00925159  , -0.009567943, 0.00010643054, 919.8307    , 31.5733719  , 808.7445    , 3.2         , 3           , 40          , 0           , 0
-0.0887372941, -0.103123724, -9.809179   , 0.0006906497, -0.000425914448, -0.00051976234, 0.009255961 , -0.009575473, 0.000101218357, 919.8307    , 31.5733719  , 808.7142    , 3.21        , 3           , 41          , 0           , 0
-0.0988121852, -0.08778523 , -9.806633   , 0.000275001832, -0.000121324294, 4.603135E-05, 0.009258707 , -0.009576689, 0.000101667421, 919.8307    , 31.5733719  , 808.7139    , 3.22        , 3           , 42          , 0           , 0
-0.0896634758, -0.08587944 , -9.789836   , -0.000380180252, -0.000271066732, 6.420284E-05, 0.009254899 , -0.009579405, 0.00010228435, 919.798462  , 31.5707264  , 808.7137    , 3.23        , 3           , 255         , 0           , 0
-0.09016853 , -0.08390505 , -9.783254   , 7.21775E-09 , -0.000115815346, -2.803145E-05, 0.009254901 , -0.009580561, 0.000101993319, 919.798462  , 31.5707264  , 808.71344   , 3.24        , 3           , 255         , 0           , 0
-0.0938020349, -0.08252322 , -9.77907848 , 0.000819838 , -7.0860784E-05, -0.000208675745, 0.009263121 , -0.00958125 , 9.990004E-05, 919.798462  , 31.5707264  , 808.7132    , 3.25        , 3           , 255         , 0           , 0
-0.09541915 , -0.0957752243, -9.788895   , 0.0004219027, 6.261139E-05, 0.000125654915, 0.009267326 , -0.009580634, 0.000101162361, 919.798462  , 31.5707264  , 808.712952  , 3.26        , 3           , 255         , 0           , 0
-0.09315896 , -0.08438195 , -9.805024   , 0.000151280314, 0.000277176267, 0.000199906659, 0.00926882  , -0.009577881, 0.000103187078, 919.798462  , 31.5707264  , 808.712769  , 3.27        , 3           , 255         , 0           , 0
-0.09509549 , -0.08740686 , -9.799395   , 0.000248906348, 0.000263882976, 0.000257762265, 0.0092712855, -0.009575267, 0.0001057891, 919.798462  , 31.5707264  , 808.7126    , 3.28        , 3           , 255         , 0           , 0
-0.109027669, -0.08547365 , -9.788003   , -0.000121330144, 1.78317714E-06, -0.000387358246, 0.009270108 , -0.009575213, 0.000101915772, 919.798462  , 31.5707264  , 808.7124    , 3.29        , 3           , 255         , 0           , 0
-0.109386444, -0.0882933959, -9.790757   , -1.45320082E-05, 0.000247594871, -0.000832331541, 0.009270043 , -0.009572661, 9.361559E-05, 919.798462  , 31.5707264  , 808.7122    , 3.3         , 3           , 255         , 0           , 0
-0.0856580958, -0.09220345 , -9.79482    , 0.000141224125, -0.000161224118, -0.000381334015, 0.009267445 , -0.009578727, 8.982616E-05, 919.798462  , 31.5707264  , 808.732361  , 3.31        , 3           , 255         , 0           , 0
-0.07591384 , -0.08859093 , -9.784952   , 0.00026885228, -0.0003555657, -0.000105228639, 0.009270144 , -0.009582273, 8.874094E-05, 919.798462  , 31.5707264  , 808.7323    , 3.32        , 3           , 255         , 0           , 0
-0.08769197 , -0.091880165, -9.790392   , 0.000314158562, -0.0003861857, 0.0001593846, 0.009273271 , -0.00958615 , 9.029893E-05, 919.802     , 31.5725574  , 808.732239  , 3.33        , 3           , 255         , 0           , 0
-0.08292549 , -0.08889636 , -9.801695   , 0.0005276436, 0.00014754216, -0.0002977767, 0.009278573 , -0.009584648, 8.733493E-05, 919.802     , 31.5725574  , 808.7322    , 3.34        , 3           , 255         , 0           , 0
-0.08698468 , -0.0875588059, -9.811846   , 0.0007067835, 0.000285553542, -1.6195836E-05, 0.009285643 , -0.009581788, 8.719946E-05, 919.802     , 31.5725574  , 808.7321    , 3.35        , 3           , 255         , 0           , 0
-0.09081207 , -0.09168609 , -9.804338   , 0.0004934753, 5.03684278E-05, 0.0005741299, 0.009290522 , -0.009581339, 9.29453E-05 , 919.802     , 31.5725574  , 808.732056  , 3.36        , 3           , 255         , 0           , 0
-0.0926388055, -0.09217989 , -9.79144    , -3.0088413E-05, -0.00014895339, 0.000616712146, 0.009290162 , -0.009582885, 9.909846E-05, 919.802     , 31.5725574  , 808.732     , 3.37        , 3           , 255         , 0           , 0
-0.08928351 , -0.08876099 , -9.77195    , -8.730794E-05, 0.00014992262, 0.00104332122, 0.009289188 , -0.009581482, 0.00010954537, 919.802     , 31.5725574  , 808.731934  , 3.38        , 3           , 255         , 0           , 0
-0.0970692039, -0.0832943  , -9.785      , -5.96937025E-06, -0.000126057668, 0.00110742927, 0.009289023 , -0.009582845, 0.000120607707, 919.802     , 31.5725574  , 808.7319    , 3.39        , 3           , 255         , 0           , 0
-0.10052786 , -0.0909381062, -9.801916   , 0.000393863273, 0.0003637764, 0.0009580491, 0.009292868 , -0.009579297, 0.000130221772, 919.802     , 31.5725574  , 808.7318    , 3.4         , 3           , 255         , 0           , 0
-0.103083611, -0.079378   , -9.811175   , 0.000364207051, 0.0004013247, -0.0003178927, 0.009294161 , -0.009566387, 0.000127103 , 919.802     , 31.5725574  , 808.7442    , 3.41        , 3           , 255         , 0           , 0
-0.0989167541, -0.0818827  , -9.802793   , 0.000526919146, 0.000274291873, 0.0008500827, 0.009299345 , -0.009563722, 0.000135629147, 919.802     , 31.5725574  , 808.7442    , 3.42        , 3           , 255         , 0           , 0
-0.0855843052, -0.08463547 , -9.778677   , 5.01152826E-05, 0.000172041837, 0.000827103737, 0.009299768 , -0.009562078, 0.000143916 , 919.832642  , 31.5726929  , 808.7442    , 3.43        , 3           , 255         , 0           , 0
-0.09450849 , -0.0748686  , -9.777799   , 0.000470132625, -0.000128619329, 0.000131307053, 0.009304457 , -0.009563378, 0.000145217055, 919.832642  , 31.5726929  , 808.7442    , 3.44        , 3           , 255         , 0           , 0
-0.0968282  , -0.08816421 , -9.79363251 , -0.0001543336, -0.000272080651, 0.000457470684, 0.00930287  , -0.00956614 , 0.000149766362, 919.832642  , 31.5726929  , 808.7442    , 3.45        , 3           , 255         , 0           , 0
-0.0958536938, -0.0931708962, -9.79881    , -6.783736E-05, 0.000396354939, 0.000200827679, 0.009302173 , -0.009562194, 0.000151811459, 919.832642  , 31.5726929  , 808.7442    , 3.46        , 3           , 255         , 0           , 0
-0.0811893  , -0.09870917 , -9.792821   , 0.000116226496, 0.0005522948, -0.000126012121, 0.009303347 , -0.00955666 , 0.000150602747, 919.832642  , 31.5726929  , 808.7442    , 3.47        , 3           , 255         , 0           , 0
-0.08654352 , -0.09885938 , -9.78569    , -0.000181098, -7.808274E-05, -0.00104263215, 0.009301635 , -0.009557345, 0.000140169417, 919.832642  , 31.5726929  , 808.7442    , 3.48        , 3           , 255         , 0           , 0
-0.09483062 , -0.0989491343, -9.799512   , -0.000270814577, 0.000209011981, 0.000237795874, 0.009298905 , -0.009555277, 0.000142566743, 919.832642  , 31.5726929  , 808.744263  , 3.49        , 3           , 255         , 0           , 0
-0.09201722 , -0.08881243 , -9.810126   , 0.00053984  , 0.000147566927, 0.000122078491, 0.009304292 , -0.009553812, 0.000143801226, 919.832642  , 31.5726929  , 808.7443    , 3.5         , 3           , 255         , 0           , 0
-0.09566165 , -0.08973863 , -9.795718   , 0.000207967649, -7.806638E-05, 4.028355E-05, 0.009302471 , -0.009553354, 0.000144234029, 919.832642  , 31.5726929  , 808.7112    , 3.51        , 3           , 255         , 0           , 0
