Acc X       , Acc Y       , Acc Z       , Gyro X      , Gyro Y      , Gyro Z      , Euler X     , Euler Y     , Euler Z     , Pres X      , Pres Y      , Pres Z      , Time        , Status      , LowRate X   , LowRate Y   , LowRate Z    
-0.167870268, 9.786886    , 0.0841388553, 0           , 0           , 0           , -1.57939327 , -0.0171502568, 0           , 921.428467  , 30.50764    , 794.175537  , 0           , 2           , 0           , 5.45023155  , 0
-0.168206692, 9.788688    , 0.0783918649, -0.000971954956, -7.702445E-06, 0.000128690939, -1.579403   , -0.01714894 , 6.613364E-08, 921.428467  , 30.50764    , 794.175537  , 0.01        , 3           , 1           , 0           , 0
-0.163697571, 9.791823    , 0.083329536 , -0.00102456508, -9.47909139E-05, 0.0006732802, -1.57941329 , -0.0171422  , 9.556776E-07, 921.428467  , 30.50764    , 794.175537  , 0.02        , 3           , 2           , 0           , 0
-0.165780857, 9.784409    , 0.08146131  , -0.000699632, -0.000258522457, 0.000959147466, -1.57942021 , -0.0171325915, 3.458508E-06, 921.3855    , 30.077795   , 794.175537  , 0.03        , 3           , 3           , 0           , 0
-0.161907211, 9.79390049  , 0.08609788  , -0.00119657523, -0.000276920444, 0.0006499025, -1.57943225 , -0.0171260666, 6.17184924E-06, 921.3855    , 30.077795   , 794.175537  , 0.04        , 3           , 4           , 0           , 0
-0.1755343  , 9.791269    , 0.08475163  , -0.000635945, 8.63843743E-05, 0.00160759874, -1.57943869 , -0.0171100013, 5.168666E-06, 921.3855    , 30.077795   , 794.175537  , 0.05        , 3           , 5           , 0           , 0
-0.1691179  , 9.789191    , 0.08584609  , -0.000365192129, -0.000324766326, 0.001075845 , -1.57944238 , -0.017099211, 8.323516E-06, 921.3855    , 30.077795   , 794.175537  , 0.06        , 3           , 6           , 0           , 0
-0.170163721, 9.784183    , 0.0980458856, -0.000275987957, 6.795385E-05, 0.00113871461, -1.57944512 , -0.017087834, 7.545746E-06, 921.3855    , 30.077795   , 794.175537  , 0.07        , 3           , 7           , 0           , 0
-0.167006969, 9.790153    , 0.097790204 , -0.00145897514, -0.000138729927, 0.000474623084, -1.57945967 , -0.0170830768, 8.891704E-06, 921.3855    , 30.077795   , 794.175537  , 0.08        , 3           , 8           , 5           , 5
-0.1626769  , 9.799017    , 0.0838993043, -0.0008762352, 6.05193054E-05, -0.0005565027, -1.57946849 , -0.01708865 , 8.334691E-06, 921.3855    , 30.077795   , 794.175537  , 0.09        , 3           , 9           , 5           , 0.1
-0.164237991, 9.80026     , 0.08424024  , -0.00107711554, -7.26699363E-06, -0.0003607473, -1.57947922 , -0.01709226 , 8.439014E-06, 921.3855    , 30.077795   , 794.175537  , 0.1         , 3           , 10          , 0.1         , 0.1
-0.170384735, 9.787165    , 0.07681479  , -0.000934784242, 0.000288839685, 0.0004960497, -1.57949662 , -0.01708382 , 5.64370748E-06, 921.3855    , 30.077795   , 794.561462  , 0.11        , 3           , 11          , 0.0109544508, 0.0109544508
-0.162559837, 9.784128    , 0.08357086  , -0.00155344943, -0.000115094008, 0.000270960154, -1.57951224 , -0.0170811024, 6.771704E-06, 921.3855    , 30.077795   , 794.561462  , 0.12        , 3           , 12          , 0.174642488 , 0
-0.159984544, 9.787077    , 0.08819713  , -0.0015053706, 0.000145909085, 0.000297464547, -1.57952726 , -0.0170781463, 5.287889E-06, 921.4399    , 30.1180248  , 794.561462  , 0.13        , 3           , 13          , 0           , 0
-0.164541066, 9.800766    , 0.0820309445, -0.0007057595, -1.37996394E-05, 0.0002062767, -1.57953441 , -0.0170760788, 5.4080474E-06, 921.4399    , 30.1180248  , 794.561462  , 0.14        , 3           , 14          , 0.00107098266, -0.000289860822
-0.16419974 , 9.794815    , 0.08372719  , -0.0009740271, 0.000144284786, 3.687534E-05, -1.57954407 , -0.0170757249, 3.96242376E-06, 921.4399    , 30.1180248  , 794.561462  , 0.15        , 3           , 15          , 0           , -0.0004017319
-0.174865082, 9.793203    , 0.08510699  , -0.000858791755, -0.000419359072, 0.0002108103, -1.57955277 , -0.0170735773, 8.137221E-06, 921.4399    , 30.1180248  , 794.561462  , 0.16        , 3           , 16          , 0           , 1.401298E-45
-0.175350264, 9.784994    , 0.0904424638, -0.0005628944, -1.44719379E-05, 4.273877E-05, -1.57955837 , -0.01707315 , 8.276939E-06, 921.4399    , 30.1180248  , 794.561462  , 0.17        , 3           , 20          , 0           , 0
-0.171893746, 9.786726    , 0.0904188   , -0.0010861021, 5.352068E-05, 4.92246763E-05, -1.57956922 , -0.0170726646, 7.737625E-06, 921.4399    , 30.1180248  , 794.561462  , 0.18        , 3           , 21          , 0           , 0
-0.162945181, 9.791314    , 0.08683835  , -0.001331271, 0.000458403141, 0.000244815834, -1.57958257 , -0.017070258, 3.13156283E-06, 921.4399    , 30.1180248  , 794.561462  , 0.19        , 3           , 22          , 0           , 0
-0.16175732 , 9.79451     , 0.07914956  , -0.0009948642, -0.000114817842, 0.000102865859, -1.57959247 , -0.01706922 , 4.270736E-06, 921.4399    , 30.1180248  , 794.561462  , 0.2         , 3           , 40          , 0           , 0
-0.164416537, 9.793118    , 0.0859724954, -0.00171803345, -0.000194331078, 0.0001861685, -1.5796051  , -0.0170657132, 6.11968062E-06, 921.4399    , 30.1180248  , 794.3167    , 0.21        , 3           , 41          , 0           , 0
-0.168872073, 9.80318     , 0.08996222  , -0.0009980854, 0.00034382334, 8.507792E-05, -1.579615   , -0.0170648936, 2.673285E-06, 921.4399    , 30.1180248  , 794.3168    , 0.22        , 3           , 42          , 0           , 0
-0.173131421, 9.794071    , 0.0797531754, -0.00137906568, 0.000378039025, -0.000333173259, -1.57962871 , -0.0170682576, -1.07862866E-06, 921.4241    , 30.1460438  , 794.316833  , 0.23        , 3           , 255         , 0           , 0
-0.165897638, 9.794669    , 0.08111126  , -0.00157671887, 0.000247178046, -0.0005028802, -1.57964444 , -0.017073309, -3.50694063E-06, 921.4241    , 30.1460438  , 794.3169    , 0.24        , 3           , 255         , 0           , 0
-0.171465442, 9.799393    , 0.07786479  , -0.000790694263, 0.000193699467, 0.000566672767, -1.57965231 , -0.0170676615, -5.493741E-06, 921.4241    , 30.1460438  , 794.316956  , 0.25        , 3           , 255         , 0           , 0
-0.156543225, 9.791162    , 0.08241834  , -0.00126233511, -0.000284612062, 0.000182081742, -1.57966506 , -0.0170658156, -2.6630396E-06, 921.4241    , 30.1460438  , 794.317     , 0.26        , 3           , 255         , 0           , 0
-0.169764429, 9.793644    , 0.0807286352, -0.00165969611, -0.000165775855, 0.000508202 , -1.57968163 , -0.01706072 , -1.050685E-06, 921.4241    , 30.1460438  , 794.3171    , 0.27        , 3           , 255         , 0           , 0
-0.1751107  , 9.794562    , 0.08373545  , -0.00102261943, 3.608389E-05, 0.0005398668, -1.57969177 , -0.0170553289, -1.46052616E-06, 921.4241    , 30.1460438  , 794.317139  , 0.28        , 3           , 255         , 0           , 0
-0.162903726, 9.802252    , 0.0829403847, -0.00115385232, -0.000140941615, -8.085504E-05, -1.57970345 , -0.0170561224, -4.37785346E-08, 921.4241    , 30.1460438  , 794.3172    , 0.29        , 3           , 255         , 0           , 0
-0.163622886, 9.786433    , 0.0825377852, -0.000707492058, -0.000103292812, 0.0006670687, -1.57971048 , -0.017049443, 9.2959516E-07, 921.4241    , 30.1460438  , 794.317261  , 0.3         , 3           , 255         , 0           , 0
-0.167203069, 9.784362    , 0.0851252   , -0.00146536878, -0.000110000139, 0.000973577 , -1.57971239 , -0.0170395374, 1.72506E-06 , 921.4241    , 30.1460438  , 794.283264  , 0.31        , 3           , 255         , 0           , 0
-0.173179269, 9.791424    , 0.074972555 , -0.00153869449, -0.0003154878, 2.30810547E-05, -1.57972789 , -0.0170392785, 4.878045E-06, 921.4241    , 30.1460438  , 794.2833    , 0.32        , 3           , 255         , 0           , 0
-0.170608684, 9.794338    , 0.07768494  , -0.0012783939, -0.000227414246, -0.000357185054, -1.57974052 , -0.0170428324, 7.18340334E-06, 921.385132  , 30.1598835  , 794.2834    , 0.33        , 3           , 255         , 0           , 0
-0.167265847, 9.79381     , 0.0914438143, -0.0009577259, 0.000101254467, 0.000672776 , -1.57975018 , -0.0170361139, 6.111294E-06, 921.385132  , 30.1598835  , 794.283447  , 0.34        , 3           , 255         , 0           , 0
-0.162963718, 9.792724    , 0.07957624  , -0.0001065621, 0.000122633151, 0.0003374825, -1.57975113 , -0.01703275 , 4.85475766E-06, 921.385132  , 30.1598835  , 794.2835    , 0.35        , 3           , 255         , 0           , 0
-0.161634341, 9.787811    , 0.08262856  , -0.0008001488, -0.0004489154, -6.157733E-05, -1.57975924 , -0.01703333 , 9.349041E-06, 921.385132  , 30.1598835  , 794.283569  , 0.36        , 3           , 255         , 0           , 0
-0.171963468, 9.788017    , 0.0774522647, -0.00127718085, -0.000532530132, 0.000296678656, -1.579772   , -0.0170303155, 1.46471712E-05, 921.385132  , 30.1598835  , 794.2836    , 0.37        , 3           , 255         , 0           , 0
-0.177305192, 9.790992    , 0.07513066  , -0.00125801319, 0.000130097644, 0.000117988908, -1.57978451 , -0.0170291476, 1.333568E-05, 921.385132  , 30.1598835  , 794.2837    , 0.38        , 3           , 255         , 0           , 0
-0.174914747, 9.798862    , 0.0810310841, -0.0012888076, 0.000240842841, 0.000271535071, -1.57979739 , -0.0170264561, 1.0901781E-05, 921.385132  , 30.1598835  , 794.283752  , 0.39        , 3           , 255         , 0           , 0
-0.165017962, 9.798362    , 0.08420111  , -0.00114016666, 4.464184E-05, -0.000439691328, -1.57980883 , -0.0170308575, 1.04956662E-05, 921.385132  , 30.1598835  , 794.2838    , 0.4         , 3           , 255         , 0           , 0
-0.171325475, 9.799498    , 0.08940332  , -0.00121912 , 3.5091216E-05, -8.474686E-05, -1.57979536 , -0.0170407128, 9.716036E-06, 921.385132  , 30.1598835  , 794.355164  , 0.41        , 3           , 255         , 0           , 0
-0.167251781, 9.788757    , 0.08121388  , -0.000807276636, 0.000144697929, -0.000207502744, -1.57980347 , -0.0170428  , 8.28811153E-06, 921.385132  , 30.1598835  , 794.3552    , 0.42        , 3           , 255         , 0           , 0
-0.17121914 , 9.787389    , 0.0851972848, -0.00114723062, 1.07084925E-05, 1.06061925E-05, -1.57981491 , -0.0170426946, 8.179131E-06, 921.395264  , 30.1745377  , 794.3553    , 0.43        , 3           , 255         , 0           , 0
-0.1663857  , 9.799673    , 0.0875703841, -0.00113047357, -1.04286592E-05, 0.000834498031, -1.57982624 , -0.0170343481, 8.208937E-06, 921.395264  , 30.1745377  , 794.355347  , 0.44        , 3           , 255         , 0           , 0
-0.164589554, 9.795483    , 0.08406401  , -0.000727755832, 0.000132610221, -0.000110391644, -1.57983351 , -0.0170354657, 6.893719E-06, 921.395264  , 30.1745377  , 794.3554    , 0.45        , 3           , 255         , 0           , 0
-0.167832091, 9.792757    , 0.08778264  , -0.0006238888, -6.65769039E-05, 5.56448358E-05, -1.57983971 , -0.0170349032, 7.55412248E-06, 921.395264  , 30.1745377  , 794.355469  , 0.46        , 3           , 255         , 0           , 0
-0.16715014 , 9.790776    , 0.08508261  , -0.00138537027, -0.0002989073, 0.00051774655, -1.57985365 , -0.0170296989, 1.04965966E-05, 921.395264  , 30.1745377  , 794.3555    , 0.47        , 3           , 255         , 0           , 0
-0.16899699 , 9.793476    , 0.0903883651, -0.0012703992, 5.344946E-05, 0.00101272238, -1.57986641 , -0.01701958 , 9.870656E-06, 921.395264  , 30.1745377  , 794.3556    , 0.48        , 3           , 255         , 0           , 0
-0.166752756, 9.792554    , 0.0882440358, -0.0008630535, 0.0001414474, 2.854946E-05, -1.57987487 , -0.0170193072, 8.453908E-06, 921.395264  , 30.1745377  , 794.355652  , 0.49        , 3           , 255         , 0           , 0
-0.159012467, 9.791975    , 0.0837454647, -0.001121823, -0.000317509781, -0.000463424076, -1.5798862  , -0.0170239117, 1.16711635E-05, 921.395264  , 30.1745377  , 794.3557    , 0.5         , 3           , 255         , 0           , 0
-0.153095514, 9.791121    , 0.08603286  , -0.00107796642, -6.50417351E-05, -0.000250704, -1.57988942 , -0.0170270912, 1.2217929E-05, 921.395264  , 30.1745377  , 794.3804    , 0.51        , 3           , 255         , 0           , 0
-0.16108954 , 9.786058    , 0.07712364  , -0.000897058868, 0.000111290385, -0.000192790758, -1.57989836 , -0.0170290284, 1.11216041E-05, 921.395264  , 30.1745377  , 794.3805    , 0.52        , 3           , 255         , 0           , 0
-0.161385   , 9.791869    , 0.0713949651, -0.0007742195, -0.0002033751, -0.000212498591, -1.57990611 , -0.0170311332, 1.31745383E-05, 921.3563    , 30.182      , 794.3806    , 0.53        , 3           , 255         , 0           , 0
-0.167788848, 9.791502    , 0.0749592   , -0.000698459859, 0.000152526161, 0.000335226418, -1.57991314 , -0.017027799, 1.16190022E-05, 921.3563    , 30.182      , 794.380737  , 0.54        , 3           , 255         , 0           , 0
-0.1733826  , 9.80296     , 0.07743105  , -0.00102890632, -8.703812E-05, 0.0003418431, -1.57992351 , -0.0170243736, 1.24591761E-05, 921.3563    , 30.182      , 794.380859  , 0.55        , 3           , 255         , 0           , 0
-0.17122896 , 9.792355    , 0.07456082  , -0.00107646489, -0.000231621758, 0.000313087541, -1.57993424 , -0.0170212239, 1.47468345E-05, 921.3563    , 30.182      , 794.381     , 0.56        , 3           , 255         , 0           , 0
-0.157538146, 9.789981    , 0.0782562941, -0.0007784498, -0.00033184918, 0.00041515872, -1.57994211 , -0.0170170423, 1.80274274E-05, 921.3563    , 30.182      , 794.3811    , 0.57        , 3           , 255         , 0           , 0
-0.164485842, 9.788153    , 0.08715154  , -0.0008148374, -3.72687646E-05, -0.000218178844, -1.57995021 , -0.0170192216, 1.84205037E-05, 921.3563    , 30.182      , 794.3812    , 0.58        , 3           , 255         , 0           , 0
-0.174679041, 9.79303551  , 0.08514334  , -0.000934923766, -0.000262775255, 0.0005518284, -1.57995963 , -0.01701368 , 2.09969148E-05, 921.3563    , 30.182      , 794.381348  , 0.59        , 3           , 255         , 0           , 0
-0.1641292  , 9.800208    , 0.09065024  , -0.001069262, -0.000435489084, 9.859243E-05, -1.57997036 , -0.0170126557, 2.53440267E-05, 921.3563    , 30.182      , 794.3815    , 0.6         , 3           , 255         , 0           , 0
-0.167485088, 9.796869    , 0.08598796  , -0.00112342066, -0.000205050688, 8.478356E-05, -1.57995081 , -0.0170054641, 2.68622989E-05, 921.3563    , 30.182      , 794.4592    , 0.61        , 3           , 255         , 0           , 0
-0.167113855, 9.791666    , 0.07735476  , -0.000939997553, -0.0001807515, 0.0006455972, -1.57996011 , -0.016998997, 2.86097038E-05, 921.3563    , 30.182      , 794.459351  , 0.62        , 3           , 255         , 0           , 0
-0.160066724, 9.795593    , 0.08650555  , -0.000643652456, -8.02108843E-05, 0.0008262977, -1.57996655 , -0.0169907231, 2.93362409E-05, 921.395752  , 30.1867485  , 794.4595    , 0.63        , 3           , 255         , 0           , 0
-0.165799066, 9.791246    , 0.08279476  , -0.00108746684, 3.91068461E-05, 0.0006582304, -1.57997751 , -0.01698415 , 2.88844731E-05, 921.395752  , 30.1867485  , 794.4596    , 0.64        , 3           , 255         , 0           , 0
-0.166885883, 9.79482     , 0.07988772  , -0.00108816393, 0.000494302833, 0.000241648915, -1.57998824 , -0.0169817749, 2.3918883E-05, 921.395752  , 30.1867485  , 794.4597    , 0.65        , 3           , 255         , 0           , 0
-0.171069413, 9.799367    , 0.07264254  , -0.001082602, -0.0002642682, -4.12102963E-05, -1.57999921 , -0.0169821642, 2.65660856E-05, 921.395752  , 30.1867485  , 794.459839  , 0.66        , 3           , 255         , 0           , 0
-0.168566123, 9.787244    , 0.07560265  , -0.00093427673, -0.0002791384, 0.0005647017, -1.58000851 , -0.0169764925, 2.93055E-05 , 921.395752  , 30.1867485  , 794.459961  , 0.67        , 3           , 255         , 0           , 0
-0.1717431  , 9.789361    , 0.0841250047, -0.0009567406, 5.78073959E-05, 0.000107059575, -1.580018   , -0.0169754326, 2.871774E-05, 921.395752  , 30.1867485  , 794.4601    , 0.68        , 3           , 255         , 0           , 0
-0.170859531, 9.805014    , 0.08333767  , -0.000833490863, -0.000141695025, -0.0004272928, -1.58002639 , -0.0169796888, 3.01745458E-05, 921.395752  , 30.1867485  , 794.4602    , 0.69        , 3           , 255         , 0           , 0
-0.172847584, 9.797026    , 0.09735459  , -0.001303264, 0.000113914473, -0.000147246668, -1.5800395  , -0.0169811733, 2.90493481E-05, 921.395752  , 30.1867485  , 794.4604    , 0.7         , 3           , 255         , 0           , 0
-0.164226621, 9.79356     , 0.08768237  , -0.000936668366, 0.000415149785, 0.000452814071, -1.58002746 , -0.0169820413, 2.44945259E-05, 921.395752  , 30.1867485  , 794.4625    , 0.71        , 3           , 255         , 0           , 0
-0.168502763, 9.792015    , 0.08703956  , -0.0005475108, 8.246908E-05, 0.0007911806, -1.580033   , -0.0169741437, 2.359659E-05, 921.395752  , 30.1867485  , 794.4627    , 0.72        , 3           , 255         , 0           , 0
-0.16294606 , 9.788828    , 0.0935780257, -0.000683139951, 0.0004071385, 0.000864199246, -1.58003974 , -0.01696554 , 1.944509E-05, 921.4233    , 30.1891232  , 794.4629    , 0.73        , 3           , 255         , 0           , 0
-0.166838914, 9.790281    , 0.0905993059, -0.0009269209, -0.000145888713, 7.311668E-06, -1.580049   , -0.0169654544, 2.0903748E-05, 921.4233    , 30.1891232  , 794.4631    , 0.74        , 3           , 255         , 0           , 0
-0.172364056, 9.79735851  , 0.0899775   , -0.00107030012, 0.000134209768, -0.0004438006, -1.58005965 , -0.0169699062, 1.9603438E-05, 921.4233    , 30.1891232  , 794.463257  , 0.75        , 3           , 255         , 0           , 0
-0.180788934, 9.795847    , 0.0803334862, -0.000744968362, 0.0004874146, 0.000109503337, -1.580067   , -0.0169688519, 1.47179489E-05, 921.4233    , 30.1891232  , 794.46344   , 0.76        , 3           , 255         , 0           , 0
-0.176713184, 9.795385    , 0.0898170844, -0.00122678373, -0.000187047088, -0.000392935035, -1.58007932 , -0.0169727653, 1.66255741E-05, 921.4233    , 30.1891232  , 794.4636    , 0.77        , 3           , 255         , 0           , 0
-0.164589643, 9.78818     , 0.08276679  , -0.0009863533, -0.000445320969, 0.000128358486, -1.58008921 , -0.0169714447, 2.10667531E-05, 921.4233    , 30.1891232  , 794.4638    , 0.78        , 3           , 255         , 0           , 0
-0.168877363, 9.794207    , 0.07873943  , -0.001328927, -0.000402168778, -0.000192719774, -1.58010244 , -0.0169733353, 2.51055535E-05, 921.4233    , 30.1891232  , 794.464     , 0.79        , 3           , 255         , 0           , 0
-0.174375415, 9.793863    , 0.08027613  , -0.00147116324, -0.0001173754, -0.000187068275, -1.58011734 , -0.0169751942, 2.62968879E-05, 921.4233    , 30.1891232  , 794.4642    , 0.8         , 3           , 255         , 0           , 0
-0.174884275, 9.7941885   , 0.0850347653, -0.00125942077, -3.09566676E-05, 0.000435239839, -1.58011556 , -0.01698276 , 2.63229722E-05, 921.4233    , 30.1891232  , 794.431152  , 0.81        , 3           , 255         , 0           , 0
-0.168584839, 9.796964    , 0.0847645849, -0.00116955186, -1.8265855E-05, 0.0006834416, -1.58012724 , -0.0169759281, 2.64412683E-05, 921.4233    , 30.1891232  , 794.4313    , 0.82        , 3           , 255         , 0           , 0
-0.165146083, 9.78738     , 0.08310099  , -0.000679136952, -0.00011229582, 0.000473185471, -1.58013391 , -0.0169711877, 2.7519889E-05, 921.423645  , 30.1927185  , 794.4314    , 0.83        , 3           , 255         , 0           , 0
-0.162320331, 9.79186     , 0.0840508044, -0.000754946144, 0.000183991971, 0.000276743842, -1.58014154 , -0.0169684384, 2.56541789E-05, 921.423645  , 30.1927185  , 794.4315    , 0.84        , 3           , 255         , 0           , 0
-0.160331681, 9.79303     , 0.07661593  , -0.00142169639, -1.01721089E-05, -0.000112678565, -1.58015585 , -0.0169695653, 2.5765954E-05, 921.423645  , 30.1927185  , 794.431641  , 0.85        , 3           , 255         , 0           , 0
-0.170044079, 9.788984    , 0.08711146  , -0.0015337473, -0.000160306634, 0.000130932545, -1.58017123 , -0.0169682372, 2.73587466E-05, 921.423645  , 30.1927185  , 794.431763  , 0.86        , 3           , 255         , 0           , 0
-0.16729188 , 9.796102    , 0.08882875  , -0.0005795992, 0.000114421564, 0.0006413192, -1.580177   , -0.01696184 , 2.615437E-05, 921.423645  , 30.1927185  , 794.4319    , 0.87        , 3           , 255         , 0           , 0
-0.1743221  , 9.794278    , 0.0868916139, -0.000849232, -0.00019455346, 0.0007661036, -1.58018541 , -0.0169541612, 2.802846E-05, 921.423645  , 30.1927185  , 794.432068  , 0.88        , 3           , 255         , 0           , 0
-0.173177317, 9.789194    , 0.08290192  , -0.000497122935, -0.000456544483, 0.000160593365, -1.58019054 , -0.0169525184, 3.257862E-05, 921.423645  , 30.1927185  , 794.432251  , 0.89        , 3           , 255         , 0           , 0
-0.168222234, 9.789448    , 0.07974987  , -0.00065079343, -0.000655250042, 0.000422365381, -1.5801971  , -0.0169482343, 3.90913629E-05, 921.423645  , 30.1927185  , 794.432434  , 0.9         , 3           , 255         , 0           , 0
-0.170503914, 9.792061    , 0.0820836052, -0.00104665081, -0.0006109079, 0.000151700311, -1.58018291 , -0.0169538539, 4.47686E-05 , 921.423645  , 30.1927185  , 794.4056    , 0.91        , 3           , 255         , 0           , 0
-0.170574248, 9.792336    , 0.08375662  , -0.00127470528, 0.000617962331, 8.616285E-05, -1.58019555 , -0.0169530511, 3.858186E-05, 921.423645  , 30.1927185  , 794.4057    , 0.92        , 3           , 255         , 0           , 0
-0.168543354, 9.792963    , 0.0782900751, -0.0012363852, 5.40411565E-06, 0.0004867679, -1.58020806 , -0.01694819 , 3.8481252E-05, 921.381836  , 30.1952972  , 794.4058    , 0.93        , 3           , 255         , 0           , 0
-0.168436527, 9.797113    , 0.08463446  , -0.0006833546, -0.00020717 , 0.000400494726, -1.58021486 , -0.0169441625, 4.051555E-05, 921.381836  , 30.1952972  , 794.405945  , 0.94        , 3           , 255         , 0           , 0
-0.165990859, 9.799166    , 0.0817711353, -0.000142875826, -0.000130199041, 0.000286940834, -1.58021629 , -0.016941281, 4.17907177E-05, 921.381836  , 30.1952972  , 794.406067  , 0.95        , 3           , 255         , 0           , 0
-0.173122019, 9.801588    , 0.08485987  , -0.000598697166, -0.000502258656, 0.0006133241, -1.58022225 , -0.0169351064, 4.675537E-05, 921.381836  , 30.1952972  , 794.4062    , 0.96        , 3           , 255         , 0           , 0
-0.173941389, 9.78786     , 0.0894043446, -0.000346032437, -0.000188307808, 0.000279506145, -1.58022583 , -0.0169322919, 4.86126919E-05, 921.381836  , 30.1952972  , 794.4063    , 0.97        , 3           , 255         , 0           , 0
-0.168851689, 9.79372     , 0.08905069  , -0.000581436034, -0.000177702, -0.0003965842, -1.58023167 , -0.01693624 , 5.04281052E-05, 921.381836  , 30.1952972  , 794.406433  , 0.98        , 3           , 255         , 0           , 0
-0.16286777 , 9.797759    , 0.0891927   , -0.000615214638, 0.000366032182, -0.0006397243, -1.58023775 , -0.0169426743, 4.682803E-05, 921.381836  , 30.1952972  , 794.406555  , 0.99        , 3           , 255         , 0           , 0
-0.16245158 , 9.792117    , 0.0760991   , -0.0008308812, 0.000362298975, 0.000229527868, -1.58024609 , -0.016940413, 4.3183245E-05, 921.381836  , 30.1952972  , 794.4067    , 1           , 3           , 0           , 6.45023632  , 100
-0.166541368, 9.79518     , 0.0764501542, -0.001183629, 0.000177160036, 0.000710533233, -1.580236   , -0.0169400666, 4.0973835E-05, 921.381836  , 30.1952972  , 794.429932  , 1.01        , 3           , 1           , 0           , 0
-0.168332025, 9.789541    , 0.0880002   , -0.000796959037, 0.000174983317, 0.000126271014, -1.580244   , -0.0169388242, 3.92124421E-05, 921.381836  , 30.1952972  , 794.4301    , 1.02        , 3           , 2           , 0           , 0
-0.168882683, 9.788417    , 0.0831125155, -0.0003292713, 0.0001384297, 0.0009338431, -1.58024716 , -0.0169295  , 3.773981E-05, 921.47345   , 30.2003174  , 794.4303    , 1.03        , 3           , 3           , 0           , 0
-0.1694948  , 9.79332352  , 0.09200583  , -0.0006934792, -0.000177978014, 0.0008080927, -1.58025408 , -0.0169214047, 3.94425078E-05, 921.47345   , 30.2003174  , 794.4305    , 1.04        , 3           , 4           , 0           , 0
-0.1727638  , 9.798311    , 0.07881342  , -0.000697659736, 3.11748E-05 , 0.0005898366, -1.58026111 , -0.0169155113, 3.90745772E-05, 921.47345   , 30.2003174  , 794.430664  , 1.05        , 3           , 5           , 0           , 0
-0.168766573, 9.801999    , 0.09484625  , -0.0006137147, 9.834912E-06, -0.000126450992, -1.58026719 , -0.01691678 , 3.8987946E-05, 921.47345   , 30.2003174  , 794.430847  , 1.06        , 3           , 6           , 0           , 0
-0.171488315, 9.795465    , 0.09803543  , -0.00109716319, -0.000397933123, 0.0006490832, -1.58027828 , -0.0169102531, 4.290564E-05, 921.47345   , 30.2003174  , 794.431     , 1.07        , 3           , 7           , 0           , 0
-0.182173967, 9.795689    , 0.08397846  , -0.000686803134, -0.000304903137, -6.864499E-05, -1.58028519 , -0.0169109125, 4.59617477E-05, 921.47345   , 30.2003174  , 794.4312    , 1.08        , 3           , 8           , 5           , 5
-0.168775827, 9.792513    , 0.0894567743, -0.000330743729, -0.0006248804, -0.000281859218, -1.58028865 , -0.01691367 , 5.223884E-05, 921.47345   , 30.2003174  , 794.4314    , 1.09        , 3           , 9           , 5           , 0.1
-0.164852858, 9.793406    , 0.0899876356, -0.00153786119, -0.000304295623, 7.927648E-05, -1.580304   , -0.0169128478, 5.52744568E-05, 921.47345   , 30.2003174  , 794.4316    , 1.1         , 3           , 10          , 0.1         , 0.1
-0.160403371, 9.796579    , 0.08583953  , -0.0008661804, -0.0001401658, 0.000314058561, -1.58029926 , -0.0169213749, 5.641828E-05, 921.47345   , 30.2003174  , 794.3547    , 1.11        , 3           , 11          , 0.009228074 , 0.009228074
-0.161619827, 9.78954     , 0.07375048  , -0.00113315345, 0.000136805626, 0.000685835956, -1.5803107  , -0.01691453 , 5.49857E-05 , 921.47345   , 30.2003174  , 794.3547    , 1.12        , 3           , 12          , 0.174642846 , 0
-0.165148616, 9.793789    , 0.07566339  , -0.0007398154, 0.000100216988, 0.00017766605, -1.580318   , -0.0169127639, 5.39666871E-05, 921.451843  , 30.1976032  , 794.3547    , 1.13        , 3           , 13          , 0           , 0
-0.172625154, 9.805787    , 0.0684976652, -0.0006424676, 1.95353641E-06, 0.0005750979, -1.58032441 , -0.01690701 , 5.38912354E-05, 921.451843  , 30.1976032  , 794.3547    , 1.14        , 3           , 14          , 0.00107084983, -0.00028986347
-0.156910121, 9.79611     , 0.06265958  , -0.000905733, 0.0003887346, 0.000809343765, -1.58033347 , -0.016898958, 4.992789E-05, 921.451843  , 30.1976032  , 794.3547    , 1.15        , 3           , 15          , 0           , -0.0004016877
-0.160354823, 9.786196    , 0.07359175  , -0.00100957672, 4.34515241E-05, 0.00124076684, -1.5803436  , -0.0168865565, 4.937459E-05, 921.451843  , 30.1976032  , 794.3547    , 1.16        , 3           , 16          , 0           , 1.401298E-45
-0.173876345, 9.79777     , 0.07981846  , -0.000911282841, -4.0943065E-05, 0.000613423646, -1.58035266 , -0.01688042 , 4.97257424E-05, 921.451843  , 30.1976032  , 794.3547    , 1.17        , 3           , 20          , 0           , 0
-0.17560409 , 9.789554    , 0.0787652358, -0.00158965332, -0.000124479149, -0.000171758526, -1.58036864 , -0.0168821272, 5.098693E-05, 921.451843  , 30.1976032  , 794.3547    , 1.18        , 3           , 21          , 0           , 0
-0.168602973, 9.792374    , 0.08416053  , -0.00148044527, 0.0001547795, 0.000351274444, -1.5803833  , -0.016878631, 4.940532E-05, 921.451843  , 30.1976032  , 794.3547    , 1.19        , 3           , 22          , 0           , 0
-0.166851759, 9.795308    , 0.0862618461, -0.0007566446, -0.000120312558, 0.00021088947, -1.58039093 , -0.0168765076, 5.058827E-05, 921.451843  , 30.1976032  , 794.3547    , 1.2         , 3           , 40          , 0           , 0
-0.164469227, 9.793211    , 0.09476151  , -0.00068698125, -7.15148053E-05, 0.0003461205, -1.58035541 , -0.0168746784, 5.05537973E-05, 921.451843  , 30.1976032  , 794.3102    , 1.21        , 3           , 41          , 0           , 0
-0.165959328, 9.790182    , 0.09299381  , -0.00142552832, 0.0001093131, 0.0004401857, -1.58036971 , -0.0168702882, 4.94192864E-05, 921.451843  , 30.1976032  , 794.310059  , 1.22        , 3           , 42          , 0           , 0
-0.165937826, 9.787096    , 0.09363769  , -0.00092539913, -0.00027067386, 0.000765509554, -1.580379   , -0.0168626085, 5.20534377E-05, 921.4177    , 30.202013   , 794.309937  , 1.23        , 3           , 255         , 0           , 0
-0.169223577, 9.792381    , 0.0887701362, -0.00142662018, 8.116564E-06, 0.000451818923, -1.5803932  , -0.0168580916, 5.192955E-05, 921.4177    , 30.202013   , 794.3098    , 1.24        , 3           , 255         , 0           , 0
-0.168024927, 9.794714    , 0.08529736  , -0.00146694528, 6.70066656E-05, 0.0007745706, -1.58040786 , -0.0168503541, 5.11843755E-05, 921.4177    , 30.202013   , 794.3097    , 1.25        , 3           , 255         , 0           , 0
-0.162966087, 9.792521    , 0.07857247  , -0.00147753663, 0.000289610442, 0.000110111549, -1.58042264 , -0.0168492831, 4.827731E-05, 921.4177    , 30.202013   , 794.3096    , 1.26        , 3           , 255         , 0           , 0
-0.166255146, 9.793777    , 0.07167127  , -0.00106733048, -0.00024354292, 0.00013617659, -1.58043337 , -0.0168478973, 5.07000259E-05, 921.4177    , 30.202013   , 794.309448  , 1.27        , 3           , 255         , 0           , 0
-0.1673168  , 9.797535    , 0.07898397  , -0.00047509314, 5.88196854E-05, 0.000104140549, -1.580438   , -0.0168468673, 5.010202E-05, 921.4177    , 30.202013   , 794.3093    , 1.28        , 3           , 255         , 0           , 0
-0.170034647, 9.795031    , 0.08444834  , -0.000396369316, -0.000269355864, 0.0005195651, -1.58044207 , -0.0168416444, 5.274549E-05, 921.4177    , 30.202013   , 794.3092    , 1.29        , 3           , 255         , 0           , 0
-0.171520472, 9.796625    , 0.08521719  , 9.860611E-06, -0.000307673676, 0.000468726445, -1.580442   , -0.0168369319, 5.577736E-05, 921.4177    , 30.202013   , 794.3091    , 1.3         , 3           , 255         , 0           , 0
-0.167719036, 9.798036    , 0.09684213  , -6.777409E-05, -0.000323933753, 0.000166625134, -1.58041954 , -0.0168408286, 5.86127171E-05, 921.4177    , 30.202013   , 794.3048    , 1.31        , 3           , 255         , 0           , 0
-0.168691963, 9.801493    , 0.08733838  , -0.0005112618, -0.0006927771, 0.000260517525, -1.58042467 , -0.0168381575, 6.551572E-05, 921.4177    , 30.202013   , 794.3047    , 1.32        , 3           , 255         , 0           , 0
-0.170957059, 9.807993    , 0.08951291  , -0.000139953336, -0.000489528058, 0.00108653808, -1.5804261  , -0.0168272424, 7.030618E-05, 921.415     , 30.2048626  , 794.304565  , 1.33        , 3           , 255         , 0           , 0
-0.176466331, 9.791586    , 0.08373269  , -0.001404508, 3.40964762E-05, 0.00106492033, -1.58044016 , -0.0168166012, 6.98628E-05 , 921.415     , 30.2048626  , 794.304443  , 1.34        , 3           , 255         , 0           , 0
-0.172059134, 9.783412    , 0.075547725 , -0.0008160527, 9.57764E-05 , 0.000410800742, -1.58044839 , -0.0168125015, 6.886614E-05, 921.415     , 30.2048626  , 794.3043    , 1.35        , 3           , 255         , 0           , 0
-0.175520733, 9.79545     , 0.06839059  , -0.000729817431, -0.000238336885, 0.00030796387, -1.58045566 , -0.0168093983, 7.12180554E-05, 921.415     , 30.2048626  , 794.3042    , 1.36        , 3           , 255         , 0           , 0
-0.1682776  , 9.792732    , 0.07295625  , -0.00111286948, -0.0001521743, 0.0002452099, -1.58046675 , -0.0168069322, 7.271583E-05, 921.415     , 30.2048626  , 794.3041    , 1.37        , 3           , 255         , 0           , 0
-0.160678655, 9.79271     , 0.08659402  , -0.000855823164, 5.98203042E-06, 0.000221042166, -1.58047533 , -0.0168047249, 7.263572E-05, 921.415     , 30.2048626  , 794.303955  , 1.38        , 3           , 255         , 0           , 0
-0.164452881, 9.783976    , 0.0847273   , -0.000932218565, -0.0001729092, -7.47383747E-05, -1.58048475 , -0.016805457, 7.437383E-05, 921.415     , 30.2048626  , 794.303833  , 1.39        , 3           , 255         , 0           , 0
-0.172406182, 9.789872    , 0.07914808  , -0.00150408642, 0.0003296312, 0.000756070833, -1.58049977 , -0.0167979263, 7.10038148E-05, 921.415     , 30.2048626  , 794.3037    , 1.4         , 3           , 255         , 0           , 0
-0.15956673 , 9.791136    , 0.08497144  , -0.00100288063, 0.000117239906, 0.00129055965, -1.58047938 , -0.0167977363, 6.919772E-05, 921.415     , 30.2048626  , 794.302734  , 1.41        , 3           , 255         , 0           , 0
-0.16125913 , 9.796415    , 0.09305067  , -0.0009879682, 2.193093E-05, 0.0004267208, -1.58048928 , -0.0167934727, 6.893691E-05, 921.415     , 30.2048626  , 794.3026    , 1.42        , 3           , 255         , 0           , 0
-0.158557564, 9.791394    , 0.09474293  , -0.000514594256, -0.000506586162, 0.0008228136, -1.58049452 , -0.0167851951, 7.392205E-05, 921.420837  , 30.2040482  , 794.3025    , 1.43        , 3           , 255         , 0           , 0
-0.159483224, 9.798986    , 0.09004147  , -0.00065588695, 0.0002690666, 0.0008393917, -1.58050108 , -0.01677683 , 7.115003E-05, 921.420837  , 30.2040482  , 794.3024    , 1.44        , 3           , 255         , 0           , 0
-0.175457954, 9.792104    , 0.08570079  , -0.0008905924, -0.000101174926, 0.00106422545, -1.58051    , -0.0167661812, 7.205911E-05, 921.420837  , 30.2040482  , 794.302368  , 1.45        , 3           , 255         , 0           , 0
-0.181469   , 9.788757    , 0.07469053  , -0.00108636194, 0.000423977675, 0.000144305435, -1.58052087 , -0.0167647786, 6.780609E-05, 921.420837  , 30.2040482  , 794.3023    , 1.46        , 3           , 255         , 0           , 0
-0.171609014, 9.792715    , 0.07125513  , -0.0013107839, -3.39051767E-05, 2.47862772E-06, -1.58053386 , -0.0167647526, 6.814514E-05, 921.420837  , 30.2040482  , 794.302246  , 1.47        , 3           , 255         , 0           , 0
-0.165038213, 9.796878    , 0.0832690448, -0.0005863911, -0.000109470682, -0.000562303467, -1.58053982 , -0.0167703666, 6.929549E-05, 921.420837  , 30.2040482  , 794.3022    , 1.48        , 3           , 255         , 0           , 0
-0.162986562, 9.796388    , 0.07848762  , -0.000437822076, -1.80147763E-05, -7.10838649E-05, -1.58054423 , -0.0167710744, 6.948178E-05, 921.420837  , 30.2040482  , 794.3021    , 1.49        , 3           , 255         , 0           , 0
-0.16109474 , 9.785226    , 0.074873656 , -0.0009027368, 0.000218343135, -0.000199215516, -1.58055317 , -0.016773086, 6.731802E-05, 921.420837  , 30.2040482  , 794.302063  , 1.5         , 3           , 255         , 0           , 0
-0.172881275, 9.794916    , 0.0758151859, -0.001124911, 8.05109157E-05, 0.000130601751, -1.58053327 , -0.0167754218, 6.597766E-05, 921.420837  , 30.2040482  , 794.2951    , 1.51        , 3           , 255         , 0           , 0
-0.165687576, 9.78935051  , 0.0824561   , -0.000317416037, -0.000452386128, 0.000529251 , -1.58053648 , -0.016770089, 7.045049E-05, 921.420837  , 30.2040482  , 794.295     , 1.52        , 3           , 255         , 0           , 0
-0.1592177  , 9.789224    , 0.07543466  , -0.00105710048, 0.0001056043, 0.000483072829, -1.58054709 , -0.01676527 , 6.934765E-05, 921.44      , 30.2046585  , 794.294861  , 1.53        , 3           , 255         , 0           , 0
-0.163680986, 9.794516    , 0.07545682  , -0.00138562638, -6.54356E-05, 9.915198E-05, -1.58056092 , -0.0167642757, 6.999315E-05, 921.44      , 30.2046585  , 794.294739  , 1.54        , 3           , 255         , 0           , 0
-0.1696413  , 9.785645    , 0.0840377063, -0.00135998358, -0.000267099851, 0.00021374067, -1.58057451 , -0.01676211 , 7.26422E-05 , 921.44      , 30.2046585  , 794.2946    , 1.55        , 3           , 255         , 0           , 0
-0.168387622, 9.794111    , 0.08886453  , -0.00123144872, -0.000120968063, 0.0009228654, -1.58058691 , -0.0167528726, 7.37608643E-05, 921.44      , 30.2046585  , 794.2945    , 1.56        , 3           , 255         , 0           , 0
-0.165785208, 9.805042    , 0.09833827  , -0.001020755, 0.000270908844, 0.0002594672, -1.580597   , -0.01675031 , 7.10270251E-05, 921.44      , 30.2046585  , 794.2944    , 1.57        , 3           , 255         , 0           , 0
-0.16928418 , 9.792886    , 0.0793694556, -0.00055115117, -2.4832756E-05, 0.000605972367, -1.58060253 , -0.0167442448, 7.121705E-05, 921.44      , 30.2046585  , 794.29425   , 1.58        , 3           , 255         , 0           , 0
-0.170790881, 9.793631    , 0.08658412  , 0.000114719267, -0.000221426279, 0.00103080878, -1.58060145 , -0.0167339165, 7.33305E-05 , 921.44      , 30.2046585  , 794.2941    , 1.59        , 3           , 255         , 0           , 0
-0.164439589, 9.786844    , 0.09060474  , -0.000796285749, -0.000106258376, 0.0002448684, -1.58060944 , -0.0167314578, 7.436813E-05, 921.44      , 30.2046585  , 794.294     , 1.6         , 3           , 255         , 0           , 0
-0.164678589, 9.791057    , 0.08487261  , -0.000944216968, -0.000129559077, -0.000471765845, -1.58058763 , -0.0167434458, 7.518783E-05, 921.44      , 30.2046585  , 794.267334  , 1.61        , 3           , 255         , 0           , 0
-0.1783326  , 9.79659     , 0.08157378  , -0.00116198556, -0.000229165918, 7.40934047E-06, -1.58059931 , -0.016743347, 7.74782748E-05, 921.44      , 30.2046585  , 794.2671    , 1.62        , 3           , 255         , 0           , 0
-0.178849846, 9.803366    , 0.07651657  , -0.00144323369, -0.000587546965, -6.107753E-05, -1.58061373 , -0.0167439021, 8.335948E-05, 921.451843  , 30.2069664  , 794.266846  , 1.63        , 3           , 255         , 0           , 0
-0.17824766 , 9.806295    , 0.08001432  , -0.000654165342, -0.0003817247, 0.00110588467, -1.58062041 , -0.0167328082, 8.70684962E-05, 921.451843  , 30.2069664  , 794.2666    , 1.64        , 3           , 255         , 0           , 0
-0.168250352, 9.797426    , 0.07727665  , -0.0008122926, -0.000116890209, 0.0006243259, -1.58062851 , -0.0167265553, 8.81759843E-05, 921.451843  , 30.2069664  , 794.266357  , 1.65        , 3           , 255         , 0           , 0
-0.1699601  , 9.778586    , 0.0816827   , -0.00124976039, 0.000336186029, -0.000221014576, -1.58064091 , -0.0167287979, 8.48358E-05 , 921.451843  , 30.2069664  , 794.2661    , 1.66        , 3           , 255         , 0           , 0
-0.168762073, 9.793796    , 0.08018758  , -0.00093836314, -0.0005198604, -9.261674E-05, -1.58065033 , -0.0167296734, 9.004263E-05, 921.451843  , 30.2069664  , 794.265869  , 1.67        , 3           , 255         , 0           , 0
-0.165509939, 9.794187    , 0.0724320561, -0.00133373355, -0.000208094978, 0.0001311749, -1.58066368 , -0.0167283434, 9.211045E-05, 921.451843  , 30.2069664  , 794.2656    , 1.68        , 3           , 255         , 0           , 0
-0.16454269 , 9.797793    , 0.0808542   , -0.00123006932, 0.0001035163, 0.0007918534, -1.580676   , -0.0167204365, 9.099643E-05, 921.451843  , 30.2069664  , 794.265442  , 1.69        , 3           , 255         , 0           , 0
-0.170644313, 9.791627    , 0.08537185  , -0.000315231155, 0.000493787753, 0.00110503018, -1.580679   , -0.01670943 , 8.595073E-05, 921.451843  , 30.2069664  , 794.265259  , 1.7         , 3           , 255         , 0           , 0
-0.1712805  , 9.787005    , 0.09039926  , -0.000465426827, 7.169746E-05, 9.878384E-05, -1.58064878 , -0.0167233422, 8.4639265E-05, 921.451843  , 30.2069664  , 794.2282    , 1.71        , 3           , 255         , 0           , 0
-0.1730908  , 9.785135    , 0.0946549252, -0.000375130156, -0.000334723562, -0.000272900943, -1.58065259 , -0.0167260412, 8.801298E-05, 921.451843  , 30.2069664  , 794.2278    , 1.72        , 3           , 255         , 0           , 0
-0.173135787, 9.79003     , 0.0923425853, -0.00117942831, -0.000202489435, 0.000284986774, -1.5806644  , -0.01672317 , 9.001002E-05, 921.436462  , 30.2079163  , 794.227356  , 1.73        , 3           , 255         , 0           , 0
-0.161876261, 9.788112    , 0.09009926  , -0.00194449537, -0.0002274465, 6.32852E-05 , -1.580684   , -0.0167225171, 9.22781E-05 , 921.436462  , 30.2079163  , 794.2269    , 1.74        , 3           , 255         , 0           , 0
-0.156816453, 9.797496    , 0.09330191  , -0.00122242817, -0.000390446, 0.0001917769, -1.58069611 , -0.0167205613, 9.61631958E-05, 921.436462  , 30.2079163  , 794.2265    , 1.75        , 3           , 255         , 0           , 0
-0.1698496  , 9.799156    , 0.084828034 , -5.532941E-05, -0.000338036334, 0.000107378553, -1.5806967  , -0.016719453, 9.95322553E-05, 921.436462  , 30.2079163  , 794.2261    , 1.76        , 3           , 255         , 0           , 0
-0.165889367, 9.794344    , 0.07687415  , -0.0002329481, -0.000440167962, -2.83634872E-05, -1.58069909 , -0.0167196952, 0.0001039371, 921.436462  , 30.2079163  , 794.225647  , 1.77        , 3           , 255         , 0           , 0
-0.160560712, 9.787853    , 0.0808236152, -0.000899965933, 0.000213226609, 0.000355863158, -1.580708   , -0.016716158, 0.000101769605, 921.436462  , 30.2079163  , 794.2252    , 1.78        , 3           , 255         , 0           , 0
-0.160606876, 9.789328    , 0.07744509  , -0.000618015649, 0.00069801393, -0.000439884, -1.58071423 , -0.0167206265, 9.483215E-05, 921.436462  , 30.2079163  , 794.2248    , 1.79        , 3           , 255         , 0           , 0
-0.174092248, 9.795828    , 0.07485391  , -0.000376548734, 0.000337816164, -0.000463272, -1.5807178  , -0.0167252943, 9.149941E-05, 921.436462  , 30.2079163  , 794.2244    , 1.8         , 3           , 255         , 0           , 0
-0.164404571, 9.800888    , 0.07710695  , -0.00047753175, -0.000161475473, -0.000591818, -1.58069193 , -0.01673923 , 9.266096E-05, 921.436462  , 30.2079163  , 794.2084    , 1.81        , 3           , 255         , 0           , 0
-0.163958   , 9.80509     , 0.0855502039, -0.00116915139, 0.000299121079, 1.01237383E-05, -1.58070362 , -0.01673916 , 8.96681959E-05, 921.436462  , 30.2079163  , 794.2079    , 1.82        , 3           , 255         , 0           , 0
-0.161824435, 9.800208    , 0.0830635   , -0.0003653908, 0.00036969714, -0.000251294259, -1.58070731 , -0.0167417079, 8.59964057E-05, 921.3967    , 30.2090015  , 794.2074    , 1.83        , 3           , 255         , 0           , 0
-0.168959081, 9.793066    , 0.09061039  , -0.00110111653, 4.9846567E-05, -7.388732E-05, -1.5807184  , -0.016742453, 8.550647E-05, 921.3967    , 30.2090015  , 794.2069    , 1.84        , 3           , 255         , 0           , 0
-0.171777725, 9.796976    , 0.08648205  , -0.00104264461, -0.0002571517, -2.75156344E-06, -1.58072889 , -0.016742453, 8.80791558E-05, 921.3967    , 30.2090015  , 794.2064    , 1.85        , 3           , 255         , 0           , 0
-0.169773653, 9.79743     , 0.09270252  , -0.00109750684, 7.505837E-05, -3.405116E-05, -1.58073974 , -0.0167428032, 8.733119E-05, 921.3967    , 30.2090015  , 794.205933  , 1.86        , 3           , 255         , 0           , 0
-0.168765575, 9.794467    , 0.07888833  , -0.0008635976, -0.0005516204, 0.000619302737, -1.58074844 , -0.016736554, 9.278484E-05, 921.3967    , 30.2090015  , 794.205444  , 1.87        , 3           , 255         , 0           , 0
-0.176023468, 9.789599    , 0.07454855  , -0.00108746509, -0.000209613616, -0.000304244255, -1.58075941 , -0.01673958 , 9.49113455E-05, 921.3967    , 30.2090015  , 794.204956  , 1.88        , 3           , 255         , 0           , 0
-0.171296179, 9.787857    , 0.0917203   , -0.00137589441, 0.000257333129, -0.000487434241, -1.58077312 , -0.01674448 , 9.238711E-05, 921.3967    , 30.2090015  , 794.204468  , 1.89        , 3           , 255         , 0           , 0
-0.167397708, 9.790445    , 0.08262989  , -0.00100198935, -0.0003132505, -0.000427394261, -1.58078313 , -0.0167487226, 9.556245E-05, 921.3967    , 30.2090015  , 794.204     , 1.9         , 3           , 255         , 0           , 0
-0.165782765, 9.793681    , 0.0822980851, -0.0009262959, -0.000247674267, 6.47461275E-06, -1.58076656 , -0.0167574231, 9.760421E-05, 921.3967    , 30.2090015  , 794.2363    , 1.91        , 3           , 255         , 0           , 0
-0.163023114, 9.799359    , 0.0792556852, -0.00127875851, -0.000146519073, 0.000203115807, -1.58077931 , -0.0167553779, 9.904982E-05, 921.3967    , 30.2090015  , 794.2361    , 1.92        , 3           , 255         , 0           , 0
-0.163685918, 9.79837     , 0.08165222  , -0.00106618623, -0.0004471164, 0.000143499929, -1.58079    , -0.0167538989, 0.000103506827, 921.419     , 30.2090683  , 794.23584   , 1.93        , 3           , 255         , 0           , 0
-0.171848357, 9.78454     , 0.0782995   , -0.000188373378, -0.000193216576, 0.000883506 , -1.58079183 , -0.0167450439, 0.000105350162, 921.419     , 30.2090683  , 794.2356    , 1.94        , 3           , 255         , 0           , 0
-0.168150768, 9.78696251  , 0.08569039  , -0.000436649541, 0.00017350768, 0.000534470659, -1.58079624 , -0.0167397223, 0.000103561753, 921.419     , 30.2090683  , 794.235352  , 1.95        , 3           , 255         , 0           , 0
-0.170513183, 9.796252    , 0.08658886  , -0.00147262821, 0.000233914136, 1.038413E-05, -1.580811   , -0.0167396441, 0.000101222868, 921.419     , 30.2090683  , 794.2351    , 1.96        , 3           , 255         , 0           , 0
-0.166854054, 9.80188751  , 0.08647988  , -0.001090203, 5.265011E-05, 0.000271579251, -1.58082187 , -0.016736934, 0.000100668658, 921.419     , 30.2090683  , 794.234863  , 1.97        , 3           , 255         , 0           , 0
-0.175729752, 9.790258    , 0.08822463  , -0.00104361179, 0.000218658228, -0.000315103738, -1.58083224 , -0.01674011 , 9.85142E-05 , 921.419     , 30.2090683  , 794.2346    , 1.98        , 3           , 255         , 0           , 0
-0.172481567, 9.790786    , 0.0864152461, -0.00112327165, -0.00042148502, 9.790689E-05, -1.58084357 , -0.016739089, 0.000102719707, 921.419     , 30.2090683  , 794.2344    , 1.99        , 3           , 255         , 0           , 0
-0.167062134, 9.798623    , 0.09197354  , -0.000879814033, -0.000320148451, 2.8618786E-05, -1.58085239 , -0.01673877 , 0.000105917381, 921.419     , 30.2090683  , 794.234131  , 2           , 3           , 0           , 7.45023632  , 200
-0.166610479, 9.803598    , 0.09508571  , -0.00138580427, -0.00034451377, 0.0005280542, -1.58083773 , -0.0167431813, 0.000108832864, 921.419     , 30.2090683  , 794.237     , 2.01        , 3           , 1           , 0           , 0
-0.15674226 , 9.787476    , 0.07644678  , -0.00133693859, -0.00024670377, 0.000131632114, -1.5808512  , -0.01674184 , 0.000111287241, 921.419     , 30.2090683  , 794.236755  , 2.02        , 3           , 2           , 0           , 0
-0.163771749, 9.793585    , 0.0761797652, -0.000615868368, -1.48016261E-06, -0.00028591 , -1.5808574  , -0.0167447  , 0.000111331021, 921.4319    , 30.2111034  , 794.2365    , 2.03        , 3           , 3           , 0           , 0
-0.166968316, 9.790872    , 0.08346583  , -0.000172775122, -0.0003879676, 0.000475151552, -1.58085907 , -0.0167399123, 0.000115162067, 921.4319    , 30.2111034  , 794.236267  , 2.04        , 3           , 4           , 0           , 0
-0.170271978, 9.798501    , 0.0867973045, -0.00107709318, -0.000301656342, -0.0004601448, -1.58086991 , -0.0167444833, 0.0001182247, 921.4319    , 30.2111034  , 794.236     , 2.05        , 3           , 5           , 0           , 0
-0.167246252, 9.807835    , 0.08675332  , -0.0008311727, -0.000257885345, -0.0002618657, -1.58087826 , -0.0167470779, 0.000120829958, 921.4319    , 30.2111034  , 794.2358    , 2.06        , 3           , 6           , 0           , 0
-0.159932151, 9.791331    , 0.0800488442, -0.0005745687, -6.158755E-05, 0.0002480565, -1.580884   , -0.01674459 , 0.000121420519, 921.4319    , 30.2111034  , 794.235535  , 2.07        , 3           , 7           , 0           , 0
-0.1685637  , 9.780685    , 0.0829842   , -0.000819492852, -0.000148726715, 0.0004379892, -1.58089221 , -0.0167402  , 0.000122863319, 921.4319    , 30.2111034  , 794.2353    , 2.08        , 3           , 8           , 5           , 5
-0.168924659, 9.793085    , 0.08197028  , -0.00111146166, -0.000158169511, -0.0003200374, -1.58090329 , -0.01674338 , 0.00012447848, 921.4319    , 30.2111034  , 794.235046  , 2.09        , 3           , 9           , 5           , 0.1
-0.164554   , 9.796301    , 0.08354535  , -0.000691676571, 0.000261230685, 0.000681777543, -1.58091021 , -0.01673659 , 0.000121797748, 921.4319    , 30.2111034  , 794.2348    , 2.1         , 3           , 10          , 0.1         , 0.1
-0.1690363  , 9.797674    , 0.0827233046, -0.00119858852, -3.83885344E-05, 0.0005157837, -1.5808903  , -0.016734248, 0.000121595614, 921.4319    , 30.2111034  , 794.2218    , 2.11        , 3           , 11          , 0.008187682 , 0.00818768051
-0.171258375, 9.79210949  , 0.08518858  , -0.0009669148, -0.0002554298, 0.000363689236, -1.58090007 , -0.0167305879, 0.000124113329, 921.4319    , 30.2111034  , 794.2215    , 2.12        , 3           , 12          , 0.174643889 , 0
-0.17393136 , 9.787738    , 0.08591089  , -0.0005913384, -0.000411490182, -0.000227709243, -1.580906   , -0.016732825, 0.000128251762, 921.444031  , 30.2118511  , 794.2212    , 2.13        , 3           , 13          , 0           , 0
-0.174681261, 9.793945    , 0.07687679  , -0.0002561072, 0.0002363124, 0.000120273384, -1.58090854 , -0.016731644, 0.000125875638, 921.444031  , 30.2118511  , 794.2209    , 2.14        , 3           , 14          , 0.00107018556, -0.000289876218
-0.167067617, 9.790335    , 0.07326412  , -0.0008923381, -0.000391740963, -0.000131910667, -1.58091748 , -0.0167329255, 0.000129806358, 921.444031  , 30.2118511  , 794.2206    , 2.15        , 3           , 15          , 0           , -0.000401522266
-0.164591342, 9.794515    , 0.07564491  , -0.00109651661, 1.08066015E-05, 0.000486430479, -1.58092844 , -0.0167280659, 0.000129649867, 921.444031  , 30.2118511  , 794.2203    , 2.16        , 3           , 16          , 0           , 1.401298E-45
-0.16996187 , 9.792003    , 0.08328988  , -0.00116301712, -0.0003146987, 0.000359173777, -1.58094013 , -0.0167244449, 0.00013275996, 921.444031  , 30.2118511  , 794.22      , 2.17        , 3           , 20          , 0           , 0
-0.174724251, 9.799156    , 0.08294503  , -0.00093385455, 0.000283600762, -0.000388992717, -1.58094943 , -0.0167283621, 0.000129963752, 921.444031  , 30.2118511  , 794.219666  , 2.18        , 3           , 21          , 0           , 0
-0.162002176, 9.803267    , 0.0868979245, -0.00044029823, -0.000193008949, -0.000129324035, -1.58095384 , -0.0167296361, 0.000131906767, 921.444031  , 30.2118511  , 794.21936   , 2.19        , 3           , 22          , 0           , 0
-0.166819856, 9.792231    , 0.09112355  , -0.000586625771, -4.45320038E-05, 0.000323616317, -1.58095968 , -0.0167263988, 0.000132319386, 921.444031  , 30.2118511  , 794.219055  , 2.2         , 3           , 40          , 0           , 0
-0.162978068, 9.787275    , 0.0803453848, -0.0007848777, 0.0002663419, -0.000268573523, -1.58093345 , -0.0167403277, 0.000129112435, 921.444031  , 30.2118511  , 794.192566  , 2.21        , 3           , 41          , 0           , 0
-0.167800367, 9.798449    , 0.08654944  , -0.00184910838, 9.411592E-05, -0.000165643985, -1.58095193 , -0.0167419948, 0.000128187516, 921.444031  , 30.2118511  , 794.192139  , 2.22        , 3           , 42          , 0           , 0
-0.162955448, 9.798981    , 0.0915366262, -0.00102341722, 0.000144336227, -0.000349804177, -1.58096206 , -0.0167455077, 0.000126779152, 921.4002    , 30.2108326  , 794.1917    , 2.23        , 3           , 255         , 0           , 0
-0.158892453, 9.795758    , 0.0878407657, -7.107982E-05, -6.95744529E-06, 0.000519801863, -1.58096278 , -0.0167403109, 0.000126795916, 921.4002    , 30.2108326  , 794.1913    , 2.24        , 3           , 255         , 0           , 0
-0.160442218, 9.801318    , 0.08597952  , -0.000672523049, -0.000285792747, 0.00110056566, -1.58096957 , -0.0167292748, 0.000129542765, 921.4002    , 30.2108326  , 794.190857  , 2.25        , 3           , 255         , 0           , 0
-0.161328256, 9.784311    , 0.08553772  , -0.00104186218, -0.00023261609, 0.000411187852, -1.58098    , -0.01672514 , 0.000131824811, 921.4002    , 30.2108326  , 794.1904    , 2.26        , 3           , 255         , 0           , 0
-0.16019401 , 9.784274    , 0.08568344  , -0.0006379107, -0.000209146587, 0.0006356285, -1.58098638 , -0.0167187657, 0.000133852547, 921.4002    , 30.2108326  , 794.19      , 2.27        , 3           , 255         , 0           , 0
-0.174838454, 9.800105    , 0.08203683  , -0.0009913332, -0.000363025232, 0.00086427707, -1.58099627 , -0.0167100858, 0.000137393945, 921.4002    , 30.2108326  , 794.1896    , 2.28        , 3           , 255         , 0           , 0
-0.159210429, 9.80016     , 0.08026973  , -0.0009771524, -0.0006813703, -0.000103971979, -1.581006   , -0.01671106 , 0.000144218677, 921.4002    , 30.2108326  , 794.189148  , 2.29        , 3           , 255         , 0           , 0
-0.158010542, 9.789806    , 0.0901674   , -0.000624515931, 9.301861E-05, -4.753325E-05, -1.58101225 , -0.0167115442, 0.00014329188, 921.4002    , 30.2108326  , 794.1887    , 2.3         , 3           , 255         , 0           , 0
-0.161935538, 9.786349    , 0.08836774  , -0.00128275866, 4.49843064E-05, -9.544156E-05, -1.58099651 , -0.016709961, 0.0001423744, 921.4002    , 30.2108326  , 794.222351  , 2.31        , 3           , 255         , 0           , 0
-0.170765877, 9.786026    , 0.08786895  , -0.000643807231, 6.986887E-05, -0.0002899566, -1.58100283 , -0.0167128667, 0.000141705634, 921.4002    , 30.2108326  , 794.222168  , 2.32        , 3           , 255         , 0           , 0
-0.164995909, 9.78433     , 0.08316862  , -0.000670460635, -0.0005192604, -0.0002710671, -1.58100963 , -0.0167155247, 0.000146926424, 921.410461  , 30.2110367  , 794.222     , 2.33        , 3           , 255         , 0           , 0
-0.157027274, 9.792797    , 0.08238579  , -0.00143695169, -0.000210173224, -5.38957538E-05, -1.581024   , -0.0167160444, 0.000149033367, 921.410461  , 30.2110367  , 794.2218    , 2.34        , 3           , 255         , 0           , 0
-0.164748669, 9.795494    , 0.08737181  , -0.00172361778, -0.000322233042, 0.0003445338, -1.58104134 , -0.0167125668, 0.0001522208, 921.410461  , 30.2110367  , 794.2216    , 2.35        , 3           , 255         , 0           , 0
-0.1772437  , 9.80079651  , 0.0791456848, -0.00129586947, -0.000501030358, 0.00111807336, -1.58105433 , -0.016701337, 0.000157116476, 921.410461  , 30.2110367  , 794.221436  , 2.36        , 3           , 255         , 0           , 0
-0.17791459 , 9.799485    , 0.09328461  , -0.000724159239, -0.000181424257, 0.000865305657, -1.5810616  , -0.0166926645, 0.000158840572, 921.410461  , 30.2110367  , 794.221252  , 2.37        , 3           , 255         , 0           , 0
-0.167866886, 9.7927      , 0.08873023  , -0.00052392995, -0.0003123888, -0.000100072793, -1.58106685 , -0.016693633, 0.00016197584, 921.410461  , 30.2110367  , 794.221069  , 2.38        , 3           , 255         , 0           , 0
-0.165768117, 9.785215    , 0.08675847  , -0.00129328179, -0.0002610296, 0.0003271258, -1.58107972 , -0.016690338, 0.0001645513, 921.410461  , 30.2110367  , 794.2209    , 2.39        , 3           , 255         , 0           , 0
-0.161913335, 9.796266    , 0.0840217546, -0.000691009045, -5.986943E-05, 0.000294998958, -1.58108664 , -0.016687382, 0.000165119491, 921.410461  , 30.2110367  , 794.2207    , 2.4         , 3           , 255         , 0           , 0
-0.158497959, 9.799748    , 0.08268259  , -0.0005362308, -9.70888359E-05, -8.820422E-05, -1.58105946 , -0.01669592 , 0.000165555437, 921.410461  , 30.2110367  , 794.2373    , 2.41        , 3           , 255         , 0           , 0
-0.172584489, 9.794863    , 0.08307941  , -0.000800615235, 3.60517879E-05, 0.000349043083, -1.58106744 , -0.01669244 , 0.000165158621, 921.410461  , 30.2110367  , 794.237244  , 2.42        , 3           , 255         , 0           , 0
-0.170950487, 9.783164    , 0.08788207  , -0.000747519836, 0.0001666987, 7.102237E-06, -1.58107507 , -0.0166923851, 0.000163491321, 921.4219    , 30.2118511  , 794.2372    , 2.43        , 3           , 255         , 0           , 0
-0.174788326, 9.789874    , 0.08550868  , -0.0005764154, 0.000171624852, -0.0003678609, -1.58108068 , -0.01669608 , 0.000161812844, 921.4219    , 30.2118511  , 794.2371    , 2.44        , 3           , 255         , 0           , 0
-0.177522615, 9.778353    , 0.0752164945, -0.000950557354, -0.000229562429, 0.0004444503, -1.58109033 , -0.0166916139, 0.00016406324, 921.4219    , 30.2118511  , 794.237061  , 2.45        , 3           , 255         , 0           , 0
-0.175857037, 9.793673    , 0.0824348256, -0.000857229461, -0.0005437768, -0.000104013772, -1.58109891 , -0.0166926011, 0.0001695113, 921.4219    , 30.2118511  , 794.237     , 2.46        , 3           , 255         , 0           , 0
-0.175622731, 9.797528    , 0.08766342  , -0.0007165773, -2.765187E-05, -0.000104933046, -1.58110607 , -0.016693648, 0.000169799125, 921.4219    , 30.2118511  , 794.236938  , 2.47        , 3           , 255         , 0           , 0
-0.175619185, 9.787306    , 0.0873263553, -0.0004845654, -0.000229522731, 0.00105178077, -1.581111   , -0.0166831072, 0.000171985172, 921.4219    , 30.2118511  , 794.2369    , 2.48        , 3           , 255         , 0           , 0
-0.165913552, 9.80081749  , 0.08326082  , -0.00116078625, -0.000263112743, 0.000431772438, -1.58112252 , -0.0166787636, 0.000174571847, 921.4219    , 30.2118511  , 794.2368    , 2.49        , 3           , 255         , 0           , 0
-0.165239349, 9.791282    , 0.08364815  , -0.00124661135, -0.000460478157, -0.00011581654, -1.581135   , -0.0166798718, 0.000179189068, 921.4219    , 30.2118511  , 794.236755  , 2.5         , 3           , 255         , 0           , 0
-0.164511785, 9.800776    , 0.08636021  , -0.00167087489, -0.0003457774, 0.000195624787, -1.5811131  , -0.0166957043, 0.000181980664, 921.4219    , 30.2118511  , 794.2365    , 2.51        , 3           , 255         , 0           , 0
-0.170041576, 9.792287    , 0.08117245  , -0.000619037659, -0.000126443891, 0.0007802304, -1.58111942 , -0.0166878924, 0.00018316452, 921.4219    , 30.2118511  , 794.23645   , 2.52        , 3           , 255         , 0           , 0
-0.165517122, 9.7889      , 0.0761372745, -0.000303392764, 5.94841549E-05, 0.000479620823, -1.5811224  , -0.0166831054, 0.000182520846, 921.423767  , 30.210289   , 794.2364    , 2.53        , 3           , 255         , 0           , 0
-0.1673631  , 9.78885     , 0.0813072547, -0.000612264557, 0.000207287609, 0.000975488 , -1.5811286  , -0.0166733749, 0.000180347764, 921.423767  , 30.210289   , 794.2363    , 2.54        , 3           , 255         , 0           , 0
-0.176189631, 9.7967      , 0.08376116  , -0.0007483283, 7.672847E-06, 0.0005310166, -1.58113611 , -0.0166680682, 0.000180215473, 921.423767  , 30.210289   , 794.236267  , 2.55        , 3           , 255         , 0           , 0
-0.15868935 , 9.798175    , 0.08771519  , -0.0009670135, -0.000279091153, 0.0006054016, -1.58114576 , -0.0166619867, 0.000182944626, 921.423767  , 30.210289   , 794.2362    , 2.56        , 3           , 255         , 0           , 0
-0.162657812, 9.790002    , 0.07501755  , -0.0009846104, 0.000135500086, 0.000465791381, -1.58115566 , -0.0166573487, 0.000181540876, 921.423767  , 30.210289   , 794.236145  , 2.57        , 3           , 255         , 0           , 0
-0.173221663, 9.798788    , 0.08165842  , -0.00130192586, 0.000155857 , 0.000143496174, -1.58116877 , -0.0166559238, 0.0001799686, 921.423767  , 30.210289   , 794.2361    , 2.58        , 3           , 255         , 0           , 0
-0.173017785, 9.792659    , 0.0878883451, -0.0010450359, -0.0003171883, 0.000158651237, -1.58117926 , -0.016654307, 0.000183124343, 921.423767  , 30.210289   , 794.236     , 2.59        , 3           , 255         , 0           , 0
-0.16119568 , 9.799657    , 0.0891924351, -0.00119583588, -0.000317515369, 0.0009042749, -1.58119118 , -0.0166452322, 0.0001862065, 921.423767  , 30.210289   , 794.235962  , 2.6         , 3           , 255         , 0           , 0
-0.15910311 , 9.801785    , 0.09391112  , -0.00125777512, -0.000505967764, -2.91439937E-06, -1.5811702  , -0.01665246 , 0.000190710081, 921.423767  , 30.210289   , 794.2331    , 2.61        , 3           , 255         , 0           , 0
-0.172263831, 9.795454    , 0.08506797  , -0.00118854677, -0.0008836675, 0.000127884035, -1.58118224 , -0.0166510884, 0.000199533722, 921.423767  , 30.210289   , 794.233032  , 2.62        , 3           , 255         , 0           , 0
-0.164683834, 9.788479    , 0.08230313  , -0.00105948234, -0.000331160933, 0.000665164669, -1.58119285 , -0.0166444052, 0.0002027761, 921.4286    , 30.2132072  , 794.233     , 2.63        , 3           , 255         , 0           , 0
-0.166098118, 9.791825    , 0.0897645056, -0.000226798991, 8.97166E-05 , -0.000165203877, -1.58119512 , -0.0166460667, 0.000201895891, 921.4286    , 30.2132072  , 794.2329    , 2.64        , 3           , 255         , 0           , 0
-0.1632061  , 9.79079151  , 0.07894109  , 6.354763E-05, -1.72978616E-06, 0.000393058348, -1.58119452 , -0.0166421384, 0.00020187255, 921.4286    , 30.2132072  , 794.232849  , 2.65        , 3           , 255         , 0           , 0
-0.165871784, 9.799494    , 0.08489309  , -0.0007253532, 1.43535726E-05, -0.000192236854, -1.58120167 , -0.01664406 , 0.000201748713, 921.4286    , 30.2132072  , 794.2328    , 2.66        , 3           , 255         , 0           , 0
-0.168797418, 9.800519    , 0.08209685  , -0.001173498, 0.000216121756, 0.000505855249, -1.58121336 , -0.016639024, 0.000199533708, 921.4286    , 30.2132072  , 794.2327    , 2.67        , 3           , 255         , 0           , 0
-0.167164057, 9.797532    , 0.08061869  , -0.00145850261, -0.0003916781, 0.000291949254, -1.581228   , -0.0166360643, 0.000203420641, 921.4286    , 30.2132072  , 794.232666  , 2.68        , 3           , 255         , 0           , 0
-0.16948992 , 9.784528    , 0.08492689  , -0.000842178939, -0.00039740777, -3.432302E-05, -1.58123648 , -0.016636366, 0.000207397927, 921.4286    , 30.2132072  , 794.2326    , 2.69        , 3           , 255         , 0           , 0
-0.174833387, 9.787095    , 0.08182403  , -0.000966334133, -4.18253767E-05, 0.000405873143, -1.58124626 , -0.0166323073, 0.000207774181, 921.4286    , 30.2132072  , 794.232544  , 2.7         , 3           , 255         , 0           , 0
-0.166812271, 9.790196    , 0.0863069   , -0.0011934028, -0.000182701653, 0.00109405  , -1.58122468 , -0.016629247, 0.0002089292, 921.4286    , 30.2132072  , 794.2237    , 2.71        , 3           , 255         , 0           , 0
-0.165109858, 9.794367    , 0.08393293  , -0.00174217578, 0.000185001671, 0.0008033201, -1.58124208 , -0.0166212358, 0.000206996439, 921.4286    , 30.2132072  , 794.2236    , 2.72        , 3           , 255         , 0           , 0
-0.16832754 , 9.803802    , 0.07723431  , -0.00151018274, -3.00293323E-07, 0.0003168775, -1.58125722 , -0.0166180674, 0.000206965677, 921.4321    , 30.2129364  , 794.22345   , 2.73        , 3           , 255         , 0           , 0
-0.172045931, 9.799823    , 0.07621346  , -0.00128470373, -9.435811E-06, 0.000782167 , -1.5812701  , -0.01661025 , 0.000206979588, 921.4321    , 30.2129364  , 794.2233    , 2.74        , 3           , 255         , 0           , 0
-0.177339882, 9.796173    , 0.077036716 , -0.0007847385, 0.000154387919, 0.0004538142, -1.581278   , -0.01660573 , 0.000205388671, 921.4321    , 30.2129364  , 794.2232    , 2.75        , 3           , 255         , 0           , 0
-0.176431969, 9.794619    , 0.08312572  , -0.00127292331, -9.136199E-05, 0.000311274 , -1.5812906  , -0.0166026056, 0.000206268887, 921.4321    , 30.2129364  , 794.2231    , 2.76        , 3           , 255         , 0           , 0
-0.172960445, 9.793508    , 0.07361993  , -0.000634318043, -8.09818448E-05, 0.000209856924, -1.58129692 , -0.0166004989, 0.000207056917, 921.4321    , 30.2129364  , 794.222961  , 2.77        , 3           , 255         , 0           , 0
-0.169846863, 9.794008    , 0.08504034  , -0.000743232667, -4.876306E-05, -0.0001308118, -1.58130443 , -0.0166018028, 0.000207557081, 921.4321    , 30.2129364  , 794.222839  , 2.78        , 3           , 255         , 0           , 0
-0.16622749 , 9.8064785   , 0.07755046  , -0.00104346056, -6.107389E-05, 0.0005001911, -1.58131492 , -0.016596796, 0.000208115933, 921.4321    , 30.2129364  , 794.2228    , 2.79        , 3           , 255         , 0           , 0
-0.168594   , 9.797327    , 0.08864874  , -0.00119447557, 8.506334E-05, 0.000956648262, -1.58132672 , -0.0165872388, 0.000207165838, 921.4321    , 30.2129364  , 794.2227    , 2.8         , 3           , 255         , 0           , 0
-0.167334065, 9.782374    , 0.08441534  , -0.00102868583, -0.000418610434, 0.000873449666, -1.58130312 , -0.01659032 , 0.000210699771, 921.4321    , 30.2129364  , 794.2103    , 2.81        , 3           , 255         , 0           , 0
-0.17157127 , 9.795244    , 0.07945441  , -0.000682226848, -0.000394607981, 0.0006505622, -1.58131    , -0.0165837724, 0.0002145774, 921.4321    , 30.2129364  , 794.210144  , 2.82        , 3           , 255         , 0           , 0
-0.170167983, 9.795367    , 0.08320446  , -0.000943911, -0.000119164091, -0.000147093437, -1.58131945 , -0.01658523 , 0.000215785491, 921.3603    , 30.2130718  , 794.209961  , 2.83        , 3           , 255         , 0           , 0
-0.171532467, 9.803419    , 0.0815337151, -0.00113362342, -0.0003686522, -0.000219108944, -1.5813309  , -0.016587384, 0.000219495458, 921.3603    , 30.2130718  , 794.2098    , 2.84        , 3           , 255         , 0           , 0
-0.172523335, 9.803385    , 0.07921353  , -0.00113268255, -0.0004799321, 0.0001327428, -1.58134234 , -0.0165860057, 0.000224281248, 921.3603    , 30.2130718  , 794.2096    , 2.85        , 3           , 255         , 0           , 0
-0.170572549, 9.791349    , 0.0842748359, -0.00129243347, -9.882261E-05, 0.000433041976, -1.58135521 , -0.01658167 , 0.000225222873, 921.3603    , 30.2130718  , 794.2094    , 2.86        , 3           , 255         , 0           , 0
-0.175879568, 9.788549    , 0.0874782354, -0.0007360914, 0.00017100363, 0.0005977786, -1.58136249 , -0.016575709, 0.000223450348, 921.3603    , 30.2130718  , 794.2092    , 2.87        , 3           , 255         , 0           , 0
-0.162335545, 9.79186     , 0.0929324552, -0.0007277655, -0.000211652165, 0.0005594043, -1.58136988 , -0.0165700931, 0.0002255088, 921.3603    , 30.2130718  , 794.209045  , 2.88        , 3           , 255         , 0           , 0
-0.169325486, 9.791033    , 0.0849028   , -0.000958157354, -0.000108416774, 2.80225358E-05, -1.58137941 , -0.0165698  , 0.000226590259, 921.3603    , 30.2130718  , 794.2089    , 2.89        , 3           , 255         , 0           , 0
-0.1807936  , 9.799793    , 0.08665915  , -0.00111784926, -0.00041894996, 0.000675032148, -1.58139062 , -0.0165630076, 0.000230708189, 921.3603    , 30.2130718  , 794.2088    , 2.9         , 3           , 255         , 0           , 0
-0.171445042, 9.791497    , 0.08476043  , -0.00082281814, -0.000286373048, 0.0007461837, -1.58136523 , -0.0165711548, 0.000232936218, 921.3603    , 30.2130718  , 794.2985    , 2.91        , 3           , 255         , 0           , 0
-0.161001921, 9.793685    , 0.09135353  , -0.000154263573, -0.000346830784, -0.000305737049, -1.58136678 , -0.016574176, 0.000236435662, 921.3603    , 30.2130718  , 794.29895   , 2.92        , 3           , 255         , 0           , 0
-0.151116639, 9.780654    , 0.08769707  , -0.00118794036, -6.10892E-05, 0.0001354061, -1.5813787  , -0.0165728163, 0.000237033688, 921.4277    , 30.2153111  , 794.2994    , 2.93        , 3           , 255         , 0           , 0
-0.162763685, 9.790389    , 0.08490359  , -0.00167726 , -0.000268225238, -0.0004515664, -1.58139551 , -0.0165773071, 0.000239763773, 921.4277    , 30.2153111  , 794.2998    , 2.94        , 3           , 255         , 0           , 0
-0.173227727, 9.798404    , 0.07913065  , -0.00117799023, -0.000173761626, -0.000135236915, -1.58140719 , -0.01657864 , 0.000241515838, 921.4277    , 30.2153111  , 794.300232  , 2.95        , 3           , 255         , 0           , 0
-0.176415548, 9.805508    , 0.0841330141, -0.00109544327, -0.000397055264, -4.649401E-05, -1.58141816 , -0.0165790636, 0.000245492178, 921.4277    , 30.2153111  , 794.300659  , 2.96        , 3           , 255         , 0           , 0
-0.176050335, 9.803269    , 0.0886240155, -0.0005641319, -0.00015756741, 0.000199057817, -1.58142388 , -0.0165770575, 0.000247047719, 921.4277    , 30.2153111  , 794.3011    , 2.97        , 3           , 255         , 0           , 0
-0.1719187  , 9.795019    , 0.08926546  , -0.0005272567, 0.000448081875, 0.000279135071, -1.581429   , -0.016574312, 0.0002425367, 921.4277    , 30.2153111  , 794.3015    , 2.98        , 3           , 255         , 0           , 0
-0.164631635, 9.794578    , 0.0894506648, -0.00112396257, -3.231442E-05, 0.00106761977, -1.58144021 , -0.0165636353, 0.0002427462, 921.4277    , 30.2153111  , 794.301941  , 2.99        , 3           , 255         , 0           , 0
-0.16132465 , 9.789678    , 0.08792718  , -0.001323792, 0.000101421465, 0.00102226925, -1.58145356 , -0.0165534224, 0.000241624744, 921.4277    , 30.2153111  , 794.302368  , 3           , 3           , 0           , 8.450236    , 300
-0.168907568, 9.795392    , 0.08929585  , -0.00153385836, -0.000747628743, 0.000143991871, -1.58143854 , -0.0165600162, 0.000248583616, 921.4277    , 30.2153111  , 794.2849    , 3.01        , 3           , 1           , 0           , 0
-0.171475068, 9.793981    , 0.08809161  , -0.0008021568, -0.000212021027, 0.001216997 , -1.58144653 , -0.0165478252, 0.000250575948, 921.4277    , 30.2153111  , 794.2852    , 3.02        , 3           , 2           , 0           , 0
-0.166132957, 9.792286    , 0.08326228  , 1.40734483E-05, -0.000129685679, 0.000545075 , -1.58144641 , -0.016542362, 0.000251814752, 921.428467  , 30.2144279  , 794.2855    , 3.03        , 3           , 3           , 0           , 0
-0.160358042, 9.789217    , 0.0953932554, -0.000457385031, 0.000206997618, 0.0006383832, -1.58145094 , -0.016536003, 0.000249676057, 921.428467  , 30.2144279  , 794.2859    , 3.04        , 3           , 4           , 0           , 0
-0.164477989, 9.797789    , 0.09200249  , -0.0006333587, 0.0003301068, 0.0005034025, -1.58145726 , -0.0165310036, 0.000246322859, 921.428467  , 30.2144279  , 794.286255  , 3.05        , 3           , 5           , 0           , 0
-0.165448755, 9.79907     , 0.0829959139, -0.00147726142, 0.000135572234, -4.86194622E-05, -1.58147192 , -0.0165315047, 0.000244972267, 921.428467  , 30.2144279  , 794.2866    , 3.06        , 3           , 6           , 0           , 0
-0.1666208  , 9.793852    , 0.08921259  , -0.001370956, 0.000257984851, -1.35044975E-05, -1.58148563 , -0.0165316686, 0.000242394963, 921.428467  , 30.2144279  , 794.287     , 3.07        , 3           , 7           , 0           , 0
-0.1740017  , 9.794513    , 0.081187    , -0.0006545307, -0.0003416776, 0.00128583191, -1.5814923  , -0.0165187754, 0.0002456745, 921.428467  , 30.2144279  , 794.287354  , 3.08        , 3           , 8           , 5           , 5
-0.179346234, 9.789297    , 0.08382807  , -0.0008540492, -0.0004208183, 0.0008514806, -1.58150077 , -0.0165102165, 0.000249792443, 921.428467  , 30.2144279  , 794.2877    , 3.09        , 3           , 9           , 5           , 0.1
-0.167823046, 9.783287    , 0.07473787  , -0.0005953137, 2.28489516E-05, 0.000390099216, -1.58150673 , -0.016506318, 0.0002495223, 921.428467  , 30.2144279  , 794.2881    , 3.1         , 3           , 10          , 0.1         , 0.1
-0.169328809, 9.793093    , 0.06885329  , -0.0012179208, 0.0002866216, 0.0003036791, -1.581484   , -0.0165157262, 0.000246048032, 921.428467  , 30.2144279  , 794.2713    , 3.11        , 3           , 11          , 0.007460371 , 0.007460366
-0.166682079, 9.803647    , 0.0811504051, -0.0006159569, -0.000244738651, 0.000228812554, -1.58149016 , -0.0165134165, 0.000248472556, 921.428467  , 30.2144279  , 794.271545  , 3.12        , 3           , 12          , 0.174645633 , 0
-0.17624636 , 9.800061    , 0.07642887  , -0.0009705045, -0.000165712932, 5.7687168E-05, -1.58149981 , -0.0165128242, 0.0002501231, 921.433655  , 30.2145634  , 794.2718    , 3.13        , 3           , 13          , 0           , 0
-0.174082845, 9.797362    , 0.07892625  , -0.00104373926, 0.000183113 , 0.0006647155, -1.58151031 , -0.0165061951, 0.000248222 , 921.433655  , 30.2145634  , 794.272034  , 3.14        , 3           , 14          , 0.00106885133, -0.000289902557
-0.162140191, 9.78787     , 0.081032    , -0.00105986383, 0.000165151738, 0.00125558092, -1.58152092 , -0.0164936613, 0.000246437237, 921.433655  , 30.2145634  , 794.2723    , 3.15        , 3           , 15          , 0           , -0.0004011228
-0.1670541  , 9.779404    , 0.09189653  , -0.0007748155, -0.0006561312, 0.000250330166, -1.58152866 , -0.0164910834, 0.000252972328, 921.433655  , 30.2145634  , 794.2725    , 3.16        , 3           , 16          , 0           , 1.401298E-45
-0.172099829, 9.790295    , 0.09037097  , -0.000518516055, 0.000110601919, 0.00122683309, -1.58153391 , -0.01647883 , 0.0002517353, 921.433655  , 30.2145634  , 794.272766  , 3.17        , 3           , 20          , 0           , 0
-0.1696795  , 9.799116    , 0.08596096  , -0.0008778314, -1.8465129E-05, 0.0007498702, -1.58154261 , -0.0164713338, 0.0002518405, 921.433655  , 30.2145634  , 794.273     , 3.18        , 3           , 21          , 0           , 0
-0.161367923, 9.802185    , 0.0800935254, -0.0007784502, -0.0002716903, 0.000754831359, -1.58155048 , -0.0164637547, 0.00025447557, 921.433655  , 30.2145634  , 794.273254  , 3.19        , 3           , 22          , 0           , 0
-0.168808013, 9.794863    , 0.07682679  , -0.000469557, -3.996925E-05, 0.0005813387, -1.58155513 , -0.01645794 , 0.000254812738, 921.433655  , 30.2145634  , 794.2735    , 3.2         , 3           , 40          , 0           , 0
-0.161366448, 9.786112    , 0.07790485  , -0.0006410061, 0.000132079425, -0.00016151258, -1.581522   , -0.0164713636, 0.000252860453, 921.433655  , 30.2145634  , 794.2513    , 3.21        , 3           , 41          , 0           , 0
-0.167068332, 9.791544    , 0.0731737241, -0.0009823178, -9.41609E-05, 0.0001982382, -1.58153188 , -0.01646937 , 0.000253781676, 921.433655  , 30.2145634  , 794.2514    , 3.22        , 3           , 42          , 0           , 0
-0.173327312, 9.782597    , 0.07370973  , -0.0005762325, -0.000100646925, 0.000330714975, -1.5815376  , -0.0164660532, 0.0002547531, 921.436462  , 30.2194481  , 794.2515    , 3.23        , 3           , 255         , 0           , 0
-0.172462538, 9.789835    , 0.0789065957, -0.000612862059, -0.00028162208, 0.00020353937, -1.5815438  , -0.01646399 , 0.00025754745, 921.436462  , 30.2194481  , 794.251648  , 3.24        , 3           , 255         , 0           , 0
-0.17032367 , 9.800501    , 0.08126451  , -0.00111558614, 0.000106455424, 0.000250075216, -1.581555   , -0.0164615  , 0.000256456755, 921.436462  , 30.2194481  , 794.2518    , 3.25        , 3           , 255         , 0           , 0
-0.164309859, 9.795763    , 0.09199788  , -0.000860375643, -0.000153843837, 0.000108461361, -1.58156359 , -0.0164603982, 0.0002579843, 921.436462  , 30.2194481  , 794.2519    , 3.26        , 3           , 255         , 0           , 0
-0.162431553, 9.791379    , 0.0916124657, -0.00119563809, 0.0004805585, 0.0009537536, -1.58157551 , -0.0164509155, 0.00025307553, 921.436462  , 30.2194481  , 794.252     , 3.27        , 3           , 255         , 0           , 0
-0.165566191, 9.79217     , 0.09446482  , -0.00115081971, 0.000206519951, 0.000738576055, -1.58158708 , -0.0164435524, 0.000250931334, 921.436462  , 30.2194481  , 794.252136  , 3.28        , 3           , 255         , 0           , 0
-0.181265324, 9.79601     , 0.09068452  , -0.00122180232, 0.000169903476, 0.0005237134, -1.58159924 , -0.0164383333, 0.000249176461, 921.436462  , 30.2194481  , 794.252258  , 3.29        , 3           , 255         , 0           , 0
-0.177466273, 9.789892    , 0.08497659  , -0.000292556535, -0.000214254222, -0.0008391131, -1.58160222 , -0.0164467022, 0.0002514101, 921.436462  , 30.2194481  , 794.2524    , 3.3         , 3           , 255         , 0           , 0
-0.161387637, 9.792195    , 0.0929679349, -0.000310957024, -0.000183111231, 0.000166887839, -1.581562   , -0.0164618511, 0.000252512022, 921.436462  , 30.2194481  , 794.2294    , 3.31        , 3           , 255         , 0           , 0
-0.163872927, 9.805783    , 0.0824856   , -0.0007548829, 0.000197173838, 0.00047745448, -1.58156967 , -0.0164570976, 0.000250488927, 921.436462  , 30.2194481  , 794.2294    , 3.32        , 3           , 255         , 0           , 0
-0.162007526, 9.789984    , 0.0749044   , -0.00140791107, 0.000185687735, -0.000255581166, -1.58158374 , -0.0164596755, 0.000248661439, 921.429932  , 30.2160568  , 794.2294    , 3.33        , 3           , 255         , 0           , 0
-0.169702858, 9.79438     , 0.07567604  , -0.00132511614, 0.000133400885, -3.20176478E-05, -1.58159685 , -0.01646001 , 0.0002473304, 921.429932  , 30.2160568  , 794.2294    , 3.34        , 3           , 255         , 0           , 0
-0.169536144, 9.789438    , 0.07458769  , -0.00122467068, -0.000391105, 0.000106243358, -1.58160913 , -0.0164589062, 0.000251230347, 921.429932  , 30.2160568  , 794.2294    , 3.35        , 3           , 255         , 0           , 0
-0.16651237 , 9.793131    , 0.08783585  , -0.00104719028, 0.000177690643, 0.0009872257, -1.58161962 , -0.0164490528, 0.00024934602, 921.429932  , 30.2160568  , 794.2294    , 3.36        , 3           , 255         , 0           , 0
-0.158049956, 9.79393     , 0.08244644  , -0.00110990065, 0.0001820436, 0.000333192584, -1.58163059 , -0.0164457411, 0.000247490563, 921.429932  , 30.2160568  , 794.2294    , 3.37        , 3           , 255         , 0           , 0
-0.169200867, 9.79068851  , 0.09014155  , -0.00132040831, -0.0004727957, 0.0007814713, -1.58164382 , -0.0164378751, 0.000252133817, 921.429932  , 30.2160568  , 794.2294    , 3.38        , 3           , 255         , 0           , 0
-0.168035343, 9.788612    , 0.0875516   , -0.001332387, -0.000341259962, 0.000715416332, -1.58165729 , -0.0164306853, 0.000255470251, 921.429932  , 30.2160568  , 794.2294    , 3.39        , 3           , 255         , 0           , 0
-0.169134989, 9.791941    , 0.0869295   , -0.00141026929, 0.00015472222, 0.0006708026, -1.58167136 , -0.016424   , 0.00025384847, 921.429932  , 30.2160568  , 794.2294    , 3.4         , 3           , 255         , 0           , 0
-0.177557573, 9.802042    , 0.0877519548, -0.00145812624, -0.0007786961, 3.412206E-05, -1.58164585 , -0.0164317265, 0.000260973233, 921.429932  , 30.2160568  , 794.2188    , 3.41        , 3           , 255         , 0           , 0
-0.171148792, 9.799987    , 0.07823684  , -0.00127841055, -0.000134802773, 0.000183171855, -1.58165848 , -0.01642988 , 0.000262301444, 921.429932  , 30.2160568  , 794.21875   , 3.42        , 3           , 255         , 0           , 0
-0.163119242, 9.792899    , 0.08437084  , -0.00101178465, -0.000522558, -0.000350315648, -1.58166873 , -0.0164333284, 0.000267566 , 921.4185    , 30.2173462  , 794.2187    , 3.43        , 3           , 255         , 0           , 0
-0.171214312, 9.791976    , 0.09548195  , -0.00106851291, 1.33014109E-05, 0.0005560791, -1.58167946 , -0.0164277721, 0.0002673741, 921.4185    , 30.2173462  , 794.2186    , 3.44        , 3           , 255         , 0           , 0
-0.174494818, 9.787166    , 0.083458446 , -0.00122006959, 1.778768E-05, 6.435279E-05, -1.58169162 , -0.0164271314, 0.0002671897, 921.4185    , 30.2173462  , 794.218567  , 3.45        , 3           , 255         , 0           , 0
-0.172752112, 9.797184    , 0.07581955  , -0.000657212164, 0.000303142762, 2.06239056E-05, -1.58169818 , -0.0164269563, 0.000264155 , 921.4185    , 30.2173462  , 794.2185    , 3.46        , 3           , 255         , 0           , 0
-0.15828535 , 9.799181    , 0.07835156  , -0.0008056506, 0.000202755647, 0.0007503552, -1.58170629 , -0.016419474, 0.000262046175, 921.4185    , 30.2173462  , 794.218445  , 3.47        , 3           , 255         , 0           , 0
-0.1626124  , 9.788492    , 0.08562392  , -0.0007521979, 0.000308761519, 0.00124813267, -1.58171368 , -0.01640703 , 0.0002588233, 921.4185    , 30.2173462  , 794.2184    , 3.48        , 3           , 255         , 0           , 0
-0.163793474, 9.787884    , 0.07391973  , -0.00100142346, 0.0002108998, -4.524144E-05, -1.58172381 , -0.0164075047, 0.000256720115, 921.4185    , 30.2173462  , 794.2183    , 3.49        , 3           , 255         , 0           , 0
-0.167913228, 9.790754    , 0.0771504939, -0.0006236048, -0.000367668632, 0.000168798317, -1.58173    , -0.016405778, 0.000260379777, 921.4185    , 30.2173462  , 794.218262  , 3.5         , 3           , 255         , 0           , 0
-0.176248282, 9.803818    , 0.0838318   , -0.000904404558, -0.000181397161, 0.0005316639, -1.58169758 , -0.01641284 , 0.0002614566, 921.4185    , 30.2173462  , 794.2256    , 3.51        , 3           , 255         , 0           , 0
-0.165439069, 9.801887    , 0.08740537  , -0.00102081825, -0.000223741081, -5.22856135E-06, -1.581708   , -0.016412871, 0.000263694761, 921.4185    , 30.2173462  , 794.2256    , 3.52        , 3           , 255         , 0           , 0
-0.160475165, 9.797951    , 0.08710605  , -0.000833911, -2.18668138E-05, 0.000343151565, -1.58171618 , -0.0164094325, 0.000263875525, 921.396545  , 30.2165985  , 794.2256    , 3.53        , 3           , 255         , 0           , 0
-0.169345185, 9.795919    , 0.07775937  , -0.000816542248, 0.000217086461, 0.0005289533, -1.58172441 , -0.0164041687, 0.0002616475, 921.396545  , 30.2165985  , 794.2256    , 3.54        , 3           , 255         , 0           , 0
-0.171538085, 9.793631    , 0.07755574  , -0.000561813533, -0.0002696291, 0.000381891121, -1.58173    , -0.0164003242, 0.000264303 , 921.396545  , 30.2165985  , 794.2256    , 3.55        , 3           , 255         , 0           , 0
-0.1657944  , 9.791781    , 0.08478401  , -0.00123147259, -0.0006322897, 0.0004362174, -1.58174241 , -0.0163958929, 0.000270578166, 921.396545  , 30.2165985  , 794.2256    , 3.56        , 3           , 255         , 0           , 0
-0.15991959 , 9.789206    , 0.09228914  , -0.000848229567, -0.000174983521, 0.0009233677, -1.58175087 , -0.01638664 , 0.000272227742, 921.396545  , 30.2165985  , 794.2256    , 3.57        , 3           , 255         , 0           , 0
-0.155483469, 9.796835    , 0.09855555  , -0.00152432779, -0.000100526522, 0.000609123032, -1.58176613 , -0.0163805429, 0.000273166545, 921.396545  , 30.2165985  , 794.2256    , 3.58        , 3           , 255         , 0           , 0
-0.159699261, 9.791138    , 0.08398698  , -0.000863106863, -0.0004964011, 0.000308845338, -1.58177483 , -0.0163773969, 0.000278095773, 921.396545  , 30.2165985  , 794.2256    , 3.59        , 3           , 255         , 0           , 0
-0.162433073, 9.799237    , 0.08482819  , -0.00116233737, -0.000331824442, 0.000203898278, -1.58178639 , -0.0163753238, 0.00028139216, 921.396545  , 30.2165985  , 794.2256    , 3.6         , 3           , 255         , 0           , 0
-0.167252123, 9.795688    , 0.0822687745, -0.0004812685, -0.000192045816, 0.000598498445, -1.58176076 , -0.0163749736, 0.000282746478, 921.396545  , 30.2165985  , 794.263245  , 3.61        , 3           , 255         , 0           , 0
-0.169701859, 9.79397     , 0.07600964  , -0.00118597806, -0.000214979053, 9.389134E-05, -1.58177269 , -0.0163740125, 0.000284885085, 921.396545  , 30.2165985  , 794.2635    , 3.62        , 3           , 255         , 0           , 0
-0.1673172  , 9.794266    , 0.07825254  , -0.000959733443, 0.000149919259, 0.0007088007, -1.58178234 , -0.01636694 , 0.000283308123, 921.4002    , 30.2159214  , 794.263733  , 3.63        , 3           , 255         , 0           , 0
-0.166835025, 9.785906    , 0.07635735  , -0.0007463298, 0.000328668684, -8.945452E-05, -1.58178973 , -0.0163678713, 0.000280031265, 921.4002    , 30.2159214  , 794.264     , 3.64        , 3           , 255         , 0           , 0
-0.161642119, 9.784716    , 0.07894317  , -0.000826925039, 0.000206826648, 0.000293514953, -1.581798   , -0.01636496 , 0.000277930842, 921.4002    , 30.2159214  , 794.2642    , 3.65        , 3           , 255         , 0           , 0
-0.165152684, 9.793706    , 0.0890599638, -0.001383767, -0.000184368633, 0.000372289272, -1.5818119  , -0.0163612142, 0.000279734144, 921.4002    , 30.2159214  , 794.264465  , 3.66        , 3           , 255         , 0           , 0
-0.165214121, 9.791072    , 0.08630471  , -0.00133591332, 5.28304954E-05, 0.000538145949, -1.58182538 , -0.0163558368, 0.000279147323, 921.4002    , 30.2159214  , 794.2647    , 3.67        , 3           , 255         , 0           , 0
-0.164128959, 9.79458     , 0.09730907  , -0.00122979865, -0.000161958131, -4.18757845E-05, -1.58183765 , -0.016356241, 0.0002807708, 921.4002    , 30.2159214  , 794.264954  , 3.68        , 3           , 255         , 0           , 0
-0.162111849, 9.794681    , 0.08615576  , -0.0006122388, -0.000245764328, -0.000125776161, -1.58184373 , -0.016357474, 0.000283242844, 921.4002    , 30.2159214  , 794.2652    , 3.69        , 3           , 255         , 0           , 0
-0.164067239, 9.795781    , 0.0923875049, -0.000295439444, 0.00012775269, 0.000307506882, -1.58184683 , -0.01635441 , 0.000281931367, 921.4002    , 30.2159214  , 794.265442  , 3.7         , 3           , 255         , 0           , 0
-0.171193674, 9.793886    , 0.08911264  , -0.000900118263, -0.00029800937, -6.933982E-05, -1.58181393 , -0.0163641237, 0.000284234877, 921.4002    , 30.2159214  , 794.292     , 3.71        , 3           , 255         , 0           , 0
-0.170132339, 9.787825    , 0.08127493  , -0.00149920979, -0.000758030335, -0.000696210831, -1.58182883 , -0.0163710024, 0.000291892327, 921.4002    , 30.2159214  , 794.2924    , 3.72        , 3           , 255         , 0           , 0
-0.169217646, 9.793379    , 0.08381112  , -0.000340320868, -0.0003974741, -9.13348049E-06, -1.58183229 , -0.01637105 , 0.0002958668, 921.3695    , 30.2149029  , 794.292847  , 3.73        , 3           , 255         , 0           , 0
-0.16748473 , 9.79344749  , 0.07800972  , -0.0008283692, -0.000137793453, 0.00071130076, -1.58184063 , -0.0163639188, 0.000297166174, 921.3695    , 30.2149029  , 794.2933    , 3.74        , 3           , 255         , 0           , 0
-0.1651884  , 9.79543     , 0.08241171  , -0.00138667086, 7.41982658E-05, 0.000802849536, -1.58185446 , -0.016355902, 0.000296335318, 921.3695    , 30.2149029  , 794.2937    , 3.75        , 3           , 255         , 0           , 0
-0.171781421, 9.788582    , 0.08352889  , -0.00168908969, -0.0003673447, 0.000235982181, -1.58187139 , -0.0163534973, 0.000299982872, 921.3695    , 30.2149029  , 794.2941    , 3.76        , 3           , 255         , 0           , 0
-0.176447541, 9.784768    , 0.08264081  , -0.00146711292, -0.000201834366, 4.37941344E-05, -1.581886   , -0.01635304 , 0.000301997556, 921.3695    , 30.2149029  , 794.294556  , 3.77        , 3           , 255         , 0           , 0
-0.176161379, 9.787491    , 0.07855797  , -0.00132809638, -0.0003065382, -3.72531358E-05, -1.5818994  , -0.0163533781, 0.000305066671, 921.3695    , 30.2149029  , 794.295     , 3.78        , 3           , 255         , 0           , 0
-0.1698434  , 9.789988    , 0.07821284  , -0.000721285935, 6.514162E-05, 0.000136877614, -1.58190656 , -0.0163520183, 0.0003044007, 921.3695    , 30.2149029  , 794.2954    , 3.79        , 3           , 255         , 0           , 0
-0.1584744  , 9.796268    , 0.0840874538, -0.000509447244, 0.000120601646, 0.0007960638, -1.58191168 , -0.0163440742, 0.000303104956, 921.3695    , 30.2149029  , 794.295837  , 3.8         , 3           , 255         , 0           , 0
-0.16374822 , 9.792172    , 0.0854671746, -0.00131484447, 0.000125635444, -0.0001787582, -1.58187437 , -0.0163640734, 0.000301042863, 921.3695    , 30.2149029  , 794.3619    , 3.81        , 3           , 255         , 0           , 0
-0.173014492, 9.7916      , 0.09656337  , -0.00145521644, 7.84280855E-05, 0.000500645256, -1.58188891 , -0.0163590759, 0.000300203625, 921.3695    , 30.2149029  , 794.362732  , 3.82        , 3           , 255         , 0           , 0
-0.176280886, 9.797331    , 0.0920869   , -0.00111289392, -0.00012402932, 0.000688083353, -1.5819     , -0.0163521823, 0.000301368826, 921.388     , 30.2163963  , 794.3636    , 3.83        , 3           , 255         , 0           , 0
-0.169577241, 9.786845    , 0.08760755  , -0.0005764537, 0.000109808316, 0.0006361447, -1.58190572 , -0.0163458362, 0.000300199783, 921.388     , 30.2163963  , 794.364441  , 3.84        , 3           , 255         , 0           , 0
-0.16342321 , 9.78387451  , 0.08015364  , -0.0005144764, 0.000174653323, 7.57165544E-05, -1.58191085 , -0.0163450986, 0.000298444036, 921.388     , 30.2163963  , 794.3653    , 3.85        , 3           , 255         , 0           , 0
-0.159141332, 9.787271    , 0.07591353  , -0.00169695308, 0.0002713684, -0.000321106723, -1.58192778 , -0.01634834 , 0.000295766135, 921.388     , 30.2163963  , 794.36615   , 3.86        , 3           , 255         , 0           , 0
-0.158505365, 9.789682    , 0.07794224  , -0.00119455007, -0.000258216227, -0.0007595144, -1.5819397  , -0.0163559075, 0.0002984329, 921.388     , 30.2163963  , 794.367     , 3.87        , 3           , 255         , 0           , 0
-0.162787348, 9.795746    , 0.08378132  , -0.00110614987, 3.93384253E-05, -0.000100586883, -1.58195078 , -0.0163569171, 0.000298050058, 921.388     , 30.2163963  , 794.367859  , 3.88        , 3           , 255         , 0           , 0
-0.1686983  , 9.799493    , 0.08441708  , -0.0009138235, -7.616653E-05, 0.000468890619, -1.58196    , -0.0163522176, 0.000298759842, 921.388     , 30.2163963  , 794.3687    , 3.89        , 3           , 255         , 0           , 0
-0.168123662, 9.799179    , 0.0837274939, -0.00125858933, -0.000115725183, 0.000427076622, -1.58197248 , -0.0163479336, 0.000299870124, 921.388     , 30.2163963  , 794.369568  , 3.9         , 3           , 255         , 0           , 0
-0.167859048, 9.796499    , 0.08504051  , -0.00084568694, 7.298816E-05, 0.000396246673, -1.581939   , -0.0163548719, 0.0002984096, 921.388     , 30.2163963  , 794.398743  , 3.91        , 3           , 255         , 0           , 0
-0.159479663, 9.796584    , 0.0835332051, -0.000961520767, -7.263254E-05, 6.891388E-05, -1.58194852 , -0.0163541753, 0.000299127743, 921.388     , 30.2163963  , 794.3998    , 3.92        , 3           , 255         , 0           , 0
-0.167874783, 9.80105     , 0.0869823843, -0.000802245166, -0.0005294522, 3.14860954E-05, -1.58195662 , -0.0163538028, 0.000304418354, 921.3951    , 30.2209415  , 794.4008    , 3.93        , 3           , 255         , 0           , 0
-0.17161569 , 9.805993    , 0.0859057456, -0.000302126631, -0.0008670327, 0.0001272916, -1.58195972 , -0.0163524318, 0.0003130743, 921.3951    , 30.2209415  , 794.401855  , 3.94        , 3           , 255         , 0           , 0
-0.166328862, 9.803648    , 0.08869332  , -0.000210828963, -0.000140853837, 0.0006266873, -1.58196187 , -0.0163461529, 0.000314412755, 921.3951    , 30.2209415  , 794.4029    , 3.95        , 3           , 255         , 0           , 0
-0.16402331 , 9.803854    , 0.08900384  , 0.000387326232, -0.000155945134, 0.000312139455, -1.58195794 , -0.0163430143, 0.0003159366, 921.3951    , 30.2209415  , 794.403931  , 3.96        , 3           , 255         , 0           , 0
-0.1653361  , 9.792028    , 0.0822378   , -0.000721716438, -0.00033037024, 0.000106509979, -1.58196521 , -0.0163419135, 0.000319228333, 921.3951    , 30.2209415  , 794.404968  , 3.97        , 3           , 255         , 0           , 0
-0.175526768, 9.791741    , 0.0728237256, -0.0008349246, 0.000499677437, 9.44060157E-05, -1.58197355 , -0.0163410231, 0.000314220873, 921.3951    , 30.2209415  , 794.406067  , 3.98        , 3           , 255         , 0           , 0
-0.171523   , 9.794676    , 0.08385676  , -0.000867217663, -1.93901651E-05, 0.000454756722, -1.58198225 , -0.0163364746, 0.0003143643, 921.3951    , 30.2209415  , 794.407166  , 3.99        , 3           , 255         , 0           , 0
-0.168827638, 9.789272    , 0.0829655   , -0.00138954981, -0.000275779719, -0.000194290827, -1.5819962  , -0.0163383856, 0.000317143742, 921.3951    , 30.2209415  , 794.408264  , 4           , 3           , 0           , 9.450236    , 400
-0.166989714, 9.790577    , 0.0822761   , -0.000587920367, -0.000164489145, 0.000253996055, -1.58197033 , -0.0163453687, 0.0003182438, 921.3951    , 30.2209415  , 794.4218    , 4.01        , 3           , 1           , 0           , 0
-0.161620721, 9.791979    , 0.0813365   , -0.00106708251, -0.000145332335, 1.854566E-05, -1.58198106 , -0.01634517 , 0.000319695944, 921.3951    , 30.2209415  , 794.423     , 4.02        , 3           , 2           , 0           , 0
-0.16521655 , 9.791071    , 0.0777947158, -0.001071444, -0.000385676278, 0.000102100545, -1.58199179 , -0.0163441058, 0.000323540939, 921.443359  , 30.218771   , 794.424133  , 4.03        , 3           , 3           , 0           , 0
-0.1668863  , 9.787111    , 0.0859105   , -0.0008244345, -0.000297502556, -0.000192654523, -1.58200014 , -0.0163459983, 0.000326539273, 921.443359  , 30.218771   , 794.4253    , 4.04        , 3           , 4           , 0           , 0
-0.167762846, 9.793711    , 0.08587062  , -0.00111131754, 0.000195138549, 0.0004803088, -1.58201122 , -0.0163412169, 0.000324534747, 921.443359  , 30.218771   , 794.426453  , 4.05        , 3           , 5           , 0           , 0
-0.171546757, 9.782086    , 0.08710094  , -0.0004159939, -0.000209152524, 0.00043062  , -1.58201551 , -0.0163368881, 0.000326578331, 921.443359  , 30.218771   , 794.4276    , 4.06        , 3           , 6           , 0           , 0
-0.164038822, 9.791479    , 0.08810493  , -0.000148890133, -0.0003824763, 0.0001327087, -1.58201706 , -0.016335519, 0.000330387964, 921.443359  , 30.218771   , 794.4288    , 4.07        , 3           , 7           , 0           , 0
-0.15963231 , 9.796572    , 0.0894608349, -0.0008563782, 4.295871E-05, 0.000253284059, -1.58202553 , -0.0163329914, 0.0003299306, 921.443359  , 30.218771   , 794.429932  , 4.08        , 3           , 8           , 5           , 5
-0.156865224, 9.799604    , 0.08897708  , -0.001297585, -0.000175772351, 0.00105410116, -1.58203864 , -0.01632243 , 0.00033156987, 921.443359  , 30.218771   , 794.4311    , 4.09        , 3           , 9           , 5           , 0.1
-0.1680917  , 9.796489    , 0.08113911  , -0.00127574615, 0.000218085566, 0.0002451003, -1.58205128 , -0.0163200032, 0.000329360482, 921.443359  , 30.218771   , 794.432251  , 4.1         , 3           , 10          , 0.1         , 0.1
-0.167604864, 9.796057    , 0.0749867558, -0.00145556731, -5.55632578E-05, 0.0004751602, -1.58202255 , -0.01632358 , 0.000329156552, 921.443359  , 30.218771   , 794.3735    , 4.11        , 3           , 11          , 0.006894854 , 0.00689484645
-0.162481979, 9.801235    , 0.0804288   , -0.00060228887, -0.0001978536, 0.000246313 , -1.58202863 , -0.0163210947, 0.000331106974, 921.443359  , 30.218771   , 794.374268  , 4.12        , 3           , 12          , 0.174648076 , 0
-0.167543948, 9.775581    , 0.08858247  , -0.0004854175, -0.000176115282, -0.000209388789, -1.58203351 , -0.01632317 , 0.000332892552, 921.4012    , 30.2181587  , 794.375061  , 4.13        , 3           , 13          , 0           , 0
-0.164614722, 9.786294    , 0.08733382  , -0.0008696811, -0.000399235258, -0.000117789023, -1.58204222 , -0.0163243022, 0.000336897763, 921.4012    , 30.2181587  , 794.375854  , 4.14        , 3           , 14          , 0.00106636086, -0.000289950956
-0.168552965, 9.786269    , 0.0882912651, -0.0009274639, 6.1167E-05  , 0.000352281844, -1.58205152 , -0.0163207855, 0.00033624575, 921.4012    , 30.2181587  , 794.376648  , 4.15        , 3           , 15          , 0           , -0.000400445249
-0.168297485, 9.79040051  , 0.09461665  , -0.00134741981, 2.47304561E-05, 6.519037E-05, -1.58206487 , -0.0163201373, 0.000335990539, 921.4012    , 30.2181587  , 794.377441  , 4.16        , 3           , 16          , 0           , 1.401298E-45
-0.165294617, 9.791488    , 0.09141548  , -0.0008591183, 0.000203801 , -0.000228002085, -1.58207357 , -0.01632244 , 0.000333979522, 921.4012    , 30.2181587  , 794.378235  , 4.17        , 3           , 20          , 0           , 0
-0.158505052, 9.800649    , 0.08749689  , -0.0014323052, -0.0002499457, 0.000344394415, -1.58208776 , -0.0163189676, 0.0003364404, 921.4012    , 30.2181587  , 794.379     , 4.18        , 3           , 21          , 0           , 0
-0.169604421, 9.791235    , 0.07736012  , -0.0011997231, 0.0002064639, 0.0006958528, -1.5820998  , -0.0163120329, 0.0003342971, 921.4012    , 30.2181587  , 794.3798    , 4.19        , 3           , 22          , 0           , 0
-0.168019935, 9.801508    , 0.08096353  , -0.000851223071, -8.129564E-05, 0.0005189791, -1.58210826 , -0.0163068343, 0.00033505162, 921.4012    , 30.2181587  , 794.3806    , 4.2         , 3           , 40          , 0           , 0
-0.1680844  , 9.790425    , 0.08305893  , -0.00035185786, 9.113827E-05, 5.996824E-05, -1.58206916 , -0.0163168088, 0.0003334374, 921.4012    , 30.2181587  , 794.3891    , 4.21        , 3           , 41          , 0           , 0
-0.171301872, 9.799139    , 0.08384686  , -0.0008555459, -0.00012604607, 0.000297516468, -1.58207762 , -0.0163138211, 0.000334664073, 921.4012    , 30.2181587  , 794.389954  , 4.22        , 3           , 42          , 0           , 0
-0.169601709, 9.795469    , 0.0791898   , -0.001589623, 8.27559852E-05, 0.000306688 , -1.5820936  , -0.0163107626, 0.000333802484, 921.4222    , 30.2188377  , 794.3908    , 4.23        , 3           , 255         , 0           , 0
-0.168986231, 9.788668    , 0.07885829  , -0.0008611365, 0.000139524942, 0.00116792077, -1.58210218 , -0.0162990987, 0.000332274853, 921.4222    , 30.2188377  , 794.391663  , 4.24        , 3           , 255         , 0           , 0
-0.1625357  , 9.791944    , 0.07964788  , -0.0008426196, 0.000138478441, 0.000356269884, -1.58211064 , -0.0162955541, 0.000330849725, 921.4222    , 30.2188377  , 794.3925    , 4.25        , 3           , 255         , 0           , 0
-0.165777251, 9.790742    , 0.0840199962, -0.0009856307, 0.00016540772, 0.000467125443, -1.58212042 , -0.0162909012, 0.000329143339, 921.4222    , 30.2188377  , 794.3934    , 4.26        , 3           , 255         , 0           , 0
-0.166360289, 9.797526    , 0.0749123544, -0.000962689461, -0.0001584423, 0.000649549358, -1.58213007 , -0.0162843876, 0.0003306541, 921.4222    , 30.2188377  , 794.3942    , 4.27        , 3           , 255         , 0           , 0
-0.168109164, 9.798161    , 0.08188585  , -0.00101970381, -0.000165880221, -7.711261E-05, -1.58214033 , -0.01628514 , 0.0003323214, 921.4222    , 30.2188377  , 794.3951    , 4.28        , 3           , 255         , 0           , 0
-0.167185619, 9.79423     , 0.0863719359, -0.00143310893, 3.56618257E-05, 0.000424767961, -1.58215451 , -0.0162808988, 0.0003319171, 921.4222    , 30.2188377  , 794.395935  , 4.29        , 3           , 255         , 0           , 0
-0.1660927  , 9.794831    , 0.09248351  , -0.0008423571, 0.0006064655, 0.000325016561, -1.582163   , -0.01627772 , 0.00032581517, 921.4222    , 30.2188377  , 794.3968    , 4.3         , 3           , 255         , 0           , 0
-0.16862233 , 9.790945    , 0.08360019  , -0.000933823059, 0.000333592674, 0.0001942281, -1.58213079 , -0.0162871536, 0.000321783 , 921.4222    , 30.2188377  , 794.3733    , 4.31        , 3           , 255         , 0           , 0
-0.170768529, 9.795598    , 0.0884462148, -0.000570633332, 2.804576E-05, 0.0007200339, -1.58213651 , -0.0162799545, 0.000321421569, 921.4222    , 30.2188377  , 794.374     , 4.32        , 3           , 255         , 0           , 0
-0.174203485, 9.784815    , 0.088116616 , -0.0005557357, -0.000322637818, 0.000967446133, -1.58214211 , -0.0162702445, 0.000324538152, 921.394653  , 30.2181587  , 794.374756  , 4.33        , 3           , 255         , 0           , 0
-0.171275333, 9.791511    , 0.07821959  , -0.0008851549, -0.0002009338, 0.000757092144, -1.58215094 , -0.0162626561, 0.000326461479, 921.394653  , 30.2181587  , 794.3755    , 4.34        , 3           , 255         , 0           , 0
-0.166279912, 9.790931    , 0.0912681445, -0.0007144831, -0.000395172421, 0.000636119046, -1.58215821 , -0.0162562486, 0.000330340932, 921.394653  , 30.2181587  , 794.3762    , 4.35        , 3           , 255         , 0           , 0
-0.168493465, 9.792045    , 0.0908115   , -0.0008790396, -0.000443044031, 0.00127162924, -1.582167   , -0.016243482, 0.000334626471, 921.394653  , 30.2181587  , 794.376953  , 4.36        , 3           , 255         , 0           , 0
-0.166201323, 9.804172    , 0.08774646  , -0.00122827722, 9.60406E-06 , 0.000486507226, -1.58217931 , -0.0162386186, 0.0003344737, 921.394653  , 30.2181587  , 794.3777    , 4.37        , 3           , 255         , 0           , 0
-0.171676636, 9.800741    , 0.0904287249, -0.00126113335, 0.000243332208, -0.000156251743, -1.58219182 , -0.0162402075, 0.000332058466, 921.394653  , 30.2181587  , 794.3784    , 4.38        , 3           , 255         , 0           , 0
-0.163929984, 9.792797    , 0.07970889  , -0.0007454327, -0.0003363123, 0.0004827746, -1.58219922 , -0.0162353422, 0.000335366029, 921.394653  , 30.2181587  , 794.37915   , 4.39        , 3           , 255         , 0           , 0
-0.160191223, 9.78862     , 0.0875691   , -0.0009847237, -0.000536513748, 0.000553737 , -1.58220911 , -0.016229745, 0.0003406678, 921.394653  , 30.2181587  , 794.3799    , 4.4         , 3           , 255         , 0           , 0
-0.1557379  , 9.796639    , 0.08580937  , -0.0008187512, -0.0005684736, 0.001048831 , -1.58217978 , -0.0162327774, 0.000345624023, 921.394653  , 30.2181587  , 794.397461  , 4.41        , 3           , 255         , 0           , 0
-0.161701679, 9.791299    , 0.08607339  , -0.00109841989, 0.000110546724, 0.000188855134, -1.58219087 , -0.0162309017, 0.000344496948, 921.394653  , 30.2181587  , 794.3983    , 4.42        , 3           , 255         , 0           , 0
-0.1689013  , 9.787823    , 0.08299984  , -0.00101691193, 0.000475166482, 0.000689147855, -1.582201   , -0.0162240677, 0.0003396673, 921.4359    , 30.2182961  , 794.3992    , 4.43        , 3           , 255         , 0           , 0
-0.171978   , 9.785449    , 0.07865474  , -0.00102479861, 8.319126E-06, 0.000256036466, -1.58221126 , -0.0162215084, 0.0003395546, 921.4359    , 30.2182961  , 794.4       , 4.44        , 3           , 255         , 0           , 0
-0.163909316, 9.789674    , 0.08001824  , -0.00129532826, -0.000417829, 0.000701048 , -1.58222413 , -0.016214449, 0.000343652 , 921.4359    , 30.2182961  , 794.4009    , 4.45        , 3           , 255         , 0           , 0
-0.165772259, 9.792816    , 0.0788774043, -0.001073857, -0.0003599239, 0.0009872039, -1.58223486 , -0.0162045378, 0.000347137451, 921.4359    , 30.2182961  , 794.401733  , 4.46        , 3           , 255         , 0           , 0
-0.173634559, 9.788147    , 0.0857437551, -0.00120082113, 5.003196E-05, -0.0003837882, -1.5822469  , -0.0162083786, 0.000346681976, 921.4359    , 30.2182961  , 794.4026    , 4.47        , 3           , 255         , 0           , 0
-0.165960059, 9.787856    , 0.077232495 , -0.0008251505, 0.0001085666, 0.000278148043, -1.58225513 , -0.01620561 , 0.000345564244, 921.4359    , 30.2182961  , 794.403442  , 4.48        , 3           , 255         , 0           , 0
