Acc X       , Acc Y       , Acc Z       , Gyro X      , Gyro Y      , Gyro Z      , Euler X     , Euler Y     , Euler Z     , Pres X      , Pres Y      , Pres Z      , Time        , Status      , LowRate X   , LowRate Y   , LowRate Z    
-0.124606729, 0.167310566 , -9.784006   , 0           , 0           , 0           , -0.0170987472, -0.0127332071, 0           , 922.1577    , 32.6072845  , 787.62      , 0           , 2           , 0           , 5.433232    , 0
-0.122194946, 0.166141033 , -9.792447   , 2.4290639E-05, 0.000266263116, 0.000602055341, -0.017098384, -0.0127304811, 5.97449662E-06, 922.1577    , 32.6072845  , 787.62      , 0.01        , 3           , 1           , 0           , 0
-0.11466144 , 0.165028468 , -9.790442   , -6.09160634E-06, 1.05847721E-05, 0.0006089143, -0.0170985218, -0.0127302706, 1.20612776E-05, 922.1577    , 32.6072845  , 787.62      , 0.02        , 3           , 2           , 0           , 0
-0.119982362, 0.167127281 , -9.792023   , -0.00019426705, 0.00034879602, 0.0003365026, -0.0171005074, -0.012726726, 1.53663568E-05, 922.1055    , 32.1695671  , 787.62      , 0.03        , 3           , 3           , 0           , 0
-0.120785378, 0.162837669 , -9.794278   , 0.000189447383, -0.000432539528, 0.000283346279, -0.01709865 , -0.0127310017, 1.82735275E-05, 922.1055    , 32.1695671  , 787.62      , 0.04        , 3           , 4           , 0           , 0
-0.128640175, 0.1643287   , -9.790836   , 0.0001798851, 2.84704147E-05, -0.000154887632, -0.0170968324, -0.0127307437, 1.67199269E-05, 922.1055    , 32.1695671  , 787.62      , 0.05        , 3           , 5           , 0           , 0
-0.120394275, 0.165255427 , -9.786024   , -0.000410625333, -0.00015684063, 0.000356252451, -0.01710098 , -0.0127322506, 2.03089458E-05, 922.1055    , 32.1695671  , 787.62      , 0.06        , 3           , 6           , 0           , 0
-0.130088478, 0.1690615   , -9.796918   , 0.000611026655, -0.0005193718, 0.000255290652, -0.0170949064, -0.0127374008, 2.29504349E-05, 922.1055    , 32.1695671  , 787.62      , 0.07        , 3           , 7           , 0           , 0
-0.129817665, 0.176989079 , -9.783728   , 0.000446838356, -7.030464E-05, -0.0002630085, -0.0170904025, -0.0127381478, 2.03325963E-05, 922.1055    , 32.1695671  , 787.62      , 0.08        , 3           , 8           , 5           , 5
-0.127354339, 0.170201078 , -9.780962   , 0.000188842823, -0.000312583958, 0.0003015949, -0.0170885548, -0.0127412211, 2.3401677E-05, 922.1055    , 32.1695671  , 787.62      , 0.09        , 3           , 9           , 5           , 0.1
-0.1137494  , 0.167295069 , -9.789549   , 1.45926315E-05, 6.506691E-05, 0.000204876415, -0.0170884356, -0.0127405357, 2.54391471E-05, 922.1055    , 32.1695671  , 787.62      , 0.1         , 3           , 10          , 0.1         , 0.1
-0.121390268, 0.172045738 , -9.78924    , -6.26342662E-05, 1.48481922E-05, 0.0007752879, -0.0170893054, -0.0127309533, 3.31906558E-05, 922.1055    , 32.1695671  , 788.090332  , 0.11        , 3           , 11          , 0.0109544508, 0.0109544508
-0.121604696, 0.167355821 , -9.786556   , -5.34883E-05, -0.000183098426, 0.000166106765, -0.01708986 , -0.0127327554, 3.488287E-05, 922.1055    , 32.1695671  , 788.090332  , 0.12        , 3           , 12          , 0.174642488 , 0
-0.11669296 , 0.169360548 , -9.791896   , 0.000352229923, -1.33544963E-05, -4.501934E-05, -0.01708633 , -0.012732897, 3.443499E-05, 922.0809    , 32.2074242  , 788.090332  , 0.13        , 3           , 13          , 0           , 0
-0.10888575 , 0.160597429 , -9.793291   , -0.000351732684, -6.37079647E-05, -0.0004916753, -0.017089786, -0.0127336178, 2.95295558E-05, 922.0809    , 32.2074242  , 788.090332  , 0.14        , 3           , 14          , -0.0004190216, -0.000293533143
-0.122373484, 0.164422557 , -9.797299   , -0.00015595791, 0.000222445262, -0.0005701346, -0.0170912724, -0.0127314925, 2.379071E-05, 922.0809    , 32.2074242  , 788.090332  , 0.15        , 3           , 15          , 0           , -8.788982E-05
-0.121837065, 0.17202732  , -9.789518   , 0.000151337066, -0.000156080612, -0.000338291778, -0.0170897171, -0.01273311 , 2.04347652E-05, 922.0809    , 32.2074242  , 788.090332  , 0.16        , 3           , 16          , 0           , 1.401298E-45
-0.120424308, 0.170093626 , -9.797349   , 0.0004983205, 0.0001672312, -0.000289229531, -0.0170846954, -0.0127314879, 1.75141577E-05, 922.0809    , 32.2074242  , 788.090332  , 0.17        , 3           , 20          , 0           , 0
-0.11832843 , 0.168578431 , -9.79193    , 0.0004053253, -5.823752E-05, 4.448229E-05, -0.01708065 , -0.0127320644, 1.79689014E-05, 922.0809    , 32.2074242  , 788.090332  , 0.18        , 3           , 21          , 0           , 0
-0.132233232, 0.173620462 , -9.791496   , -0.00021228593, -0.0001309838, 0.00030920704, -0.0170828141, -0.01273332 , 2.10830767E-05, 922.0809    , 32.2074242  , 788.090332  , 0.19        , 3           , 22          , 0           , 0
-0.123411775, 0.164496258 , -9.788693   , 3.475693E-05, 0.000238101158, 8.670114E-05, -0.017082477, -0.0127309244, 2.19093345E-05, 922.0809    , 32.2074242  , 788.090332  , 0.2         , 3           , 40          , 0           , 0
-0.124664225, 0.164851621 , -9.799021   , -0.000336475641, 0.000165449979, 0.0002551176, -0.01708949 , -0.0127131827, 2.44779785E-05, 922.0809    , 32.2074242  , 788.2017    , 0.21        , 3           , 41          , 0           , 0
-0.126550049, 0.17621246  , -9.792954   , -0.000167058752, 0.00019502  , 0.0003831988, -0.0170912072, -0.0127111673, 2.82762976E-05, 922.0809    , 32.2074242  , 788.2018    , 0.22        , 3           , 42          , 0           , 0
-0.124601342, 0.169620752 , -9.795313   , 0.000191729472, 9.876062E-05, -9.979967E-05, -0.01708928 , -0.012710196, 2.7261518E-05, 922.082458  , 32.2319145  , 788.201843  , 0.23        , 3           , 255         , 0           , 0
-0.124556743, 0.1695215   , -9.792322   , -0.000157305651, 0.000105067214, 3.87893742E-05, -0.017090857, -0.0127091389, 2.76314131E-05, 922.082458  , 32.2319145  , 788.2019    , 0.24        , 3           , 255         , 0           , 0
-0.122633934, 0.164183542 , -9.789904   , -0.000373702758, -0.000328889262, 0.000292246725, -0.0170946289, -0.0127123762, 3.06098154E-05, 922.082458  , 32.2319145  , 788.201965  , 0.25        , 3           , 255         , 0           , 0
-0.12743777 , 0.1656886   , -9.80048    , -0.000304182031, -0.0001838844, 0.000181022115, -0.0170976929, -0.0127141848, 3.2451313E-05, 922.082458  , 32.2319145  , 788.202     , 0.26        , 3           , 255         , 0           , 0
-0.125518814, 0.1673614   , -9.790875   , 0.000397844182, -4.47024067E-05, 0.000108330729, -0.01709373 , -0.0127146123, 3.35421719E-05, 922.082458  , 32.2319145  , 788.2021    , 0.27        , 3           , 255         , 0           , 0
-0.125698611, 0.164067239 , -9.788986   , -7.910046E-05, 7.80245E-05 , 0.0007788694, -0.01709462 , -0.0127137  , 4.131683E-05, 922.082458  , 32.2319145  , 788.202148  , 0.28        , 3           , 255         , 0           , 0
-0.133683771, 0.167005062 , -9.792918   , 0.000318500039, 0.0002545023, -9.22038453E-05, -0.0170914214, -0.0127111711, 4.035138E-05, 922.082458  , 32.2319145  , 788.2022    , 0.29        , 3           , 255         , 0           , 0
-0.119992375, 0.173992127 , -9.794889   , -0.000118948432, 5.98620536E-05, 0.0003391199, -0.0170926563, -0.0127105135, 4.37320559E-05, 922.082458  , 32.2319145  , 788.2023    , 0.3         , 3           , 255         , 0           , 0
-0.115574881, 0.17378132  , -9.789995   , -0.000270284771, 0.0004562945, 0.0007202335, -0.0170982461, -0.0127092693, 5.089128E-05, 922.082458  , 32.2319145  , 788.2341    , 0.31        , 3           , 255         , 0           , 0
-0.125702918, 0.180119351 , -9.803      , -0.000259213673, -6.721218E-05, 0.000342102227, -0.0171008855, -0.012709883, 5.43235E-05 , 922.082458  , 32.2319145  , 788.234131  , 0.32        , 3           , 255         , 0           , 0
-0.126097932, 0.17182526  , -9.783749   , -0.000203838281, 0.000147390689, 0.000224506482, -0.0171029512, -0.0127083715, 5.65431546E-05, 922.1276    , 32.2498932  , 788.2342    , 0.33        , 3           , 255         , 0           , 0
-0.121997572, 0.171835527 , -9.786806   , 8.227173E-05, 3.50574555E-05, 2.558723E-05, -0.0171021316, -0.0127080157, 5.6793E-05  , 922.1276    , 32.2498932  , 788.234253  , 0.34        , 3           , 255         , 0           , 0
-0.126632452, 0.1666875   , -9.79786    , 0.000230020029, 3.331626E-05, -6.417237E-05, -0.0170998219, -0.0127076935, 5.614564E-05, 922.1276    , 32.2498932  , 788.2343    , 0.35        , 3           , 255         , 0           , 0
-0.127165645, 0.165365309 , -9.788181   , -0.000333857315, 0.000335577963, 0.00016448216, -0.0171031822, -0.01270431 , 5.773293E-05, 922.1276    , 32.2498932  , 788.2344    , 0.36        , 3           , 255         , 0           , 0
-0.126930922, 0.1721348   , -9.789821   , 0.000285419868, 0.0003638009, -0.000147712417, -0.0171003081, -0.0127006983, 5.61937341E-05, 922.1276    , 32.2498932  , 788.234436  , 0.37        , 3           , 255         , 0           , 0
-0.1253189  , 0.166622281 , -9.792847   , 0.000168238679, 0.000512777653, 0.000220285467, -0.0170986559, -0.0126955323, 5.83087131E-05, 922.1276    , 32.2498932  , 788.2345    , 0.38        , 3           , 255         , 0           , 0
-0.122614637, 0.1579982   , -9.78315449 , -2.51139281E-05, 9.53026756E-05, 0.000534631952, -0.0170989744, -0.0126944892, 6.363826E-05, 922.1276    , 32.2498932  , 788.234558  , 0.39        , 3           , 255         , 0           , 0
-0.123496629, 0.170267776 , -9.784427   , 0.0003820656, 4.747676E-05, -7.604052E-05, -0.017095143, -0.01269403 , 6.28697962E-05, 922.1276    , 32.2498932  , 788.2346    , 0.4         , 3           , 255         , 0           , 0
-0.116325691, 0.173471063 , -9.793004   , -0.0003175154, 0.000178988645, -0.000140752381, -0.0171078164, -0.0126910638, 6.155258E-05, 922.1276    , 32.2498932  , 788.1479    , 0.41        , 3           , 255         , 0           , 0
-0.129465073, 0.171245962 , -9.792493   , -0.000341667328, 0.000656140037, -0.000305486436, -0.0171111934, -0.0126845548, 5.838573E-05, 922.1276    , 32.2498932  , 788.147949  , 0.42        , 3           , 255         , 0           , 0
-0.132906422, 0.180872321 , -9.784345   , -0.000385633262, 0.000177448965, -0.000376671873, -0.017115   , -0.0126828449, 5.45889743E-05, 922.105     , 32.2634621  , 788.148     , 0.43        , 3           , 255         , 0           , 0
-0.124778345, 0.169334248 , -9.791764   , 0.000173098437, 0.000292471726, -0.0009305806, -0.01711315 , -0.0126800807, 4.523395E-05, 922.105     , 32.2634621  , 788.1481    , 0.44        , 3           , 255         , 0           , 0
-0.127398655, 0.165429428 , -9.792212   , -4.885427E-06, 0.000225039141, -3.38973041E-05, -0.017113192, -0.0126778372, 4.48565E-05 , 922.105     , 32.2634621  , 788.148132  , 0.45        , 3           , 255         , 0           , 0
-0.130820721, 0.17157805  , -9.791912   , -0.000327134156, 0.00012274117, 0.0006948528, -0.0171165522, -0.0126764905, 5.178339E-05, 922.105     , 32.2634621  , 788.1482    , 0.46        , 3           , 255         , 0           , 0
-0.127782136, 0.172818184 , -9.788145   , -0.0002499944, -0.000452630833, 0.000426698971, -0.01711911 , -0.0126809413, 5.612747E-05, 922.105     , 32.2634621  , 788.148254  , 0.47        , 3           , 255         , 0           , 0
-0.125568241, 0.166909963 , -9.788385   , -7.86997261E-05, -0.000121958117, -3.8188613E-05, -0.0171198882, -0.0126821669, 5.576649E-05, 922.105     , 32.2634621  , 788.1483    , 0.48        , 3           , 255         , 0           , 0
-0.131494984, 0.170652792 , -9.794142   , -0.000201560964, -2.00082723E-05, 0.0001622994, -0.0171219278, -0.0126823392, 5.73927646E-05, 922.105     , 32.2634621  , 788.1484    , 0.49        , 3           , 255         , 0           , 0
-0.113987543, 0.163241282 , -9.788832   , -0.000106596563, 0.000226330812, -0.000318381557, -0.01712295 , -0.012680131, 5.417047E-05, 922.105     , 32.2634621  , 788.148438  , 0.5         , 3           , 255         , 0           , 0
-0.1195503  , 0.156981379 , -9.784409   , 0.000154584675, 0.000170043058, -0.0001412795, -0.0171330925, -0.0126858708, 5.2877167E-05, 922.105     , 32.2634621  , 788.137756  , 0.51        , 3           , 255         , 0           , 0
-0.12370149 , 0.167255268 , -9.792627   , 0.000418709125, -0.0001721202, -0.000257787324, -0.0171288718, -0.0126876365, 5.03290139E-05, 922.105     , 32.2634621  , 788.1378    , 0.52        , 3           , 255         , 0           , 0
-0.119721159, 0.172754    , -9.798182   , 0.000324092747, 0.000196734924, 2.25203839E-05, -0.0171256345, -0.0126856649, 5.05205026E-05, 922.151855  , 32.2694321  , 788.1379    , 0.53        , 3           , 255         , 0           , 0
-0.120863795, 0.166185588 , -9.795349   , 0.0001356233, -0.000175021967, -4.78360162E-05, -0.0171242729, -0.0126874233, 5.007216E-05, 922.151855  , 32.2694321  , 788.137939  , 0.54        , 3           , 255         , 0           , 0
-0.130638137, 0.160360992 , -9.78766251 , -0.0004310581, 0.000196608977, -0.000454490335, -0.0171285253, -0.0126855364, 4.54940055E-05, 922.151855  , 32.2694321  , 788.138     , 0.55        , 3           , 255         , 0           , 0
-0.124222063, 0.160826012 , -9.793791   , 0.0003753759, 0.000319218118, 0.0005952689, -0.0171248466, -0.0126822423, 5.13914856E-05, 922.151855  , 32.2694321  , 788.138062  , 0.56        , 3           , 255         , 0           , 0
-0.126104534, 0.163005188 , -9.787947   , 0.000314065226, 0.000294737023, 0.000259187655, -0.0171217378, -0.0126792546, 5.393266E-05, 922.151855  , 32.2694321  , 788.1381    , 0.57        , 3           , 255         , 0           , 0
-0.128158256, 0.168717891 , -9.783098   , 0.0002791494, -0.00020756264, -0.000422798243, -0.0171188936, -0.0126813995, 4.97405927E-05, 922.151855  , 32.2694321  , 788.1382    , 0.58        , 3           , 255         , 0           , 0
-0.136993334, 0.170848966 , -9.79262352 , -9.955838E-07, -2.0855543E-05, -0.000171123742, -0.01711888 , -0.0126816379, 4.80330746E-05, 922.151855  , 32.2694321  , 788.138245  , 0.59        , 3           , 255         , 0           , 0
-0.120614514, 0.168408915 , -9.79187    , 0.000150473032, -0.000188686332, -0.000217099034, -0.01711735 , -0.012683562, 4.58945833E-05, 922.151855  , 32.2694321  , 788.1383    , 0.6         , 3           , 255         , 0           , 0
-0.118915178, 0.16858694  , -9.796185   , 5.55026345E-05, -0.000198920956, 7.462193E-05, -0.0171087235, -0.0126886126, 4.657226E-05, 922.151855  , 32.2694321  , 788.0573    , 0.61        , 3           , 255         , 0           , 0
-0.131804258, 0.1665776   , -9.792125   , -0.00039640264, 3.22033884E-07, -0.000259095861, -0.0171126537, -0.0126886517, 4.39814758E-05, 922.151855  , 32.2694321  , 788.0574    , 0.62        , 3           , 255         , 0           , 0
-0.12792635 , 0.162573755 , -9.795636   , -0.0004171716, -0.000153102679, 9.040418E-05, -0.0171168353, -0.0126901669, 4.4911616E-05, 922.123352  , 32.2726173  , 788.057434  , 0.63        , 3           , 255         , 0           , 0
-0.123451672, 0.17038855  , -9.78877449 , 0.000305165653, 0.00014311081, 0.000188806851, -0.0171138085, -0.0126887038, 4.67750251E-05, 922.123352  , 32.2726173  , 788.0575    , 0.64        , 3           , 255         , 0           , 0
-0.119977012, 0.170504332 , -9.789266   , 0.000134282891, -0.000250048062, -0.000600106432, -0.01711239 , -0.0126913069, 4.08173073E-05, 922.123352  , 32.2726173  , 788.057556  , 0.65        , 3           , 255         , 0           , 0
-0.125234559, 0.173523143 , -9.795137   , 2.27351848E-05, -0.000214104832, 0.000117394236, -0.0171121769, -0.0126934275, 4.20277756E-05, 922.123352  , 32.2726173  , 788.0576    , 0.66        , 3           , 255         , 0           , 0
-0.117547549, 0.170158327 , -9.791576   , -0.0002662399, -0.0004247657, 0.00027682737, -0.0171148758, -0.0126976259, 4.48684732E-05, 922.123352  , 32.2726173  , 788.0577    , 0.67        , 3           , 255         , 0           , 0
-0.118334435, 0.169847071 , -9.79414    , -0.000197130867, 0.000238785535, -0.000123855789, -0.01711683 , -0.0126952613, 4.3589167E-05, 922.123352  , 32.2726173  , 788.057739  , 0.68        , 3           , 255         , 0           , 0
-0.130692929, 0.169833615 , -9.793161   , -0.0007638597, 0.00041674875, 0.000346553163, -0.0171245132, -0.0126910349, 4.698306E-05, 922.123352  , 32.2726173  , 788.0578    , 0.69        , 3           , 255         , 0           , 0
-0.136648819, 0.17832613  , -9.794838   , 1.96537585E-05, 0.000148080959, 0.000603724038, -0.0171243921, -0.0126894517, 5.29943864E-05, 922.123352  , 32.2726173  , 788.057861  , 0.7         , 3           , 255         , 0           , 0
-0.130143762, 0.158881456 , -9.790956   , -3.445029E-05, 0.0003834897, -8.0001555E-05, -0.0171321016, -0.0126879122, 5.222237E-05, 922.123352  , 32.2726173  , 788.0383    , 0.71        , 3           , 255         , 0           , 0
-0.129265815, 0.160957009 , -9.796379   , -0.00061430817, 0.000231837243, -0.00023115045, -0.0171382148, -0.0126856333, 4.987136E-05, 922.123352  , 32.2726173  , 788.0384    , 0.72        , 3           , 255         , 0           , 0
-0.1219848  , 0.155210972 , -9.792042   , -4.09239728E-05, 0.000109939734, 0.00055925583, -0.0171386953, -0.0126844393, 5.54445578E-05, 922.090942  , 32.2780457  , 788.038452  , 0.73        , 3           , 255         , 0           , 0
-0.116359629, 0.174362659 , -9.784009   , -0.000341427658, 0.000136914285, -8.220009E-05, -0.0171420984, -0.0126830852, 5.45991752E-05, 922.090942  , 32.2780457  , 788.0385    , 0.74        , 3           , 255         , 0           , 0
-0.128197581, 0.174365625 , -9.790519   , -0.00016611084, 0.000309291965, 8.697854E-05, -0.0171437711, -0.0126799773, 5.54158541E-05, 922.090942  , 32.2780457  , 788.0386    , 0.75        , 3           , 255         , 0           , 0
-0.1348106  , 0.169410855 , -9.797183   , 0.000263333553, -2.31944723E-05, 9.971196E-05, -0.0171411484, -0.0126801925, 5.64168549E-05, 922.090942  , 32.2780457  , 788.038635  , 0.76        , 3           , 255         , 0           , 0
-0.130567119, 0.168926984 , -9.795057   , 9.83551145E-05, 0.000396840856, 0.0001968474, -0.017140191, -0.0126761906, 5.8317135E-05, 922.090942  , 32.2780457  , 788.0387    , 0.77        , 3           , 255         , 0           , 0
-0.118766442, 0.17330651  , -9.795359   , 0.0005267093, 0.00017589159, 0.0005007088, -0.0171349868, -0.0126743484, 6.329361E-05, 922.090942  , 32.2780457  , 788.038757  , 0.78        , 3           , 255         , 0           , 0
-0.133904263, 0.17332004  , -9.790785   , -4.15569521E-05, 4.02767619E-05, 0.000526408432, -0.0171354655, -0.012673853, 6.855032E-05, 922.090942  , 32.2780457  , 788.0388    , 0.79        , 3           , 255         , 0           , 0
-0.127289936, 0.177994952 , -9.78364    , 1.63584191E-05, 0.000115648538, -0.000480813178, -0.017135242, -0.01267278 , 6.372281E-05, 922.090942  , 32.2780457  , 788.0389    , 0.8         , 3           , 255         , 0           , 0
-0.1207098  , 0.169695467 , -9.785067   , -0.000393786759, 7.53627246E-05, -0.000133723064, -0.01714177 , -0.012681636, 6.240588E-05, 922.090942  , 32.2780457  , 788.064148  , 0.81        , 3           , 255         , 0           , 0
-0.133604914, 0.1583639   , -9.785058   , 0.0004710412, 0.000206603465, 0.0003198466, -0.0171371  , -0.0126795173, 6.556864E-05, 922.090942  , 32.2780457  , 788.0643    , 0.82        , 3           , 255         , 0           , 0
-0.127277091, 0.168691069 , -9.78758    , 0.000481029623, -2.16392509E-05, -0.000193908025, -0.0171322674, -0.0126797659, 6.363344E-05, 922.099243  , 32.2823868  , 788.0644    , 0.83        , 3           , 255         , 0           , 0
-0.126691014, 0.164908677 , -9.791769   , 0.000556623447, 5.7905534E-05, -0.000706906663, -0.01712661 , -0.0126793068, 5.65550981E-05, 922.099243  , 32.2823868  , 788.0645    , 0.84        , 3           , 255         , 0           , 0
-0.128684878, 0.170522451 , -9.792811   , 0.000323472865, -0.000265541079, 0.0008501827, -0.017123485, -0.0126818167, 6.510164E-05, 922.099243  , 32.2823868  , 788.064636  , 0.85        , 3           , 255         , 0           , 0
-0.121837057, 0.172882035 , -9.789368   , 7.796247E-05, -0.000585031637, 0.000523441355, -0.0171227716, -0.0126875751, 7.043574E-05, 922.099243  , 32.2823868  , 788.064758  , 0.86        , 3           , 255         , 0           , 0
-0.1215174  , 0.165091351 , -9.796762   , 0.000199983275, -0.00015634147, 0.000333327655, -0.017120814, -0.012689082, 7.379547E-05, 922.099243  , 32.2823868  , 788.0649    , 0.87        , 3           , 255         , 0           , 0
-0.129514068, 0.172779664 , -9.797004   , -1.07682717E-05, 2.02268711E-05, 0.000390501431, -0.0171209723, -0.0126888128, 7.769667E-05, 922.099243  , 32.2823868  , 788.065     , 0.88        , 3           , 255         , 0           , 0
-0.127625018, 0.174000263 , -9.784538   , 0.000327406568, 0.000308111979, 0.000197696208, -0.01711772 , -0.0126857013, 7.962071E-05, 922.099243  , 32.2823868  , 788.0651    , 0.89        , 3           , 255         , 0           , 0
-0.122849546, 0.1750094   , -9.785013   , 0.0001890725, 0.000827463344, 0.000169564024, -0.0171158519, -0.0126773985, 8.117457E-05, 922.099243  , 32.2823868  , 788.065247  , 0.9         , 3           , 255         , 0           , 0
-0.126949415, 0.167101949 , -9.783124   , 0.0004126688, 0.0005894186, 7.250745E-05, -0.0171174556, -0.0126784481, 8.187124E-05, 922.099243  , 32.2823868  , 788.075867  , 0.91        , 3           , 255         , 0           , 0
-0.131349608, 0.162222818 , -9.789422   , 8.664618E-05, 1.23637437E-05, 0.00013331318, -0.0171166062, -0.0126783019, 8.320214E-05, 922.099243  , 32.2823868  , 788.076     , 0.92        , 3           , 255         , 0           , 0
-0.121959567, 0.1652362   , -9.795144   , 0.000265596726, 0.000172206492, 0.000109818408, -0.0171139669, -0.01267656 , 8.427077E-05, 922.127747  , 32.2817764  , 788.0761    , 0.93        , 3           , 255         , 0           , 0
-0.120239481, 0.158858612 , -9.784663   , 0.000349867216, 0.000417079777, 0.00074997003, -0.017110562, -0.0126722651, 9.169842E-05, 922.127747  , 32.2817764  , 788.076233  , 0.94        , 3           , 255         , 0           , 0
-0.127818137, 0.1761245   , -9.787098   , 0.0007079444, -2.24486575E-06, 0.0006180726, -0.0171035621, -0.0126721794, 9.787895E-05, 922.127747  , 32.2817764  , 788.076355  , 0.95        , 3           , 255         , 0           , 0
-0.1268377  , 0.168936223 , -9.797781   , -0.000417384465, -2.47593853E-05, 0.000272038742, -0.017107768, -0.0126723815, 0.000100603327, 922.127747  , 32.2817764  , 788.0765    , 0.96        , 3           , 255         , 0           , 0
-0.120927177, 0.170393869 , -9.79017448 , -2.78393563E-05, -0.0002545785, 8.403923E-05, -0.0171080548, -0.0126749109, 0.000101487196, 922.127747  , 32.2817764  , 788.0766    , 0.97        , 3           , 255         , 0           , 0
-0.128045291, 0.169773266 , -9.789861   , 0.0003974824, -0.000414414069, 0.0005964227, -0.0171041582, -0.012678952, 0.000107521759, 922.127747  , 32.2817764  , 788.0767    , 0.98        , 3           , 255         , 0           , 0
-0.12583521 , 0.167977184 , -9.783403   , 0.000106116611, -0.000215796841, 0.000122571277, -0.0171031132, -0.0126810893, 0.000108784268, 922.127747  , 32.2817764  , 788.076843  , 0.99        , 3           , 255         , 0           , 0
-0.1254158  , 0.168170363 , -9.786656   , -0.000184573088, 4.021669E-05, -0.000303802779, -0.01710492 , -0.0126807392, 0.000105739637, 922.127747  , 32.2817764  , 788.076965  , 1           , 3           , 0           , 6.4332366   , 100
-0.121527955, 0.170178086 , -9.785101   , -0.0005243544, -7.382076E-05, -0.000480952673, -0.017110154, -0.012687223, 0.000100943842, 922.127747  , 32.2817764  , 788.0545    , 1.01        , 3           , 1           , 0           , 0
-0.125969082, 0.167215914 , -9.792584   , 0.000818046334, 8.516741E-05, 0.0002865753, -0.0171020124, -0.0126863206, 0.000103794759, 922.127747  , 32.2817764  , 788.0546    , 1.02        , 3           , 2           , 0           , 0
-0.131532729, 0.161848649 , -9.788363   , 0.0007949512, -0.000312859862, 0.000593722449, -0.0170941353, -0.0126893474, 0.000109784924, 922.1225    , 32.2833366  , 788.054749  , 1.03        , 3           , 3           , 0           , 0
-0.130871072, 0.168191671 , -9.790303   , 6.57883356E-06, 0.000406013569, 0.00013254043, -0.0170940869, -0.0126852645, 0.000111040827, 922.1225    , 32.2833366  , 788.0549    , 1.04        , 3           , 4           , 0           , 0
-0.128089234, 0.170931056 , -9.792403   , -0.000173219451, 0.0004994236, 0.000105289357, -0.0170958322, -0.012680253, 0.000112008238, 922.1225    , 32.2833366  , 788.055     , 1.05        , 3           , 5           , 0           , 0
-0.130874112, 0.161951244 , -9.79262    , 5.801322E-05, -0.000248314551, -9.992622E-05, -0.0170952436, -0.0126827527, 0.00011105153, 922.1225    , 32.2833366  , 788.0551    , 1.06        , 3           , 6           , 0           , 0
-0.128632993, 0.168038622 , -9.78728    , -1.88690028E-05, 0.000112397043, -0.000242441485, -0.0170954019, -0.01268167 , 0.000108608117, 922.1225    , 32.2833366  , 788.055237  , 1.07        , 3           , 7           , 0           , 0
-0.125891015, 0.161248431 , -9.792113   , 0.000288274663, -0.000294604368, -0.0003110293, -0.0170924757, -0.0126846684, 0.000105548461, 922.1225    , 32.2833366  , 788.055359  , 1.08        , 3           , 8           , 5           , 5
-0.12795274 , 0.167432532 , -9.790422   , 0.0002970472, 0.0001360607, -0.0007030457, -0.0170894153, -0.0126834325, 9.84953949E-05, 922.1225    , 32.2833366  , 788.0555    , 1.09        , 3           , 9           , 5           , 0.1
-0.1253384  , 0.169524178 , -9.785185   , -0.0002006788, 0.000345815119, -0.0005740875, -0.017091345, -0.0126800714, 9.269592E-05, 922.1225    , 32.2833366  , 788.0556    , 1.1         , 3           , 10          , 0.1         , 0.1
-0.123906814, 0.1666055   , -9.793093   , -5.92759461E-05, -5.5521843E-05, 0.000232970546, -0.0170895141, -0.01269256 , 9.50037356E-05, 922.1225    , 32.2833366  , 788.041931  , 1.11        , 3           , 11          , 0.009063584 , 0.009063583
-0.120466731, 0.171661422 , -9.791677   , -0.000615183846, 1.36790622E-05, -0.000155780726, -0.0170956459, -0.0126924505, 9.344372E-05, 922.1225    , 32.2833366  , 788.042     , 1.12        , 3           , 12          , 0.174642846 , 0
-0.1268882  , 0.170049042 , -9.78793049 , -0.0006798672, 9.81482153E-05, 5.9269154E-05, -0.0171024539, -0.0126914605, 9.4019575E-05, 922.1467    , 32.2852364  , 788.042053  , 1.13        , 3           , 13          , 0           , 0
-0.12725383 , 0.162887365 , -9.794226   , -0.0005476612, 0.000230901423, 0.000824596151, -0.0171080288, -0.0126890093, 0.000102225276, 922.1467    , 32.2852364  , 788.0421    , 1.14        , 3           , 14          , -0.000419005373, -0.000293489778
-0.129896611, 0.168016    , -9.794672   , 0.00034836377, -8.6385844E-05, 0.00051182427, -0.0171046089, -0.0126897851, 0.000107357831, 922.1467    , 32.2852364  , 788.0422    , 1.15        , 3           , 15          , 0           , -8.78893E-05
-0.1252087  , 0.160324723 , -9.794477   , -2.21630035E-05, 0.0003146961, 0.000124301529, -0.0171048455, -0.0126866167, 0.000108546912, 922.1467    , 32.2852364  , 788.042236  , 1.16        , 3           , 16          , 0           , 1.401298E-45
-0.12637201 , 0.155985162 , -9.799629   , -0.000266870338, -0.000183444, 8.02590948E-05, -0.0171075277, -0.0126884375, 0.00010938081, 922.1467    , 32.2852364  , 788.042358  , 1.17        , 3           , 20          , 0           , 0
-0.129018173, 0.162680045 , -9.793645   , -0.000235053856, -0.000234214473, 0.00104933779, -0.01711001 , -0.0126906019, 0.0001199133, 922.1467    , 32.2852364  , 788.0425    , 1.18        , 3           , 21          , 0           , 0
-0.1336147  , 0.167139739 , -9.795036   , -0.000345637585, 0.000308064045, 0.00108677929, -0.0171136018, -0.0126873329, 0.000130727378, 922.1467    , 32.2852364  , 788.0426    , 1.19        , 3           , 22          , 0           , 0
-0.117894754, 0.164745942 , -9.790101   , 0.000210407437, 0.000383978128, 0.000155721908, -0.0171115175, -0.012683467, 0.000132218745, 922.1467    , 32.2852364  , 788.0427    , 1.2         , 3           , 40          , 0           , 0
-0.127553076, 0.166214556 , -9.794384   , 0.000336013531, 8.178258E-05, -0.000166730184, -0.0171017386, -0.0126871094, 0.000130456436, 922.1467    , 32.2852364  , 788.0059    , 1.21        , 3           , 41          , 0           , 0
-0.1326695  , 0.1669386   , -9.79619    , -0.000121872086, 0.000300889049, -7.11872563E-05, -0.0171029475, -0.0126841115, 0.000129693159, 922.1467    , 32.2852364  , 788.0059    , 1.22        , 3           , 42          , 0           , 0
-0.122911677, 0.172506452 , -9.788028   , 0.000518614135, 6.53012248E-05, 0.0005258103, -0.017097827, -0.0126833692, 0.000134939633, 922.098755  , 32.2872734  , 788.0059    , 1.23        , 3           , 255         , 0           , 0
-0.118873633, 0.163603649 , -9.795284   , 0.000311101147, 0.00013755892, 0.000447626575, -0.017094776, -0.0126819173, 0.000139391967, 922.098755  , 32.2872734  , 788.0059    , 1.24        , 3           , 255         , 0           , 0
-0.128475621, 0.163418174 , -9.799627   , 0.000837173429, -0.000207209581, 0.00129119807, -0.0170865636, -0.0126837706, 0.0001523382, 922.098755  , 32.2872734  , 788.0059    , 1.25        , 3           , 255         , 0           , 0
-0.125708938, 0.163091362 , -9.793337   , -0.000177510519, 7.299577E-05, 0.000172886008, -0.0170883629, -0.0126830088, 0.0001540544, 922.098755  , 32.2872734  , 788.0059    , 1.26        , 3           , 255         , 0           , 0
-0.128367811, 0.166956931 , -9.785461   , -0.000364250474, -1.43996731E-05, -0.0003188739, -0.0170919616, -0.0126832072, 0.0001508684, 922.098755  , 32.2872734  , 788.0059    , 1.27        , 3           , 255         , 0           , 0
-0.130861476, 0.168756872 , -9.793851   , 0.000458326365, -0.000339021935, 0.0005179453, -0.0170874447, -0.0126865078, 0.00015610535, 922.098755  , 32.2872734  , 788.0059    , 1.28        , 3           , 255         , 0           , 0
-0.129238337, 0.154223219 , -9.79394    , -0.000150389591, -0.0004611781, 0.0005729795, -0.017089026, -0.0126910219, 0.000161913427, 922.098755  , 32.2872734  , 788.0059    , 1.29        , 3           , 255         , 0           , 0
-0.121381477, 0.165014729 , -9.786896   , -0.000103720784, -2.56327039E-05, 0.0003079986, -0.0170901027, -0.0126912249, 0.000164997517, 922.098755  , 32.2872734  , 788.0059    , 1.3         , 3           , 255         , 0           , 0
-0.111969911, 0.166390508 , -9.79171    , 0.0003260941, 0.0001160683, 0.000564125541, -0.01708096 , -0.0126961237, 0.0001705429, 922.098755  , 32.2872734  , 788.0225    , 1.31        , 3           , 255         , 0           , 0
-0.118015267, 0.161908165 , -9.801756   , 0.000802261056, -0.00014689911, 2.23071984E-05, -0.01707294 , -0.0126975868, 0.000170791027, 922.098755  , 32.2872734  , 788.0226    , 1.32        , 3           , 255         , 0           , 0
-0.127237156, 0.172383666 , -9.79335    , 0.000953366864, 0.000108177061, -7.955107E-05, -0.0170633942, -0.0126965176, 0.0001699771, 922.1401    , 32.2882233  , 788.022644  , 1.33        , 3           , 255         , 0           , 0
-0.115188316, 0.169920176 , -9.792196   , 0.000413492467, 0.000222267379, -0.000153236484, -0.0170592386, -0.0126943216, 0.000168406972, 922.1401    , 32.2882233  , 788.0227    , 1.34        , 3           , 255         , 0           , 0
-0.130921811, 0.165917918 , -9.796197   , -0.000118278578, 0.000237990942, -0.000294351368, -0.017060386, -0.0126919933, 0.000165423116, 922.1401    , 32.2882233  , 788.022766  , 1.35        , 3           , 255         , 0           , 0
-0.129330024, 0.166280836 , -9.79135    , 0.000471037929, -0.000108566572, 0.000480049232, -0.017055735, -0.012693   , 0.0001702417, 922.1401    , 32.2882233  , 788.0228    , 1.36        , 3           , 255         , 0           , 0
-0.125874341, 0.16590865  , -9.807135   , -5.38173772E-05, 0.0002332988, -0.00034712936, -0.0170562286, -0.0126907248, 0.000166730912, 922.1401    , 32.2882233  , 788.0229    , 1.37        , 3           , 255         , 0           , 0
-0.131907329, 0.163427547 , -9.796777   , 0.0003081764, -5.880138E-07, -4.906088E-05, -0.01705314 , -0.01269074 , 0.000166240468, 922.1401    , 32.2882233  , 788.022949  , 1.38        , 3           , 255         , 0           , 0
-0.128234059, 0.174123436 , -9.79027748 , 0.000257264532, 0.0002206902, 0.000535004248, -0.0170506351, -0.0126884421, 0.0001715524, 922.1401    , 32.2882233  , 788.023     , 1.39        , 3           , 255         , 0           , 0
-0.128472656, 0.163975626 , -9.7908     , -0.000409759727, 0.0003698924, 0.000108374967, -0.0170547459, -0.0126847243, 0.000172572982, 922.1401    , 32.2882233  , 788.0231    , 1.4         , 3           , 255         , 0           , 0
-0.122308359, 0.162575081 , -9.793829   , -0.0001692164, 0.000556367857, -0.000168727754, -0.0170562044, -0.0126799745, 0.000170788262, 922.1401    , 32.2882233  , 787.9951    , 1.41        , 3           , 255         , 0           , 0
-0.1299313  , 0.163517326 , -9.794439   , 4.41860175E-05, 0.0005484964, -7.000407E-05, -0.0170557555, -0.0126745049, 0.000169994761, 922.1401    , 32.2882233  , 787.995056  , 1.42        , 3           , 255         , 0           , 0
-0.1144491  , 0.163089484 , -9.787586   , -0.000198672264, 0.000301174616, 0.0002076388, -0.0170577671, -0.0126714567, 0.000172019587, 922.162048  , 32.2906647  , 787.995     , 1.43        , 3           , 255         , 0           , 0
-0.1237767  , 0.161888734 , -9.786375   , 0.000101637241, -1.38178293E-05, 0.000711253844, -0.01705684 , -0.0126714725, 0.000179133829, 922.162048  , 32.2906647  , 787.994934  , 1.44        , 3           , 255         , 0           , 0
-0.121678986, 0.172314122 , -9.793198   , -5.30631223E-05, 4.03275772E-05, 0.00061543  , -0.0170574468, -0.0126709649, 0.0001852807, 922.162048  , 32.2906647  , 787.994934  , 1.45        , 3           , 255         , 0           , 0
-0.120809175, 0.1777809   , -9.793801   , 9.198568E-05, -0.0001699577, -0.000126254279, -0.0170565117, -0.0126726851, 0.000184047254, 922.162048  , 32.2906647  , 787.994934  , 1.46        , 3           , 255         , 0           , 0
-0.118679032, 0.168480426 , -9.798433   , -0.000214552187, 8.373268E-05, -8.238289E-05, -0.0170586482, -0.0126718627, 0.000183209224, 922.162048  , 32.2906647  , 787.994934  , 1.47        , 3           , 255         , 0           , 0
-0.1215878  , 0.159473985 , -9.803667   , 3.466755E-05, 0.000162194236, -0.000200299444, -0.0170582738, -0.0126702758, 0.000181178737, 922.162048  , 32.2906647  , 787.994934  , 1.48        , 3           , 255         , 0           , 0
-0.127505109, 0.164437622 , -9.797862   , 0.000202772455, -0.000275852042, 0.000243048344, -0.017056277, -0.0126729915, 0.000183656055, 922.162048  , 32.2906647  , 787.994934  , 1.49        , 3           , 255         , 0           , 0
-0.123384252, 0.160509735 , -9.793292   , 0.0006810448, -0.000427757273, -0.000372469251, -0.0170494188, -0.0126773333, 0.000180004645, 922.162048  , 32.2906647  , 787.994934  , 1.5         , 3           , 255         , 0           , 0
-0.126232952, 0.16143769  , -9.802591   , -0.0002448031, -0.000471550622, -0.0010255893, -0.0170479789, -0.0126783643, 0.000169782434, 922.162048  , 32.2906647  , 787.9468    , 1.51        , 3           , 255         , 0           , 0
-0.128471181, 0.164306238 , -9.797674   , -0.000567017531, -0.000276800944, 0.000481645839, -0.0170537084, -0.0126810484, 0.00017464564, 922.162048  , 32.2906647  , 787.946533  , 1.52        , 3           , 255         , 0           , 0
-0.1268268  , 0.172271341 , -9.792795   , 0.000149851112, 0.000226442789, 8.187941E-05, -0.017052222, -0.0126787713, 0.000175425739, 922.1264    , 32.2888336  , 787.9463    , 1.53        , 3           , 255         , 0           , 0
-0.134599164, 0.174737677 , -9.793439   , 3.329746E-05, -4.88260121E-05, 0.0003769289, -0.0170519371, -0.0126791941, 0.000179203023, 922.1264    , 32.2888336  , 787.946045  , 1.54        , 3           , 255         , 0           , 0
-0.1180769  , 0.164349765 , -9.796176   , 0.0004798828, -0.000355211378, 0.0002057883, -0.017047165, -0.0126827108, 0.000181321288, 922.1264    , 32.2888336  , 787.9458    , 1.55        , 3           , 255         , 0           , 0
-0.111782037, 0.166128844 , -9.790949   , -0.0003127227, -0.000387184264, 6.364018E-06, -0.0170502942, -0.01268658 , 0.0001814509, 922.1264    , 32.2888336  , 787.945557  , 1.56        , 3           , 255         , 0           , 0
-0.121645428, 0.177392319 , -9.786257   , 0.00012281604, -0.000416139257, -6.265283E-05, -0.01704906 , -0.0126907537, 0.000180895411, 922.1264    , 32.2888336  , 787.9453    , 1.57        , 3           , 255         , 0           , 0
-0.135297224, 0.169675991 , -9.790957   , -0.000104890962, -0.000203294272, -0.0004370127, -0.0170500521, -0.01269286 , 0.000176560337, 922.1264    , 32.2888336  , 787.945068  , 1.58        , 3           , 255         , 0           , 0
-0.134539276, 0.163198233 , -9.786235   , 0.000548479729, 5.384654E-05, 0.000249954552, -0.017044602, -0.01269228 , 0.0001790505, 922.1264    , 32.2888336  , 787.9448    , 1.59        , 3           , 255         , 0           , 0
-0.119762704, 0.1704166   , -9.80036    , 0.0006512817, -0.000324104738, -0.0002804168, -0.0170380548, -0.0126955668, 0.000176301808, 922.1264    , 32.2888336  , 787.9446    , 1.6         , 3           , 255         , 0           , 0
-0.123526178, 0.160448059 , -9.79056    , 0.0001085696, 0.000460665877, -0.0001714516, -0.0170401074, -0.0126943775, 0.0001745491, 922.1264    , 32.2888336  , 787.9391    , 1.61        , 3           , 255         , 0           , 0
-0.12568596 , 0.159445837 , -9.792192   , 0.000255619147, 0.000369944377, 0.000143948622, -0.01703757 , -0.012690654, 0.000175925423, 922.1264    , 32.2888336  , 787.938843  , 1.62        , 3           , 255         , 0           , 0
-0.126247361, 0.169853613 , -9.791908   , 0.000340858416, -0.000320125662, 0.0007400284, -0.0170342531, -0.0126937283, 0.000183379569, 922.141663  , 32.2924957  , 787.9386    , 1.63        , 3           , 255         , 0           , 0
-0.122223213, 0.160296485 , -9.797383   , 0.000135548908, -0.000283917179, 0.00083046424, -0.0170330051, -0.0126964245, 0.00019173183, 922.141663  , 32.2924957  , 787.938354  , 1.64        , 3           , 255         , 0           , 0
-0.127455264, 0.165947765 , -9.799997   , -8.753245E-05, 0.000354331831, 0.0005167505, -0.0170339439, -0.0126927942, 0.000196838533, 922.141663  , 32.2924957  , 787.9381    , 1.65        , 3           , 255         , 0           , 0
-0.116931178, 0.175966889 , -9.804425   , -9.320554E-05, 0.000424597063, -0.00032585382, -0.0170348343, -0.0126886042, 0.000193507934, 922.141663  , 32.2924957  , 787.937866  , 1.66        , 3           , 255         , 0           , 0
-0.122150265, 0.171169922 , -9.788534   , 0.000367307861, -2.4956913E-05, -0.000826810545, -0.0170310568, -0.0126889981, 0.000185244833, 922.141663  , 32.2924957  , 787.9376    , 1.67        , 3           , 255         , 0           , 0
-0.128391266, 0.157822043 , -9.781486   , 0.000396400574, -0.000175101944, 0.000206022174, -0.01702712 , -0.0126907118, 0.000187334677, 922.141663  , 32.2924957  , 787.9374    , 1.68        , 3           , 255         , 0           , 0
-0.128810644, 0.166598082 , -9.791723   , 0.000767301535, -0.0001131836, -0.000564975955, -0.0170193743, -0.0126919392, 0.000181704687, 922.141663  , 32.2924957  , 787.937134  , 1.69        , 3           , 255         , 0           , 0
-0.131065   , 0.165613174 , -9.801549   , -8.458708E-05, 0.000189563871, -0.000216543034, -0.0170201957, -0.0126900813, 0.0001795072, 922.141663  , 32.2924957  , 787.9369    , 1.7         , 3           , 255         , 0           , 0
-0.1350295  , 0.16639705  , -9.796019   , -0.0005745575, 0.000108537934, -0.000103048187, -0.01702259 , -0.0126909735, 0.000178416012, 922.141663  , 32.2924957  , 787.915344  , 1.71        , 3           , 255         , 0           , 0
-0.126116663, 0.170299172 , -9.791593   , -0.000166249054, 8.66368646E-06, 0.000193903688, -0.0170242749, -0.0126908533, 0.000180353381, 922.141663  , 32.2924957  , 787.915     , 1.72        , 3           , 255         , 0           , 0
-0.128271669, 0.165499836 , -9.799475   , 0.0003375968, 4.41847369E-05, -0.000721317, -0.0170208085, -0.0126905348, 0.000173133332, 922.1232    , 32.2918854  , 787.9146    , 1.73        , 3           , 255         , 0           , 0
-0.130625084, 0.164992332 , -9.789103   , 0.0005525359, 7.10304739E-05, -0.000470899569, -0.0170152225, -0.0126899071, 0.000168412691, 922.1232    , 32.2918854  , 787.914246  , 1.74        , 3           , 255         , 0           , 0
-0.117752388, 0.160719544 , -9.793361   , 0.000419565331, 0.000126367348, -0.0005649897, -0.017010957, -0.0126887392, 0.00016274181, 922.1232    , 32.2918854  , 787.9139    , 1.75        , 3           , 255         , 0           , 0
-0.119160607, 0.156512633 , -9.799814   , 9.394344E-05, 6.89266162E-05, 0.000467135775, -0.0170100778, -0.0126879709, 0.000167401042, 922.1232    , 32.2918854  , 787.9135    , 1.76        , 3           , 255         , 0           , 0
-0.132568926, 0.160280317 , -9.794254   , -0.000316544843, -0.000188111037, -0.0003055953, -0.0170132052, -0.0126899024, 0.000164377328, 922.1232    , 32.2918854  , 787.913147  , 1.77        , 3           , 255         , 0           , 0
-0.131242   , 0.166499823 , -9.790268   , 0.000168476021, 0.000123979946, 0.000462412369, -0.01701158 , -0.0126885856, 0.000168979968, 922.1232    , 32.2918854  , 787.912842  , 1.78        , 3           , 255         , 0           , 0
-0.127855435, 0.169727713 , -9.803313   , 0.0005091473, -8.22392758E-05, 0.000458946481, -0.0170065481, -0.0126893278, 0.00017358303, 922.1232    , 32.2918854  , 787.912537  , 1.79        , 3           , 255         , 0           , 0
-0.118779853, 0.157136977 , -9.796061   , -0.000289660937, 0.0001269892, -5.59145774E-05, -0.0170094371, -0.01268807 , 0.000173002336, 922.1232    , 32.2918854  , 787.912231  , 1.8         , 3           , 255         , 0           , 0
-0.1230454  , 0.168960541 , -9.790098   , -0.000382109458, -0.000255659019, -1.10241526E-05, -0.01700762 , -0.0126954084, 0.000172864035, 922.1232    , 32.2918854  , 787.914     , 1.81        , 3           , 255         , 0           , 0
-0.122024871, 0.169239163 , -9.798311   , -0.000257879059, -0.000305701717, 0.000111188128, -0.0170102119, -0.0126984464, 0.0001740278, 922.1232    , 32.2918854  , 787.9137    , 1.82        , 3           , 255         , 0           , 0
-0.120018855, 0.17513746  , -9.782827   , -0.0005394219, -7.993347E-05, -0.000186389734, -0.0170155838, -0.0126992781, 0.000172177679, 922.1857    , 32.2927     , 787.9134    , 1.83        , 3           , 255         , 0           , 0
-0.13228333 , 0.169957787 , -9.782306   , -0.000229622616, 0.000223627532, -0.000451764616, -0.0170178227, -0.0126971183, 0.000167622376, 922.1857    , 32.2927     , 787.9131    , 1.84        , 3           , 255         , 0           , 0
-0.125059456, 0.166564867 , -9.800707   , -0.0002924564, 0.000425769074, -0.000176893736, -0.0170207247, -0.0126928911, 0.000165781137, 922.1857    , 32.2927     , 787.9128    , 1.85        , 3           , 255         , 0           , 0
-0.127518341, 0.155883357 , -9.8047     , 0.000244281953, 7.194758E-05, 8.4144267E-07, -0.0170182828, -0.0126921711, 0.0001657773, 922.1857    , 32.2927     , 787.9125    , 1.86        , 3           , 255         , 0           , 0
-0.126548767, 0.165992051 , -9.794202   , -0.000228313584, -1.5617552E-05, 2.00319919E-05, -0.0170205683, -0.0126923239, 0.000165980266, 922.1857    , 32.2927     , 787.9122    , 1.87        , 3           , 255         , 0           , 0
-0.125932768, 0.167832434 , -9.785299   , 1.67469261E-05, 0.000144742269, -0.00010015782, -0.0170203913, -0.0126908943, 0.000164954152, 922.1857    , 32.2927     , 787.911865  , 1.88        , 3           , 255         , 0           , 0
-0.116078712, 0.168322444 , -9.784208   , 0.0008797422, 4.77178546E-05, 0.000277107 , -0.0170116276, -0.0126903681, 0.000167716833, 922.1857    , 32.2927     , 787.91156   , 1.89        , 3           , 255         , 0           , 0
-0.115975596, 0.162237942 , -9.781136   , 0.000677222968, 5.250152E-05, -0.000399609737, -0.0170048028, -0.0126899118, 0.00016371216, 922.1857    , 32.2927     , 787.911255  , 1.9         , 3           , 255         , 0           , 0
-0.1239476  , 0.168599278 , -9.786677   , 0.000370335474, -8.1354985E-05, -0.000107166939, -0.0170020778, -0.0126884207, 0.000162667042, 922.1857    , 32.2927     , 787.8401    , 1.91        , 3           , 255         , 0           , 0
-0.122899488, 0.17589362  , -9.790029   , 0.000302660279, -4.986336E-05, 0.000308702351, -0.0169990938, -0.0126888668, 0.000165762278, 922.1857    , 32.2927     , 787.839355  , 1.92        , 3           , 255         , 0           , 0
-0.11639522 , 0.174767464 , -9.790827   , -0.0004245513, 0.0001679353, 0.000481839 , -0.0170033947, -0.0126871048, 0.000170551677, 922.133667  , 32.2904625  , 787.8386    , 1.93        , 3           , 255         , 0           , 0
-0.11588385 , 0.1689812   , -9.787979   , 0.0004876731, -3.3845572E-05, 0.0007992367, -0.0169986244, -0.0126873069, 0.000178549089, 922.133667  , 32.2904625  , 787.8379    , 1.94        , 3           , 255         , 0           , 0
-0.117977664, 0.170345992 , -9.792597   , 0.000149915431, -0.000200740411, 1.3027995E-05, -0.0169971231, -0.012689312, 0.000178713468, 922.133667  , 32.2904625  , 787.837158  , 1.95        , 3           , 255         , 0           , 0
-0.121815108, 0.171557352 , -9.795763   , -0.0004140978, 2.50961166E-05, 0.000405587984, -0.0170013141, -0.0126889925, 0.000182764721, 922.133667  , 32.2904625  , 787.8364    , 1.96        , 3           , 255         , 0           , 0
-0.118193664, 0.172009379 , -9.796979   , -4.955058E-05, 0.000147367857, 0.000157577626, -0.0170018282, -0.0126874913, 0.000184315315, 922.133667  , 32.2904625  , 787.8357    , 1.97        , 3           , 255         , 0           , 0
-0.1249851  , 0.173460886 , -9.791979   , 0.0005571724, 0.000150299355, -0.0002489033, -0.0169962291, -0.0126860319, 0.000181800962, 922.133667  , 32.2904625  , 787.834961  , 1.98        , 3           , 255         , 0           , 0
-0.126030028, 0.167647675 , -9.794607   , 0.0002077211, 0.000180995063, 0.000197140878, -0.01699418 , -0.0126841888, 0.000183741446, 922.133667  , 32.2904625  , 787.8342    , 1.99        , 3           , 255         , 0           , 0
-0.121052884, 0.164407015 , -9.789425   , -3.5531295E-05, 0.000381084654, -0.0005250531, -0.016994467, -0.01268047 , 0.000178426621, 922.133667  , 32.2904625  , 787.8335    , 2           , 3           , 0           , 7.4332366   , 200
-0.117994286, 0.171514839 , -9.791593   , 0.0004578159, 0.000294393423, -0.000957830867, -0.01700003 , -0.0126697225, 0.000168929182, 922.133667  , 32.2904625  , 787.8323    , 2.01        , 3           , 1           , 0           , 0
-0.121083975, 0.162840992 , -9.787235   , 0.000702595338, -0.000344350672, 0.0007495662, -0.016993098, -0.0126730371, 0.000176482688, 922.133667  , 32.2904625  , 787.831543  , 2.02        , 3           , 2           , 0           , 0
-0.119838752, 0.162560984 , -9.794876   , 0.0005858063, 3.40605038E-06, -0.000323420041, -0.0169871971, -0.0126730585, 0.0001732482, 922.1026    , 32.2944641  , 787.8308    , 2.03        , 3           , 3           , 0           , 0
-0.1252062  , 0.169092581 , -9.791949   , 0.00103752164, -0.000259137974, -7.876184E-05, -0.016976811, -0.0126756616, 0.000172504617, 922.1026    , 32.2944641  , 787.8301    , 2.04        , 3           , 4           , 0           , 0
-0.123125   , 0.16716525  , -9.78501    , 0.000336959085, -2.92157056E-05, -4.735808E-05, -0.016973434, -0.0126759615, 0.000172036045, 922.1026    , 32.2944641  , 787.829346  , 2.05        , 3           , 5           , 0           , 0
-0.117713451, 0.167202666 , -9.791527   , 0.000421723467, 9.004219E-05, -0.000173259585, -0.0169691946, -0.0126750926, 0.000170288331, 922.1026    , 32.2944641  , 787.8286    , 2.06        , 3           , 6           , 0           , 0
-0.111593641, 0.158320442 , -9.798807   , -0.000128106185, -4.98658919E-05, -0.00075777 , -0.01697038 , -0.0126757193, 0.000162719749, 922.1026    , 32.2944641  , 787.827942  , 2.07        , 3           , 7           , 0           , 0
-0.117503181, 0.166935176 , -9.796749   , -0.000278135849, -0.000413810048, -0.0002495983, -0.01697313 , -0.0126798991, 0.000160294221, 922.1026    , 32.2944641  , 787.8273    , 2.08        , 3           , 8           , 5           , 5
-0.127219   , 0.171027675 , -9.793762   , 0.0002346081, -9.028916E-05, -0.000600091764, -0.01697071 , -0.012680904, 0.0001543092, 922.1026    , 32.2944641  , 787.8266    , 2.09        , 3           , 9           , 5           , 0.1
-0.127099052, 0.171503633 , -9.790268   , 0.000272476231, -6.26008E-05, -0.0004794798, -0.0169679262, -0.0126816109, 0.000149525455, 922.1026    , 32.2944641  , 787.8259    , 2.1         , 3           , 10          , 0.1         , 0.1
-0.126928359, 0.16862087  , -9.789382   , 0.000347651541, -2.967412E-05, 0.000471464125, -0.01696582 , -0.0126743522, 0.0001542613, 922.1026    , 32.2944641  , 787.864258  , 2.11        , 3           , 11          , 0.008046804 , 0.008046802
-0.131549641, 0.164557382 , -9.794749   , 0.0005759344, 0.000307531445, 0.000488460646, -0.0169601236, -0.0126711978, 0.000159093353, 922.1026    , 32.2944641  , 787.863831  , 2.12        , 3           , 12          , 0.174643889 , 0
-0.11801134 , 0.16445291  , -9.7922     , 0.0006133143, -0.000154901878, -0.000625154353, -0.0169539135, -0.0126728509, 0.000152868626, 922.170959  , 32.2944641  , 787.8634    , 2.13        , 3           , 13          , 0           , 0
-0.117894314, 0.168777555 , -9.789219   , -0.0002345939, -0.000353981421, 0.0002686497, -0.01695629 , -0.0126763452, 0.000155614878, 922.170959  , 32.2944641  , 787.863     , 2.14        , 3           , 14          , -0.000419011369, -0.000293507037
-0.123720907, 0.166865766 , -9.79303551 , -0.000450517371, 0.000340204278, -0.000223047551, -0.016960768, -0.0126729822, 0.000153326924, 922.170959  , 32.2944641  , 787.862549  , 2.15        , 3           , 15          , 0           , -8.788951E-05
-0.130813777, 0.170252874 , -9.789331   , -0.000440478761, 0.0001711209, -0.000236074862, -0.0169651434, -0.01267131 , 0.000150937354, 922.170959  , 32.2944641  , 787.8621    , 2.16        , 3           , 16          , 0           , 1.401298E-45
-0.125378519, 0.167071477 , -9.7943325  , 0.000130518893, 0.0002094883, -0.000363747065, -0.01696379 , -0.0126692783, 0.000147264655, 922.170959  , 32.2944641  , 787.8617    , 2.17        , 3           , 20          , 0           , 0
-0.116675124, 0.167672962 , -9.784968   , 0.00023229685, 4.14503156E-05, -8.759249E-05, -0.0169614553, -0.0126688778, 0.00014638179, 922.170959  , 32.2944641  , 787.861267  , 2.18        , 3           , 21          , 0           , 0
-0.124724247, 0.172847435 , -9.791832   , 9.955643E-05, -0.000199201488, -0.000152051012, -0.0169604421, -0.012670896, 0.0001448952, 922.170959  , 32.2944641  , 787.86084   , 2.19        , 3           , 22          , 0           , 0
-0.115212992, 0.172805384 , -9.794161   , 0.0007429633, 8.042765E-05, -0.000155467365, -0.0169529952, -0.0126701193, 0.000143327037, 922.170959  , 32.2944641  , 787.8604    , 2.2         , 3           , 40          , 0           , 0
-0.1199512  , 0.175809592 , -9.79295349 , 0.000423945428, 0.0002567716, -0.0006486301, -0.0169541165, -0.0126652448, 0.000136866758, 922.170959  , 32.2944641  , 787.808838  , 2.21        , 3           , 41          , 0           , 0
-0.126696482, 0.1750398   , -9.792232   , 0.000613347336, -0.0002563851, -0.000392168644, -0.0169479344, -0.0126678767, 0.000132988862, 922.170959  , 32.2944641  , 787.8081    , 2.22        , 3           , 42          , 0           , 0
-0.1178806  , 0.176399752 , -9.789873   , 0.000449589017, -0.000343382155, -0.000149036379, -0.01694342 , -0.0126713328, 0.000131556808, 922.163757  , 32.2902565  , 787.8074    , 2.23        , 3           , 255         , 0           , 0
-0.120655574, 0.170511812 , -9.793074   , -0.000347709778, -4.210192E-05, -0.000510987244, -0.0169468336, -0.01267184 , 0.000126454543, 922.163757  , 32.2902565  , 787.806641  , 2.24        , 3           , 255         , 0           , 0
-0.129208982, 0.160268664 , -9.796064   , 7.801541E-05, -9.432854E-05, 0.000419007352, -0.0169461053, -0.012672713, 0.000130660221, 922.163757  , 32.2902565  , 787.8059    , 2.25        , 3           , 255         , 0           , 0
-0.131136775, 0.157921121 , -9.794299   , -4.734387E-05, -4.457016E-05, 8.071284E-05, -0.01694659 , -0.0126731452, 0.000131474837, 922.163757  , 32.2902565  , 787.8052    , 2.26        , 3           , 255         , 0           , 0
-0.127758741, 0.1547538   , -9.789335   , 0.000160826865, -0.000204290991, -6.545464E-05, -0.0169449747, -0.0126751987, 0.000130854969, 922.163757  , 32.2902565  , 787.804443  , 2.27        , 3           , 255         , 0           , 0
-0.132995263, 0.161728173 , -9.793526   , -0.000214904, -0.000168276689, 0.0004391819, -0.01694718 , -0.0126768081, 0.00013527491, 922.163757  , 32.2902565  , 787.8037    , 2.28        , 3           , 255         , 0           , 0
-0.133613974, 0.167454988 , -9.7946825  , 0.00013625322, -0.0001232028, 0.000220990536, -0.0169458464, -0.012678002, 0.000137505514, 922.163757  , 32.2902565  , 787.803     , 2.29        , 3           , 255         , 0           , 0
-0.121309   , 0.163232669 , -9.787959   , 1.6384467E-05, -0.0003451412, 0.000141892815, -0.0169457011, -0.0126814293, 0.00013898281, 922.163757  , 32.2902565  , 787.802246  , 2.3         , 3           , 255         , 0           , 0
-0.131321773, 0.163810238 , -9.792931   , -0.000210140512, -2.31794256E-05, -0.000439681869, -0.01694849 , -0.0126859816, 0.0001345997, 922.163757  , 32.2902565  , 787.7666    , 2.31        , 3           , 255         , 0           , 0
-0.124951005, 0.161054343 , -9.787843   , -0.000171199412, -0.000289618445, -0.000655432465, -0.01695012 , -0.0126889888, 0.000128095038, 922.163757  , 32.2902565  , 787.7656    , 2.32        , 3           , 255         , 0           , 0
-0.120405518, 0.170897573 , -9.782074   , 1.49125408E-05, -0.000295291131, -0.00019946626, -0.0169499442, -0.0126919746, 0.000126150611, 922.1069    , 32.291954   , 787.764648  , 2.33        , 3           , 255         , 0           , 0
-0.130361721, 0.172254875 , -9.786578   , 0.00047795978, 0.000261234381, 5.2852236E-05, -0.01694517 , -0.0126893539, 0.000126634826, 922.1069    , 32.291954   , 787.7637    , 2.34        , 3           , 255         , 0           , 0
-0.127575427, 0.177405864 , -9.786446   , -0.000440322649, 0.00023385082, 0.000315601646, -0.0169496164, -0.0126869623, 0.00012975093, 922.1069    , 32.291954   , 787.7627    , 2.35        , 3           , 255         , 0           , 0
-0.129064888, 0.170141578 , -9.788687   , 0.0002983464, -0.0002588511, -0.000263579248, -0.0169465989, -0.0126895951, 0.000127159263, 922.1069    , 32.291954   , 787.7617    , 2.36        , 3           , 255         , 0           , 0
-0.111953542, 0.168603525 , -9.792226   , 0.000694098067, -0.0006172328, -0.000345109322, -0.016939614, -0.0126958257, 0.000123813035, 922.1069    , 32.291954   , 787.760742  , 2.37        , 3           , 255         , 0           , 0
-0.11923752 , 0.155625492 , -9.793479   , 0.000332167081, -0.0001945731, -0.000344377419, -0.01693625 , -0.0126978271, 0.00012040251, 922.1069    , 32.291954   , 787.759766  , 2.38        , 3           , 255         , 0           , 0
-0.1299197  , 0.166368753 , -9.78925    , 0.0008986485, -0.00010634464, 7.903621E-05, -0.0169272739, -0.0126988776, 0.0001212108, 922.1069    , 32.291954   , 787.7588    , 2.39        , 3           , 255         , 0           , 0
-0.119218573, 0.160495877 , -9.78496    , 0.000451230415, 0.000206349112, 0.0001535601, -0.0169227831, -0.0126967886, 0.000122711353, 922.1069    , 32.291954   , 787.7578    , 2.4         , 3           , 255         , 0           , 0
-0.128715664, 0.167655513 , -9.790718   , 0.000214724671, 4.525311E-05, -0.0002925269, -0.01692276 , -0.012696906, 0.000119806151, 922.1069    , 32.291954   , 787.8023    , 2.41        , 3           , 255         , 0           , 0
-0.121920943, 0.158957347 , -9.788115   , -0.0002682138, -1.7624785E-05, -0.000177854119, -0.0169254169, -0.0126971118, 0.000118030744, 922.1069    , 32.291954   , 787.801636  , 2.42        , 3           , 255         , 0           , 0
-0.113410592, 0.165545151 , -9.788141   , -0.0004009661, 0.0006244995, 0.000172396365, -0.01692945 , -0.0126908384, 0.000119648837, 922.139038  , 32.2937164  , 787.800964  , 2.43        , 3           , 255         , 0           , 0
-0.127020851, 0.169345051 , -9.78908348 , 8.646387E-05, 0.000457041955, 0.0006296599, -0.0169286616, -0.0126861623, 0.0001258675, 922.139038  , 32.2937164  , 787.8003    , 2.44        , 3           , 255         , 0           , 0
-0.134235129, 0.169098765 , -9.790014   , 0.000296275568, 5.99763734E-05, 0.0006197462, -0.0169257764, -0.0126854582, 0.00013205428, 922.139038  , 32.2937164  , 787.7996    , 2.45        , 3           , 255         , 0           , 0
-0.118969642, 0.164726183 , -9.781272   , -0.000246414449, -4.70768427E-05, 0.0005476463, -0.0169283133, -0.0126858363, 0.000137538227, 922.139038  , 32.2937164  , 787.79895   , 2.46        , 3           , 255         , 0           , 0
-0.125164181, 0.168549612 , -9.790074   , -0.000154107751, -1.80086354E-05, -0.000101853242, -0.01692984 , -0.0126860337, 0.000136522838, 922.139038  , 32.2937164  , 787.7983    , 2.47        , 3           , 255         , 0           , 0
-0.132039934, 0.158006623 , -9.791194   , -0.000239860732, -0.000631967559, -0.000239856716, -0.01693221 , -0.0126923937, 0.0001342315, 922.139038  , 32.2937164  , 787.7976    , 2.48        , 3           , 255         , 0           , 0
-0.133804157, 0.168294638 , -9.796278   , 0.000175390131, -6.218237E-06, 0.000636223762, -0.0169305373, -0.0126923481, 0.000140594231, 922.139038  , 32.2937164  , 787.796936  , 2.49        , 3           , 255         , 0           , 0
-0.126648933, 0.17694214  , -9.795238   , 0.000168202678, 5.21925249E-05, 0.000123885286, -0.0169288721, -0.0126918042, 0.00014182413, 922.139038  , 32.2937164  , 787.796265  , 2.5         , 3           , 255         , 0           , 0
-0.126588434, 0.172441617 , -9.794095   , -6.102171E-05, 0.000285103917, 0.0007913098, -0.0169319548, -0.0126935961, 0.000149718413, 922.139038  , 32.2937164  , 787.7936    , 2.51        , 3           , 255         , 0           , 0
-0.1268182  , 0.160056546 , -9.791426   , -7.862807E-05, 0.000176496847, 6.979497E-05, -0.0169327483, -0.01269182 , 0.000150386419, 922.139038  , 32.2937164  , 787.7929    , 2.52        , 3           , 255         , 0           , 0
-0.131154031, 0.17280297  , -9.791184   , -7.481396E-05, -0.000272499776, -0.000142547186, -0.0169334784, -0.0126945693, 0.0001490072, 922.133545  , 32.2929726  , 787.792236  , 2.53        , 3           , 255         , 0           , 0
-0.126610309, 0.167056054 , -9.796354   , 0.000144997612, -0.000164187542, 0.0006630698, -0.016932115, -0.0126960985, 0.00015566514, 922.133545  , 32.2929726  , 787.791565  , 2.54        , 3           , 255         , 0           , 0
-0.132130235, 0.165468484 , -9.803887   , 0.000184310557, 0.00021562427, 0.000731254462, -0.0169303659, -0.0126938187, 0.000162940531, 922.133545  , 32.2929726  , 787.7909    , 2.55        , 3           , 255         , 0           , 0
-0.122292794, 0.169027716 , -9.786402   , 0.000171915657, 0.0003647764, 0.0002687685, -0.0169286821, -0.012690126, 0.000165566235, 922.133545  , 32.2929726  , 787.7902    , 2.56        , 3           , 255         , 0           , 0
-0.11748042 , 0.168250829 , -9.794833   , -8.417305E-05, 0.000304264 , 0.00069531356, -0.0169296116, -0.012686966, 0.000172467247, 922.133545  , 32.2929726  , 787.789551  , 2.57        , 3           , 255         , 0           , 0
-0.128574058, 0.176543266 , -9.792056   , -0.000444527133, 0.000150046879, -0.000669424655, -0.016933972, -0.0126855792, 0.000165748192, 922.133545  , 32.2929726  , 787.7889    , 2.58        , 3           , 255         , 0           , 0
-0.1302534  , 0.165308625 , -9.78908348 , -0.000250505633, 0.0001524114, -0.0003358495, -0.0169364344, -0.0126841115, 0.000162364173, 922.133545  , 32.2929726  , 787.7882    , 2.59        , 3           , 255         , 0           , 0
-0.123854555, 0.16378431  , -9.794993   , -0.000167527585, 0.00070063147, 8.670267E-05, -0.0169381164, -0.0126770921, 0.000163112447, 922.133545  , 32.2929726  , 787.787537  , 2.6         , 3           , 255         , 0           , 0
-0.128398061, 0.1505206   , -9.800565   , 0.000163037272, 3.35028162E-05, 0.000177750364, -0.0169406477, -0.0126808295, 0.0001649366, 922.133545  , 32.2929726  , 787.793762  , 2.61        , 3           , 255         , 0           , 0
-0.127457291, 0.161824644 , -9.801529   , -0.000243601069, -8.05154559E-05, 0.0005019405, -0.0169431474, -0.0126815494, 0.000169969178, 922.133545  , 32.2929726  , 787.793152  , 2.62        , 3           , 255         , 0           , 0
-0.120099351, 0.1622132   , -9.78003    , -0.000303187437, -0.00023843933, 0.000123004022, -0.0169461947, -0.0126839112, 0.000171239517, 922.1253    , 32.2916832  , 787.792542  , 2.63        , 3           , 255         , 0           , 0
-0.113621987, 0.1656464   , -9.78340149 , 4.12055233E-05, -0.000248789176, 0.000473971362, -0.0169458427, -0.0126863187, 0.000176020956, 922.1253    , 32.2916832  , 787.791931  , 2.64        , 3           , 255         , 0           , 0
-0.1213762  , 0.1673116   , -9.791889   , -2.212156E-05, -0.000249719218, -0.000192948253, -0.01694604 , -0.0126888491, 0.00017413398, 922.1253    , 32.2916832  , 787.7913    , 2.65        , 3           , 255         , 0           , 0
-0.121600673, 0.170641109 , -9.784357   , 0.0004445291, -0.0005884983, -9.65211948E-05, -0.0169415865, -0.0126947481, 0.000173268578, 922.1253    , 32.2916832  , 787.7907    , 2.66        , 3           , 255         , 0           , 0
-0.11513038 , 0.1698652   , -9.783798   , 0.000192031541, -9.64902E-05, 0.00140970037, -0.0169398431, -0.0126954764, 0.000187380676, 922.1253    , 32.2916832  , 787.7901    , 2.67        , 3           , 255         , 0           , 0
-0.117354751, 0.16495     , -9.789675   , 0.0005789995, 0.000147242681, 0.0005275654, -0.016934121, -0.0126939146, 0.000192630934, 922.1253    , 32.2916832  , 787.7895    , 2.68        , 3           , 255         , 0           , 0
-0.128327325, 0.170224279 , -9.78356    , 0.000219784852, -2.30417645E-05, -0.000152044668, -0.0169319026, -0.0126941707, 0.000191114523, 922.1253    , 32.2916832  , 787.7889    , 2.69        , 3           , 255         , 0           , 0
-0.122846022, 0.17080456  , -9.791841   , 5.77550963E-05, 2.21708324E-05, -0.000362643448, -0.01693128 , -0.0126940105, 0.000187484664, 922.1253    , 32.2916832  , 787.788269  , 2.7         , 3           , 255         , 0           , 0
-0.1301053  , 0.1612587   , -9.790021   , 0.00016093126, 0.000118199649, 5.601686E-05, -0.0169284083, -0.0126862032, 0.000188008649, 922.1253    , 32.2916832  , 787.8059    , 2.71        , 3           , 255         , 0           , 0
-0.125338614, 0.162556663 , -9.786482   , 2.16985354E-05, 0.000192945372, 4.45172955E-05, -0.0169281978, -0.0126842661, 0.000188421152, 922.1253    , 32.2916832  , 787.8054    , 2.72        , 3           , 255         , 0           , 0
-0.124556683, 0.165821344 , -9.80047    , -2.90299067E-06, -3.237388E-05, -0.000446944323, -0.0169281717, -0.0126846656, 0.000183957571, 922.1293    , 32.2941933  , 787.804932  , 2.73        , 3           , 255         , 0           , 0
-0.122306123, 0.170430154 , -9.799089   , -0.000445931, 0.0006664496, 0.000522662769, -0.0169326942, -0.0126779154, 0.00018907091, 922.1293    , 32.2941933  , 787.804443  , 2.74        , 3           , 255         , 0           , 0
-0.1272921  , 0.168183729 , -9.793749   , -0.000149183325, 0.0002044641, -0.000424929662, -0.0169341359, -0.0126759419, 0.00018478735, 922.1293    , 32.2941933  , 787.803955  , 2.75        , 3           , 255         , 0           , 0
-0.129891023, 0.16977635  , -9.792104   , 0.000410313456, -0.000192130508, -0.000312839547, -0.0169299915, -0.0126779163, 0.000181691765, 922.1293    , 32.2941933  , 787.8035    , 2.76        , 3           , 255         , 0           , 0
-0.12191166 , 0.173158288 , -9.796948   , 6.632699E-05, 0.000163112287, -0.000429298845, -0.0169292726, -0.0126763582, 0.000177371534, 922.1293    , 32.2941933  , 787.8031    , 2.77        , 3           , 255         , 0           , 0
-0.123318352, 0.177462548 , -9.793777   , -0.000203581352, 0.000175266177, -0.000347009074, -0.0169312619, -0.0126746641, 0.000173872089, 922.1293    , 32.2941933  , 787.8027    , 2.78        , 3           , 255         , 0           , 0
-0.1210137  , 0.1668368   , -9.795717   , 0.000197853587, 4.209153E-05, -0.0004564763, -0.0169292279, -0.0126743205, 0.0001693006, 922.1293    , 32.2941933  , 787.802246  , 2.79        , 3           , 255         , 0           , 0
-0.121787228, 0.165401816 , -9.785536   , 0.000157103816, -7.47990562E-05, -0.0003399909, -0.0169276129, -0.0126751261, 0.000165913647, 922.1293    , 32.2941933  , 787.8018    , 2.8         , 3           , 255         , 0           , 0
-0.127195656, 0.168740779 , -9.7847     , 0.0005460499, -0.000149207772, 0.000209392412, -0.0169261526, -0.0126776136, 0.000168083017, 922.1293    , 32.2941933  , 787.8122    , 2.81        , 3           , 255         , 0           , 0
-0.118869983, 0.173968464 , -9.792011   , 0.000466933183, -0.000186093268, -0.000205148186, -0.0169214569, -0.0126795089, 0.000166063226, 922.1293    , 32.2941933  , 787.8118    , 2.82        , 3           , 255         , 0           , 0
-0.115863226, 0.1650404   , -9.787839   , 2.485179E-05, -0.000251961057, 0.000278985448, -0.0169212464, -0.0126819815, 0.000168895465, 922.1415    , 32.291954   , 787.811462  , 2.83        , 3           , 255         , 0           , 0
-0.130488217, 0.170505062 , -9.785411   , 0.0006922297, 0.00012801055, 0.0004893626, -0.0169143844, -0.0126806181, 0.000173767025, 922.1415    , 32.291954   , 787.8111    , 2.84        , 3           , 255         , 0           , 0
-0.13513115 , 0.1684323   , -9.791666   , 0.000886637135, 7.90225458E-05, 2.94205965E-05, -0.016905522, -0.0126798237, 0.000174047833, 922.1415    , 32.291954   , 787.8107    , 2.85        , 3           , 255         , 0           , 0
-0.124750659, 0.162470222 , -9.78927    , 0.0004848256, -0.0002965349, -0.000118001793, -0.01690066 , -0.0126828076, 0.000172918037, 922.1415    , 32.291954   , 787.810364  , 2.86        , 3           , 255         , 0           , 0
-0.127906278, 0.170450658 , -9.793669   , 0.000187437487, -0.000212643063, 0.00026068397, -0.0168988183, -0.0126848891, 0.000175560577, 922.1415    , 32.291954   , 787.81      , 2.87        , 3           , 255         , 0           , 0
-0.131543532, 0.1687859   , -9.79907    , 0.0005294704, -0.000240556838, 0.0006034418, -0.0168936048, -0.0126871923, 0.000181635143, 922.1415    , 32.291954   , 787.809631  , 2.88        , 3           , 255         , 0           , 0
-0.128165722, 0.17110005  , -9.793239   , -0.000161616277, 6.167372E-05, 0.000448088365, -0.0168952756, -0.0126864994, 0.000186105215, 922.1415    , 32.291954   , 787.809265  , 2.89        , 3           , 255         , 0           , 0
-0.118536338, 0.174415484 , -9.792309   , -0.000562321045, -0.000130723725, 0.000780408445, -0.016901   , -0.0126876775, 0.0001939307, 922.1415    , 32.291954   , 787.8089    , 2.9         , 3           , 255         , 0           , 0
-0.123240888, 0.163951889 , -9.794864   , 0.000322393083, 0.000104048231, 0.0007708352, -0.01690579 , -0.0126899639, 0.000201721254, 922.1415    , 32.291954   , 787.8016    , 2.91        , 3           , 255         , 0           , 0
-0.127398163, 0.1651317   , -9.792064   , 0.000428190047, -0.000220895192, 0.0005092888, -0.0169015713, -0.0126920892, 0.000206851022, 922.1415    , 32.291954   , 787.801147  , 2.92        , 3           , 255         , 0           , 0
-0.125808761, 0.16571705  , -9.795671   , -1.93025626E-05, -0.0003254564, 0.000934838667, -0.0169018824, -0.012695183, 0.0002162536, 922.1192    , 32.2923622  , 787.8007    , 2.93        , 3           , 255         , 0           , 0
-0.1334508  , 0.162091479 , -9.789751   , -0.000276629755, -0.0007017595, 0.000567074 , -0.016904721, -0.0127021018, 0.000222042436, 922.1192    , 32.2923622  , 787.8003    , 2.94        , 3           , 255         , 0           , 0
-0.126682   , 0.171605915 , -9.794487   , 0.0002888517, 4.8023503E-05, -0.000440174947, -0.0169017781, -0.0127016958, 0.000217632958, 922.1192    , 32.2923622  , 787.799866  , 2.95        , 3           , 255         , 0           , 0
-0.124000348, 0.172219828 , -9.78483    , 0.0006665975, -0.000279534055, -0.000202513678, -0.0168950874, -0.0127045261, 0.000215655251, 922.1192    , 32.2923622  , 787.799438  , 2.96        , 3           , 255         , 0           , 0
-0.125544116, 0.170547009 , -9.785517   , 2.224883E-05, -0.000571024837, 0.000125311955, -0.0168948825, -0.0127102137, 0.000217004723, 922.1192    , 32.2923622  , 787.799     , 2.97        , 3           , 255         , 0           , 0
-0.12267904 , 0.167200372 , -9.792592   , 9.233094E-05, -0.000166177488, 0.000526684045, -0.0168940257, -0.0127117867, 0.000222299175, 922.1192    , 32.2923622  , 787.7986    , 2.98        , 3           , 255         , 0           , 0
-0.122643314, 0.161293045 , -9.794202   , 1.78619521E-05, 0.000247209042, -4.737323E-05, -0.01689384 , -0.0127093215, 0.000221783717, 922.1192    , 32.2923622  , 787.7982    , 2.99        , 3           , 255         , 0           , 0
-0.127754122, 0.164523184 , -9.785766   , -7.811753E-05, 0.000329525268, 0.000331674964, -0.01689466 , -0.0127059715, 0.0002250445, 922.1192    , 32.2923622  , 787.797852  , 3           , 3           , 0           , 8.433237    , 300
-0.126904339, 0.1626493   , -9.795749   , -0.0005518744, 0.00021355912, 0.000119535733, -0.0169020556, -0.0127069289, 0.0002262273, 922.1192    , 32.2923622  , 787.8231    , 3.01        , 3           , 1           , 0           , 0
-0.129333943, 0.163144082 , -9.793476   , -4.33815E-05, -0.0002164226, -0.0002110514, -0.0169024654, -0.0127091287, 0.000224153555, 922.1192    , 32.2923622  , 787.8229    , 3.02        , 3           , 2           , 0           , 0
-0.1280624  , 0.158475012 , -9.791223   , 0.0002075404, -1.88887352E-05, -9.346823E-05, -0.0169003773, -0.0127093326, 0.00022322216, 922.1653    , 32.2962265  , 787.822632  , 3.03        , 3           , 3           , 0           , 0
-0.125976041, 0.165977    , -9.795614   , -3.77871329E-05, -0.000152497931, -0.000542452, -0.0169006865, -0.01271095 , 0.0002178239, 922.1653    , 32.2962265  , 787.8224    , 3.04        , 3           , 4           , 0           , 0
-0.126390219, 0.163751468 , -9.798127   , -0.000207056029, -0.0001451232, -0.000603746739, -0.0169026814, -0.0127125038, 0.000211811464, 922.1653    , 32.2962265  , 787.822144  , 3.05        , 3           , 5           , 0           , 0
-0.118911482, 0.165295035 , -9.795262   , 0.000161632692, -0.000209145539, 0.0002923371, -0.0169011  , -0.0127145452, 0.000214769927, 922.1653    , 32.2962265  , 787.8219    , 3.06        , 3           , 6           , 0           , 0
-0.127375275, 0.1756632   , -9.788493   , 0.000132598943, -3.46983434E-05, -0.0009460192, -0.0168996528, -0.0127150528, 0.000205316421, 922.1653    , 32.2962265  , 787.821655  , 3.07        , 3           , 7           , 0           , 0
-0.12915495 , 0.17082651  , -9.787403   , -0.000299855747, 0.000131051667, 0.000381537975, -0.0169027019, -0.0127136772, 0.000209109319, 922.1653    , 32.2962265  , 787.8214    , 3.08        , 3           , 8           , 5           , 5
-0.131039187, 0.170552    , -9.79024    , 3.461854E-05, 5.28434321E-05, 0.000743589 , -0.0169024486, -0.0127130225, 0.000216535627, 922.1653    , 32.2962265  , 787.821167  , 3.09        , 3           , 9           , 5           , 0.1
-0.1264862  , 0.1722293   , -9.79036    , 6.08182163E-05, -4.9966533E-05, 0.000398565753, -0.0169018935, -0.0127134547, 0.0002205294, 922.1653    , 32.2962265  , 787.821     , 3.1         , 3           , 10          , 0.1         , 0.1
-0.124438122, 0.1675088   , -9.7898     , -0.000370516238, -0.000136564835, 0.0002514033, -0.0169079825, -0.0127191292, 0.000223096213, 922.1653    , 32.2962265  , 787.7785    , 3.11        , 3           , 11          , 0.00723676942, 0.00723676663
-0.121442512, 0.170519039 , -9.788073   , 0.000403829879, 0.000423515332, 0.0007733392, -0.01690404 , -0.012714766, 0.000230757316, 922.1653    , 32.2962265  , 787.778     , 3.12        , 3           , 12          , 0.174645633 , 0
-0.1231451  , 0.168055832 , -9.792997   , 0.000584000139, -2.78966036E-05, -6.28539E-05, -0.0168981925, -0.0127150556, 0.000230133577, 922.1381    , 32.2958221  , 787.7775    , 3.13        , 3           , 13          , 0           , 0
-0.132303745, 0.169733793 , -9.790612   , 0.000214104439, 0.000303877343, -0.000213267485, -0.0168960243, -0.012712054, 0.000227949742, 922.1381    , 32.2958221  , 787.777039  , 3.14        , 3           , 14          , -0.000418888027, -0.000293433841
-0.131410763, 0.167838737 , -9.790636   , 0.000149532483, -0.000395757728, -0.000118296477, -0.0168945156, -0.0127160307, 0.000226833741, 922.1381    , 32.2958221  , 787.77655   , 3.15        , 3           , 15          , 0           , -8.788981E-05
-0.124603912, 0.16490607  , -9.789638   , 0.0005987889, 8.177216E-06, 0.000222341216, -0.016888557, -0.0127159115, 0.0002290556, 922.1381    , 32.2958221  , 787.776062  , 3.16        , 3           , 16          , 0           , 1.401298E-45
-0.130414024, 0.167102456 , -9.793594   , 0.00034431956, 1.36903836E-05, 0.000137715164, -0.0168851316, -0.012715755, 0.000230430334, 922.1381    , 32.2958221  , 787.7756    , 3.17        , 3           , 20          , 0           , 0
-0.127398223, 0.175778419 , -9.790239   , 0.0006225712, 0.000125947961, -0.000103766564, -0.0168788955, -0.0127145126, 0.000229371522, 922.1381    , 32.2958221  , 787.7751    , 3.18        , 3           , 21          , 0           , 0
-0.1219009  , 0.168355271 , -9.793428   , 0.00013130653, -0.0002094151, -0.000322500884, -0.0168775413, -0.0127166612, 0.000226182136, 922.1381    , 32.2958221  , 787.7746    , 3.19        , 3           , 22          , 0           , 0
-0.120037019, 0.1719758   , -9.79073    , -0.000189509679, 0.000149807645, -9.641163E-05, -0.01687942 , -0.0127151776, 0.000225192809, 922.1381    , 32.2958221  , 787.7741    , 3.2         , 3           , 40          , 0           , 0
-0.134328738, 0.1650301   , -9.790987   , -0.000116327923, 0.000391452777, -0.000116797186, -0.0168878883, -0.0127136251, 0.000224051924, 922.1381    , 32.2958221  , 787.77655   , 3.21        , 3           , 41          , 0           , 0
-0.115191579, 0.164086133 , -9.802056   , -0.000100871461, 0.000393599679, -0.000274922175, -0.0168888643, -0.0127097387, 0.0002212365, 922.1381    , 32.2958221  , 787.7761    , 3.22        , 3           , 42          , 0           , 0
-0.1154932  , 0.169873163 , -9.787699   , -0.000119325385, 3.00738029E-05, 1.70216736E-05, -0.01689006 , -0.0127094341, 0.000221401628, 922.0993    , 32.29616    , 787.7757    , 3.23        , 3           , 255         , 0           , 0
-0.118508026, 0.165416747 , -9.782405   , -0.000506683253, -0.0002109943, -0.000192383333, -0.0168951  , -0.0127115771, 0.000219513575, 922.0993    , 32.29616    , 787.775269  , 3.24        , 3           , 255         , 0           , 0
-0.118078969, 0.164261237 , -9.789507   , -0.000383584847, -0.000680294, 9.287964E-05, -0.0168989487, -0.0127183609, 0.000220557238, 922.0993    , 32.29616    , 787.774841  , 3.25        , 3           , 255         , 0           , 0
-0.125418931, 0.163957864 , -9.781127   , 0.000411172456, -0.000236751483, 6.6002176E-05, -0.0168948472, -0.0127207171, 0.0002212572, 922.0993    , 32.29616    , 787.7744    , 3.26        , 3           , 255         , 0           , 0
-0.11821159 , 0.171175241 , -9.789326   , 0.0006348593, -0.000368267851, -0.000443226862, -0.0168884415, -0.012724475, 0.000216887522, 922.0993    , 32.29616    , 787.774     , 3.27        , 3           , 255         , 0           , 0
-0.12509118 , 0.170576125 , -9.790275   , 0.000365309068, -0.000252653641, -0.000430541259, -0.016884733, -0.0127270743, 0.000212625164, 922.0993    , 32.29616    , 787.77356   , 3.28        , 3           , 255         , 0           , 0
-0.130854249, 0.171890765 , -9.790387   , 0.0002582398, 0.000399975339, 0.000329017552, -0.0168821923, -0.0127230193, 0.00021584754, 922.0993    , 32.29616    , 787.773132  , 3.29        , 3           , 255         , 0           , 0
-0.131304547, 0.173958972 , -9.784196   , 0.000426137674, 0.000467986742, 0.000327715068, -0.0168779716, -0.0127182882, 0.000219045425, 922.0993    , 32.29616    , 787.7727    , 3.3         , 3           , 255         , 0           , 0
-0.1303749  , 0.1659514   , -9.785478   , 0.0003141713, 0.0003775918, 0.000162630953, -0.016880868, -0.0127115957, 0.000220684378, 922.0993    , 32.29616    , 787.830444  , 3.31        , 3           , 255         , 0           , 0
-0.126296237, 0.163864717 , -9.790155   , 0.000118058349, 0.000243412185, 0.000138146439, -0.0168797057, -0.0127091371, 0.000222024624, 922.0993    , 32.29616    , 787.8304    , 3.32        , 3           , 255         , 0           , 0
-0.128338128, 0.175823748 , -9.794493   , -0.000247608725, -0.0002750378, -0.000143528916, -0.0168821625, -0.0127119124, 0.000220635877, 922.1079    , 32.2963638  , 787.8303    , 3.33        , 3           , 255         , 0           , 0
-0.127552643, 0.1711938   , -9.793352   , -0.000127296284, -0.000442300778, 0.000264949456, -0.01688347 , -0.01271629 , 0.0002233598, 922.1079    , 32.2963638  , 787.830261  , 3.34        , 3           , 255         , 0           , 0
-0.128152385, 0.165347189 , -9.788829   , 0.000231575221, -0.000464168523, 0.000299086823, -0.016881194, -0.0127208792, 0.000226428776, 922.1079    , 32.2963638  , 787.8302    , 3.35        , 3           , 255         , 0           , 0
-0.128751472, 0.170478553 , -9.789671   , -0.000118636613, -5.644819E-05, 5.267446E-05, -0.0168823861, -0.0127214342, 0.000226965014, 922.1079    , 32.2963638  , 787.830139  , 3.36        , 3           , 255         , 0           , 0
-0.120934129, 0.164249688 , -9.794051   , 0.000283999485, 4.82886971E-05, 0.0002379459, -0.0168795772, -0.0127209118, 0.000229336118, 922.1079    , 32.2963638  , 787.8301    , 3.37        , 3           , 255         , 0           , 0
-0.123216167, 0.174797654 , -9.790494   , -2.082673E-05, 0.0004476684, 0.000292470941, -0.01687982 , -0.0127163865, 0.000232185019, 922.1079    , 32.2963638  , 787.83      , 3.38        , 3           , 255         , 0           , 0
-0.121401988, 0.1781688   , -9.792925   , -0.000111564732, 3.19361279E-05, 8.14303E-05 , -0.0168809462, -0.0127160531, 0.000232993858, 922.1079    , 32.2963638  , 787.829956  , 3.39        , 3           , 255         , 0           , 0
-0.1217223  , 0.164069608 , -9.797116   , 0.000642937142, 9.57873E-05 , 7.889266E-05, -0.01687453 , -0.0127150817, 0.000233766565, 922.1079    , 32.2963638  , 787.8299    , 3.4         , 3           , 255         , 0           , 0
-0.126526847, 0.162610129 , -9.785903   , 0.0002991646, 0.000204228621, 0.000481072871, -0.01687888 , -0.0127149411, 0.000238635024, 922.1079    , 32.2963638  , 787.867554  , 3.41        , 3           , 255         , 0           , 0
-0.122473739, 0.171587422 , -9.783962   , 0.00011828955, 5.54176222E-05, 0.0004419202, -0.0168777537, -0.0127143124, 0.000243044517, 922.1079    , 32.2963638  , 787.867737  , 3.42        , 3           , 255         , 0           , 0
-0.115628362, 0.170546278 , -9.78963    , -1.05772924E-05, 0.0001350546, 0.0005844236, -0.0168779343, -0.0127128642, 0.000248865457, 922.0854    , 32.2962265  , 787.8679    , 3.43        , 3           , 255         , 0           , 0
-0.122823492, 0.163536221 , -9.791503   , 0.0001505815, 0.0001250258, -0.000481538125, -0.01687637 , -0.0127116954, 0.0002440294, 922.0854    , 32.2962265  , 787.8681    , 3.44        , 3           , 255         , 0           , 0
-0.12978597 , 0.1674806   , -9.787594   , 0.000198385475, -0.0001275817, 3.00169086E-05, -0.01687439 , -0.0127129657, 0.000244351075, 922.0854    , 32.2962265  , 787.8683    , 3.45        , 3           , 255         , 0           , 0
-0.120723471, 0.1684995   , -9.790811   , -1.680496E-05, -0.000685609935, -0.000197980946, -0.016874535, -0.0127198538, 0.00024248712, 922.0854    , 32.2962265  , 787.868469  , 3.46        , 3           , 255         , 0           , 0
-0.123272881, 0.171974167 , -9.791372   , 0.000539092347, -0.0002448323, 5.94143676E-05, -0.01686915 , -0.012722292, 0.000243122515, 922.0854    , 32.2962265  , 787.868652  , 3.47        , 3           , 255         , 0           , 0
-0.128481463, 0.164745    , -9.794237   , 0.000338925165, -3.75098025E-05, 0.0003631346, -0.0168658067, -0.01272261 , 0.000246759882, 922.0854    , 32.2962265  , 787.868835  , 3.48        , 3           , 255         , 0           , 0
-0.127188921, 0.176331848 , -9.788196   , 0.0001980701, 7.09413E-05 , 0.000180085161, -0.01686385 , -0.0127218673, 0.000248548575, 922.0854    , 32.2962265  , 787.869     , 3.49        , 3           , 255         , 0           , 0
-0.129300475, 0.16641748  , -9.794416   , 0.0004158572, -0.000206001336, -0.000136592382, -0.0168596748, -0.0127239507, 0.0002472175, 922.0854    , 32.2962265  , 787.8692    , 3.5         , 3           , 255         , 0           , 0
-0.137555525, 0.166414231 , -9.787707   , -0.0004748967, 2.321633E-05, -6.633024E-05, -0.0168708619, -0.0127240242, 0.000246632349, 922.0854    , 32.2962265  , 787.933044  , 3.51        , 3           , 255         , 0           , 0
-0.125950113, 0.164133817 , -9.785437   , -0.000171152176, -0.000420869124, 0.000140870034, -0.01687259 , -0.0127282059, 0.00024811193, 922.0854    , 32.2962265  , 787.933655  , 3.52        , 3           , 255         , 0           , 0
-0.127816826, 0.169415787 , -9.78772449 , 0.0002433669, -0.000176215573, -5.732364E-05, -0.01687015 , -0.0127299782, 0.0002475685, 922.130432  , 32.2935143  , 787.934265  , 3.53        , 3           , 255         , 0           , 0
-0.121662095, 0.172092617 , -9.793922   , 0.000401325437, 0.000311701675, 0.000280773238, -0.0168661736, -0.0127268136, 0.000250323443, 922.130432  , 32.2935143  , 787.9349    , 3.54        , 3           , 255         , 0           , 0
-0.127015   , 0.16493383  , -9.795001   , 0.000178181814, 0.000279897271, 0.000269867742, -0.0168644264, -0.012723973, 0.000252974685, 922.130432  , 32.2935143  , 787.9355    , 3.55        , 3           , 255         , 0           , 0
-0.123644993, 0.171252087 , -9.784109   , -0.000157619419, 4.14333481E-05, -0.000219504756, -0.0168659724, -0.012723594, 0.000250772777, 922.130432  , 32.2935143  , 787.9361    , 3.56        , 3           , 255         , 0           , 0
-0.1304227  , 0.1656446   , -9.789826   , -0.000122611527, -2.32451421E-05, 0.000848524331, -0.0168673061, -0.0127236834, 0.000259261229, 922.130432  , 32.2935143  , 787.9367    , 3.57        , 3           , 255         , 0           , 0
-0.1317703  , 0.165744275 , -9.793576   , -0.000300898915, 6.005862E-05, 0.000250897661, -0.0168703459, -0.0127230408, 0.000261759851, 922.130432  , 32.2935143  , 787.9373    , 3.58        , 3           , 255         , 0           , 0
-0.1219791  , 0.167485252 , -9.795139   , -0.000523617258, -0.000261473848, 0.0005829199, -0.0168756563, -0.0127255544, 0.000267632655, 922.130432  , 32.2935143  , 787.9379    , 3.59        , 3           , 255         , 0           , 0
-0.125838369, 0.163034916 , -9.793076   , -0.000399218639, -0.0005692496, 1.568775E-05, -0.0168796517, -0.012731242, 0.0002678856, 922.130432  , 32.2935143  , 787.938538  , 3.6         , 3           , 255         , 0           , 0
-0.128153339, 0.161555    , -9.797403   , 7.371654E-05, -0.000402554724, -0.000310876552, -0.0168824084, -0.0127404975, 0.000264890055, 922.130432  , 32.2935143  , 787.9286    , 3.61        , 3           , 255         , 0           , 0
-0.120297313, 0.172511891 , -9.798198   , 0.000269682059, -0.000307603827, 0.000583180459, -0.0168797858, -0.0127434749, 0.000270773278, 922.130432  , 32.2935143  , 787.929138  , 3.62        , 3           , 255         , 0           , 0
-0.120507613, 0.171200067 , -9.793259   , 0.000332726166, 2.43419781E-05, 0.000270081364, -0.0168764964, -0.0127431862, 0.000273469748, 922.136     , 32.2942619  , 787.9297    , 3.63        , 3           , 255         , 0           , 0
-0.1224757  , 0.164430454 , -9.801052   , 0.000285166549, -0.0003792056, -4.757494E-05, -0.0168736372, -0.0127469869, 0.000273058045, 922.136     , 32.2942619  , 787.930237  , 3.64        , 3           , 255         , 0           , 0
-0.11865522 , 0.167268187 , -9.796522   , 0.000122442318, -1.80938514E-07, 3.26397276E-06, -0.0168724153, -0.0127469888, 0.000273090729, 922.136     , 32.2942619  , 787.9308    , 3.65        , 3           , 255         , 0           , 0
-0.119525269, 0.164126784 , -9.788092   , 8.163773E-05, 3.42165E-06 , -0.000345115084, -0.0168715548, -0.012747013, 0.000269639277, 922.136     , 32.2942619  , 787.931335  , 3.66        , 3           , 255         , 0           , 0
-0.1265866  , 0.170340419 , -9.793709   , 0.000487740326, 0.00022023989, 0.0005435361, -0.0168667454, -0.0127447182, 0.000275037048, 922.136     , 32.2942619  , 787.9319    , 3.67        , 3           , 255         , 0           , 0
-0.133626178, 0.17343241  , -9.791066   , -0.000121901336, 0.0001614139, 0.000711055 , -0.016868053, -0.012742985, 0.000282119756, 922.136     , 32.2942619  , 787.932434  , 3.68        , 3           , 255         , 0           , 0
-0.124436453, 0.171369523 , -9.795979   , 0.000229521393, -3.09629249E-05, 0.0005488929, -0.016865829, -0.012743202, 0.000287613453, 922.136     , 32.2942619  , 787.933     , 3.69        , 3           , 255         , 0           , 0
-0.120314494, 0.166641772 , -9.791113   , 0.000198418958, -0.000252213416, 4.163065E-05, -0.01686385 , -0.0127457175, 0.000288072275, 922.136     , 32.2942619  , 787.933533  , 3.7         , 3           , 255         , 0           , 0
-0.133255824, 0.1712043   , -9.792018   , -4.969904E-05, -0.000345314329, 0.0001384537, -0.0168685783, -0.0127471611, 0.000289568561, 922.136     , 32.2942619  , 787.91626   , 3.71        , 3           , 255         , 0           , 0
-0.131390244, 0.166833729 , -9.790026   , -8.012302E-05, 9.12435644E-05, -0.000194370135, -0.0168693531, -0.012746281, 0.000287609641, 922.136     , 32.2942619  , 787.916748  , 3.72        , 3           , 255         , 0           , 0
-0.121480487, 0.165500373 , -9.796798   , -8.12237849E-05, 0.000332103577, 0.0001196979, -0.01687018 , -0.01274294 , 0.0002887505, 922.1293    , 32.296772   , 787.917236  , 3.73        , 3           , 255         , 0           , 0
-0.120268561, 0.172298759 , -9.794111   , 0.000100236328, 0.00046742594, -0.00031314732, -0.0168691352, -0.0127383191, 0.000285540475, 922.1293    , 32.296772   , 787.9177    , 3.74        , 3           , 255         , 0           , 0
-0.117540874, 0.16912809  , -9.796577   , 0.00143817894, -0.000122851139, -0.0003098163, -0.0168547127, -0.0127396025, 0.000282463239, 922.1293    , 32.296772   , 787.9182    , 3.75        , 3           , 255         , 0           , 0
-0.120574296, 0.159989342 , -9.792091   , 0.000281048618, -0.000253925449, 0.000454966357, -0.01685196 , -0.0127420649, 0.0002870553, 922.1293    , 32.296772   , 787.9187    , 3.76        , 3           , 255         , 0           , 0
-0.125541225, 0.16935277  , -9.792079   , 0.000197212677, -0.0002946445, -0.000203178119, -0.016849963, -0.0127450442, 0.000285073358, 922.1293    , 32.296772   , 787.9192    , 3.77        , 3           , 255         , 0           , 0
-0.1320337  , 0.16770032  , -9.786993   , 0.000148552353, 0.000284082635, -0.000519473338, -0.01684841 , -0.0127422921, 0.000279831234, 922.1293    , 32.296772   , 787.9197    , 3.78        , 3           , 255         , 0           , 0
-0.127014279, 0.160548225 , -9.795476   , 0.000244174356, 2.2873166E-05, 9.215848E-05, -0.0168459788, -0.0127420481, 0.000280748878, 922.1293    , 32.296772   , 787.920166  , 3.79        , 3           , 255         , 0           , 0
-0.129404888, 0.159647942 , -9.792704   , 0.000231608312, -1.46564853E-05, 0.000927196059, -0.0168437846, -0.01274204 , 0.0002900225, 922.1293    , 32.296772   , 787.920654  , 3.8         , 3           , 255         , 0           , 0
-0.130253524, 0.167556971 , -9.788744   , 0.0005006688, -4.9774826E-05, 0.000740653835, -0.0168405585, -0.0127440682, 0.000297458319, 922.1293    , 32.296772   , 787.914856  , 3.81        , 3           , 255         , 0           , 0
-0.116609551, 0.173252165 , -9.795085   , -0.000157754344, 0.000144722144, 0.00094356155, -0.0168422535, -0.0127424644, 0.000306868751, 922.1293    , 32.296772   , 787.9153    , 3.82        , 3           , 255         , 0           , 0
-0.122092351, 0.167191908 , -9.788358   , -0.0003046685, 0.000231696642, 0.000447210419, -0.0168453567, -0.0127400719, 0.0003113014, 922.119751  , 32.2935143  , 787.9157    , 3.83        , 3           , 255         , 0           , 0
-0.132767037, 0.174674585 , -9.789188   , -0.000319515355, 0.000227471115, -8.859264E-05, -0.0168485362, -0.0127378125, 0.000310377218, 922.119751  , 32.2935143  , 787.916138  , 3.84        , 3           , 255         , 0           , 0
-0.131411955, 0.176479682 , -9.789615   , 0.00011374685, -0.0001265099, 3.713875E-05, -0.0168474037, -0.0127390707, 0.0003107699, 922.119751  , 32.2935143  , 787.916565  , 3.85        , 3           , 255         , 0           , 0
-0.130991161, 0.171750426 , -9.785631   , 0.0008544079, -0.0005737228, -0.000206464552, -0.0168388337, -0.0127448393, 0.000308802031, 922.119751  , 32.2935143  , 787.917     , 3.86        , 3           , 255         , 0           , 0
-0.123278879, 0.167482853 , -9.794579   , 0.000175997469, -0.00033009873, -2.32491584E-06, -0.0168370772, -0.0127481408, 0.000308834336, 922.119751  , 32.2935143  , 787.9174    , 3.87        , 3           , 255         , 0           , 0
-0.12528348 , 0.171340689 , -9.800269   , 0.000377727585, 0.000238725 , -0.00045651765, -0.0168332364, -0.012745834, 0.0003042294, 922.119751  , 32.2935143  , 787.917847  , 3.88        , 3           , 255         , 0           , 0
-0.121242739, 0.172195509 , -9.789686   , 0.0004977743, 0.000217957015, 0.0005792449, -0.016828334, -0.0127435569, 0.0003099847, 922.119751  , 32.2935143  , 787.9183    , 3.89        , 3           , 255         , 0           , 0
-0.123969473, 0.1688968   , -9.795484   , -0.000326164532, -0.000147380371, 0.0009277059, -0.0168317128, -0.0127448719, 0.000319285755, 922.119751  , 32.2935143  , 787.9187    , 3.9         , 3           , 255         , 0           , 0
-0.129238531, 0.16745016  , -9.799264   , -0.000736732443, -0.0002926622, 0.000174973713, -0.0168491676, -0.0127494717, 0.0003212129, 922.119751  , 32.2935143  , 787.9269    , 3.91        , 3           , 255         , 0           , 0
-0.1222311  , 0.172717616 , -9.790891   , -0.000226101489, -1.78696937E-05, 0.000142420278, -0.01685145 , -0.0127496263, 0.000322639971, 922.119751  , 32.2935143  , 787.927368  , 3.92        , 3           , 255         , 0           , 0
-0.119576827, 0.162525192 , -9.786664   , -0.000144897378, 4.222995E-06, -1.868941E-05, -0.0168528929, -0.0127495872, 0.000322452368, 922.145     , 32.2946663  , 787.927856  , 3.93        , 3           , 255         , 0           , 0
-0.127635852, 0.161727846 , -9.791048   , -0.000452909328, -0.000136973656, -0.0004113932, -0.01685737 , -0.012751027, 0.000318361883, 922.145     , 32.2946663  , 787.928345  , 3.94        , 3           , 255         , 0           , 0
-0.134660512, 0.165154874 , -9.79736    , -0.000422559853, 0.000121584861, -0.000899020466, -0.0168614779, -0.0127499606, 0.000309351919, 922.145     , 32.2946663  , 787.928833  , 3.95        , 3           , 255         , 0           , 0
-0.119636774, 0.168434769 , -9.794865   , 8.589821E-06, 6.56181655E-05, -0.000148225809, -0.0168613736, -0.0127493311, 0.000307858718, 922.145     , 32.2946663  , 787.9293    , 3.96        , 3           , 255         , 0           , 0
-0.120710418, 0.164342254 , -9.793774   , -9.68677341E-05, 0.0001297417, 0.000193926317, -0.0168623663, -0.012748   , 0.000309776 , 922.145     , 32.2946663  , 787.9298    , 3.97        , 3           , 255         , 0           , 0
-0.121695444, 0.160773739 , -9.794336   , -0.0004076776, -0.0001003065, 0.0003059353, -0.0168664828, -0.0127489511, 0.000312851946, 922.145     , 32.2946663  , 787.9303    , 3.98        , 3           , 255         , 0           , 0
-0.127801523, 0.159106463 , -9.79085    , 0.000246852578, 0.000102040533, -0.000195306871, -0.0168639887, -0.0127479639, 0.000310881878, 922.145     , 32.2946663  , 787.9308    , 3.99        , 3           , 255         , 0           , 0
-0.1254487  , 0.163423464 , -9.800806   , -0.000113797432, -0.0001259525, 0.0001796892, -0.01686515 , -0.0127491932, 0.00031269982, 922.145     , 32.2946663  , 787.9313    , 4           , 3           , 0           , 9.433237    , 400
-0.130943283, 0.169378966 , -9.78924    , -4.94793931E-05, -0.00016786778, 0.000293775578, -0.0168648753, -0.0127507681, 0.0003156553, 922.145     , 32.2946663  , 787.901367  , 4.01        , 3           , 1           , 0           , 0
-0.133412927, 0.165231019 , -9.788927   , -7.883657E-05, -0.000112049282, -0.000395974726, -0.0168656129, -0.0127519555, 0.00031171483, 922.145     , 32.2946663  , 787.9017    , 4.02        , 3           , 2           , 0           , 0
-0.11908783 , 0.162834018 , -9.79183    , 1.97151676E-05, -0.000116415351, -0.00066955795, -0.01686533 , -0.0127532324, 0.000305039459, 922.087646  , 32.2969742  , 787.902     , 4.03        , 3           , 3           , 0           , 0
-0.1296487  , 0.165316641 , -9.792597   , -4.37252165E-05, 2.223588E-05, -0.00018158117, -0.0168657452, -0.0127530415, 0.000303220062, 922.087646  , 32.2969742  , 787.9023    , 4.04        , 3           , 4           , 0           , 0
-0.124953963, 0.168189242 , -9.795334   , 0.0001915379, 6.53966E-06 , -0.000265006674, -0.0168637969, -0.012753021, 0.00030056914, 922.087646  , 32.2969742  , 787.9026    , 4.05        , 3           , 5           , 0           , 0
-0.126210943, 0.170133024 , -9.792168   , 0.0004266879, -5.95425663E-05, -0.000404102961, -0.0168594755, -0.0127536841, 0.0002965385, 922.087646  , 32.2969742  , 787.902954  , 4.06        , 3           , 6           , 0           , 0
-0.12826398 , 0.170324147 , -9.7955265  , 5.965942E-05, 0.000213707128, -0.000125912877, -0.0168588646, -0.012751569, 0.000295243459, 922.087646  , 32.2969742  , 787.9033    , 4.07        , 3           , 7           , 0           , 0
-0.122228287, 0.171175629 , -9.7824955  , -0.00026965054, 0.000123905833, -0.0005712559, -0.016861489, -0.0127504263, 0.00028951047, 922.087646  , 32.2969742  , 787.9037    , 4.08        , 3           , 8           , 5           , 5
-0.118462719, 0.158235118 , -9.787884   , -0.000205638935, 0.000229301964, -0.0005460629, -0.0168634746, -0.0127482265, 0.000284011679, 922.087646  , 32.2969742  , 787.904053  , 4.09        , 3           , 9           , 5           , 0.1
-0.113450214, 0.161793962 , -9.789784   , -5.64710645E-05, 0.000166858052, -8.248814E-05, -0.0168640278, -0.0127465725, 0.0002831587, 922.087646  , 32.2969742  , 787.9044    , 4.1         , 3           , 10          , 0.1         , 0.1
-0.127369553, 0.160847    , -9.796272   , -0.0004471983, -0.0005132971, -8.259361E-05, -0.0168704782, -0.0127513353, 0.000282444758, 922.087646  , 32.2969742  , 787.96      , 4.11        , 3           , 11          , 0.00667145569, 0.006671452
