Acc X       , Acc Y       , Acc Z       , Gyro X      , Gyro Y      , Gyro Z      , Euler X     , Euler Y     , Euler Z     , Pres X      , Pres Y      , Pres Z      , Time        , Status      , LowRate X   , LowRate Y   , LowRate Z    
-9.740334   , -0.0918175951, -0.9668333  , 0           , 0           , 0           , 0.09468339  , -1.47141743 , 0           , 920.7366    , 29.415453   , 800.3982    , 0           , 2           , 0           , 5.02023172  , 0
-9.753476   , -0.09559645 , -0.993357658, 0.000190380786, 0.0085147   , -0.000111922272, 0.0946157947, -1.47133219 , 6.98914E-05 , 920.7366    , 29.415453   , 800.3982    , 0.01        , 3           , 1           , 0           , 0
-9.7585     , -0.08974294 , -0.994819343, 0.000414135458, 0.0113057178, 0.000487332727, 0.0944645256, -1.47122061 , 0.000226114455, 920.7366    , 29.415453   , 800.3982    , 0.02        , 3           , 2           , 0           , 0
-9.755457   , -0.08710078 , -1.003536   , 0.000162575918, 0.0133953821, 0.000595834339, 0.0942806453, -1.47108638 , 0.0004125212, 920.6996    , 29.0043983  , 800.3982    , 0.03        , 3           , 3           , 0           , 0
-9.753851   , -0.09775169 , -1.00268877 , -0.000191440282, 0.01531248  , 0.0007886379, 0.09405646  , -1.4709363  , 0.0006358745, 920.6996    , 29.0043983  , 800.3982    , 0.04        , 3           , 4           , 0           , 0
-9.752886   , -0.0923606753, -1.00258708 , 0.000317871163, 0.01510934  , -0.000105107552, 0.09392873  , -1.47078514 , 0.0007674497, 920.6996    , 29.0043983  , 800.3982    , 0.05        , 3           , 5           , 0           , 0
-9.744507   , -0.08424897 , -1.00253558 , 0.000106195046, 0.0144269411, -0.0005967219, 0.09385434  , -1.47064018 , 0.0008432851, 920.6996    , 29.0043983  , 800.3982    , 0.06        , 3           , 6           , 0           , 0
-9.733732   , -0.0851815343, -1.00511    , -0.0004990659, 0.0131221283, 0.000120263576, 0.09371515  , -1.47051084 , 0.0009781144, 920.6996    , 29.0043983  , 800.3982    , 0.07        , 3           , 7           , 0           , 0
-9.744427   , -0.0923734456, -1.0016607  , -0.000559329754, 0.0119918976, 0.000203763921, 0.09357806  , -1.47039068 , 0.00111034163, 920.6996    , 29.0043983  , 800.3982    , 0.08        , 3           , 8           , 5           , 5
-9.749178   , -0.09885229 , -1.00755239 , -0.0001741763, 0.0128234439, -0.00034236 , 0.09349124  , -1.47026348 , 0.00119582342, 920.6996    , 29.0043983  , 800.3982    , 0.09        , 3           , 9           , 5           , 0.1
-9.738238   , -0.0785256848, -1.00779772 , -0.000351447263, 0.0124672707, 0.000309901341, 0.09334194  , -1.47013772 , 0.00134234957, 920.6996    , 29.0043983  , 800.3982    , 0.1         , 3           , 10          , 0.1         , 0.1
-9.745306   , -0.08622136 , -1.01062036 , -0.000612174859, 0.0113085965, -0.0006411365, 0.0931712762, -1.46994328 , 0.00150647189, 920.6996    , 29.0043983  , 800.7313    , 0.11        , 3           , 11          , 0.0109544508, 0.0109544508
-9.738518   , -0.09942664 , -1.00380826 , -0.0007513414, 0.010967887 , -0.000713279238, 0.09313321  , -1.46983266 , 0.00153721706, 920.6996    , 29.0043983  , 800.7313    , 0.12        , 3           , 12          , 0.174642488 , 0
-9.739854   , -0.09066291 , -1.008655   , 0.0005635171, 0.0115455715, -7.12951E-05, 0.093039915 , -1.46971738 , 0.00163662934, 920.681946  , 29.0415077  , 800.7313    , 0.13        , 3           , 13          , 0           , 0
-9.739827   , -0.09031938 , -1.01285362 , 0.000167283928, 0.0121333767, -0.00036728906, 0.09296656  , -1.46959758 , 0.00171203876, 920.681946  , 29.0415077  , 800.7313    , 0.14        , 3           , 14          , 0.000776240253, -0.00103797461
-9.744235   , -0.0942388  , -1.00720215 , -4.32257657E-05, 0.0103257289, 0.000306702656, 0.09284172  , -1.46949434 , 0.00183703436, 920.681946  , 29.0415077  , 800.7313    , 0.15        , 3           , 15          , 0           , 0.000423205
-9.742115   , -0.0911191255, -1.01361132 , 0.000415137154, 0.008096166 , 0.0004473241, 0.09272837  , -1.46941483 , 0.0019552114, 920.681946  , 29.0415077  , 800.7314    , 0.16        , 3           , 16          , 0           , 1.401298E-45
-9.744975   , -0.09924302 , -1.01428986 , 0.000270849676, 0.009460437 , -0.000372438168, 0.0926815   , -1.46932065 , 0.00200503  , 920.681946  , 29.0415077  , 800.731445  , 0.17        , 3           , 20          , 0           , 0
-9.745913   , -0.0941468552, -1.01620936 , -0.000364988926, 0.0108427666, 0.000422825949, 0.09253803  , -1.469213   , 0.00214552041, 920.681946  , 29.0415077  , 800.7315    , 0.18        , 3           , 21          , 0           , 0
-9.746526   , -0.0853735656, -1.007754   , -0.000274896156, 0.0119009856, 0.000277163432, 0.09240061  , -1.4690944  , 0.002280927 , 920.681946  , 29.0415077  , 800.731567  , 0.19        , 3           , 22          , 0           , 0
-9.738222   , -0.09218156 , -1.01053882 , -0.000156338734, 0.0125608547, 0.000159263873, 0.09226998  , -1.46896827 , 0.00241062  , 920.681946  , 29.0415077  , 800.7316    , 0.2         , 3           , 40          , 0           , 0
-9.738821   , -0.09372292 , -1.02020252 , -0.000300225423, 0.01165189  , -0.0005094522, 0.09214441  , -1.46876025 , 0.00253315386, 920.681946  , 29.0415077  , 800.8111    , 0.21        , 3           , 41          , 0           , 0
-9.752254   , -0.0942637846, -1.0251497  , -0.0003702537, 0.0100647537, 3.33866046E-05, 0.09204716  , -1.46866024 , 0.00262721023, 920.681946  , 29.0415077  , 800.811157  , 0.22        , 3           , 42          , 0           , 0
-9.747966   , -0.08659603 , -1.019143   , -0.0004238882, 0.00905162748, -0.0002589766, 0.0919870138, -1.46856916 , 0.002683416 , 920.7087    , 29.07068    , 800.8112    , 0.23        , 3           , 255         , 0           , 0
-9.732415   , -0.08811523 , -1.01474416 , 2.73736077E-05, 0.007950344 , 0.00103322545, 0.0918160155, -1.468492   , 0.00285559031, 920.7087    , 29.07068    , 800.8113    , 0.24        , 3           , 255         , 0           , 0
-9.741995   , -0.0849973559, -1.01662755 , 0.0003521045, 0.007347302 , 0.0009117611, 0.0916655138, -1.46842027 , 0.00301039568, 920.7087    , 29.07068    , 800.81134   , 0.25        , 3           , 255         , 0           , 0
-9.749487   , -0.08917838 , -1.00292349 , 0.000254971848, 0.0101720225, -0.000232489678, 0.09160013  , -1.46831775 , 0.00307869213, 920.7087    , 29.07068    , 800.8114    , 0.26        , 3           , 255         , 0           , 0
-9.73931    , -0.09068631 , -1.01489949 , 0.000202652824, 0.01304261  , 0.000112400652, 0.0914754   , -1.46818841 , 0.00320617668, 920.7087    , 29.07068    , 800.811462  , 0.27        , 3           , 255         , 0           , 0
-9.734307   , -0.09254326 , -1.01357818 , -0.0003920962, 0.0127261449, 0.000545557239, 0.09130601  , -1.46806049 , 0.00337243569, 920.7087    , 29.07068    , 800.8115    , 0.28        , 3           , 255         , 0           , 0
-9.735121   , -0.09444629 , -1.01932144 , -0.000200577138, 0.0109745655, -1.87862024E-05, 0.09120886  , -1.46795189 , 0.003468108 , 920.7087    , 29.07068    , 800.8116    , 0.29        , 3           , 255         , 0           , 0
-9.751299   , -0.08904753 , -1.02153659 , -0.000149804226, 0.01185723  , 0.000275819533, 0.09107626  , -1.46783519 , 0.00359992776, 920.7087    , 29.07068    , 800.811646  , 0.3         , 3           , 255         , 0           , 0
-9.746851   , -0.09267146 , -1.01990151 , -0.000380091777, 0.0113712754, 0.000131050765, 0.0908521   , -1.46764982 , 0.00382031244, 920.7087    , 29.07068    , 800.7574    , 0.31        , 3           , 255         , 0           , 0
-9.737949   , -0.09407313 , -1.02120888 , 6.19756756E-05, 0.011161535 , 5.134387E-05, 0.09075008  , -1.46753931 , 0.003923488 , 920.7087    , 29.07068    , 800.757446  , 0.32        , 3           , 255         , 0           , 0
-9.749807   , -0.0912604555, -1.02041149 , 0.000374422641, 0.0109113809, 2.26942066E-05, 0.0906563848, -1.46743059 , 0.00402148534, 920.7061    , 29.0863514  , 800.7575    , 0.33        , 3           , 255         , 0           , 0
-9.751352   , -0.09098157 , -1.02111316 , 0.000567542855, 0.0115905954, -0.000563743932, 0.09061507  , -1.46731341 , 0.004068743 , 920.7061    , 29.0863514  , 800.757568  , 0.34        , 3           , 255         , 0           , 0
-9.744891   , -0.09561472 , -1.02476215 , -0.000236765132, 0.0137571888, -0.000752637745, 0.09056503  , -1.467178   , 0.00411662366, 920.7061    , 29.0863514  , 800.7576    , 0.35        , 3           , 255         , 0           , 0
-9.752765   , -0.09481056 , -1.02173066 , -0.0006027842, 0.0159954429, -0.0001274028, 0.09043244  , -1.4670161  , 0.004243927 , 920.7061    , 29.0863514  , 800.7577    , 0.36        , 3           , 255         , 0           , 0
-9.732916   , -0.09290011 , -1.03745866 , -0.000361983024, 0.0159854554, 0.000125298684, 0.0902784839, -1.46685982 , 0.004395009 , 920.7061    , 29.0863514  , 800.757751  , 0.37        , 3           , 255         , 0           , 0
-9.736249   , -0.100383304, -1.03369391 , 7.919385E-06, 0.0115441885, 0.000117876683, 0.0901676342, -1.4667443  , 0.004506527 , 920.7061    , 29.0863514  , 800.7578    , 0.38        , 3           , 255         , 0           , 0
-9.733111   , -0.08731754 , -1.04053092 , 0.000370085 , 0.00761576975, -5.71968267E-05, 0.09011128  , -1.46666861 , 0.004567017 , 920.7061    , 29.0863514  , 800.7579    , 0.39        , 3           , 255         , 0           , 0
-9.727053   , -0.0916748047, -1.03423774 , 9.707175E-05, 0.00202789763, 0.0004218105, 0.09005453  , -1.466648   , 0.00462495536, 920.7061    , 29.0863514  , 800.757935  , 0.4         , 3           , 255         , 0           , 0
-9.736682   , -0.09582392 , -1.0277189  , -0.000200860144, -0.00139697164, 0.0005500234, 0.09000709  , -1.46659815 , 0.004670549 , 920.7061    , 29.0863514  , 800.736633  , 0.41        , 3           , 255         , 0           , 0
-9.739972   , -0.09181036 , -1.019787   , -1.72980945E-05, -0.0005695181, -0.0003044873, 0.09004082  , -1.46660209 , 0.004636479 , 920.7061    , 29.0863514  , 800.7367    , 0.42        , 3           , 255         , 0           , 0
-9.749998   , -0.09842325 , -1.00862694 , 8.562754E-06, 0.00353176519, -0.00107308978, 0.09011271  , -1.466566   , 0.004564263 , 920.707153  , 29.0966625  , 800.736755  , 0.43        , 3           , 255         , 0           , 0
-9.763004   , -0.0965851  , -1.01331007 , 0.0005899089, 0.0104446318, 0.000387494772, 0.08999207  , -1.46646357 , 0.004691528 , 920.707153  , 29.0966625  , 800.7368    , 0.44        , 3           , 255         , 0           , 0
-9.750667   , -0.0927633047, -1.02206624 , 0.000290965778, 0.0150143523, 0.000151334651, 0.0898518562, -1.4663142  , 0.00483536674, 920.707153  , 29.0966625  , 800.7369    , 0.45        , 3           , 255         , 0           , 0
-9.750516   , -0.09895505 , -1.02973461 , 0.000240352587, 0.0178284273, 0.0002279786, 0.08968043  , -1.46613717 , 0.005010215 , 920.707153  , 29.0966625  , 800.736938  , 0.46        , 3           , 255         , 0           , 0
-9.739874   , -0.08888574 , -1.031487   , 0.00013614085, 0.0188914612, -0.000128278247, 0.08953321  , -1.465949   , 0.00515962159, 920.707153  , 29.0966625  , 800.737     , 0.47        , 3           , 255         , 0           , 0
-9.727259   , -0.09957167 , -1.03562856 , -0.000190929277, 0.0176248066, -0.0003953597, 0.08941918  , -1.46577215 , 0.0052723675, 920.707153  , 29.0966625  , 800.737061  , 0.48        , 3           , 255         , 0           , 0
-9.720753   , -0.100554645, -1.05131054 , 2.4235982E-05, 0.01327428  , 0.000197104033, 0.08928845  , -1.4656409  , 0.00540404767, 920.707153  , 29.0966625  , 800.7371    , 0.49        , 3           , 255         , 0           , 0
-9.723923   , -0.09618355 , -1.0541178  , -3.582734E-05, 0.006332013 , -0.000390964, 0.08927146  , -1.46557844 , 0.00542073557, 920.707153  , 29.0966625  , 800.7372    , 0.5         , 3           , 255         , 0           , 0
-9.732852   , -0.09807752 , -1.05016017 , -0.0006048812, 0.0001273593, 0.000154633191, 0.08935345  , -1.46553075 , 0.00533341756, 920.707153  , 29.0966625  , 800.722046  , 0.51        , 3           , 255         , 0           , 0
-9.732454   , -0.0989034548, -1.0549196  , 0.00018571777, -0.0034210002, -2.76397041E-05, 0.08938688  , -1.46556485 , 0.00530165667, 920.707153  , 29.0966625  , 800.7221    , 0.52        , 3           , 255         , 0           , 0
-9.743762   , -0.0854488462, -1.03234351 , -0.000113728747, -0.005513581, 0.000244510942, 0.08940934  , -1.4656204  , 0.00527792051, 920.7109    , 29.1058216  , 800.7222    , 0.53        , 3           , 255         , 0           , 0
-9.749026   , -0.09207859 , -1.019932   , 0.000134647766, -0.00276272 , -0.00035148114, 0.0894671753, -1.46564829 , 0.005221105 , 920.7109    , 29.1058216  , 800.722351  , 0.54        , 3           , 255         , 0           , 0
-9.751006   , -0.08894783 , -1.01585138 , -0.00020561245, 0.00383015256, -0.000482351577, 0.08947817  , -1.46560907 , 0.00520795071, 920.7109    , 29.1058216  , 800.7225    , 0.55        , 3           , 255         , 0           , 0
-9.752671   , -0.08897499 , -1.01254    , -3.10273026E-05, 0.01375257  , -0.000431974127, 0.0894022956, -1.46547234 , 0.00528395548, 920.7109    , 29.1058216  , 800.7226    , 0.56        , 3           , 255         , 0           , 0
-9.750513   , -0.0953098  , -1.01324582 , 1.4265941E-05, 0.02460907  , -0.000463286036, 0.08923864  , -1.465226   , 0.00544866268, 920.7109    , 29.1058216  , 800.7227    , 0.57        , 3           , 255         , 0           , 0
-9.75495    , -0.09137    , -1.032309   , 0.000649237947, 0.03270585  , -8.28256E-05, 0.08897868  , -1.46490073 , 0.00571660232, 920.7109    , 29.1058216  , 800.722839  , 0.58        , 3           , 255         , 0           , 0
-9.741531   , -0.0957241058, -1.04179072 , 0.000413031259, 0.0356423259, -0.000230747115, 0.08870737  , -1.46454716 , 0.00599358464, 920.7109    , 29.1058216  , 800.722961  , 0.59        , 3           , 255         , 0           , 0
-9.730526   , -0.100697756, -1.04942822 , -7.093791E-05, 0.0343254432, -0.0003214328, 0.08845243  , -1.46420312 , 0.0062492867, 920.7109    , 29.1058216  , 800.7231    , 0.6         , 3           , 255         , 0           , 0
-9.728032   , -0.09529331 , -1.054979   , 0.000149213534, 0.0269911736, -0.000240206718, 0.08827759  , -1.46391392 , 0.00642695  , 920.7109    , 29.1058216  , 800.7073    , 0.61        , 3           , 255         , 0           , 0
-9.723019   , -0.09220205 , -1.06425691 , -8.04359443E-05, 0.0199707616, 0.000371138041, 0.08807859  , -1.46371412 , 0.006626239 , 920.7109    , 29.1058216  , 800.7074    , 0.62        , 3           , 255         , 0           , 0
-9.717799   , -0.107766964, -1.07606387 , -0.000250536832, 0.008690273 , -0.000283472182, 0.0880312249, -1.46362829 , 0.006671349 , 920.70575   , 29.11376    , 800.7075    , 0.63        , 3           , 255         , 0           , 0
-9.722868   , -0.09742463 , -1.06441665 , -0.000445925631, -0.00111230148, 5.91982971E-05, 0.0880304053, -1.46363831 , 0.006667687 , 920.70575   , 29.11376    , 800.707642  , 0.64        , 3           , 255         , 0           , 0
-9.739023   , -0.089372   , -1.05594254 , -0.0003995068, -0.006193753, -0.0002926987, 0.08810418  , -1.46370065 , 0.006589458 , 920.70575   , 29.11376    , 800.707764  , 0.65        , 3           , 255         , 0           , 0
-9.746724   , -0.09799303 , -1.05218768 , 4.731893E-05, -0.008077646, 0.000237039349, 0.08814881  , -1.4637816  , 0.006545053 , 920.70575   , 29.11376    , 800.7079    , 0.66        , 3           , 255         , 0           , 0
-9.739512   , -0.0953657851, -1.05208886 , -0.000145778933, -0.008346654, 0.000450194639, 0.0881740451, -1.46386528 , 0.006518206 , 920.70575   , 29.11376    , 800.708     , 0.67        , 3           , 255         , 0           , 0
-9.731207   , -0.0941299051, -1.052776   , 0.000594378158, -0.008892109, 0.000686698768, 0.08818928  , -1.46395421 , 0.006508886 , 920.70575   , 29.11376    , 800.7081    , 0.68        , 3           , 255         , 0           , 0
-9.740675   , -0.09468354 , -1.04127049 , 0.000228083984, -0.00821561 , 0.0006402027, 0.08819957  , -1.46403742 , 0.00650081644, 920.70575   , 29.11376    , 800.708252  , 0.69        , 3           , 255         , 0           , 0
-9.735351   , -0.08653171 , -1.043924   , 5.5977318E-05, -0.006114968, 0.000589345058, 0.08819567  , -1.46409738 , 0.00650531752, 920.70575   , 29.11376    , 800.7084    , 0.7         , 3           , 255         , 0           , 0
-9.741076   , -0.09352042 , -1.03773677 , -0.0004813859, -0.004995154, -0.000378927158, 0.08835107  , -1.46408284 , 0.006345104 , 920.70575   , 29.11376    , 800.7037    , 0.71        , 3           , 255         , 0           , 0
-9.740995   , -0.09042521 , -1.04226434 , -9.517587E-05, -0.00434649875, -0.000307985, 0.08841457  , -1.4641248  , 0.00628029229, 920.70575   , 29.11376    , 800.7038    , 0.72        , 3           , 255         , 0           , 0
-9.743109   , -0.09519189 , -1.04801035 , 0.000180441246, -0.004682375, -0.0009919364, 0.08854731  , -1.46417069 , 0.00614860049, 920.7302    , 29.1158619  , 800.7039    , 0.73        , 3           , 255         , 0           , 0
-9.747454   , -0.0918173641, -1.04594851 , 0.0005383109, -0.006255424, 0.000189905841, 0.0885868147, -1.464234   , 0.006114331 , 920.7302    , 29.1158619  , 800.704041  , 0.74        , 3           , 255         , 0           , 0
-9.732535   , -0.1008034  , -1.03558087 , 6.23861561E-05, -0.009229634, 0.000149436615, 0.08864986  , -1.4643265  , 0.006051453 , 920.7302    , 29.1158619  , 800.704163  , 0.75        , 3           , 255         , 0           , 0
-9.737783   , -0.09047296 , -1.03589916 , 0.0002268125, -0.0109894443, 1.903862E-05, 0.0887414962, -1.46443534 , 0.005961581 , 920.7302    , 29.1158619  , 800.7043    , 0.76        , 3           , 255         , 0           , 0
-9.731265   , -0.08995962 , -1.03847861 , -0.000165858946, -0.0130527746, 0.0003528019, 0.0888153762, -1.46456516 , 0.00588565972, 920.7302    , 29.1158619  , 800.7044    , 0.77        , 3           , 255         , 0           , 0
-9.746664   , -0.0947374552, -1.02724576 , -0.0005272429, -0.008986176, 0.000166089128, 0.08886932  , -1.46465456 , 0.00582608441, 920.7302    , 29.1158619  , 800.7045    , 0.78        , 3           , 255         , 0           , 0
-9.734545   , -0.09201516 , -1.03475845 , -7.36122E-05, -0.008419223, -0.0009934311, 0.08903177  , -1.4647373  , 0.00566202169, 920.7302    , 29.1158619  , 800.704651  , 0.79        , 3           , 255         , 0           , 0
-9.744686   , -0.0860083252, -1.02312613 , 3.61065031E-05, -0.004740349, -0.0004899728, 0.08911762  , -1.464784   , 0.005576007 , 920.7302    , 29.1158619  , 800.7048    , 0.8         , 3           , 255         , 0           , 0
-9.744637   , -0.08657955 , -1.02545011 , -0.000509834848, -0.00495870039, 0.000226046133, 0.08914306  , -1.46483529 , 0.00554548437, 920.7302    , 29.1158619  , 800.670654  , 0.81        , 3           , 255         , 0           , 0
-9.733359   , -0.0784598961, -1.019144   , -0.0005186721, -0.00452420162, 0.000539688743, 0.089125    , -1.46488154 , 0.005558352 , 920.7302    , 29.1158619  , 800.6708    , 0.82        , 3           , 255         , 0           , 0
-9.740392   , -0.09024523 , -1.03048515 , -0.0007496576, -0.00361164333, 0.00017584028, 0.08913124  , -1.46491647 , 0.00554455444, 920.7004    , 29.12034    , 800.6709    , 0.83        , 3           , 255         , 0           , 0
-9.750263   , -0.08614563 , -1.03089786 , -0.00119289034, -0.00354415923, -0.0007072729, 0.08921541  , -1.46495092 , 0.00544795  , 920.7004    , 29.12034    , 800.671     , 0.84        , 3           , 255         , 0           , 0
-9.74317551 , -0.101455048, -1.03092885 , -0.00026934687, -0.00271038548, -0.0008112824, 0.0893115252, -1.46497691 , 0.00534859858, 920.7004    , 29.12034    , 800.671143  , 0.85        , 3           , 255         , 0           , 0
-9.736152   , -0.09182214 , -1.03007185 , -0.000378188852, -0.00308297016, 0.0006654007, 0.089271225 , -1.4650079  , 0.005385251 , 920.7004    , 29.12034    , 800.671265  , 0.86        , 3           , 255         , 0           , 0
-9.742402   , -0.08299495 , -1.02318132 , -0.000127403415, -0.003158602, -0.000968144566, 0.08938735  , -1.46504116 , 0.00526723  , 920.7004    , 29.12034    , 800.6714    , 0.87        , 3           , 255         , 0           , 0
-9.749324   , -0.08685962 , -1.02688825 , 0.000571196666, -0.002647438, -0.000222470087, 0.08943615  , -1.46506548 , 0.005223906 , 920.7004    , 29.12034    , 800.6715    , 0.88        , 3           , 255         , 0           , 0
-9.742803   , -0.09478502 , -1.02942955 , 0.000391378766, -0.00354444 , 0.000237294356, 0.08944758  , -1.46510112 , 0.00521633541, 920.7004    , 29.12034    , 800.671631  , 0.89        , 3           , 255         , 0           , 0
-9.741066   , -0.08648394 , -1.0251615  , 0.000157645554, -0.00206910563, 0.000300787331, 0.08943831  , -1.46512318 , 0.00522721838, 920.7004    , 29.12034    , 800.671753  , 0.9         , 3           , 255         , 0           , 0
-9.739903   , -0.09112187 , -1.02885318 , -0.000493716158, -0.000908722053, 0.0009477491, 0.0892663   , -1.46514237 , 0.00539426552, 920.7004    , 29.12034    , 800.6786    , 0.91        , 3           , 255         , 0           , 0
-9.747185   , -0.083685115, -1.03285146 , -0.0010620876, 0.00128903647, 0.000719385454, 0.08917731  , -1.46512985 , 0.005473046 , 920.7004    , 29.12034    , 800.6787    , 0.92        , 3           , 255         , 0           , 0
-9.748625   , -0.09368765 , -1.023541   , -0.000149966043, 0.00291616  , 0.000207857986, 0.08913188  , -1.46510279 , 0.005517293 , 920.693237  , 29.1246815  , 800.678833  , 0.93        , 3           , 255         , 0           , 0
-9.740233   , -0.09694174 , -1.02804685 , 0.000431429828, 0.00330815464, -0.0006169836, 0.08916632  , -1.46506834 , 0.00548692234, 920.693237  , 29.1246815  , 800.678955  , 0.94        , 3           , 255         , 0           , 0
-9.74468    , -0.08953048 , -1.03630733 , -8.075341E-05, 0.0014684347, 0.000341911742, 0.0891211256, -1.46505368 , 0.0055315746, 920.693237  , 29.1246815  , 800.6791    , 0.95        , 3           , 255         , 0           , 0
-9.734599   , -0.0992632359, -1.03525639 , -0.000387054723, -0.00135178585, -0.000164752273, 0.08914413  , -1.46506608 , 0.00550453039, 920.693237  , 29.1246815  , 800.6792    , 0.96        , 3           , 255         , 0           , 0
-9.732982   , -0.09641651 , -1.02715337 , -0.000166436541, -0.004193054, -0.000125072547, 0.08918942  , -1.46511006 , 0.0054573575, 920.693237  , 29.1246815  , 800.6793    , 0.97        , 3           , 255         , 0           , 0
-9.733173   , -0.09184085 , -1.02872276 , -5.893118E-06, -0.00671812939, 0.0006111886, 0.08918835  , -1.46517563 , 0.00545835542, 920.693237  , 29.1246815  , 800.679443  , 0.98        , 3           , 255         , 0           , 0
-9.743628   , -0.0946861  , -1.03260446 , 2.23711831E-05, -0.006933722, 0.0003632831, 0.08921272  , -1.46524644 , 0.0054341387, 920.693237  , 29.1246815  , 800.679565  , 0.99        , 3           , 255         , 0           , 0
-9.738949   , -0.09498905 , -1.01922011 , -0.00019992172, -0.00493980153, -0.0002878326, 0.08927934  , -1.46529448 , 0.00536512071, 920.693237  , 29.1246815  , 800.6797    , 1           , 3           , 0           , 6.02023649  , 100
-9.745766   , -0.0842032954, -1.01581764 , 0.000316105725, -0.001707981, -0.000124234677, 0.08934249  , -1.4653126  , 0.00530513  , 920.693237  , 29.1246815  , 800.6933    , 1.01        , 3           , 1           , 0           , 0
-9.753012   , -0.09209166 , -1.01551843 , 0.000397337775, 0.00211639516, -0.000178697141, 0.0893454552, -1.46529162 , 0.00530615542, 920.693237  , 29.1246815  , 800.6935    , 1.02        , 3           , 2           , 0           , 0
-9.75149    , -0.09396126 , -1.00974739 , 0.000509127334, 0.00544283725, 0.000140020245, 0.08929137  , -1.46523678 , 0.00536556868, 920.723267  , 29.1271248  , 800.693665  , 1.03        , 3           , 3           , 0           , 0
-9.74967    , -0.09353649 , -1.02515459 , -1.70284184E-05, 0.00733133825, 5.60069166E-05, 0.08922429  , -1.4651649  , 0.005432889 , 920.723267  , 29.1271248  , 800.693848  , 1.04        , 3           , 4           , 0           , 0
-9.746432   , -0.09465329 , -1.03176129 , 0.000204188924, 0.0068504517, 0.000361647544, 0.08913485  , -1.465096   , 0.005524926 , 920.723267  , 29.1271248  , 800.694031  , 1.05        , 3           , 5           , 0           , 0
-9.74060249 , -0.08914353 , -1.03295362 , -0.000499470741, 0.00345653249, 0.0007397948, 0.08903142  , -1.46506214 , 0.00562391337, 920.723267  , 29.1271248  , 800.6942    , 1.06        , 3           , 6           , 0           , 0
-9.72715    , -0.0965034  , -1.036217   , -0.0007212422, 1.6065198E-05, 9.25929344E-05, 0.0890154243, -1.46506214 , 0.005632765 , 920.723267  , 29.1271248  , 800.6944    , 1.07        , 3           , 7           , 0           , 0
-9.735701   , -0.09701179 , -1.036847   , -7.58376E-05, -0.00400852039, 0.0004500183, 0.08900591  , -1.4651016  , 0.00564147625, 920.723267  , 29.1271248  , 800.6946    , 1.08        , 3           , 8           , 5           , 5
-9.744893   , -0.09566909 , -1.02541268 , 0.000345485576, -0.00696205627, -4.8182992E-05, 0.08907237  , -1.46517348 , 0.005578206 , 920.723267  , 29.1271248  , 800.694763  , 1.09        , 3           , 9           , 5           , 0.1
-9.754338   , -0.09281151 , -1.018471   , 0.000130662462, -0.00700840261, 0.0004462547, 0.08909055  , -1.465244   , 0.005561217 , 920.723267  , 29.1271248  , 800.694946  , 1.1         , 3           , 10          , 0.1         , 0.1
-9.757105   , -0.104131833, -1.01937938 , -0.00012072071, -0.004391092, 0.000969767047, 0.0890635252, -1.46529675 , 0.00558749028, 920.723267  , 29.1271248  , 800.6745    , 1.11        , 3           , 11          , 0.009291806 , 0.009291814
-9.754353   , -0.09744106 , -1.01786733 , 0.000144712219, -0.00132622919, 0.0006849517, 0.08901169  , -1.46531141 , 0.0056410837, 920.723267  , 29.1271248  , 800.6746    , 1.12        , 3           , 12          , 0.174642846 , 0
-9.728603   , -0.0944300443, -1.01539874 , 0.000517418142, 0.0008309934, 0.0001363731, 0.08899709  , -1.46530235 , 0.0056609544, 920.7178    , 29.1327553  , 800.674744  , 1.13        , 3           , 13          , 0           , 0
-9.7395525  , -0.09728582 , -1.023274   , 0.000179933908, 0.000471741019, -0.000112413923, 0.08900554  , -1.465299   , 0.005654268 , 920.7178    , 29.1327553  , 800.674866  , 1.14        , 3           , 14          , 0.0007762393, -0.0010380859
-9.737984   , -0.0893379  , -1.01908076 , 4.38850839E-05, -0.001344149, -0.000421715667, 0.0890569538, -1.465312   , 0.005603055 , 920.7178    , 29.1327553  , 800.675     , 1.15        , 3           , 15          , 0           , 0.000423224
-9.745497   , -0.08785487 , -1.020471   , -0.0005224439, -0.0029879983, -0.000407747866, 0.08911515  , -1.46534145 , 0.005539235 , 920.7178    , 29.1327553  , 800.6751    , 1.16        , 3           , 16          , 0           , 1.401298E-45
-9.73702049 , -0.08714177 , -1.019989   , -0.0004080169, -0.00317572686, 0.000459236151, 0.0890945345, -1.46537316 , 0.00555588864, 920.7178    , 29.1327553  , 800.675232  , 1.17        , 3           , 20          , 0           , 0
-9.736369   , -0.0830933452, -1.02674568 , 0.000202927389, -0.00329152984, 7.13972258E-05, 0.0891174152, -1.46540606 , 0.005534873 , 920.7178    , 29.1327553  , 800.675354  , 1.18        , 3           , 21          , 0           , 0
-9.737551   , -0.09785501 , -1.02571428 , -0.000213928171, -0.002806467, -4.019437E-05, 0.0891427   , -1.46543324 , 0.00550725125, 920.7178    , 29.1327553  , 800.675537  , 1.19        , 3           , 22          , 0           , 0
-9.743008   , -0.100483179, -1.01587677 , 9.167619E-05, -0.00116778654, 0.0006429725, 0.08909287  , -1.46544456 , 0.00555830076, 920.7178    , 29.1327553  , 800.6757    , 1.2         , 3           , 40          , 0           , 0
-9.746428   , -0.0838226  , -1.02031159 , 0.000121413847, -0.000196499866, 0.0002946857, 0.08914045  , -1.46546674 , 0.0055124783, 920.7178    , 29.1327553  , 800.663635  , 1.21        , 3           , 41          , 0           , 0
-9.755164   , -0.09001515 , -1.01396656 , -0.000644005, 0.000449023617, 0.00054257107, 0.08907911  , -1.46546268 , 0.00556765264, 920.7178    , 29.1327553  , 800.663757  , 1.22        , 3           , 42          , 0           , 0
-9.748066   , -0.09593358 , -1.01604056 , 9.42177139E-05, 6.164075E-06, 0.000497489353, 0.0890331939, -1.46546328 , 0.00561486976, 920.7159    , 29.1309242  , 800.6639    , 1.23        , 3           , 255         , 0           , 0
-9.73574352 , -0.09915713 , -1.02445793 , -0.000220132642, -0.00128516369, 0.000146049715, 0.08902802  , -1.46547627 , 0.005617818 , 920.7159    , 29.1309242  , 800.664     , 1.24        , 3           , 255         , 0           , 0
-9.740338   , -0.0939008147, -1.02460277 , -0.000403532234, -0.004986181, -0.000240226917, 0.0890885442, -1.46552455 , 0.005552906 , 920.7159    , 29.1309242  , 800.6641    , 1.25        , 3           , 255         , 0           , 0
-9.740646   , -0.0842853859, -1.02744353 , -4.570291E-05, -0.009896624, 0.0002251509, 0.08915025  , -1.46562386 , 0.00549036777, 920.7159    , 29.1309242  , 800.664246  , 1.26        , 3           , 255         , 0           , 0
-9.735704   , -0.08839826 , -1.01417923 , -4.4488057E-05, -0.0137073137, 0.0008463841, 0.08918558  , -1.4657619  , 0.00545440149, 920.7159    , 29.1309242  , 800.664368  , 1.27        , 3           , 255         , 0           , 0
-9.7399025  , -0.08989151 , -1.01305687 , -0.000377554126, -0.0161500331, -0.00041946242, 0.0893581659, -1.465923   , 0.005277098 , 920.7159    , 29.1309242  , 800.6645    , 1.28        , 3           , 255         , 0           , 0
-9.739663   , -0.0805614442, -1.0125736  , -0.000381264224, -0.019245794, -0.000675459043, 0.0895817354, -1.46611214 , 0.005048398 , 920.7159    , 29.1309242  , 800.6646    , 1.29        , 3           , 255         , 0           , 0
-9.74244    , -0.0871301442, -1.00158048 , -0.000143638, -0.0203580521, 0.0004213829, 0.08971394  , -1.466317   , 0.00491407467, 920.7159    , 29.1309242  , 800.664734  , 1.3         , 3           , 255         , 0           , 0
-9.743697   , -0.09613044 , -1.00023961 , -0.000440856675, -0.0182362627, -0.000343144668, 0.08986127  , -1.46651959 , 0.00476104068, 920.7159    , 29.1309242  , 800.656     , 1.31        , 3           , 255         , 0           , 0
-9.75444    , -0.08930251 , -0.9991394  , -0.000456971, -0.0160434041, -0.000220766873, 0.09001555  , -1.466679   , 0.00460134447, 920.7159    , 29.1309242  , 800.6561    , 1.32        , 3           , 255         , 0           , 0
-9.748122   , -0.09616759 , -0.993428051, 5.846494E-06, -0.0162099656, 0.000490083359, 0.0901084   , -1.46684134 , 0.004507996 , 920.706     , 29.1347218  , 800.65625   , 1.33        , 3           , 255         , 0           , 0
-9.743315   , -0.1015846  , -1.005027   , 0.000154831854, -0.0152812395, 0.000152180583, 0.09022744  , -1.46699309 , 0.00438986858, 920.706     , 29.1347218  , 800.6564    , 1.34        , 3           , 255         , 0           , 0
-9.742063   , -0.0818396  , -0.9981888  , 6.80505764E-07, -0.0142071731, -0.000681268168, 0.09041573  , -1.46713412 , 0.00420063874, 920.706     , 29.1347218  , 800.6565    , 1.35        , 3           , 255         , 0           , 0
-9.742378   , -0.0807993561, -0.998018563, -0.000147465267, -0.01624148 , -0.0002405884, 0.0905785263, -1.46729553 , 0.004035536 , 920.706     , 29.1347218  , 800.6566    , 1.36        , 3           , 255         , 0           , 0
-9.732945   , -0.0968914852, -1.00482047 , -0.000179852534, -0.0227681361, 0.000226287608, 0.09075365  , -1.4675231  , 0.00385761354, 920.706     , 29.1347218  , 800.656738  , 1.37        , 3           , 255         , 0           , 0
-9.740754   , -0.08721658 , -1.00390744 , -0.000523062656, -0.0301911086, 0.0004263562, 0.09097199  , -1.46782422 , 0.00363284256, 920.706     , 29.1347218  , 800.65686   , 1.38        , 3           , 255         , 0           , 0
-9.739832   , -0.0894186348, -0.9993992  , 0.00029017363, -0.0403735638, 0.000385811756, 0.0912939757, -1.46822739 , 0.00331206154, 920.706     , 29.1347218  , 800.657     , 1.39        , 3           , 255         , 0           , 0
-9.739401   , -0.0866140351, -0.9982239  , 0.0002814504, -0.04462199 , 0.000464454846, 0.09164858  , -1.46867144 , 0.00295839319, 920.706     , 29.1347218  , 800.6571    , 1.4         , 3           , 255         , 0           , 0
-9.746885   , -0.088762   , -0.9878229  , -0.000457186048, -0.0501617379, 0.0009621708, 0.0920007154, -1.469199   , 0.002599874 , 920.706     , 29.1347218  , 800.6592    , 1.41        , 3           , 255         , 0           , 0
-9.753503   , -0.102544226, -0.96024245 , -0.000585666, -0.0459107049, 0.000729670748, 0.0923389   , -1.46965718 , 0.002254076 , 920.706     , 29.1347218  , 800.6593    , 1.42        , 3           , 255         , 0           , 0
-9.752113   , -0.0882686451, -0.9598633  , -0.000138277363, -0.0421979129, 0.0005511573, 0.0926681757, -1.47007775 , 0.00192170893, 920.7073    , 29.1358089  , 800.6594    , 1.43        , 3           , 255         , 0           , 0
-9.75017    , -0.0835012048, -0.9545442  , -0.000323609536, -0.0376469754, 0.000189541053, 0.09299223  , -1.470452   , 0.001592725 , 920.7073    , 29.1358089  , 800.659546  , 1.44        , 3           , 255         , 0           , 0
-9.738735   , -0.08375569 , -0.961039543, -0.000283525616, -0.0406974554, 7.934371E-05, 0.09335839  , -1.47085917 , 0.001221896 , 920.7073    , 29.1358089  , 800.659668  , 1.45        , 3           , 255         , 0           , 0
-9.744105   , -0.08678489 , -0.9461306  , -0.000512536557, -0.043498937, 0.000425813458, 0.09371682  , -1.47129321 , 0.0008564711, 920.7073    , 29.1358089  , 800.6598    , 1.46        , 3           , 255         , 0           , 0
-9.747725   , -0.0975913554, -0.953056   , 0.0001112257, -0.0409957543, 0.0003134952, 0.09407249  , -1.4717015  , 0.0005002016, 920.7073    , 29.1358089  , 800.6599    , 1.47        , 3           , 255         , 0           , 0
-9.729156   , -0.0986229  , -0.975643158, -8.162606E-05, -0.05089835 , -0.000226399425, 0.09457784  , -1.47220635 , -8.439939E-06, 920.7073    , 29.1358089  , 800.660034  , 1.48        , 3           , 255         , 0           , 0
-9.726249   , -0.086699225, -0.978691459, 0.000248939323, -0.06746037 , -0.0001999992, 0.09524896  , -1.47287726 , -0.0006804192, 920.7073    , 29.1358089  , 800.660156  , 1.49        , 3           , 255         , 0           , 0
-9.724505   , -0.08929043 , -0.965639   , -0.000252719736, -0.09252514 , -0.0003872691, 0.09619044  , -1.47379911 , -0.00162886339, 920.7073    , 29.1358089  , 800.6603    , 1.5         , 3           , 255         , 0           , 0
-9.755775   , -0.09747533 , -0.9236965  , -5.59768523E-05, -0.0965663344, -0.000285847171, 0.0972023159, -1.47479951 , -0.00264591351, 920.7073    , 29.1358089  , 800.6608    , 1.51        , 3           , 255         , 0           , 0
-9.74597    , -0.0900606662, -0.91865176 , -0.0004140014, -0.100188285, -4.411704E-05, 0.0982231945, -1.47579718 , -0.00367554161, 920.7073    , 29.1358089  , 800.66095   , 1.52        , 3           , 255         , 0           , 0
-9.76205349 , -0.09106453 , -0.8905751  , -0.000511228, -0.100004174, 0.00032739903, 0.0992236361, -1.47679138 , -0.00468559656, 920.699768  , 29.13954    , 800.6611    , 1.53        , 3           , 255         , 0           , 0
-9.759657   , -0.09056978 , -0.8687105  , -0.000448564679, -0.08937692 , -8.416042E-05, 0.100176156 , -1.477682   , -0.00564680947, 920.699768  , 29.13954    , 800.6612    , 1.54        , 3           , 255         , 0           , 0
-9.75134    , -0.08578098 , -0.8794239  , -0.0002355405, -0.08761104 , -0.0009350359, 0.101221673 , -1.478554   , -0.00669916766, 920.699768  , 29.13954    , 800.6613    , 1.55        , 3           , 255         , 0           , 0
-9.787584   , -0.09200889 , -0.842128634, -5.65715E-05, -0.0790571943, -0.000126232364, 0.102105767 , -1.479341   , -0.0075876303, 920.699768  , 29.13954    , 800.6615    , 1.56        , 3           , 255         , 0           , 0
-9.756866   , -0.0926342756, -0.875633836, -8.046703E-05, -0.07153712 , 0.000352878327, 0.102867588 , -1.48005056 , -0.008353466, 920.699768  , 29.13954    , 800.6617    , 1.57        , 3           , 255         , 0           , 0
-9.737677   , -0.08719517 , -0.8640391  , 0.0008058227, -0.07971779 , -0.000342028972, 0.10382092  , -1.48084331 , -0.009302618, 920.699768  , 29.13954    , 800.661865  , 1.58        , 3           , 255         , 0           , 0
-9.739674   , -0.09581631 , -0.883989155, 5.2392832E-05, -0.08606926 , -0.0005283241, 0.104878686 , -1.481698   , -0.010364092, 920.699768  , 29.13954    , 800.662048  , 1.59        , 3           , 255         , 0           , 0
-9.749452   , -0.0903702  , -0.853257954, 2.87326984E-05, -0.102420725, -0.0007508289, 0.106177591 , -1.48271728 , -0.0116677769, 920.699768  , 29.13954    , 800.662231  , 1.6         , 3           , 255         , 0           , 0
-9.77061749 , -0.09276321 , -0.820953548, -0.000329158735, -0.09784683 , 9.29058E-05 , 0.107421137 , -1.48374236 , -0.0129188895, 920.699768  , 29.13954    , 800.6708    , 1.61        , 3           , 255         , 0           , 0
-9.78092    , -0.0963269  , -0.8015739  , -0.000655689044, -0.09242361 , 0.000274388673, 0.108530492 , -1.48466241 , -0.0140390191, 920.699768  , 29.13954    , 800.670959  , 1.62        , 3           , 255         , 0           , 0
-9.75803852 , -0.08430821 , -0.8144458  , -1.12439157E-05, -0.0830540359, 1.63781515E-05, 0.109580413 , -1.48548746 , -0.0150929438, 920.689453  , 29.14015    , 800.671143  , 1.63        , 3           , 255         , 0           , 0
-9.761166   , -0.07848393 , -0.7925934  , -0.000225854281, -0.0825634  , 5.87521936E-06, 0.110643707 , -1.48630846 , -0.01616227 , 920.689453  , 29.14015    , 800.6713    , 1.64        , 3           , 255         , 0           , 0
-9.753208   , -0.0858418345, -0.807902038, 6.82809041E-05, -0.07740413 , 0.000132592017, 0.111647025 , -1.48707759 , -0.01716853 , 920.689453  , 29.14015    , 800.6715    , 1.65        , 3           , 255         , 0           , 0
-9.785027   , -0.0869974643, -0.7764603  , 0.000325614878, -0.07605236 , -0.000229105892, 0.112696655 , -1.48783374 , -0.018218562, 920.689453  , 29.14015    , 800.671753  , 1.66        , 3           , 255         , 0           , 0
-9.765353   , -0.089608416, -0.7813275  , -0.0005614846, -0.07000688 , 0.000163126067, 0.113625966 , -1.48853    , -0.019156782, 920.689453  , 29.14015    , 800.672     , 1.67        , 3           , 255         , 0           , 0
-9.769443   , -0.0838805363, -0.758265138, -9.301957E-05, -0.07141213 , 0.000290331984, 0.114580229 , -1.489238   , -0.02011512 , 920.689453  , 29.14015    , 800.672241  , 1.68        , 3           , 255         , 0           , 0
-9.784697   , -0.094431296, -0.7418791  , 1.53726432E-07, -0.0621579662, 0.000283470174, 0.115421668 , -1.48985648 , -0.0209593512, 920.689453  , 29.14015    , 800.6725    , 1.69        , 3           , 255         , 0           , 0
-9.779429   , -0.096682854, -0.7471739  , -0.000271868368, -0.0539156646, -0.000622667, 0.11626631  , -1.49039268 , -0.0218094252, 920.689453  , 29.14015    , 800.6727    , 1.7         , 3           , 255         , 0           , 0
-9.785535   , -0.0985820442, -0.7133084  , 0.000195561908, -0.04072312 , 4.83569456E-05, 0.116881549 , -1.49085116 , -0.0224245973, 920.689453  , 29.14015    , 800.6917    , 1.71        , 3           , 255         , 0           , 0
-9.77709    , -0.08822112 , -0.7395255  , -0.0002273231, -0.02806002 , 0.000790792 , 0.117190793 , -1.49112928 , -0.0227370728, 920.689453  , 29.14015    , 800.692     , 1.72        , 3           , 255         , 0           , 0
-9.773273   , -0.09230851 , -0.7299931  , -0.00031605782, -0.0222462937, 0.000578804465, 0.117442347 , -1.4913528  , -0.0229925681, 920.684937  , 29.1437454  , 800.6923    , 1.73        , 3           , 255         , 0           , 0
-9.766572   , -0.09010467 , -0.740782142, 0.00018098345, -0.0121023683, 0.0002419267, 0.117592432 , -1.49147081 , -0.0231413133, 920.684937  , 29.1437454  , 800.6927    , 1.74        , 3           , 255         , 0           , 0
-9.76648    , -0.0924605  , -0.73424685 , 0.000391505717, -0.008098193, -0.000200196882, 0.117740974 , -1.49155283 , -0.0232863836, 920.684937  , 29.1437454  , 800.693054  , 1.75        , 3           , 255         , 0           , 0
-9.777979   , -0.09318648 , -0.738716   , 0.000459353847, -0.000734556932, -0.000400008925, 0.117806487 , -1.49155736 , -0.0233474672, 920.684937  , 29.1437454  , 800.6934    , 1.76        , 3           , 255         , 0           , 0
-9.755259   , -0.0883628  , -0.7508591  , 9.32203257E-05, -0.00174244633, -0.000501707, 0.117895953 , -1.49157536 , -0.0234363228, 920.684937  , 29.1437454  , 800.6938    , 1.77        , 3           , 255         , 0           , 0
-9.757085   , -0.0943469256, -0.7608634  , -0.000608416856, -0.009817797, -0.00100212311, 0.118161179 , -1.49167192 , -0.0237084273, 920.684937  , 29.1437454  , 800.694153  , 1.78        , 3           , 255         , 0           , 0
-9.757405   , -0.0994123  , -0.756487966, 0.000244074909, -0.017700104, 0.000108029228, 0.118413828 , -1.4918462  , -0.0239593871, 920.684937  , 29.1437454  , 800.6945    , 1.79        , 3           , 255         , 0           , 0
-9.751467   , -0.08793166 , -0.7509235  , 0.000105275481, -0.02390688 , -0.00034644347, 0.1188165   , -1.49208462 , -0.0243623629, 920.684937  , 29.1437454  , 800.6949    , 1.8         , 3           , 255         , 0           , 0
-9.767145   , -0.0888818055, -0.7391988  , 0.0005318631, -0.0264304336, -0.0002950359, 0.119401619 , -1.49241209 , -0.024943104, 920.684937  , 29.1437454  , 800.7169    , 1.81        , 3           , 255         , 0           , 0
-9.777669   , -0.09622811 , -0.741733253, 3.20765539E-05, -0.0265948027, -0.0008316005, 0.119912118 , -1.4926759  , -0.0254547913, 920.684937  , 29.1437454  , 800.7174    , 1.82        , 3           , 255         , 0           , 0
-9.77665    , -0.09592176 , -0.728022456, 0.000272878329, -0.0271098148, -0.000684703235, 0.120417766 , -1.49294519 , -0.0259592086, 920.7422    , 29.1403542  , 800.7179    , 1.83        , 3           , 255         , 0           , 0
-9.774308   , -0.0961977243, -0.7283448  , -8.065649E-05, -0.0237496477, 0.000237125118, 0.12075346  , -1.49318    , -0.02629677 , 920.7422    , 29.1403542  , 800.7184    , 1.84        , 3           , 255         , 0           , 0
-9.776508   , -0.09726666 , -0.716115355, 0.0005386678, -0.0189582389, 0.000240219844, 0.121022649 , -1.49336863 , -0.0265612863, 920.7422    , 29.1403542  , 800.7189    , 1.85        , 3           , 255         , 0           , 0
-9.77223    , -0.09234089 , -0.714313567, 8.664635E-05, -0.0129715241, 0.000138859818, 0.121207774 , -1.49349666 , -0.0267462078, 920.7422    , 29.1403542  , 800.71936   , 1.86        , 3           , 255         , 0           , 0
-9.765048   , -0.09353325 , -0.7186448  , -0.0004503901, -0.0107865008, -6.980408E-06, 0.121372782 , -1.49360561 , -0.0269161612, 920.7422    , 29.1403542  , 800.719849  , 1.87        , 3           , 255         , 0           , 0
-9.756932   , -0.0919433  , -0.728584   , -0.000200727081, -0.0133666312, -0.000272219, 0.121615387 , -1.4937371  , -0.0271614529, 920.7422    , 29.1403542  , 800.720337  , 1.88        , 3           , 255         , 0           , 0
-9.763176   , -0.09061249 , -0.727766633, 0.000221960712, -0.0176243838, 0.000436621456, 0.121838816 , -1.49391377 , -0.0273835212, 920.7422    , 29.1403542  , 800.7208    , 1.89        , 3           , 255         , 0           , 0
-9.767179   , -0.09300499 , -0.723246455, 0.000347002875, -0.0225316882, 0.0003313085, 0.122156166 , -1.49413681 , -0.0276981  , 920.7422    , 29.1403542  , 800.7213    , 1.9         , 3           , 255         , 0           , 0
-9.765291   , -0.09134213 , -0.726462245, -0.0002958297, -0.02961166 , 7.286467E-05, 0.122758038 , -1.49448633 , -0.0283039231, 920.7422    , 29.1403542  , 800.6739    , 1.91        , 3           , 255         , 0           , 0
-9.764586   , -0.08758585 , -0.726920664, -0.000635979057, -0.0355841666, 0.000392947841, 0.123272851 , -1.494839   , -0.0288266856, 920.7422    , 29.1403542  , 800.6741    , 1.92        , 3           , 255         , 0           , 0
-9.756818   , -0.09003088 , -0.7275584  , -0.000610698946, -0.0429978929, 0.000254146958, 0.123932041 , -1.49526513 , -0.02949388 , 920.6981    , 29.14422    , 800.674255  , 1.93        , 3           , 255         , 0           , 0
-9.763485   , -0.0928617343, -0.7103418  , -0.000668586465, -0.0487292223, -0.000851215562, 0.124838784 , -1.495746   , -0.0304098334, 920.6981    , 29.14422    , 800.674438  , 1.94        , 3           , 255         , 0           , 0
-9.763605   , -0.08846649 , -0.705705762, -0.000356385135, -0.0535965972, -7.363429E-05, 0.125738859 , -1.49627817 , -0.0313161165, 920.6981    , 29.14422    , 800.6746    , 1.95        , 3           , 255         , 0           , 0
-9.766653   , -0.09128541 , -0.6837972  , -0.000138339121, -0.0576463863, 9.15828E-05 , 0.126701012 , -1.49685037 , -0.03228229 , 920.6981    , 29.14422    , 800.6748    , 1.96        , 3           , 255         , 0           , 0
-9.774447   , -0.09238401 , -0.6862511  , -0.00036474716, -0.0547205023, 0.000336572848, 0.127592325 , -1.4973954  , -0.03317968 , 920.6981    , 29.14422    , 800.675     , 1.97        , 3           , 255         , 0           , 0
-9.771283   , -0.0845020041, -0.6678478  , -0.000279088039, -0.0498727262, 0.000857375329, 0.128342077 , -1.49788964 , -0.0339341126, 920.6981    , 29.14422    , 800.6752    , 1.98        , 3           , 255         , 0           , 0
-9.762968   , -0.09695086 , -0.675196648, -0.00015086378, -0.047935   , -5.47579548E-05, 0.129193544 , -1.49836659 , -0.0347894877, 920.6981    , 29.14422    , 800.6754    , 1.99        , 3           , 255         , 0           , 0
-9.766056   , -0.0924395546, -0.6827234  , -0.000151732762, -0.05386951 , 0.000460568379, 0.130092189 , -1.49889982 , -0.03569189 , 920.6981    , 29.14422    , 800.675659  , 2           , 3           , 0           , 7.02023649  , 200
-9.780635   , -0.09056135 , -0.6544773  , 6.461132E-05, -0.0556888133, -0.000287725066, 0.131265864 , -1.49953151 , -0.0368672647, 920.6981    , 29.14422    , 800.685364  , 2.01        , 3           , 1           , 0           , 0
-9.795873   , -0.0986354649, -0.631471455, -0.000222741917, -0.04361494 , 0.0002872032, 0.1320281   , -1.49996471 , -0.0376337357, 920.6981    , 29.14422    , 800.685669  , 2.02        , 3           , 2           , 0           , 0
-9.781493   , -0.08587386 , -0.647739232, 0.000205712859, -0.0307811759, 0.000326712936, 0.132557884 , -1.50027192 , -0.0381628573, 920.7034    , 29.1440163  , 800.686     , 2.03        , 3           , 3           , 0           , 0
-9.77939    , -0.09023841 , -0.639726639, -0.000375065341, -0.023830561, 0.0001290467, 0.132983223 , -1.50050926 , -0.03859304 , 920.7034    , 29.1440163  , 800.6863    , 2.04        , 3           , 4           , 0           , 0
-9.798909   , -0.0981642455, -0.6271149  , -0.0005897307, -0.0128191849, -0.000739249866, 0.133323371 , -1.50063407 , -0.0389398448, 920.7034    , 29.1440163  , 800.6866    , 2.05        , 3           , 5           , 0           , 0
-9.786432   , -0.09390726 , -0.639419258, -0.000225933967, -0.00380675821, -0.000123533042, 0.133410528 , -1.500669   , -0.03902957 , 920.7034    , 29.1440163  , 800.6869    , 2.06        , 3           , 6           , 0           , 0
-9.781193   , -0.100979641, -0.64158386 , 0.000150354637, 0.00211626431, 0.0006103661, 0.133285984 , -1.50064945 , -0.0389030576, 920.7034    , 29.1440163  , 800.6872    , 2.07        , 3           , 7           , 0           , 0
-9.773069   , -0.10050799 , -0.6413431  , -0.0002364188, 0.004464939 , 0.0002413798, 0.133165136 , -1.50060606 , -0.0387843475, 920.7034    , 29.1440163  , 800.6875    , 2.08        , 3           , 8           , 5           , 5
-9.77457    , -0.09241544 , -0.6452989  , -0.0005582246, 0.004093597 , -0.0003142829, 0.133126482 , -1.50056446 , -0.03875122 , 920.7034    , 29.1440163  , 800.6878    , 2.09        , 3           , 9           , 5           , 0.1
-9.772932   , -0.0961529538, -0.6526501  , -0.000522006245, 0.00407628249, -0.00015856963, 0.13306661  , -1.50052369 , -0.0386964679, 920.7034    , 29.1440163  , 800.6881    , 2.1         , 3           , 10          , 0.1         , 0.1
-9.762648   , -0.0867866352, -0.656131148, 3.57343233E-05, 0.004898183 , -2.44494877E-05, 0.1331493   , -1.50052869 , -0.0387780853, 920.7034    , 29.1440163  , 800.69      , 2.11        , 3           , 11          , 0.0081767235, 0.008177063
-9.779409   , -0.0855024755, -0.646665931, 6.89443E-05 , 0.006067941 , 0.00105392071, 0.132887334 , -1.50047278 , -0.0385148041, 920.7034    , 29.1440163  , 800.6903    , 2.12        , 3           , 12          , 0.174643889 , 0
-9.774833   , -0.09161637 , -0.6540667  , -4.189153E-05, 0.005355983 , 0.0002594223, 0.132749781 , -1.50041759 , -0.0383773856, 920.6668    , 29.1436787  , 800.6906    , 2.13        , 3           , 13          , 0           , 0
-9.774681   , -0.0972311348, -0.653354049, -2.00927025E-06, 0.00275805872, 0.000397871831, 0.132641956 , -1.50039136 , -0.0382693335, 920.6668    , 29.1436787  , 800.6909    , 2.14        , 3           , 14          , 0.000776228262, -0.00103699428
-9.7811     , -0.08520414 , -0.639098763, 0.000567399431, 0.004090019 , -0.0005609011, 0.132649943 , -1.50034988 , -0.03827165 , 920.6668    , 29.1436787  , 800.6912    , 2.15        , 3           , 15          , 0           , 0.0004232335
-9.774925   , -0.08741324 , -0.637743831, 6.662315E-05, 0.008176579 , -0.0005998761, 0.132581562 , -1.50026941 , -0.0382024534, 920.6668    , 29.1436787  , 800.6915    , 2.16        , 3           , 16          , 0           , 1.401298E-45
-9.775252   , -0.07993438 , -0.6410535  , -6.361777E-05, 0.0106937028, -0.0007277493, 0.13248308  , -1.50016212 , -0.03810431 , 920.6668    , 29.1436787  , 800.691833  , 2.17        , 3           , 20          , 0           , 0
-9.779512   , -0.08212818 , -0.642663836, -0.000298961619, 0.011825325 , -0.000442001445, 0.132321581 , -1.50004482 , -0.0379454046, 920.6668    , 29.1436787  , 800.692139  , 2.18        , 3           , 21          , 0           , 0
-9.77955151 , -0.08978297 , -0.6529362  , 9.576784E-05, 0.0133185815, -7.468014E-05, 0.132085383 , -1.49991083 , -0.0377076454, 920.6668    , 29.1436787  , 800.692444  , 2.19        , 3           , 22          , 0           , 0
-9.778875   , -0.0902169943, -0.6495757  , 0.0007219232, 0.0153744565, 0.0004392272, 0.131746754 , -1.49975955 , -0.0373609774, 920.6668    , 29.1436787  , 800.692749  , 2.2         , 3           , 40          , 0           , 0
-9.769373   , -0.0920320451, -0.6485256  , 0.0005824994, 0.0172117576, 1.92254083E-05, 0.131463051 , -1.499658   , -0.0370705053, 920.6668    , 29.1436787  , 800.7406    , 2.21        , 3           , 41          , 0           , 0
-9.766588   , -0.09838194 , -0.650608242, -0.0006034589, 0.0173128955, -0.000124614628, 0.131156772 , -1.49948466 , -0.036769364, 920.6668    , 29.1436787  , 800.7412    , 2.22        , 3           , 42          , 0           , 0
-9.772314   , -0.09757104 , -0.658563256, -0.0003532842, 0.0156734716, 0.000479902548, 0.130800262 , -1.49932921 , -0.03641564 , 920.655945  , 29.14992    , 800.7418    , 2.23        , 3           , 255         , 0           , 0
-9.775305   , -0.08765686 , -0.663199067, -4.87963553E-05, 0.013380805 , -0.000107244006, 0.130571291 , -1.49919665 , -0.0361864641, 920.655945  , 29.14992    , 800.742432  , 2.24        , 3           , 255         , 0           , 0
-9.761245   , -0.09354224 , -0.6690623  , 9.646156E-05, 0.0115283458, 6.0371065E-05, 0.130354986 , -1.4990834  , -0.0359686464, 920.655945  , 29.14992    , 800.743042  , 2.25        , 3           , 255         , 0           , 0
-9.769392   , -0.0974071845, -0.6644233  , -0.000116673007, 0.0104587348, 7.67447636E-05, 0.130154356 , -1.49898028 , -0.03576871 , 920.655945  , 29.14992    , 800.743652  , 2.26        , 3           , 255         , 0           , 0
-9.765398   , -0.09004383 , -0.6639906  , -0.0003409011, 0.008644498 , 0.000196193112, 0.129968092 , -1.498894   , -0.0355854519, 920.655945  , 29.14992    , 800.744263  , 2.27        , 3           , 255         , 0           , 0
-9.780715   , -0.09276947 , -0.665035546, -0.000378965051, 0.00665515754, 5.4125383E-05, 0.12983726  , -1.49883091 , -0.0354580544, 920.655945  , 29.14992    , 800.744934  , 2.28        , 3           , 255         , 0           , 0
-9.777068   , -0.08816169 , -0.6625639  , -0.000449344574, 0.005844086 , 0.0003855928, 0.129674941 , -1.49877214 , -0.0352997221, 920.655945  , 29.14992    , 800.7456    , 2.29        , 3           , 255         , 0           , 0
-9.776663   , -0.0940879956, -0.6725737  , -0.000139343378, 0.0064134025, -0.0002121869, 0.129587814 , -1.49871    , -0.0352137275, 920.655945  , 29.14992    , 800.7463    , 2.3         , 3           , 255         , 0           , 0
-9.771273   , -0.10030441 , -0.6663755  , 0.000209385413, 0.00462545967, 0.00102452759, 0.129564166 , -1.49873734 , -0.035187114, 920.655945  , 29.14992    , 800.8023    , 2.31        , 3           , 255         , 0           , 0
-9.778216   , -0.08369054 , -0.667847335, -3.63887521E-05, 0.00320100924, 0.0008292595, 0.129392743 , -1.49870753 , -0.0350154452, 920.655945  , 29.14992    , 800.8033    , 2.32        , 3           , 255         , 0           , 0
-9.772302   , -0.0850613  , -0.658760369, -0.000217570865, 0.004145434 , 0.000194839115, 0.129289672 , -1.49866617 , -0.03491435 , 920.7186    , 29.1468     , 800.80426   , 2.33        , 3           , 255         , 0           , 0
-9.780856   , -0.09416698 , -0.6547258  , 0.0001387294, 0.00877191  , 0.000413004862, 0.12907812  , -1.49858022 , -0.0347008519, 920.7186    , 29.1468     , 800.8053    , 2.34        , 3           , 255         , 0           , 0
-9.769257   , -0.08895723 , -0.660931468, 0.0002772496, 0.0104456367, 0.0002730446, 0.128858075 , -1.498477   , -0.0344774053, 920.7186    , 29.1468     , 800.806335  , 2.35        , 3           , 255         , 0           , 0
-9.75955    , -0.09020098 , -0.674968243, -0.000330636132, 0.00715803262, 0.000463781675, 0.128664285 , -1.49840689 , -0.0342864953, 920.7186    , 29.1468     , 800.8074    , 2.36        , 3           , 255         , 0           , 0
-9.775747   , -0.0854324549, -0.669269264, 1.99773931E-05, 0.001035218 , -9.53988347E-05, 0.128659368 , -1.49839616 , -0.03428127 , 920.7186    , 29.1468     , 800.8084    , 2.37        , 3           , 255         , 0           , 0
-9.770023   , -0.09226357 , -0.67104435 , 0.0003722168, -0.00145064364, 0.0005229784, 0.128617018 , -1.49841273 , -0.0342353061, 920.7186    , 29.1468     , 800.809448  , 2.38        , 3           , 255         , 0           , 0
-9.76699    , -0.0880064741, -0.6612696  , 0.000383323058, -0.00406177668, 0.000423114485, 0.128634974 , -1.49845314 , -0.0342492834, 920.7186    , 29.1468     , 800.8105    , 2.39        , 3           , 255         , 0           , 0
-9.778908   , -0.0800071657, -0.6608516  , -7.828756E-06, -0.003553046, 0.0004977307, 0.128629521 , -1.49848855 , -0.0342438743, 920.7186    , 29.1468     , 800.8115    , 2.4         , 3           , 255         , 0           , 0
-9.777639   , -0.08214335 , -0.6522005  , -0.000725616352, -0.00161919417, -0.0003619262, 0.128775552 , -1.49857938 , -0.03439717 , 920.7186    , 29.1468     , 800.777     , 2.41        , 3           , 255         , 0           , 0
-9.785171   , -0.09877508 , -0.6485928  , -0.0006525464, 0.0003826266, -0.0005413759, 0.128836438 , -1.498576   , -0.0344648324, 920.7186    , 29.1468     , 800.7778    , 2.42        , 3           , 255         , 0           , 0
-9.781935   , -0.09026552 , -0.654306233, -4.78953E-05, 0.004736634 , 7.50881445E-05, 0.128741652 , -1.498529   , -0.0343702435, 920.696     , 29.1516151  , 800.778564  , 2.43        , 3           , 255         , 0           , 0
-9.7834425  , -0.08534454 , -0.6615015  , -8.093449E-05, 0.00708430074, 3.71550268E-05, 0.1286103   , -1.498458   , -0.03423945 , 920.696     , 29.1516151  , 800.779358  , 2.44        , 3           , 255         , 0           , 0
-9.770059   , -0.09297218 , -0.6699866  , -0.000250440033, 0.00575293  , -0.0001651505, 0.128528923 , -1.49840367 , -0.0341602  , 920.696     , 29.1516151  , 800.780151  , 2.45        , 3           , 255         , 0           , 0
-9.767833   , -0.0839141756, -0.6630799  , 3.33119533E-05, 0.00392423756, -0.0002600134, 0.128495172 , -1.49836242 , -0.0341261625, 920.696     , 29.1516151  , 800.780945  , 2.46        , 3           , 255         , 0           , 0
-9.775918   , -0.0886021256, -0.6559901  , -4.029012E-05, 0.0041010743, -0.000537948, 0.1284959   , -1.49832046 , -0.0341273025, 920.696     , 29.1516151  , 800.781738  , 2.47        , 3           , 255         , 0           , 0
-9.77133    , -0.09346269 , -0.658390045, -0.0003470661, 0.005415629 , 0.000102304417, 0.128382847 , -1.49826944 , -0.034017548, 920.696     , 29.1516151  , 800.782532  , 2.48        , 3           , 255         , 0           , 0
-9.778453   , -0.09315264 , -0.6674204  , -0.00055967056, 0.00460347347, 0.000149916887, 0.128275722 , -1.49822259 , -0.03391558 , 920.696     , 29.1516151  , 800.7833    , 2.49        , 3           , 255         , 0           , 0
-9.783331   , -0.09372276 , -0.663656056, -0.000677498756, 0.004478212 , -0.0002658207, 0.128226325 , -1.49817741 , -0.0338729024, 920.696     , 29.1516151  , 800.7841    , 2.5         , 3           , 255         , 0           , 0
-9.778875   , -0.0828084052, -0.663403   , 0.000154894078, 0.00668590842, -0.000370399648, 0.128265589 , -1.49817657 , -0.0339101  , 920.696     , 29.1516151  , 800.7829    , 2.51        , 3           , 255         , 0           , 0
-9.777098   , -0.09461531 , -0.6607934  , 0.0003549229, 0.009555167 , -0.0003179975, 0.128144532 , -1.498083   , -0.03378521 , 920.696     , 29.1516151  , 800.7837    , 2.52        , 3           , 255         , 0           , 0
-9.764087   , -0.09577304 , -0.6614045  , 0.0003724505, 0.009939025 , -0.000272623845, 0.128011242 , -1.497983   , -0.03364788 , 920.708069  , 29.15236    , 800.7845    , 2.53        , 3           , 255         , 0           , 0
-9.780729   , -0.09674965 , -0.6638732  , -0.000236327352, 0.0103674792, -0.0005942753, 0.1279084   , -1.49787974 , -0.033547096, 920.708069  , 29.15236    , 800.7853    , 2.54        , 3           , 255         , 0           , 0
-9.778622   , -0.0940062  , -0.6681835  , -0.000223175855, 0.0100878906, -0.0005599604, 0.127806261 , -1.49777842 , -0.0334468335, 920.708069  , 29.15236    , 800.7861    , 2.55        , 3           , 255         , 0           , 0
-9.778142   , -0.09326188 , -0.6771019  , 0.000238555309, 0.009637523 , -0.000341813546, 0.127687171 , -1.49768364 , -0.0333251469, 920.708069  , 29.15236    , 800.786865  , 2.56        , 3           , 255         , 0           , 0
-9.768561   , -0.09377783 , -0.6663316  , 0.000269452285, 0.00761299  , -0.000153712521, 0.127578527 , -1.49760866 , -0.0332135037, 920.708069  , 29.15236    , 800.787659  , 2.57        , 3           , 255         , 0           , 0
-9.771119   , -0.08390226 , -0.6613623  , -0.000103197526, 0.007235627 , 8.824901E-05, 0.127440244 , -1.49753618 , -0.03307579 , 920.708069  , 29.15236    , 800.788452  , 2.58        , 3           , 255         , 0           , 0
-9.778331   , -0.09303182 , -0.6629982  , 0.000277868879, 0.010951587 , -0.000311541546, 0.127295569 , -1.49742794 , -0.0329279937, 920.708069  , 29.15236    , 800.789246  , 2.59        , 3           , 255         , 0           , 0
-9.778519   , -0.100741386, -0.66505754 , 7.916259E-05, 0.0144890761, 0.000103135506, 0.127032757 , -1.49728167 , -0.0326637067, 920.708069  , 29.15236    , 800.790039  , 2.6         , 3           , 255         , 0           , 0
-9.784697   , -0.09845486 , -0.6678617  , 5.07553341E-06, 0.01695029  , 0.000344066822, 0.126860186 , -1.49718761 , -0.032489676, 920.708069  , 29.15236    , 800.771545  , 2.61        , 3           , 255         , 0           , 0
-9.777723   , -0.1001827  , -0.6739586  , 0.000226361153, 0.0186556466, -0.000269116019, 0.126579151 , -1.49700224 , -0.0322056562, 920.708069  , 29.15236    , 800.7722    , 2.62        , 3           , 255         , 0           , 0
-9.79013252 , -0.09606971 , -0.655542552, 0.000515766849, 0.02223548  , -1.83228985E-05, 0.126208425 , -1.49678028 , -0.03182884 , 920.69104   , 29.1554146  , 800.772949  , 2.63        , 3           , 255         , 0           , 0
-9.763317   , -0.091070585, -0.687224   , -0.000360786973, 0.0241963118, -2.45952979E-05, 0.125798836 , -1.49654043 , -0.0314216353, 920.69104   , 29.1554146  , 800.7737    , 2.64        , 3           , 255         , 0           , 0
-9.770887   , -0.09614039 , -0.6751566  , -0.000139115145, 0.020445589 , -0.00022396876, 0.125483289 , -1.4963398  , -0.0311066154, 920.69104   , 29.1554146  , 800.7744    , 2.65        , 3           , 255         , 0           , 0
-9.766756   , -0.0824544057, -0.693514943, -6.383809E-06, 0.01745364  , -0.0003734565, 0.125240773 , -1.49616373 , -0.0308634676, 920.69104   , 29.1554146  , 800.775146  , 2.66        , 3           , 255         , 0           , 0
-9.763341   , -0.08900597 , -0.696640134, 6.414094E-05, 0.0109309461, -7.885409E-05, 0.125069484 , -1.49605513 , -0.0306910574, 920.69104   , 29.1554146  , 800.7759    , 2.67        , 3           , 255         , 0           , 0
-9.769413   , -0.0901106  , -0.6867793  , -3.896153E-05, 0.00602247054, 0.0008613607, 0.124854848 , -1.4959985  , -0.0304761864, 920.69104   , 29.1554146  , 800.7766    , 2.68        , 3           , 255         , 0           , 0
-9.765635   , -0.0856016055, -0.698987   , 9.824347E-06, 0.00142117077, 0.000383352046, 0.124780513 , -1.49598253 , -0.0304015875, 920.69104   , 29.1554146  , 800.777344  , 2.69        , 3           , 255         , 0           , 0
-9.782354   , -0.08497215 , -0.6875538  , 0.000339410559, -0.0015348295, 0.000299261825, 0.124769777 , -1.4959985  , -0.0303873755, 920.69104   , 29.1554146  , 800.7781    , 2.7         , 3           , 255         , 0           , 0
-9.772779   , -0.0948104262, -0.6807976  , 0.000106361287, -0.004294203, -0.0004885186, 0.125025854 , -1.49610865 , -0.0306424331, 920.69104   , 29.1554146  , 800.784363  , 2.71        , 3           , 255         , 0           , 0
-9.777061   , -0.0886742  , -0.675032735, -7.646857E-06, -0.00465887273, 0.000334658485, 0.125058949 , -1.496155   , -0.0306758024, 920.69104   , 29.1554146  , 800.7851    , 2.72        , 3           , 255         , 0           , 0
-9.782173   , -0.08527825 , -0.674641252, -0.000415284041, -0.00244614528, -0.000187250916, 0.1251207   , -1.49617815 , -0.0307417531, 920.747     , 29.1560249  , 800.7858    , 2.73        , 3           , 255         , 0           , 0
-9.773485   , -0.07818248 , -0.677454   , -0.0006253642, -0.00170275534, 0.000256857777, 0.125108734 , -1.496195   , -0.0307361428, 920.747     , 29.1560249  , 800.78656   , 2.74        , 3           , 255         , 0           , 0
-9.773268   , -0.0799383  , -0.6733147  , -0.000295932521, -0.0009206607, -4.095363E-05, 0.125126585 , -1.49620533 , -0.0307569169, 920.747     , 29.1560249  , 800.7873    , 2.75        , 3           , 255         , 0           , 0
-9.77801    , -0.09420887 , -0.6687615  , -0.0005925241, 0.00191833125, -0.0008734397, 0.125204623 , -1.49618542 , -0.0308412034, 920.747     , 29.1560249  , 800.7881    , 2.76        , 3           , 255         , 0           , 0
-9.766968   , -0.0784278437, -0.6728814  , -0.000611645053, 0.00509720528, -0.0005722621, 0.125189185 , -1.49613345 , -0.03083193 , 920.747     , 29.1560249  , 800.7889    , 2.77        , 3           , 255         , 0           , 0
-9.772484   , -0.09133167 , -0.6733031  , 0.0002494161, 0.007876605 , 0.000104750681, 0.125046521 , -1.49605751 , -0.03068621 , 920.747     , 29.1560249  , 800.7897    , 2.78        , 3           , 255         , 0           , 0
-9.778231   , -0.08540701 , -0.673573732, -0.0001310868, 0.010084183 , 9.929744E-05, 0.12486437  , -1.49595618 , -0.03050487 , 920.747     , 29.1560249  , 800.790466  , 2.79        , 3           , 255         , 0           , 0
-9.769926   , -0.08303792 , -0.682712734, -0.000146408682, 0.0113651343, 0.000346271729, 0.124628633 , -1.49584317 , -0.0302699246, 920.747     , 29.1560249  , 800.79126   , 2.8         , 3           , 255         , 0           , 0
-9.761972   , -0.08124817 , -0.690533   , 0.0002444549, 0.01133223  , -0.000211629464, 0.12449266  , -1.49581289 , -0.03013097 , 920.747     , 29.1560249  , 800.718262  , 2.81        , 3           , 255         , 0           , 0
-9.76888    , -0.08713664 , -0.70401746 , -4.03363956E-05, 0.009383885 , -0.00015312148, 0.124357507 , -1.49571991 , -0.0299960244, 920.747     , 29.1560249  , 800.718567  , 2.82        , 3           , 255         , 0           , 0
-9.76331    , -0.08847715 , -0.691826642, -0.000225437339, 0.00626636855, 7.534723E-05, 0.12424203  , -1.49565625 , -0.0298824348, 920.664368  , 29.1551437  , 800.7189    , 2.83        , 3           , 255         , 0           , 0
-9.770439   , -0.09183371 , -0.68107605 , -0.0006749451, 0.004374791 , 0.000259397581, 0.124129154 , -1.49561262 , -0.0297760572, 920.664368  , 29.1551437  , 800.7192    , 2.84        , 3           , 255         , 0           , 0
-9.770736   , -0.0878958851, -0.679933667, 0.000203513715, 0.0025574048, 0.000353033916, 0.124042682 , -1.49559116 , -0.0296872649, 920.664368  , 29.1551437  , 800.7195    , 2.85        , 3           , 255         , 0           , 0
-9.769813   , -0.09067637 , -0.6831191  , -0.0003253264, 0.00200668769, 0.000559895649, 0.123932831 , -1.49556983 , -0.0295803715, 920.664368  , 29.1551437  , 800.7198    , 2.86        , 3           , 255         , 0           , 0
-9.774057   , -0.09037216 , -0.6706773  , -0.0009349744, 0.003464324 , -0.00012693723, 0.123883523 , -1.49553418 , -0.02954019 , 920.664368  , 29.1551437  , 800.7201    , 2.87        , 3           , 255         , 0           , 0
-9.760603   , -0.09429829 , -0.6803626  , 9.868038E-05, 0.00932162348, 8.88458453E-06, 0.1237307   , -1.495443   , -0.0293861087, 920.664368  , 29.1551437  , 800.7204    , 2.88        , 3           , 255         , 0           , 0
-9.75828    , -0.09197352 , -0.679991961, 0.000577067432, 0.010153519 , 0.00011324833, 0.123556122 , -1.49534416 , -0.0292050373, 920.664368  , 29.1551437  , 800.7207    , 2.89        , 3           , 255         , 0           , 0
-9.775371   , -0.105227292, -0.6781928  , 0.0006045886, 0.012287993 , 0.0002964333, 0.123323232 , -1.49522161 , -0.028965544, 920.664368  , 29.1551437  , 800.721     , 2.9         , 3           , 255         , 0           , 0
-9.776665   , -0.0858016759, -0.6795986  , 0.00012818363, 0.0149799688, -0.000152992638, 0.123285182 , -1.49518847 , -0.0289250221, 920.664368  , 29.1551437  , 800.772644  , 2.91        , 3           , 255         , 0           , 0
-9.770331   , -0.08796448 , -0.682461858, -8.004112E-05, 0.0167451333, 7.466576E-05, 0.123003431 , -1.49501979 , -0.0286432337, 920.664368  , 29.1551437  , 800.7733    , 2.92        , 3           , 255         , 0           , 0
-9.766721   , -0.09887551 , -0.6895356  , -0.000152959779, 0.01727637  , 0.000143678859, 0.122704655 , -1.49484921 , -0.0283452142, 920.7021    , 29.1573143  , 800.774     , 2.93        , 3           , 255         , 0           , 0
-9.766091   , -0.0899572149, -0.6962821  , -7.155002E-05, 0.01676632  , -0.000281365326, 0.122471608 , -1.49468362 , -0.0281121843, 920.7021    , 29.1573143  , 800.774658  , 2.94        , 3           , 255         , 0           , 0
-9.75824451 , -0.0836960748, -0.7090538  , 0.000225003459, 0.0132039767, -8.422855E-05, 0.122273587 , -1.494552   , -0.0279113669, 920.7021    , 29.1573143  , 800.7753    , 2.95        , 3           , 255         , 0           , 0
-9.760968   , -0.09081865 , -0.6997899  , 0.0004801154, 0.00689974846, -0.001065657, 0.122306712 , -1.49448323 , -0.0279396661, 920.7021    , 29.1573143  , 800.776     , 2.96        , 3           , 255         , 0           , 0
-9.775248   , -0.0891171545, -0.6932102  , 0.000378561672, 0.0021234462, 0.000285744027, 0.122239411 , -1.49446285 , -0.0278684441, 920.7021    , 29.1573143  , 800.7767    , 2.97        , 3           , 255         , 0           , 0
-9.770248   , -0.09284363 , -0.68682003 , -7.646717E-05, -0.0003812383, 0.000481028983, 0.122182421 , -1.494466   , -0.0278120376, 920.7021    , 29.1573143  , 800.777344  , 2.98        , 3           , 255         , 0           , 0
-9.762536   , -0.0927265137, -0.694847465, 8.035201E-05, -0.0007049991, 0.0001942477, 0.122169323 , -1.49447381 , -0.0277980622, 920.7021    , 29.1573143  , 800.778     , 2.99        , 3           , 255         , 0           , 0
-9.76330948 , -0.0834083557, -0.6979478  , -9.360828E-05, -0.002044497, -0.0008495516, 0.12231119  , -1.49449253 , -0.0279413648, 920.7021    , 29.1573143  , 800.7787    , 3           , 3           , 0           , 8.020237    , 300
-9.765612   , -0.09426146 , -0.6911082  , -0.000216764223, -0.00271150284, 0.000475850131, 0.122424789 , -1.494631   , -0.0280565415, 920.7021    , 29.1573143  , 800.7696    , 3.01        , 3           , 1           , 0           , 0
-9.768083   , -0.09023221 , -0.6902017  , 0.000446103921, -0.00223346055, 7.84668955E-05, 0.122454695 , -1.49465382 , -0.0280820988, 920.7021    , 29.1573143  , 800.7702    , 3.02        , 3           , 2           , 0           , 0
-9.775451   , -0.08956109 , -0.6855739  , 0.000189092825, -0.002001579, -3.525708E-05, 0.122493275 , -1.49467337 , -0.02811896 , 920.667053  , 29.15867    , 800.7708    , 3.03        , 3           , 3           , 0           , 0
-9.76944351 , -0.09143275 , -0.676897   , 4.26169136E-05, -0.001305771, -0.000228962948, 0.122544356 , -1.49468517 , -0.0281698  , 920.667053  , 29.15867    , 800.7714    , 3.04        , 3           , 4           , 0           , 0
-9.776954   , -0.0802190751, -0.6827265  , -0.000188187638, -0.00067866547, -0.000112267619, 0.122567922 , -1.494693   , -0.0281953346, 920.667053  , 29.15867    , 800.772034  , 3.05        , 3           , 5           , 0           , 0
-9.771765   , -0.09188384 , -0.675554335, -0.000734736, 0.00150311273, 0.000397174852, 0.122484945 , -1.49467885 , -0.02811933 , 920.667053  , 29.15867    , 800.772644  , 3.06        , 3           , 6           , 0           , 0
-9.770908   , -0.0954536051, -0.683460653, 0.000438069867, 0.00148404588, 0.000230731617, 0.122435533 , -1.49466479 , -0.0280654132, 920.667053  , 29.15867    , 800.773254  , 3.07        , 3           , 7           , 0           , 0
-9.782874   , -0.09561404 , -0.6743822  , -3.49213369E-05, 0.00352839334, -0.000162408745, 0.12240003  , -1.4946295  , -0.0280301124, 920.667053  , 29.15867    , 800.773865  , 3.08        , 3           , 8           , 5           , 5
-9.775777   , -0.08633582 , -0.6815158  , -0.000134213071, 0.00578008173, -0.0001804344, 0.122329615 , -1.4945724  , -0.0279608741, 920.667053  , 29.15867    , 800.7745    , 3.09        , 3           , 9           , 5           , 0.1
-9.767677   , -0.08937465 , -0.691222966, -0.000322646578, 0.007980003 , 0.0005376833, 0.122129329 , -1.49449337 , -0.0277632158, 920.667053  , 29.15867    , 800.7751    , 3.1         , 3           , 10          , 0.1         , 0.1
-9.777438   , -0.08586984 , -0.691581368, 0.000385432446, 0.007861059 , 0.0007148348, 0.122051254 , -1.494509   , -0.0276802424, 920.667053  , 29.15867    , 800.815735  , 3.11        , 3           , 11          , 0.00747099845, 0.007471273
-9.783457   , -0.09152687 , -0.6911507  , 0.000176849891, 0.00661785062, 0.000402550766, 0.121895522 , -1.49444568 , -0.0275222585, 920.667053  , 29.15867    , 800.8166    , 3.12        , 3           , 12          , 0.174645633 , 0
-9.778443   , -0.088767156, -0.693108559, -0.000540644047, 0.005380388 , -0.0005369199, 0.121874213 , -1.49438941 , -0.0275063682, 920.6966    , 29.1604347  , 800.817444  , 3.13        , 3           , 13          , 0           , 0
-9.765981   , -0.08711275 , -0.696518064, -0.0003881728, 0.00178971211, -0.0004333411, 0.12189804  , -1.49437141 , -0.027534252, 920.6966    , 29.1604347  , 800.8183    , 3.14        , 3           , 14          , 0.000776203058, -0.0010336329
-9.773608   , -0.087963365, -0.684404552, 0.000537882268, -0.0004785217, -0.0006551598, 0.121996015 , -1.49437463 , -0.0276270546, 920.6966    , 29.1604347  , 800.819153  , 3.15        , 3           , 15          , 0           , 0.000423159654
-9.769013   , -0.09428058 , -0.6835931  , 0.000222523522, 0.0007287459, -0.000181875541, 0.122010425 , -1.49436831 , -0.0276391916, 920.6966    , 29.1604347  , 800.82      , 3.16        , 3           , 16          , 0           , 1.401298E-45
-9.767923   , -0.092863515, -0.693942368, -0.0003039338, 0.001333504 , 4.69755323E-05, 0.12198     , -1.4943558  , -0.0276117884, 920.6966    , 29.1604347  , 800.820862  , 3.17        , 3           , 20          , 0           , 0
-9.769739   , -0.0933508947, -0.684053838, -0.0001718158, 0.0009254612, 0.000195248023, 0.121938214 , -1.49434721 , -0.0275716521, 920.6966    , 29.1604347  , 800.8217    , 3.18        , 3           , 21          , 0           , 0
-9.777464   , -0.0953903049, -0.6811029  , -0.000151388464, 0.001823997 , 0.0005683688, 0.121834    , -1.49432933 , -0.0274686329, 920.6966    , 29.1604347  , 800.8226    , 3.19        , 3           , 22          , 0           , 0
-9.773837   , -0.0892752  , -0.6794643  , -0.00055061 , 0.003324707 , 0.0009113902, 0.121657595 , -1.49429655 , -0.02729733 , 920.6966    , 29.1604347  , 800.8235    , 3.2         , 3           , 40          , 0           , 0
-9.77321148 , -0.0964812562, -0.690685   , -0.0004810596, 0.004483422 , 0.000555020932, 0.121633545 , -1.49433482 , -0.0272771548, 920.6966    , 29.1604347  , 800.815369  , 3.21        , 3           , 41          , 0           , 0
-9.771692   , -0.09175662 , -0.6916452  , 0.000109452405, 0.003100101 , -0.0005195201, 0.121652849 , -1.4943043  , -0.0272954311, 920.6966    , 29.1604347  , 800.8162    , 3.22        , 3           , 42          , 0           , 0
-9.769449   , -0.09706078 , -0.6874997  , -0.0003304813, 0.00413315743, 0.0005838584, 0.1215085   , -1.494263   , -0.02715415 , 920.748352  , 29.16308    , 800.8171    , 3.23        , 3           , 255         , 0           , 0
