Acc X       , Acc Y       , Acc Z       , Gyro X      , Gyro Y      , Gyro Z      , Euler X     , Euler Y     , Euler Z     , Pres X      , Pres Y      , Pres Z      , Time        , Status      , LowRate X   , LowRate Y   , LowRate Z    
-0.162901774, -9.786542   , -0.0879132748, 0           , 0           , 0           , 1.56181347  , -0.01664328 , 2.53588724  , 918.592468  , 30.97453    , 819.7083    , 0           , 2           , 0           , 6.13523149  , 0
-0.1571534  , -9.788727   , -0.0862136  , -0.000233054016, -6.75969641E-05, -0.0004285438, 1.56181121  , -0.0166388676, 2.53588629  , 918.592468  , 30.97453    , 819.7083    , 0.01        , 7           , 1           , 0           , 0
-0.166150957, -9.797302   , -0.09564785 , 0.0005797342, 0.00061934063, -5.51642734E-06, 1.56181681  , -0.0166387483, 2.53589249  , 918.592468  , 30.97453    , 819.7083    , 0.02        , 7           , 2           , 0           , 0
-0.167356938, -9.798845   , -0.08749106 , 0.000235235231, 0.000385330233, -0.000215548047, 1.5618192   , -0.0166365728, 2.5358963   , 918.570557  , 30.5311832  , 819.7083    , 0.03        , 7           , 3           , 0           , 0
-0.158843592, -9.798951   , -0.0949821  , -0.0002524697, 0.000311601034, 0.000104077422, 1.56181657  , -0.0166375861, 2.53589964  , 918.570557  , 30.5311832  , 819.7083    , 0.04        , 7           , 4           , 0           , 0
-0.1626674  , -9.787774   , -0.09089874 , 0.00021140452, -0.000112815, 0.000479765964, 1.56181872  , -0.016642414, 2.53589845  , 918.570557  , 30.5311832  , 819.7083    , 0.05        , 7           , 5           , 0           , 0
-0.1624716  , -9.794935   , -0.08812696 , 0.000430534681, -0.000407809974, 0.000226317352, 1.56182325  , -0.01664471 , 2.53589439  , 918.570557  , 30.5311832  , 819.7083    , 0.06        , 7           , 6           , 0           , 0
-0.157645792, -9.803955   , -0.09254281 , -0.000202277239, -0.000118940428, -0.000342536485, 1.56182122  , -0.0166412815, 2.535893    , 918.570557  , 30.5311832  , 819.7083    , 0.07        , 7           , 7           , 0           , 0
-0.159228191, -9.802765   , -0.09331677 , -7.267304E-05, 0.000133058 , 0.000346758316, 1.56182051  , -0.01664474 , 2.53589439  , 918.570557  , 30.5311832  , 819.7083    , 0.08        , 7           , 8           , 5           , 5
-0.167161658, -9.803125   , -0.08441602 , 0.000132349029, 4.72642132E-05, 0.000365203625, 1.56182182  , -0.0166483764, 2.53589487  , 918.570557  , 30.5311832  , 819.7083    , 0.09        , 7           , 9           , 5           , 0.1
-0.164930657, -9.801675   , -0.0839726552, 0.000354850723, 1.4580437E-06, -0.00036472216, 1.56182528  , -0.01664474 , 2.53589487  , 918.570557  , 30.5311832  , 819.7083    , 0.1         , 7           , 10          , 0.1         , 0.1
-0.158178121, -9.806226   , -0.08267979 , 0.0006398995, 0.000237067637, -0.0006798977, 1.56182611  , -0.0166358277, 2.53589725  , 918.570557  , 30.5311832  , 819.9067    , 0.11        , 7           , 11          , 0.0109544508, 0.0109544508
-0.165065438, -9.799404   , -0.08547266 , -0.0004047008, 0.0003131157, -0.000422784418, 1.561822    , -0.0166315958, 2.53590035  , 918.570557  , 30.5311832  , 819.9067    , 0.12        , 7           , 12          , 0.0346410163, 0
-0.157802731, -9.797367   , -0.08719609 , -0.00019102107, 0.000186594378, -0.000238658773, 1.56182015  , -0.01662918 , 2.535902    , 918.537354  , 30.5729733  , 819.9067    , 0.13        , 7           , 13          , 0           , 0
-0.164265692, -9.796637   , -0.08480002 , -0.000528095232, 0.000379424717, 0.0002602013, 1.56181479  , -0.016631715, 2.53590584  , 918.537354  , 30.5729733  , 819.906738  , 0.14        , 7           , 14          , 2.17522156E-05, 0.0009604588
-0.162474439, -9.787668   , -0.08801899 , -0.0005024267, 0.000117191987, 0.000138163654, 1.56180978  , -0.0166331157, 2.53590727  , 918.537354  , 30.5729733  , 819.9068    , 0.15        , 7           , 15          , 0           , 0.000289715215
-0.1714246  , -9.786197   , -0.08403579 , -0.000157133152, 0.000168730447, 0.0003925553, 1.56180823  , -0.01663702 , 2.535909    , 918.537354  , 30.5729733  , 819.90686   , 0.16        , 7           , 16          , 0           , 1.401298E-45
-0.1660572  , -9.787006   , -0.0860019  , 0.000319283281, -7.975596E-05, 0.000186878344, 1.56181133  , -0.0166388974, 2.53590822  , 918.537354  , 30.5729733  , 819.9069    , 0.17        , 7           , 20          , 0           , 0
-0.164297968, -9.792517   , -0.08964099 , 0.000325908215, 0.000312111166, 0.00010109818, 1.56181455  , -0.01663991 , 2.53591132  , 918.537354  , 30.5729733  , 819.907     , 0.18        , 7           , 21          , 0           , 0
-0.1651866  , -9.796737   , -0.081379056, -0.000179883835, 0.0003583632, 2.38084467E-05, 1.56181276  , -0.01664009 , 2.535915    , 918.537354  , 30.5729733  , 819.907043  , 0.19        , 7           , 22          , 0           , 0
-0.160250455, -9.797394   , -0.08483024 , 0.00010684233, 0.000290827185, 7.96559E-05 , 1.56181383  , -0.0166408643, 2.53591776  , 918.537354  , 30.5729733  , 819.9071    , 0.2         , 7           , 40          , 0           , 0
-0.165145233, -9.792746   , -0.07899256 , 0.000336201076, 4.68813232E-05, -6.54293253E-05, 1.56182623  , -0.0166421458, 2.53591824  , 918.537354  , 30.5729733  , 820.056641  , 0.21        , 7           , 41          , 0           , 0
-0.159519434, -9.791344   , -0.08883299 , 0.000266171061, -0.0002431834, 0.0005147384, 1.56182885  , -0.0166473333, 2.53591585  , 918.537354  , 30.5729733  , 820.0567    , 0.22        , 7           , 42          , 1           , 0
-0.160838813, -9.794185   , -0.081663385, 0.000312340853, -0.0004460414, 0.000150876527, 1.56183207  , -0.016648883, 2.53591132  , 918.553833  , 30.5978718  , 820.056763  , 0.23        , 7           , 255         , 0           , 0
-0.162091151, -9.785767   , -0.09054299 , -0.0005167236, 0.0003584795, 0.0003409839, 1.561827    , -0.01665225 , 2.535915    , 918.553833  , 30.5978718  , 820.0568    , 0.24        , 7           , 255         , 0           , 0
-0.162034661, -9.794017   , -0.09167507 , 0.000144194462, 5.37358574E-05, -6.169891E-05, 1.56182826  , -0.0166516248, 2.53591537  , 918.553833  , 30.5978718  , 820.0569    , 0.25        , 7           , 255         , 0           , 0
-0.15722841 , -9.802179   , -0.08880545 , -0.000571673852, 0.0001761993, -0.0007699627, 1.56182253  , -0.0166439358, 2.53591728  , 918.553833  , 30.5978718  , 820.056946  , 0.26        , 7           , 255         , 0           , 0
-0.167225569, -9.796972   , -0.09417658 , 7.46915248E-07, 0.000168858969, 0.000830402831, 1.56182253  , -0.0166521911, 2.535919    , 918.553833  , 30.5978718  , 820.057     , 0.27        , 7           , 255         , 0           , 0
-0.162110046, -9.797621   , -0.09272288 , 0.0005895005, -4.37629642E-05, 0.000236969965, 1.56182849  , -0.0166545752, 2.53591847  , 918.553833  , 30.5978718  , 820.057068  , 0.28        , 7           , 255         , 0           , 0
-0.155629516, -9.795396   , -0.08749474 , -0.00107222388, 0.000105701329, -0.000654691248, 1.56181777  , -0.0166480187, 2.53591943  , 918.553833  , 30.5978718  , 820.0571    , 0.29        , 7           , 255         , 0           , 0
-0.160090715, -9.802125   , -0.08870524 , 0.000299521867, 0.000465149817, 0.000381745573, 1.56182075  , -0.0166518036, 2.5359242   , 918.553833  , 30.5978718  , 820.0572    , 0.3         , 7           , 255         , 0           , 0
-0.168371484, -9.804947   , -0.08538295 , 0.0006478147, 0.000486850215, 0.000186961639, 1.56182539  , -0.0166473035, 2.535929    , 918.553833  , 30.5978718  , 820.0574    , 0.31        , 7           , 255         , 0           , 0
-0.16554293 , -9.803312   , -0.08380729 , 0.000155528745, 0.000318625884, -0.000169252686, 1.56182706  , -0.0166455749, 2.5359323   , 918.553833  , 30.5978718  , 820.057434  , 0.32        , 7           , 255         , 0           , 0
-0.158537388, -9.784948   , -0.08898942 , -4.65788544E-05, 0.0001381755, 0.000216145621, 1.56182647  , -0.01664772 , 2.53593349  , 918.549866  , 30.6167984  , 820.0575    , 0.33        , 7           , 255         , 0           , 0
-0.161108524, -9.799772   , -0.09399334 , 0.000462807162, -1.08283712E-06, 0.0003021419, 1.56183112  , -0.01665073 , 2.53593349  , 918.549866  , 30.6167984  , 820.057556  , 0.34        , 7           , 255         , 0           , 0
-0.167131662, -9.79126549 , -0.0852648  , 0.000219291862, 3.652071E-05, 0.0001437451, 1.56183326  , -0.0166521315, 2.535934    , 918.549866  , 30.6167984  , 820.0576    , 0.35        , 7           , 255         , 0           , 0
-0.1670126  , -9.792557   , -0.08996872 , -0.0003285525, -0.000322102569, 7.145284E-05, 1.56183     , -0.0166528765, 2.53593087  , 918.549866  , 30.6167984  , 820.0577    , 0.36        , 7           , 255         , 0           , 0
-0.15889357 , -9.797877   , -0.0924527645, -0.000290734548, -0.0002663795, -0.00029043926, 1.56182718  , -0.0166500453, 2.53592825  , 918.549866  , 30.6167984  , 820.057739  , 0.37        , 7           , 255         , 0           , 0
-0.15653868 , -9.798834   , -0.08742527 , -3.97649274E-06, 5.380757E-05, 9.364399E-05, 1.56182706  , -0.016650999, 2.53592873  , 918.549866  , 30.6167984  , 820.0578    , 0.38        , 7           , 255         , 0           , 0
-0.154330283, -9.799314   , -0.08895542 , -1.38154628E-05, 0.000208950776, 0.000183372351, 1.56182683  , -0.0166528169, 2.53593087  , 918.549866  , 30.6167984  , 820.057861  , 0.39        , 7           , 255         , 0           , 0
-0.159862652, -9.791801   , -0.09241916 , 7.725124E-06, -0.000295815757, 0.0007058823, 1.561827    , -0.0166599117, 2.53592777  , 918.549866  , 30.6167984  , 820.0579    , 0.4         , 7           , 255         , 0           , 0
-0.162782788, -9.79035    , -0.0853853  , 0.0001725243, -1.58295152E-05, -0.0004863406, 1.56182563  , -0.01665085 , 2.53592753  , 918.549866  , 30.6167984  , 820.0667    , 0.41        , 7           , 255         , 0           , 0
-0.164054036, -9.796921   , -0.0819397047, -4.73614418E-05, 0.000554675644, -0.000710514956, 1.561825    , -0.0166436974, 2.535933    , 918.549866  , 30.6167984  , 820.0668    , 0.42        , 7           , 255         , 0           , 0
-0.158456057, -9.799299   , -0.0886477455, -0.000228875855, 0.000168247672, -0.0008201249, 1.56182265  , -0.0166355  , 2.53593469  , 918.6113    , 30.6244659  , 820.066833  , 0.43        , 7           , 255         , 0           , 0
-0.161318019, -9.795492   , -0.08775939 , -0.000116432217, 0.0004002655, -0.00018762915, 1.56182134  , -0.0166336522, 2.53593874  , 918.6113    , 30.6244659  , 820.0669    , 0.44        , 7           , 255         , 0           , 0
-0.16359821 , -9.798512   , -0.09333416 , -5.86385358E-05, 0.000108155014, 8.437605E-05, 1.56182075  , -0.0166344568, 2.53593969  , 918.6113    , 30.6244659  , 820.066956  , 0.45        , 7           , 255         , 0           , 0
-0.1702173  , -9.797254   , -0.093853794, -0.0002575983, -0.000120752957, 0.00054410263, 1.56181812  , -0.01663994 , 2.5359385   , 918.6113    , 30.6244659  , 820.0671    , 0.46        , 7           , 255         , 0           , 0
-0.167012125, -9.793152   , -0.08987704 , -5.73341567E-05, 0.000126672385, 0.00037425608, 1.56181753  , -0.0166436378, 2.53594     , 918.6113    , 30.6244659  , 820.0672    , 0.47        , 7           , 255         , 0           , 0
-0.170552924, -9.795544   , -0.09397946 , 0.0001435326, 0.000317064056, 0.000432743836, 1.561819    , -0.01664793 , 2.535943    , 918.6113    , 30.6244659  , 820.0673    , 0.48        , 7           , 255         , 0           , 0
-0.163859636, -9.799311   , -0.09396691 , -0.000132198562, 0.000290030555, 0.000526720542, 1.56181741  , -0.0166531745, 2.535946    , 918.6113    , 30.6244659  , 820.067444  , 0.49        , 7           , 255         , 0           , 0
-0.164120868, -9.795034   , -0.08609772 , 2.87311923E-06, 0.000592398865, 0.00036284505, 1.56181741  , -0.0166567527, 2.535952    , 918.6113    , 30.6244659  , 820.067566  , 0.5         , 7           , 255         , 0           , 0
-0.1660513  , -9.78926    , -0.08399987 , -0.000398969074, 0.000129354245, 0.0004203128, 1.56180882  , -0.0166656934, 2.53595352  , 918.6113    , 30.6244659  , 819.9586    , 0.51        , 7           , 255         , 0           , 0
-0.161710143, -9.787074   , -0.08701631 , -0.00013493243, 0.000143221638, 0.000109084736, 1.56180751  , -0.0166667663, 2.53595471  , 918.6113    , 30.6244659  , 819.9587    , 0.52        , 7           , 255         , 0           , 0
-0.166843116, -9.793859   , -0.0893029347, -0.000325217115, -0.000284464564, -0.000228342309, 1.56180429  , -0.0166645013, 2.53595185  , 918.5645    , 30.6338959  , 819.95874   , 0.53        , 7           , 255         , 0           , 0
-0.164270416, -9.795816   , -0.0941072851, -0.000282584, 0.000802774739, 0.000375625037, 1.56180131  , -0.0166681968, 2.53596     , 918.5645    , 30.6338959  , 819.9588    , 0.54        , 7           , 255         , 0           , 0
-0.1636371  , -9.797598   , -0.08634579 , 0.000318804465, 0.000447534781, -0.000126582134, 1.56180441  , -0.0166668855, 2.53596449  , 918.5645    , 30.6338959  , 819.958862  , 0.55        , 7           , 255         , 0           , 0
-0.1602386  , -9.793877   , -0.08694119 , 0.000101462814, 2.450979E-05, -1.307184E-05, 1.56180537  , -0.0166667365, 2.53596473  , 918.5645    , 30.6338959  , 819.9589    , 0.56        , 7           , 255         , 0           , 0
-0.15793474 , -9.792517   , -0.08712996 , 0.0002946582, 0.000160730269, -0.00021520567, 1.56180835  , -0.01666456 , 2.5359664   , 918.5645    , 30.6338959  , 819.959045  , 0.57        , 7           , 255         , 0           , 0
-0.155144036, -9.805724   , -0.08086544 , 8.233029E-05, -0.000274721126, -0.000212387065, 1.56180918  , -0.0166624747, 2.53596354  , 918.5645    , 30.6338959  , 819.959167  , 0.58        , 7           , 255         , 0           , 0
-0.165067628, -9.802468   , -0.0868911445, -0.000191030675, -7.85604352E-05, -0.00123378518, 1.56180727  , -0.0166501645, 2.53596258  , 918.5645    , 30.6338959  , 819.9593    , 0.59        , 7           , 255         , 0           , 0
-0.162557721, -9.799809   , -0.08620443 , 0.000246495852, 0.00033038744, -0.000184568271, 1.56180978  , -0.0166483168, 2.535966    , 918.5645    , 30.6338959  , 819.9594    , 0.6         , 7           , 255         , 0           , 0
-0.168768317, -9.799887   , -0.08713665 , 0.0003480299, 0.000424666971, -0.000185778568, 1.56181657  , -0.0166436974, 2.53597021  , 918.5645    , 30.6338959  , 819.959656  , 0.61        , 7           , 255         , 0           , 0
-0.1640153  , -9.799804   , -0.08934093 , 0.000384486746, -0.000117444084, -4.511897E-05, 1.56182051  , -0.01664325 , 2.535969    , 918.5645    , 30.6338959  , 819.9598    , 0.62        , 7           , 255         , 0           , 0
-0.1651907  , -9.80101    , -0.09131004 , -0.000105348394, -0.000146307691, 0.000136930612, 1.56181943  , -0.0166446213, 2.53596759  , 918.597839  , 30.6384411  , 819.9599    , 0.63        , 7           , 255         , 0           , 0
-0.15689294 , -9.793297   , -0.08691122 , -0.000192488747, 9.958114E-05, 0.000328708236, 1.56181753  , -0.01664787 , 2.53596854  , 918.597839  , 30.6384411  , 819.96      , 0.64        , 7           , 255         , 0           , 0
-0.165762886, -9.799861   , -0.08948531 , 0.000318103965, 0.000275119615, -0.0004429373, 1.56182075  , -0.0166434  , 2.53597116  , 918.597839  , 30.6384411  , 819.960144  , 0.65        , 7           , 255         , 0           , 0
-0.154030532, -9.798035   , -0.09530814 , 0.000203879041, 0.000766477955, 0.000473437918, 1.56182265  , -0.0166480485, 2.53597879  , 918.597839  , 30.6384411  , 819.960266  , 0.66        , 7           , 255         , 0           , 0
-0.156939656, -9.791691   , -0.09049386 , -9.251342E-05, 0.0004134145, 0.000455332833, 1.56182158  , -0.0166525487, 2.535983    , 918.597839  , 30.6384411  , 819.9604    , 0.67        , 7           , 255         , 0           , 0
-0.1606774  , -9.791505   , -0.08357205 , -0.000217791487, 7.584441E-05, 0.000536601758, 1.56181943  , -0.016657915, 2.5359838   , 918.597839  , 30.6384411  , 819.9605    , 0.68        , 7           , 255         , 0           , 0
-0.160220549, -9.803519   , -0.08883788 , 8.09072E-05 , -0.000140843447, -0.000284309179, 1.56182039  , -0.0166550819, 2.53598261  , 918.597839  , 30.6384411  , 819.960632  , 0.69        , 7           , 255         , 0           , 0
-0.167972431, -9.804232   , -0.08926585 , 2.65310973E-05, 0.000365453016, 0.000383136416, 1.56182051  , -0.0166588686, 2.53598619  , 918.597839  , 30.6384411  , 819.960754  , 0.7         , 7           , 255         , 0           , 0
-0.156937912, -9.791807   , -0.09733184 , -0.000461134943, -3.33456555E-05, 0.0004167359, 1.561813    , -0.0166604482, 2.535986    , 918.597839  , 30.6384411  , 819.9147    , 0.71        , 7           , 255         , 0           , 0
-0.167835921, -9.79703    , -0.09294884 , -0.00026116232, -0.000745516154, -0.000304906571, 1.56181049  , -0.0166574381, 2.53597832  , 918.597839  , 30.6384411  , 819.9148    , 0.72        , 7           , 255         , 0           , 0
-0.160731137, -9.794742   , -0.0908437148, -0.000534747436, 0.00022775348, 0.000152336375, 1.56180513  , -0.0166589282, 2.5359807   , 918.5714    , 30.6443424  , 819.9149    , 0.73        , 7           , 255         , 0           , 0
-0.165631175, -9.790331   , -0.08718045 , 9.35206044E-05, 0.000347983616, 0.000400028948, 1.561806    , -0.016662892, 2.53598428  , 918.5714    , 30.6443424  , 819.915039  , 0.74        , 7           , 255         , 0           , 0
-0.154806659, -9.798892   , -0.0860733241, 3.4218494E-05, -9.15491255E-05, 0.000309566967, 1.56180632  , -0.0166659914, 2.53598332  , 918.5714    , 30.6443424  , 819.915161  , 0.75        , 7           , 255         , 0           , 0
-0.162130922, -9.79143    , -0.09257993 , -0.00021044146, 0.000430025684, 0.000264571747, 1.56180429  , -0.0166685544, 2.53598762  , 918.5714    , 30.6443424  , 819.9153    , 0.76        , 7           , 255         , 0           , 0
-0.171322152, -9.793531   , -0.0965189338, -0.000121064921, 0.00017795054, 0.000260760949, 1.56180286  , -0.0166711789, 2.53598952  , 918.5714    , 30.6443424  , 819.9154    , 0.77        , 7           , 255         , 0           , 0
-0.171491429, -9.791874   , -0.08951012 , 0.000248728669, 0.00021331833, 0.000212948711, 1.56180525  , -0.0166733246, 2.53599167  , 918.5714    , 30.6443424  , 819.9155    , 0.78        , 7           , 255         , 0           , 0
-0.165608481, -9.787772   , -0.09260079 , -0.000249254954, -6.246765E-05, 0.000371974718, 1.56180286  , -0.01667702 , 2.535991    , 918.5714    , 30.6443424  , 819.915649  , 0.79        , 7           , 255         , 0           , 0
-0.159129485, -9.7901535  , -0.0887943357, -1.89854654E-06, 0.000233018363, -0.0002095553, 1.56180286  , -0.0166749042, 2.53599334  , 918.5714    , 30.6443424  , 819.9158    , 0.8         , 7           , 255         , 0           , 0
-0.164696664, -9.79698849 , -0.09379277 , -0.000423350371, 8.732191E-05, 5.899518E-05, 1.56178737  , -0.0166766029, 2.53599429  , 918.5714    , 30.6443424  , 819.913269  , 0.81        , 7           , 255         , 0           , 0
-0.169066325, -9.790415   , -0.0932665  , -0.000117757038, 0.000164999685, 0.00064430933, 1.561786    , -0.01668304 , 2.535996    , 918.5714    , 30.6443424  , 819.9134    , 0.82        , 7           , 255         , 0           , 0
-0.169314   , -9.79484749 , -0.08894574 , -0.0006566721, -0.000350413029, 0.000119223 , 1.56177962  , -0.0166842937, 2.53599262  , 918.580261  , 30.6446819  , 819.9135    , 0.83        , 7           , 255         , 0           , 0
-0.168356046, -9.790733   , -0.0917267352, -0.000566387956, -0.000164344034, -0.000367354864, 1.5617739   , -0.0166806262, 2.535991    , 918.580261  , 30.6446819  , 819.913635  , 0.84        , 7           , 255         , 0           , 0
-0.161461875, -9.784779   , -0.09147157 , -0.000266523944, 0.0001401811, 0.0005566152, 1.56177127  , -0.0166862011, 2.53599238  , 918.580261  , 30.6446819  , 819.913757  , 0.85        , 7           , 255         , 0           , 0
-0.158446327, -9.801352   , -0.08506594 , -0.000686807034, 0.000249901845, 0.0006385617, 1.56176436  , -0.016692549, 2.535995    , 918.580261  , 30.6446819  , 819.9139    , 0.86        , 7           , 255         , 0           , 0
-0.161236674, -9.788996   , -0.08380701 , 9.68456443E-05, 9.21859755E-05, 0.000739466748, 1.56176543  , -0.016699912, 2.535996    , 918.580261  , 30.6446819  , 819.914     , 0.87        , 7           , 255         , 0           , 0
-0.166741267, -9.791156   , -0.0927536041, 0.000225466792, -0.0001350781, -4.53874236E-07, 1.5617677   , -0.0166999418, 2.53599453  , 918.580261  , 30.6446819  , 819.9141    , 0.88        , 7           , 255         , 0           , 0
-0.160949215, -9.79400349 , -0.08870484 , -0.000324292661, -0.0003810614, 0.00106046069, 1.56176448  , -0.0167105831, 2.53599072  , 918.580261  , 30.6446819  , 819.914246  , 0.89        , 7           , 255         , 0           , 0
-0.152790159, -9.792304   , -0.08881469 , -0.000115893563, 8.19285051E-05, 0.000199193688, 1.56176341  , -0.01671255 , 2.53599167  , 918.580261  , 30.6446819  , 819.914368  , 0.9         , 7           , 255         , 0           , 0
-0.158743113, -9.793047   , -0.08337571 , -5.17420849E-05, -0.000306812, -5.591518E-05, 1.56175828  , -0.0167116262, 2.53598857  , 918.580261  , 30.6446819  , 819.9021    , 0.91        , 7           , 255         , 0           , 0
-0.15872477 , -9.787676   , -0.082547076, -0.000165945559, 4.0820858E-05, -0.000331913645, 1.56175661  , -0.0167082865, 2.535989    , 918.580261  , 30.6446819  , 819.9022    , 0.92        , 7           , 255         , 0           , 0
-0.161925942, -9.797226   , -0.08584764 , 0.000808308832, 0.000136540912, -0.000272010162, 1.56176472  , -0.0167055745, 2.53599024  , 918.5581    , 30.6476669  , 819.902344  , 0.93        , 7           , 255         , 0           , 0
-0.161346465, -9.796058   , -0.08432304 , 0.0007754634, 0.000300386164, -0.00022265529, 1.56177235  , -0.01670331 , 2.53599334  , 918.5581    , 30.6476669  , 819.902466  , 0.94        , 7           , 255         , 0           , 0
-0.157696277, -9.796602   , -0.08912717 , 0.000190320934, 0.000510409765, 0.000171085529, 1.56177425  , -0.0167049486, 2.53599834  , 918.5581    , 30.6476669  , 819.9026    , 0.95        , 7           , 255         , 0           , 0
-0.160576433, -9.804964   , -0.08265258 , -1.40156344E-05, 0.00015707995, 0.000333826 , 1.56177413  , -0.0167082567, 2.536       , 918.5581    , 30.6476669  , 819.9027    , 0.96        , 7           , 255         , 0           , 0
-0.158504844, -9.796651   , -0.09289714 , 9.19629238E-05, 7.48098246E-05, 0.0004296811, 1.561775    , -0.01671255 , 2.53600073  , 918.5581    , 30.6476669  , 819.902832  , 0.97        , 7           , 255         , 0           , 0
-0.160456643, -9.792487   , -0.0846709162, 0.0002734886, 0.000144010352, -0.000459389325, 1.56177783  , -0.0167079289, 2.53600216  , 918.5581    , 30.6476669  , 819.902954  , 0.98        , 7           , 255         , 0           , 0
-0.165548384, -9.79338551 , -0.08428838 , -1.0715301E-05, 0.0003316048, -0.000420865021, 1.56177759  , -0.0167036969, 2.5360055   , 918.5581    , 30.6476669  , 819.9031    , 0.99        , 7           , 255         , 0           , 0
-0.165733367, -9.796804   , -0.08451798 , 2.4242283E-05, 0.000255445659, -7.780807E-05, 1.56177783  , -0.0167028923, 2.536008    , 918.5581    , 30.6476669  , 819.9032    , 1           , 7           , 0           , 7.13523626  , 100
-0.163821429, -9.801019   , -0.08631526 , -0.0006732642, 0.000224739371, 0.000178245158, 1.561779    , -0.0166974384, 2.53601     , 918.5581    , 30.6476669  , 819.917358  , 1.01        , 7           , 1           , 0           , 0
-0.159044385, -9.790258   , -0.0919906646, -0.0006015294, -0.000159006333, 0.0006047585, 1.56177306  , -0.0167034883, 2.5360086   , 918.5581    , 30.6476669  , 819.917542  , 1.02        , 7           , 2           , 0           , 0
-0.162125647, -9.7935915  , -0.0908192545, -0.000214366955, -0.00048685167, 0.0006163708, 1.56177092  , -0.016709717, 2.53600383  , 918.568054  , 30.6503124  , 819.9177    , 1.03        , 7           , 3           , 0           , 0
-0.165449813, -9.801252   , -0.09090111 , 0.000268426025, 0.000266730378, -0.000114382769, 1.56177354  , -0.0167085249, 2.53600645  , 918.568054  , 30.6503124  , 819.9179    , 1.04        , 7           , 4           , 0           , 0
-0.152962953, -9.793378   , -0.09123199 , 0.000101445839, 3.47307068E-05, -0.000249652832, 1.56177461  , -0.0167060513, 2.53600669  , 918.568054  , 30.6503124  , 819.9181    , 1.05        , 7           , 5           , 0           , 0
-0.161988214, -9.802774   , -0.08944507 , 0.000621731 , -0.000371473085, 0.000145897851, 1.56178081  , -0.0167075414, 2.536003    , 918.568054  , 30.6503124  , 819.9183    , 1.06        , 7           , 6           , 0           , 0
-0.1661784  , -9.794966   , -0.08376982 , -0.000149826228, -7.02183461E-05, -0.000252972357, 1.56177926  , -0.016705038, 2.53600216  , 918.568054  , 30.6503124  , 819.918457  , 1.07        , 7           , 7           , 0           , 0
-0.166387737, -9.786473   , -0.09179718 , -0.000264662463, 8.781528E-05, -0.000118621247, 1.56177664  , -0.0167038459, 2.536003    , 918.568054  , 30.6503124  , 819.91864   , 1.08        , 7           , 8           , 5           , 5
-0.163955733, -9.788309   , -0.0933306962, 0.0002595089, -0.000113126764, -0.000237646178, 1.56177926  , -0.0167015214, 2.536002    , 918.568054  , 30.6503124  , 819.9188    , 1.09        , 7           , 9           , 5           , 0.1
-0.1682513  , -9.799197   , -0.08840001 , -1.87556252E-05, 0.000102597231, -0.000166313257, 1.56177914  , -0.0166998524, 2.53600287  , 918.568054  , 30.6503124  , 819.919     , 1.1         , 7           , 10          , 0.1         , 0.1
-0.161730483, -9.802626   , -0.09043018 , -0.000553043734, -1.98438065E-05, 6.72414E-05 , 1.56177     , -0.01669884 , 2.53600264  , 918.568054  , 30.6503124  , 819.9204    , 1.11        , 7           , 11          , 0.00943363551, 0.009433635
-0.162522957, -9.796224   , -0.09409393 , 0.000335996825, -0.000254008861, -0.000204464974, 1.5617733   , -0.01669678 , 2.536       , 918.568054  , 30.6503124  , 819.9206    , 1.12        , 7           , 12          , 0.0346428268, 0
-0.1658366  , -9.788286   , -0.08721286 , 0.000315089157, -0.000167854072, 0.00037418853, 1.5617764   , -0.0167005677, 2.53599858  , 918.536438  , 30.6509228  , 819.9208    , 1.13        , 7           , 13          , 0           , 0
-0.169379324, -9.786885   , -0.08391227 , 0.000317632483, 7.8060606E-05, 0.000971680856, 1.56177962  , -0.0167102851, 2.5359993   , 918.536438  , 30.6509228  , 819.920959  , 1.14        , 7           , 14          , 2.17648267E-05, 0.0009604585
-0.179150134, -9.794609   , -0.0826588646, 0.0007054384, -0.000316217367, 0.000289316522, 1.56178665  , -0.0167132057, 2.5359962   , 918.536438  , 30.6509228  , 819.921143  , 1.15        , 7           , 15          , 0           , 0.000289728865
-0.174045846, -9.802848   , -0.0870738  , 1.66692043E-05, -0.000619706349, -0.0004731871, 1.56178689  , -0.0167085547, 2.53599     , 918.536438  , 30.6509228  , 819.9213    , 1.16        , 7           , 16          , 0           , 1.401298E-45
-0.167457685, -9.798968   , -0.0906683654, -0.0003240211, 0.00036013237, -0.000314515783, 1.56178367  , -0.016705336, 2.53599358  , 918.536438  , 30.6509228  , 819.9215    , 1.17        , 7           , 20          , 0           , 0
-0.163320035, -9.796674   , -0.0932753  , 5.44334252E-05, -5.92090655E-05, 0.000420237251, 1.56178427  , -0.016709568, 2.53599286  , 918.536438  , 30.6509228  , 819.9217    , 1.18        , 7           , 21          , 0           , 0
-0.154848844, -9.791586   , -0.08683848 , 0.000793919957, -2.92108743E-05, 4.17409174E-05, 1.56179214  , -0.0167099852, 2.53599262  , 918.536438  , 30.6509228  , 819.9219    , 1.19        , 7           , 22          , 0           , 0
-0.1594134  , -9.790815   , -0.08344373 , 0.000120187855, -0.0003377096, 0.000357287179, 1.56179345  , -0.0167135634, 2.53598928  , 918.536438  , 30.6509228  , 819.922058  , 1.2         , 7           , 40          , 0           , 0
-0.160633683, -9.794114   , -0.08891025 , 0.000606473361, -0.000110482215, 0.000205855846, 1.56180024  , -0.0167209543, 2.535988    , 918.536438  , 30.6509228  , 819.9559    , 1.21        , 7           , 41          , 0           , 0
-0.164068252, -9.798803   , -0.08801948 , 0.0004927801, 0.000216657354, 0.000363177 , 1.56180525  , -0.0167245921, 2.53599048  , 918.536438  , 30.6509228  , 819.9562    , 1.22        , 7           , 42          , 1           , 0
-0.161987543, -9.791349   , -0.0871917  , -0.0006501195, -0.000542331371, -0.0003523383, 1.56179869  , -0.0167211033, 2.535985    , 918.5747    , 30.6533661  , 819.9565    , 1.23        , 7           , 255         , 0           , 0
-0.160692886, -9.79296    , -0.090096876, 0.000299359235, -7.364439E-05, -0.0004935564, 1.56180179  , -0.0167161562, 2.535984    , 918.5747    , 30.6533661  , 819.9568    , 1.24        , 7           , 255         , 0           , 0
-0.164031222, -9.79321    , -0.08711611 , -2.15870587E-05, 0.000146569277, 0.0003543189, 1.56180155  , -0.0167197026, 2.53598571  , 918.5747    , 30.6533661  , 819.9571    , 1.25        , 7           , 255         , 0           , 0
-0.160557508, -9.793966   , -0.08814833 , -6.53121242E-05, 0.000144882186, -0.0004572614, 1.561801    , -0.0167151429, 2.535987    , 918.5747    , 30.6533661  , 819.9574    , 1.26        , 7           , 255         , 0           , 0
-0.1586426  , -9.793706   , -0.0879482  , 4.466596E-06, 0.000320509251, 0.000477401278, 1.56180084  , -0.0167198516, 2.53599024  , 918.5747    , 30.6533661  , 819.9577    , 1.27        , 7           , 255         , 0           , 0
-0.162878662, -9.796256   , -0.08758984 , 0.000325643254, 7.73721258E-05, 0.0008873539, 1.56180418  , -0.0167287346, 2.53599119  , 918.5747    , 30.6533661  , 819.958     , 1.28        , 7           , 255         , 0           , 0
-0.168683782, -9.803055   , -0.08355733 , 0.0002116623, 9.85820661E-05, 0.000631593633, 1.5618062   , -0.0167350229, 2.53599215  , 918.5747    , 30.6533661  , 819.9583    , 1.29        , 7           , 255         , 0           , 0
-0.159879833, -9.803506   , -0.0863488838, 3.35791847E-05, -0.000374250172, -0.000235255517, 1.56180668  , -0.0167326983, 2.53598833  , 918.5747    , 30.6533661  , 819.9586    , 1.3         , 7           , 255         , 0           , 0
-0.159815863, -9.79744    , -0.0894952044, 3.439314E-05, -0.00010140246, 0.000379821984, 1.56180835  , -0.0167327877, 2.53598738  , 918.5747    , 30.6533661  , 819.948853  , 1.31        , 7           , 255         , 0           , 0
-0.1555178  , -9.794283   , -0.0947577953, 0.000134633228, -0.000277795829, 0.0009774595, 1.5618099   , -0.0167425349, 2.53598452  , 918.5747    , 30.6533661  , 819.949158  , 1.32        , 7           , 255         , 0           , 0
-0.151975557, -9.796537   , -0.09086939 , 8.293135E-05, -0.000573409547, 0.000435613038, 1.56181073  , -0.0167469755, 2.535979    , 918.5701    , 30.6513977  , 819.949463  , 1.33        , 7           , 255         , 0           , 0
-0.163910344, -9.789839   , -0.09026815 , -0.00034027 , -0.000124853919, 0.000595713151, 1.56180739  , -0.016752908, 2.53597784  , 918.5701    , 30.6513977  , 819.949768  , 1.34        , 7           , 255         , 0           , 0
-0.16194284 , -9.790467   , -0.09151931 , -6.505049E-05, 0.000289896561, 0.000379068835, 1.56180668  , -0.0167566631, 2.5359807   , 918.5701    , 30.6513977  , 819.9501    , 1.35        , 7           , 255         , 0           , 0
-0.166054   , -9.794459   , -0.08599878 , 0.0004713342, 0.000146588485, 0.0009276479, 1.56181145  , -0.0167659037, 2.53598213  , 918.5701    , 30.6513977  , 819.9504    , 1.36        , 7           , 255         , 0           , 0
-0.158728272, -9.796331   , -0.0854636058, 0.000109730958, 0.000198349182, 4.50180378E-05, 1.56181252  , -0.01676635 , 2.535984    , 918.5701    , 30.6513977  , 819.9507    , 1.37        , 7           , 255         , 0           , 0
-0.158182025, -9.792085   , -0.08933956 , -0.000437480048, 7.41358963E-05, 0.0002744884, 1.56180811  , -0.0167691223, 2.535985    , 918.5701    , 30.6513977  , 819.951     , 1.38        , 7           , 255         , 0           , 0
-0.160866588, -9.798212   , -0.09360053 , 0.000193966887, 0.000190399413, 0.0006182112, 1.56181     , -0.0167752914, 2.535987    , 918.5701    , 30.6513977  , 819.9513    , 1.39        , 7           , 255         , 0           , 0
-0.166971043, -9.80227852 , -0.08987747 , 0.000568098563, 0.000188409409, 0.000185046811, 1.56181562  , -0.016777141, 2.53598881  , 918.5701    , 30.6513977  , 819.9516    , 1.4         , 7           , 255         , 0           , 0
-0.1647715  , -9.79749    , -0.09407233 , -0.000126740357, -0.000133268244, 0.000279823231, 1.5618093   , -0.01677085 , 2.53598762  , 918.5701    , 30.6513977  , 819.9474    , 1.41        , 7           , 255         , 0           , 0
-0.16487    , -9.796962   , -0.0887011439, -0.0003205079, 0.000115549483, 0.000100456731, 1.56180608  , -0.0167718641, 2.53598881  , 918.5701    , 30.6513977  , 819.9477    , 1.42        , 7           , 255         , 0           , 0
-0.162353486, -9.790872   , -0.08475571 , 2.04263288E-05, -4.895497E-05, 0.000678514 , 1.56180632  , -0.0167786609, 2.53598833  , 918.592834  , 30.65296    , 819.948     , 1.43        , 7           , 255         , 0           , 0
-0.163611367, -9.799314   , -0.0837481  , 0.000240099282, 0.00041530485, 0.0003325546, 1.56180859  , -0.01678194 , 2.53599238  , 918.592834  , 30.65296    , 819.9483    , 1.44        , 7           , 255         , 0           , 0
-0.17050238 , -9.807333   , -0.08307853 , -4.50822772E-05, -2.75620259E-05, 8.305852E-05, 1.56180811  , -0.0167828035, 2.53599215  , 918.592834  , 30.65296    , 819.9486    , 1.45        , 7           , 255         , 0           , 0
-0.158615217, -9.795719   , -0.08473797 , -0.000381544436, -0.0003421114, 1.70096173E-05, 1.56180441  , -0.0167830121, 2.53598881  , 918.592834  , 30.65296    , 819.9489    , 1.46        , 7           , 255         , 0           , 0
-0.1624209  , -9.79571    , -0.0827774256, -0.000400990422, -0.000320819148, -0.000240026042, 1.56180036  , -0.0167806279, 2.53598547  , 918.592834  , 30.65296    , 819.9492    , 1.47        , 7           , 255         , 0           , 0
-0.159754947, -9.787542   , -0.0932281539, 0.000137282026, 0.000109403569, 1.09381217E-05, 1.56180179  , -0.0167807173, 2.53598666  , 918.592834  , 30.65296    , 819.9495    , 1.48        , 7           , 255         , 0           , 0
-0.167373627, -9.7916     , -0.085450694, -0.000373002869, 6.212742E-05, -4.347996E-06, 1.5617981   , -0.0167806577, 2.53598714  , 918.592834  , 30.65296    , 819.9498    , 1.49        , 7           , 255         , 0           , 0
-0.155694351, -9.795329   , -0.08362964 , -0.0008555921, -0.000148928084, -1.51089334E-05, 1.56178963  , -0.0167805385, 2.53598571  , 918.592834  , 30.65296    , 819.950134  , 1.5         , 7           , 255         , 0           , 0
-0.166170985, -9.795756   , -0.08843525 , -9.056697E-05, -6.606366E-05, 0.000198433409, 1.56179237  , -0.0167792868, 2.535985    , 918.592834  , 30.65296    , 819.922241  , 1.51        , 7           , 255         , 0           , 0
-0.1665326  , -9.792514   , -0.0837638453, -0.000234993146, 0.000100322359, 0.0004768787, 1.56179011  , -0.0167840552, 2.535986    , 918.592834  , 30.65296    , 819.9224    , 1.52        , 7           , 255         , 0           , 0
-0.162128523, -9.788328   , -0.0835432559, -0.000669694, 0.000530241 , 0.000262199581, 1.56178319  , -0.016786648, 2.53599143  , 918.5596    , 30.65574    , 819.9226    , 1.53        , 7           , 255         , 0           , 0
-0.155744046, -9.78761    , -0.09489205 , -6.08027476E-05, 0.000220613379, 0.000185743585, 1.5617826   , -0.0167884957, 2.53599358  , 918.5596    , 30.65574    , 819.9228    , 1.54        , 7           , 255         , 0           , 0
-0.161343083, -9.800448   , -0.0912442  , 0.00107478164, 0.0004933783, -0.000478765345, 1.56179321  , -0.0167836677, 2.53599858  , 918.5596    , 30.65574    , 819.923     , 1.55        , 7           , 255         , 0           , 0
-0.159794241, -9.796551   , -0.088118434, 0.0005236634, -0.0002530737, -6.473478E-05, 1.56179845  , -0.0167830419, 2.535996    , 918.5596    , 30.65574    , 819.923157  , 1.56        , 7           , 255         , 0           , 0
-0.158553943, -9.789469   , -0.09648679 , 2.14767533E-05, -7.18737138E-05, 0.000153214991, 1.56179869  , -0.0167845618, 2.53599524  , 918.5596    , 30.65574    , 819.92334   , 1.57        , 7           , 255         , 0           , 0
-0.158134282, -9.799603   , -0.09388896 , -9.097469E-05, 0.000497516536, -0.0005483342, 1.56179774  , -0.0167790186, 2.53600025  , 918.5596    , 30.65574    , 819.9235    , 1.58        , 7           , 255         , 0           , 0
-0.15672195 , -9.797688   , -0.0937027261, -0.000274696882, 0.000310433621, -0.0003257552, 1.561795    , -0.0167757683, 2.53600335  , 918.5596    , 30.65574    , 819.9237    , 1.59        , 7           , 255         , 0           , 0
-0.160143852, -9.781375   , -0.0915792957, -0.000234177161, -4.033954E-05, -0.00016386807, 1.56179261  , -0.01677413 , 2.53600287  , 918.5596    , 30.65574    , 819.9239    , 1.6         , 7           , 255         , 0           , 0
-0.1576751  , -9.78945351 , -0.09437077 , 0.0005702264, -0.0004870128, -3.922521E-05, 1.56179214  , -0.0167633686, 2.535998    , 918.5596    , 30.65574    , 819.9339    , 1.61        , 7           , 255         , 0           , 0
-0.156206563, -9.799838   , -0.09612398 , 0.000201940449, 0.000205164833, -0.0001741306, 1.56179416  , -0.01676155 , 2.536       , 918.5596    , 30.65574    , 819.934143  , 1.62        , 7           , 255         , 0           , 0
-0.160498738, -9.793489   , -0.09437205 , -0.000105440238, -0.0003266118, -0.0003967352, 1.56179321  , -0.0167576168, 2.535997    , 918.561462  , 30.6575718  , 819.9344    , 1.63        , 7           , 255         , 0           , 0
-0.156347752, -9.787433   , -0.09093247 , 0.000524412957, -0.0004372897, 0.00043460654, 1.56179857  , -0.0167619977, 2.53599238  , 918.561462  , 30.6575718  , 819.934631  , 1.64        , 7           , 255         , 0           , 0
-0.16187802 , -9.797926   , -0.08913801 , 0.000329251285, -0.0005338536, 9.51034E-05 , 1.561802    , -0.016763011, 2.53598714  , 918.561462  , 30.6575718  , 819.9349    , 1.65        , 7           , 255         , 0           , 0
-0.151505888, -9.795927   , -0.08875109 , -0.000192769163, -0.0002332512, -7.800467E-05, 1.56180012  , -0.0167622361, 2.53598475  , 918.561462  , 30.6575718  , 819.9351    , 1.66        , 7           , 255         , 0           , 0
-0.156364113, -9.792173   , -0.09084934 , -3.06885049E-05, 0.00055396097, -0.000375042233, 1.56179965  , -0.016758481, 2.53599024  , 918.561462  , 30.6575718  , 819.935364  , 1.67        , 7           , 255         , 0           , 0
-0.154234767, -9.797905   , -0.0951958746, 0.000609091367, -0.0001398995, 7.753793E-05, 1.56180584  , -0.0167592857, 2.53598881  , 918.561462  , 30.6575718  , 819.9356    , 1.68        , 7           , 255         , 0           , 0
-0.161093682, -9.798523   , -0.08776623 , 0.000670131063, -0.000243468268, -0.000423875637, 1.5618124   , -0.0167550538, 2.53598642  , 918.561462  , 30.6575718  , 819.935852  , 1.69        , 7           , 255         , 0           , 0
-0.161939979, -9.799906   , -0.0844595954, 3.69694862E-05, 0.0003279539, 0.000332097319, 1.56181276  , -0.0167583916, 2.53598976  , 918.561462  , 30.6575718  , 819.9361    , 1.7         , 7           , 255         , 0           , 0
-0.161439687, -9.7997     , -0.08507359 , 4.53660032E-05, 0.00016303634, 0.000373503746, 1.5618062   , -0.0167475417, 2.53599167  , 918.561462  , 30.6575718  , 819.942749  , 1.71        , 7           , 255         , 0           , 0
-0.16325447 , -9.803164   , -0.08290227 , 0.0005995438, 0.000402497535, 0.000136503746, 1.56181216  , -0.016748853, 2.53599548  , 918.561462  , 30.6575718  , 819.943054  , 1.72        , 7           , 255         , 0           , 0
-0.1649673  , -9.807619   , -0.07725865 , 0.000326247129, -0.000256222324, -0.000102049366, 1.5618155   , -0.01674787 , 2.53599286  , 918.5647    , 30.6554012  , 819.943359  , 1.73        , 7           , 255         , 0           , 0
-0.156052753, -9.787279   , -0.0843552947, -2.925066E-05, 0.0002700098, -8.95311241E-05, 1.561815    , -0.0167469755, 2.53599572  , 918.5647    , 30.6554012  , 819.943665  , 1.74        , 7           , 255         , 0           , 0
-0.151181862, -9.787927   , -0.0841087252, 6.269743E-05, 0.000456086535, 0.0003215981, 1.56181562  , -0.0167501364, 2.53600025  , 918.5647    , 30.6554012  , 819.944     , 1.75        , 7           , 255         , 0           , 0
-0.1627287  , -9.798581   , -0.08748353 , -5.15040774E-05, 7.133308E-05, -0.000341466744, 1.56181514  , -0.0167466775, 2.536001    , 918.5647    , 30.6554012  , 819.9443    , 1.76        , 7           , 255         , 0           , 0
-0.166007563, -9.793945   , -0.07462639 , -0.0005141626, -0.0003371837, 0.000295256759, 1.56181     , -0.0167496577, 2.53599763  , 918.5647    , 30.6554012  , 819.9446    , 1.77        , 7           , 255         , 0           , 0
-0.162389815, -9.791501   , -0.0769901648, -1.81071464E-05, 0.000264160975, -9.598951E-05, 1.56180978  , -0.0167486742, 2.53600025  , 918.5647    , 30.6554012  , 819.9449    , 1.78        , 7           , 255         , 0           , 0
-0.165937379, -9.794278   , -0.0838990659, -0.000258323853, -8.365925E-05, 0.000277607149, 1.56180727  , -0.0167514179, 2.5359993   , 918.5647    , 30.6554012  , 819.9452    , 1.79        , 7           , 255         , 0           , 0
-0.159441561, -9.79354    , -0.08779721 , -0.000425466162, -0.000279211381, -0.0006171438, 1.561803    , -0.0167452767, 2.53599644  , 918.5647    , 30.6554012  , 819.9455    , 1.8         , 7           , 255         , 0           , 0
-0.162596777, -9.799251   , -0.0868720859, 0.0005715739, -0.00064989063, 0.000224700983, 1.56182086  , -0.0167416111, 2.53598976  , 918.5647    , 30.6554012  , 819.9479    , 1.81        , 7           , 255         , 0           , 0
-0.159973472, -9.797188   , -0.0855365843, -9.34924756E-05, -0.000310393923, -8.290443E-05, 1.56182     , -0.0167408064, 2.53598666  , 918.5647    , 30.6554012  , 819.9482    , 1.82        , 7           , 255         , 0           , 0
-0.165139481, -9.786101   , -0.083047986, -0.000124807513, 7.013272E-05, -0.0003144634, 1.56181872  , -0.0167376176, 2.53598738  , 918.6034    , 30.65764    , 819.9485    , 1.83        , 7           , 255         , 0           , 0
-0.161474377, -9.7853775  , -0.08911301 , -0.000390270783, 0.000133656256, -0.000321733532, 1.56181479  , -0.0167344268, 2.53598881  , 918.6034    , 30.65764    , 819.9488    , 1.84        , 7           , 255         , 0           , 0
-0.160577089, -9.795063   , -0.08872655 , -0.000378136232, 0.0007775871, -3.07868759E-05, 1.56181085  , -0.016734099, 2.53599644  , 918.6034    , 30.65764    , 819.9491    , 1.85        , 7           , 255         , 0           , 0
-0.162103847, -9.791141   , -0.08908622 , -0.000346434885, 5.723472E-05, -0.000184814126, 1.56180739  , -0.0167322513, 2.535997    , 918.6034    , 30.65764    , 819.9494    , 1.86        , 7           , 255         , 0           , 0
-0.160631031, -9.790868   , -0.09479363 , 1.43195011E-05, 0.000283305 , 0.000651774229, 1.56180739  , -0.01673875 , 2.53599977  , 918.6034    , 30.65764    , 819.9497    , 1.87        , 7           , 255         , 0           , 0
-0.157384038, -9.803697   , -0.0918740258, -0.000127464649, 0.00027216872, -0.000160876763, 1.5618062   , -0.0167370811, 2.53600264  , 918.6034    , 30.65764    , 819.95      , 1.88        , 7           , 255         , 0           , 0
-0.158870935, -9.799536   , -0.0910998657, 1.04555129E-05, 0.000220450631, -0.000433954236, 1.56180632  , -0.0167327281, 2.53600478  , 918.6034    , 30.65764    , 819.9504    , 1.89        , 7           , 255         , 0           , 0
-0.1695209  , -9.796446   , -0.09773724 , 2.17622637E-05, 0.000102636346, -0.000164688288, 1.56180656  , -0.016731089, 2.53600574  , 918.6034    , 30.65764    , 819.950745  , 1.9         , 7           , 255         , 0           , 0
-0.163456008, -9.801143   , -0.08889916 , -0.000164593119, 0.000170275278, 0.000236101827, 1.56180084  , -0.0167286452, 2.53600764  , 918.6034    , 30.65764    , 819.9069    , 1.91        , 7           , 255         , 0           , 0
-0.161301091, -9.791682   , -0.08777012 , -0.000343629974, 0.0003073314, -0.000414768467, 1.56179738  , -0.0167245027, 2.53601074  , 918.6034    , 30.65764    , 819.907     , 1.92        , 7           , 255         , 0           , 0
-0.156997949, -9.789942   , -0.09121474 , -0.0002047843, 0.000126491243, -0.0001117286, 1.56179523  , -0.0167233683, 2.536012    , 918.6039    , 30.6583176  , 819.907043  , 1.93        , 7           , 255         , 0           , 0
-0.165360421, -9.786979   , -0.08986839 , 0.0007536635, 6.421917E-05, -6.598636E-05, 1.56180263  , -0.0167227425, 2.53601265  , 918.6039    , 30.6583176  , 819.9071    , 1.94        , 7           , 255         , 0           , 0
-0.1670317  , -9.787558   , -0.08930798 , 0.000275235274, -0.000332285243, 0.0003728347, 1.56180561  , -0.01672647 , 2.53600931  , 918.6039    , 30.6583176  , 819.907166  , 1.95        , 7           , 255         , 0           , 0
-0.1672047  , -9.785138   , -0.0911977738, 0.000194708657, 0.000353700656, -0.000217981287, 1.56180739  , -0.0167242642, 2.536013    , 918.6039    , 30.6583176  , 819.9072    , 1.96        , 7           , 255         , 0           , 0
-0.162234366, -9.791773   , -0.0893659145, 8.034364E-05, -8.537201E-06, 0.000229249621, 1.56180823  , -0.01672653 , 2.53601265  , 918.6039    , 30.6583176  , 819.9073    , 1.97        , 7           , 255         , 0           , 0
-0.160936564, -9.795206   , -0.0913086757, 0.000736055 , -0.0002008581, 0.000349592563, 1.56181562  , -0.0167300459, 2.53601074  , 918.6039    , 30.6583176  , 819.907349  , 1.98        , 7           , 255         , 0           , 0
-0.1537539  , -9.795504   , -0.08822432 , 2.80928834E-05, -0.00012152124, 0.000209307967, 1.561816    , -0.0167321917, 2.53600955  , 918.6039    , 30.6583176  , 819.9074    , 1.99        , 7           , 255         , 0           , 0
-0.151773617, -9.784494   , -0.0898044258, 0.000338667771, 2.23325333E-06, 0.0006833909, 1.56181931  , -0.0167389885, 2.53600955  , 918.6039    , 30.6583176  , 819.907532  , 2           , 7           , 0           , 8.135237    , 200
-0.155249387, -9.787694   , -0.09030401 , 0.000194700246, -0.000424829079, 0.0007909406, 1.56181669  , -0.0167390779, 2.5360055   , 918.6039    , 30.6583176  , 819.8673    , 2.01        , 7           , 1           , 0           , 0
-0.160880923, -9.79262352 , -0.0909132659, -0.000214304382, -0.000451663858, 0.00112691289, 1.56181467  , -0.0167503748, 2.536001    , 918.6039    , 30.6583176  , 819.8672    , 2.02        , 7           , 2           , 0           , 0
-0.168862775, -9.801392   , -0.08801282 , -0.0008178171, 0.000559303735, 0.000217197317, 1.56180632  , -0.01675249 , 2.53600669  , 918.540161  , 30.6571655  , 819.867065  , 2.03        , 7           , 3           , 0           , 0
-0.16211848 , -9.802721   , -0.0895003751, -0.000254415965, 0.000154075969, -0.000457756338, 1.56180382  , -0.0167479  , 2.53600812  , 918.540161  , 30.6571655  , 819.866943  , 2.04        , 7           , 4           , 0           , 0
-0.161966234, -9.795087   , -0.08673497 , -0.000286013732, -0.00014406594, -0.00071034563, 1.561801    , -0.0167408064, 2.53600669  , 918.540161  , 30.6571655  , 819.8668    , 2.05        , 7           , 5           , 0           , 0
-0.160966337, -9.795566   , -0.08837359 , -0.000430877524, 0.000185082492, -0.000338077254, 1.56179655  , -0.0167374685, 2.5360086   , 918.540161  , 30.6571655  , 819.8667    , 2.06        , 7           , 6           , 0           , 0
-0.1603082  , -9.791522   , -0.09213876 , 0.00012380087, -0.0001679692, -3.153208E-05, 1.56179786  , -0.01673717 , 2.53600669  , 918.540161  , 30.6571655  , 819.8666    , 2.07        , 7           , 7           , 0           , 0
-0.158296362, -9.793141   , -0.09066069 , -0.000264565169, -0.000255351, -0.000376085372, 1.56179523  , -0.0167334136, 2.5360043   , 918.540161  , 30.6571655  , 819.866455  , 2.08        , 7           , 8           , 5           , 5
-0.1659365  , -9.795152   , -0.08369649 , 0.000459869159, 0.0003386541, 0.000620258157, 1.56179976  , -0.0167395547, 2.53600764  , 918.540161  , 30.6571655  , 819.866333  , 2.09        , 7           , 9           , 5           , 0.1
-0.160975188, -9.793829   , -0.09165876 , 0.0003841822, 0.0003763496, 0.00041834297, 1.56180358  , -0.0167436972, 2.53601146  , 918.540161  , 30.6571655  , 819.8662    , 2.1         , 7           , 10          , 0.1         , 0.1
-0.162712187, -9.788492   , -0.09411459 , -0.0002916677, 8.168229E-05, 0.0001289738, 1.56179833  , -0.0167397931, 2.53601217  , 918.540161  , 30.6571655  , 819.9088    , 2.11        , 7           , 11          , 0.008374427 , 0.00837442651
-0.159378216, -9.794087   , -0.09235079 , 0.000397387659, 3.4380937E-06, 0.000223018462, 1.56180227  , -0.0167420283, 2.53601241  , 918.540161  , 30.6571655  , 819.908936  , 2.12        , 7           , 12          , 0.03464815  , 0
-0.159900039, -9.793604   , -0.092813   , -0.000268669915, -0.000138001807, -0.000112487629, 1.56179965  , -0.0167408958, 2.536011    , 918.5989    , 30.65825    , 819.909058  , 2.13        , 7           , 13          , 0           , 0
-0.163209945, -9.795427   , -0.0936446041, -2.74758349E-05, 7.18125375E-06, -0.0015438199, 1.56179929  , -0.0167254563, 2.536011    , 918.5989    , 30.65825    , 819.9092    , 2.14        , 7           , 14          , 2.17917986E-05, 0.000960456848
-0.165933549, -9.796366   , -0.09023944 , 0.000223652911, 0.000163330871, -0.000416127848, 1.56180155  , -0.0167212822, 2.53601241  , 918.5989    , 30.65825    , 819.9093    , 2.15        , 7           , 15          , 0           , 0.000289861
-0.161497876, -9.798826   , -0.09343298 , 0.000324130757, -7.11510656E-05, 0.0004982675, 1.56180477  , -0.016726261, 2.536012    , 918.5989    , 30.65825    , 819.9094    , 2.16        , 7           , 16          , 0           , 1.401298E-45
-0.162912518, -9.781676   , -0.09125711 , 0.000500262133, 5.622889E-05, -0.000188137084, 1.56180978  , -0.0167243835, 2.53601241  , 918.5989    , 30.65825    , 819.909546  , 2.17        , 7           , 20          , 0           , 0
-0.166383281, -9.789615   , -0.08301499 , 0.0004488401, 0.000193835411, -5.91422722E-05, 1.56181419  , -0.0167237874, 2.53601432  , 918.5989    , 30.65825    , 819.909668  , 2.18        , 7           , 21          , 0           , 0
-0.1615685  , -9.79411    , -0.09110043 , 0.0002734976, 0.000232422084, 4.00459976E-05, 1.56181693  , -0.0167241748, 2.5360167   , 918.5989    , 30.65825    , 819.9098    , 2.19        , 7           , 22          , 0           , 0
-0.168279454, -9.799189   , -0.09228329 , 0.0002625179, 0.000200625567, 0.0003380981, 1.56181943  , -0.0167275425, 2.53601861  , 918.5989    , 30.65825    , 819.9099    , 2.2         , 7           , 40          , 0           , 0
-0.167492867, -9.805882   , -0.09105422 , -0.00012639584, 8.526491E-06, -3.61341517E-06, 1.56181061  , -0.0167260822, 2.53601885  , 918.5989    , 30.65825    , 819.8737    , 2.21        , 7           , 41          , 0           , 0
-0.156604975, -9.793568   , -0.0907773  , -0.000229106445, -0.000334742828, 0.000177761889, 1.56180835  , -0.01672787 , 2.53601551  , 918.5989    , 30.65825    , 819.873657  , 2.22        , 7           , 42          , 1           , 0
-0.164751008, -9.791137   , -0.0922011361, 0.000181109135, -0.000202302763, -0.000823943759, 1.56181014  , -0.0167197026, 2.5360136   , 918.511169  , 30.65574    , 819.8736    , 2.23        , 7           , 255         , 0           , 0
-0.167507142, -9.790111   , -0.0865807  , -0.0001964426, 0.000305626076, -0.0004776296, 1.56180811  , -0.0167148747, 2.53601646  , 918.511169  , 30.65574    , 819.873535  , 2.24        , 7           , 255         , 0           , 0
-0.1614728  , -9.796414   , -0.08285558 , -0.000119620367, 0.000258548069, -0.0002932906, 1.56180692  , -0.0167118944, 2.536019    , 918.511169  , 30.65574    , 819.8735    , 2.25        , 7           , 255         , 0           , 0
-0.1687042  , -9.795026   , -0.0829089  , 0.00146678509, 0.00033044524, 0.0008158819, 1.56182158  , -0.01672    , 2.53602242  , 918.511169  , 30.65574    , 819.8734    , 2.26        , 7           , 255         , 0           , 0
-0.168312609, -9.792538   , -0.08197568 , 0.000709131768, -4.72137472E-05, 0.000199207338, 1.56182861  , -0.0167219974, 2.536022    , 918.511169  , 30.65574    , 819.873352  , 2.27        , 7           , 255         , 0           , 0
-0.166090965, -9.788682   , -0.08490903 , 5.48416938E-05, 0.000286826747, -0.0002612531, 1.56182909  , -0.016719345, 2.53602481  , 918.511169  , 30.65574    , 819.8733    , 2.28        , 7           , 255         , 0           , 0
-0.150865376, -9.802403   , -0.09395016 , 0.0006356458, 0.000210133381, -0.000249655975, 1.56183541  , -0.0167168416, 2.53602672  , 918.511169  , 30.65574    , 819.8732    , 2.29        , 7           , 255         , 0           , 0
-0.15424335 , -9.79535    , -0.09069402 , 0.000117313117, 7.722329E-05, 2.018144E-05, 1.5618366   , -0.01671702 , 2.53602767  , 918.511169  , 30.65574    , 819.873169  , 2.3         , 7           , 255         , 0           , 0
-0.162424952, -9.785208   , -0.08260701 , -0.0001898653, 0.0003390772, 4.414271E-05, 1.561835    , -0.0167152323, 2.536031    , 918.511169  , 30.65574    , 819.954651  , 2.31        , 7           , 255         , 0           , 0
-0.154408857, -9.786542   , -0.08092044 , 0.0003437698, -0.000129226479, 0.000364674372, 1.56183851  , -0.016718898, 2.53602982  , 918.511169  , 30.65574    , 819.955139  , 2.32        , 7           , 255         , 0           , 0
-0.154007226, -9.7970705  , -0.08569995 , 0.000436874223, 0.0006305835, 0.000186565972, 1.56184292  , -0.0167207159, 2.536036    , 918.554749  , 30.657505   , 819.9556    , 2.33        , 7           , 255         , 0           , 0
-0.161911681, -9.799693   , -0.08802673 , -4.05109458E-05, -3.73693183E-07, 0.0002896582, 1.56184256  , -0.0167235788, 2.536036    , 918.554749  , 30.657505   , 819.9561    , 2.34        , 7           , 255         , 0           , 0
-0.170745239, -9.788011   , -0.0877574  , -0.0001929208, 4.490849E-05, -0.000767712947, 1.56184065  , -0.0167158879, 2.53603649  , 918.554749  , 30.657505   , 819.9566    , 2.35        , 7           , 255         , 0           , 0
-0.1593616  , -9.790107   , -0.0849288553, -0.000301833876, -0.000140814343, -0.0004509354, 1.56183767  , -0.0167113878, 2.536035    , 918.554749  , 30.657505   , 819.9571    , 2.36        , 7           , 255         , 0           , 0
-0.16180554 , -9.794895   , -0.0893734545, -9.81316E-05, 0.000143465237, -0.000178636576, 1.5618366   , -0.016709568, 2.53603649  , 918.554749  , 30.657505   , 819.9576    , 2.37        , 7           , 255         , 0           , 0
-0.156672478, -9.792275   , -0.09530816 , -0.0005683424, 0.000378921628, -0.000545097631, 1.56183088  , -0.0167040844, 2.53604     , 918.554749  , 30.657505   , 819.958069  , 2.38        , 7           , 255         , 0           , 0
-0.172967747, -9.801901   , -0.09443253 , -8.476906E-05, 0.000174696557, -0.0004632232, 1.56182992  , -0.0166994352, 2.53604174  , 918.554749  , 30.657505   , 819.958557  , 2.39        , 7           , 255         , 0           , 0
-0.1631769  , -9.797204   , -0.08809272 , 0.000224712392, -2.39510555E-05, -2.45285628E-05, 1.56183219  , -0.016699167, 2.5360415   , 918.554749  , 30.657505   , 819.959045  , 2.4         , 7           , 255         , 0           , 0
-0.163273111, -9.795564   , -0.0816044  , 2.67636533E-05, 0.00010455423, -0.0004915244, 1.56183255  , -0.016689837, 2.53604269  , 918.554749  , 30.657505   , 819.973     , 2.41        , 7           , 255         , 0           , 0
-0.1543089  , -9.8003     , -0.08799131 , 0.000149873056, 0.000142567791, -0.00103212916, 1.5618341   , -0.0166794639, 2.536044    , 918.554749  , 30.657505   , 819.9736    , 2.42        , 7           , 255         , 0           , 0
-0.154136181, -9.801531   , -0.08600616 , 0.0005079847, -0.000183079741, -0.0006626878, 1.56183922  , -0.0166728776, 2.536042    , 918.5881    , 30.6590652  , 819.9741    , 2.43        , 7           , 255         , 0           , 0
-0.162128448, -9.777851   , -0.08922584 , 0.000344402273, 0.000229829689, 0.0006922865, 1.56184256  , -0.0166798513, 2.53604436  , 918.5881    , 30.6590652  , 819.9747    , 2.44        , 7           , 255         , 0           , 0
-0.161348909, -9.788457   , -0.0839914158, 8.153975E-05, 0.000170874409, 0.0005256366, 1.56184328  , -0.0166850686, 2.53604627  , 918.5881    , 30.6590652  , 819.9752    , 2.45        , 7           , 255         , 0           , 0
-0.1611083  , -9.79999352 , -0.08641284 , 0.0002972433, 0.0004136935, -4.477377E-05, 1.56184626  , -0.0166845918, 2.53605032  , 918.5881    , 30.6590652  , 819.975769  , 2.46        , 7           , 255         , 0           , 0
-0.154745132, -9.801277   , -0.0916898251, 0.000192701089, 0.0009908994, 0.000301879743, 1.561848    , -0.0166875422, 2.53606033  , 918.5881    , 30.6590652  , 819.9763    , 2.47        , 7           , 255         , 0           , 0
-0.160254031, -9.79412651 , -0.100765765, -0.0003072369, 0.000517521868, 0.000576699036, 1.56184483  , -0.0166932642, 2.53606534  , 918.5881    , 30.6590652  , 819.976868  , 2.48        , 7           , 255         , 0           , 0
-0.161152869, -9.801588   , -0.0972114652, 0.000352934876, 0.000261572539, 0.000355002616, 1.56184828  , -0.01669681 , 2.5360682   , 918.5881    , 30.6590652  , 819.9774    , 2.49        , 7           , 255         , 0           , 0
-0.162330315, -9.798552   , -0.09175806 , 0.0004999267, 0.000212091138, 0.0008900305, 1.56185341  , -0.0167056639, 2.53607035  , 918.5881    , 30.6590652  , 819.978     , 2.5         , 7           , 255         , 0           , 0
-0.167881161, -9.805548   , -0.08263547 , -0.000473805965, 6.60598744E-06, 0.00055185915, 1.56184518  , -0.0167038757, 2.53607035  , 918.5881    , 30.6590652  , 819.9451    , 2.51        , 7           , 255         , 0           , 0
-0.170182228, -9.792958   , -0.08643125 , 0.0005189606, 0.000139342621, 0.000274471968, 1.56185031  , -0.0167066175, 2.53607178  , 918.5881    , 30.6590652  , 819.9455    , 2.52        , 7           , 255         , 0           , 0
-0.164403766, -9.795127   , -0.09529469 , 0.000175051537, 0.000343589345, -0.0007790495, 1.561852    , -0.01669881 , 2.536075    , 918.579956  , 30.65954    , 819.945862  , 2.53        , 7           , 255         , 0           , 0
-0.168585256, -9.789538   , -0.0940091237, 0.000295649457, 0.000198434573, -1.80303177E-05, 1.561855    , -0.01669863 , 2.53607726  , 918.579956  , 30.65954    , 819.9462    , 2.54        , 7           , 255         , 0           , 0
-0.157623142, -9.790822   , -0.0886137038, 0.0005147084, -0.000161526143, 0.000154779147, 1.56186008  , -0.01670021 , 2.53607559  , 918.579956  , 30.65954    , 819.9466    , 2.55        , 7           , 255         , 0           , 0
-0.159283489, -9.795349   , -0.08430816 , -9.234915E-05, -5.667773E-05, 0.000217017514, 1.56185913  , -0.0167023558, 2.536075    , 918.579956  , 30.65954    , 819.94696   , 2.56        , 7           , 255         , 0           , 0
-0.150353462, -9.806332   , -0.0905593038, -0.00018554402, -0.000243934919, 0.000245080824, 1.56185722  , -0.01670486 , 2.53607249  , 918.579956  , 30.65954    , 819.9473    , 2.57        , 7           , 255         , 0           , 0
-0.157209828, -9.797369   , -0.09550318 , 0.0002909626, 0.0003812674, -0.000677840435, 1.5618602   , -0.0166980345, 2.53607631  , 918.579956  , 30.65954    , 819.9477    , 2.58        , 7           , 255         , 0           , 0
-0.156765983, -9.79216    , -0.08798687 , 0.0005904399, 7.963332E-05, 0.000198805035, 1.561866    , -0.0167000312, 2.53607726  , 918.579956  , 30.65954    , 819.948059  , 2.59        , 7           , 255         , 0           , 0
-0.166542038, -9.803522   , -0.08196572 , 0.00109603035, 0.000136520131, -0.000485090131, 1.561877    , -0.0166952014, 2.53607845  , 918.579956  , 30.65954    , 819.9484    , 2.6         , 7           , 255         , 0           , 0
-0.159736633, -9.79536152 , -0.0871685  , 0.000117207113, 0.000513456063, 0.000310919277, 1.561876    , -0.01669529 , 2.5360837   , 918.579956  , 30.65954    , 819.9298    , 2.61        , 7           , 255         , 0           , 0
-0.170822352, -9.788712   , -0.0814597756, -0.0003100241, 0.000656549353, -2.931041E-05, 1.56187272  , -0.016694963, 2.53609014  , 918.579956  , 30.65954    , 819.930054  , 2.62        , 7           , 255         , 0           , 0
-0.1725392  , -9.793167   , -0.08497647 , 8.461593E-06, -0.0001298309, 0.000130170432, 1.56187284  , -0.0166963041, 2.53608871  , 918.547     , 30.6611671  , 819.9303    , 2.63        , 7           , 255         , 0           , 0
-0.167311385, -9.808217   , -0.08570826 , -0.0007269301, 0.000683684 , -2.29737489E-05, 1.56186545  , -0.0166960359, 2.53609562  , 918.547     , 30.6611671  , 819.930542  , 2.64        , 7           , 255         , 0           , 0
-0.158872515, -9.787866   , -0.08971928 , 2.91975648E-05, 0.0002945509, 0.000292690384, 1.56186569  , -0.0166989285, 2.53609848  , 918.547     , 30.6611671  , 819.9308    , 2.65        , 7           , 255         , 0           , 0
-0.151289955, -9.795252   , -0.0915187746, 0.000165669626, 0.000250324374, 0.00038034367, 1.56186724  , -0.0167027432, 2.536101    , 918.547     , 30.6611671  , 819.9311    , 2.66        , 7           , 255         , 0           , 0
-0.15723078 , -9.807416   , -0.09067436 , -0.0005491594, 0.0005497541, -0.000110528083, 1.56186175  , -0.0167015512, 2.53610659  , 918.547     , 30.6611671  , 819.9314    , 2.67        , 7           , 255         , 0           , 0
-0.164510682, -9.801598   , -0.0945460051, -0.000382261671, 4.260789E-05, -0.000163229153, 1.56185794  , -0.016699912, 2.536107    , 918.547     , 30.6611671  , 819.9317    , 2.68        , 7           , 255         , 0           , 0
-0.164585859, -9.800327   , -0.07960425 , 0.0008717114, 0.000117928139, 0.000211982842, 1.56186664  , -0.016702028, 2.53610826  , 918.547     , 30.6611671  , 819.932     , 2.69        , 7           , 255         , 0           , 0
-0.162002966, -9.790256   , -0.08572151 , -0.000130756976, 7.566705E-06, 0.0006059308, 1.56186533  , -0.0167081077, 2.53610826  , 918.547     , 30.6611671  , 819.9323    , 2.7         , 7           , 255         , 0           , 0
-0.1664816  , -9.789148   , -0.09263861 , -0.000156686787, 0.000199352624, -0.0007969668, 1.56186438  , -0.0166989285, 2.5361104   , 918.547     , 30.6611671  , 819.9614    , 2.71        , 7           , 255         , 0           , 0
-0.160120308, -9.784761   , -0.09015565 , -8.33389349E-05, -0.000233597355, 2.82924448E-05, 1.56186342  , -0.0166992266, 2.536108    , 918.547     , 30.6611671  , 819.9619    , 2.72        , 7           , 255         , 0           , 0
-0.1628921  , -9.793084   , -0.08496334 , 5.6772893E-05, 0.000124269864, 0.000246845069, 1.561864    , -0.01670167 , 2.53610921  , 918.54126   , 30.6568947  , 819.9624    , 2.73        , 7           , 255         , 0           , 0
-0.165471345, -9.784305   , -0.0891565  , -0.000358247751, 0.000113404589, -0.000173745138, 1.56186056  , -0.0166998822, 2.5361104   , 918.54126   , 30.6568947  , 819.9629    , 2.74        , 7           , 255         , 0           , 0
-0.164687932, -9.781442   , -0.08002938 , 0.000270509423, 7.909187E-05, 2.383138E-06, 1.56186318  , -0.0166999418, 2.53611088  , 918.54126   , 30.6568947  , 819.9634    , 2.75        , 7           , 255         , 0           , 0
-0.173478872, -9.789814   , -0.08855326 , -0.000114624592, 0.0004893133, 0.000348628731, 1.56186187  , -0.0167033989, 2.536116    , 918.54126   , 30.6568947  , 819.963867  , 2.76        , 7           , 255         , 0           , 0
-0.171927378, -9.791623   , -0.0853464156, -0.0001179659, -0.000125914346, 0.0005261666, 1.56186068  , -0.0167086739, 2.53611469  , 918.54126   , 30.6568947  , 819.964355  , 2.77        , 7           , 255         , 0           , 0
-0.176070318, -9.79270649 , -0.08466937 , 9.0268135E-05, -4.71494859E-05, 0.000220907154, 1.56186163  , -0.0167109109, 2.53611422  , 918.54126   , 30.6568947  , 819.964844  , 2.78        , 7           , 255         , 0           , 0
-0.1686299  , -9.788619   , -0.0893433243, 2.824064E-05, 0.000460829469, -5.50224067E-05, 1.56186187  , -0.0167103149, 2.53611875  , 918.54126   , 30.6568947  , 819.965332  , 2.79        , 7           , 255         , 0           , 0
-0.161580533, -9.780851   , -0.093674235, 0.0003323599, 0.000575524056, 0.0006527108, 1.56186509  , -0.0167168118, 2.53612471  , 918.54126   , 30.6568947  , 819.9658    , 2.8         , 7           , 255         , 0           , 0
-0.159520864, -9.789986   , -0.0891832  , -0.00029027235, -0.00022097351, 0.000873585057, 1.5618608   , -0.0167374685, 2.53612232  , 918.54126   , 30.6568947  , 819.998169  , 2.81        , 7           , 255         , 0           , 0
-0.169209212, -9.793093   , -0.08385124 , -0.000263795839, 0.000349615468, 0.0005460756, 1.561858    , -0.0167429522, 2.53612614  , 918.54126   , 30.6568947  , 819.99884   , 2.82        , 7           , 255         , 0           , 0
-0.167984277, -9.790785   , -0.0842025653, -5.70619377E-05, -0.000104319653, -8.65053153E-07, 1.56185746  , -0.016742982, 2.536125    , 918.5614    , 30.6592674  , 819.9995    , 2.83        , 7           , 255         , 0           , 0
-0.166523382, -9.790777   , -0.0872534662, 0.000491586863, 0.000321408152, -6.203525E-05, 1.56186235  , -0.0167423263, 2.536128    , 918.5614    , 30.6592674  , 820.0002    , 2.84        , 7           , 255         , 0           , 0
-0.15646553 , -9.796195   , -0.0874571353, -0.0001532505, 0.000124186277, 0.0003255944, 1.5618608   , -0.0167455748, 2.53612947  , 918.5614    , 30.6592674  , 820.000854  , 2.85        , 7           , 255         , 0           , 0
-0.176056683, -9.793071   , -0.0792074054, -0.000798192865, 0.0003005428, 0.000515589432, 1.56185281  , -0.0167507026, 2.53613234  , 918.5614    , 30.6592674  , 820.0015    , 2.86        , 7           , 255         , 0           , 0
-0.1678001  , -9.795169   , -0.08564283 , -0.0008286134, -5.482696E-06, 0.0004966428, 1.56184447  , -0.01675568 , 2.53613234  , 918.5614    , 30.6592674  , 820.0022    , 2.87        , 7           , 255         , 0           , 0
-0.165280178, -9.792318   , -0.095937   , 0.0004544435, 0.000123807462, 7.07788E-05 , 1.56184912  , -0.0167563651, 2.53613353  , 918.5614    , 30.6592674  , 820.002869  , 2.88        , 7           , 255         , 0           , 0
