Acc X       , Acc Y       , Acc Z       , Gyro X      , Gyro Y      , Gyro Z      , Euler X     , Euler Y     , Euler Z     , Pres X      , Pres Y      , Pres Z      , Time        , Status      , LowRate X   , LowRate Y   , LowRate Z    
-0.045542527, 0.139782012 , 9.787937    , 0           , 0           , 0           , -3.12731266 , -0.00465241633, 0           , 920.719238  , 29.3477459  , 800.554138  , 0           , 2           , 0           , 5.60023165  , 0
-0.0433743633, 0.1323196   , 9.810094    , -0.000187523547, 2.28338176E-05, 0.000465436518, -3.12731433 , -0.00465223 , -4.657087E-06, 920.719238  , 29.3477459  , 800.554138  , 0.01        , 3           , 1           , 0           , 0
-0.04330705 , 0.14488101  , 9.794362    , -0.0006495848, 0.0003407728, 8.79053E-05 , -3.12732077 , -0.00465562474, -5.584682E-06, 920.719238  , 29.3477459  , 800.554138  , 0.02        , 3           , 2           , 0           , 0
-0.04269162 , 0.144447312 , 9.780053    , -0.000279748347, 0.000235715881, 2.76849314E-05, -3.12732363 , -0.00465797773, -5.895136E-06, 920.670044  , 28.9223766  , 800.554138  , 0.03        , 3           , 3           , 0           , 0
-0.0298791621, 0.13628158  , 9.788365    , 0.000267765718, -2.6391237E-05, 0.0005404373, -3.127321   , -0.0046576364, -1.12951175E-05, 920.670044  , 28.9223766  , 800.554138  , 0.04        , 3           , 4           , 0           , 0
-0.0357959047, 0.137886792 , 9.808878    , 0.000235015643, 0.000122845173, 0.000156444119, -3.12731862 , -0.00465884246, -1.287691E-05, 920.670044  , 28.9223766  , 800.554138  , 0.05        , 3           , 5           , 0           , 0
-0.03728729 , 0.146269    , 9.808565    , -0.000150156615, 0.000289604766, 0.000436326169, -3.12732    , -0.004661676, -1.7281E-05 , 920.670044  , 28.9223766  , 800.554138  , 0.06        , 3           , 6           , 0           , 0
-0.0336723626, 0.148024648 , 9.797411    , 0.00015039905, 0.0001970582, 0.000147812039, -3.12731862 , -0.00466362527, -1.87870719E-05, 920.670044  , 28.9223766  , 800.554138  , 0.07        , 3           , 7           , 0           , 0
-0.04761499 , 0.1452051   , 9.788687    , -0.00024680316, 2.33233441E-05, -0.0004603149, -3.127321   , -0.004663924, -1.41877881E-05, 920.670044  , 28.9223766  , 800.554138  , 0.08        , 3           , 8           , 5           , 5
-0.050862968, 0.141593263 , 9.790045    , -8.19158158E-05, -0.000185198151, -0.000315434765, -3.127322   , -0.004662117, -1.10073724E-05, 920.670044  , 28.9223766  , 800.554138  , 0.09        , 3           , 9           , 5           , 0.1
-0.04406067 , 0.142943233 , 9.804988    , 0.000128296437, -6.008777E-05, -0.0005246232, -3.12732053 , -0.00466159126, -5.75317154E-06, 920.670044  , 28.9223766  , 800.554138  , 0.1         , 3           , 10          , 0.1         , 0.1
-0.05860279 , 0.144870326 , 9.81025     , -8.305226E-05, -0.0003586195, 0.0008339421, -3.12731457 , -0.00464238971, -1.40725688E-05, 920.670044  , 28.9223766  , 800.998169  , 0.11        , 3           , 11          , 0.0109544508, 0.0109544508
-0.05376156 , 0.1457011   , 9.806263    , -0.000109406712, -0.000118704746, 0.000443571975, -3.12731552 , -0.00464113941, -1.849083E-05, 920.670044  , 28.9223766  , 800.998169  , 0.12        , 3           , 12          , 0.174642488 , 0
-0.0415031947, 0.150097936 , 9.780545    , 9.638548E-05, -7.802853E-05, 9.319483E-05, -3.12731457 , -0.004640346, -1.94115255E-05, 920.7081    , 28.9621334  , 800.998169  , 0.13        , 3           , 13          , 0           , 0
-0.0450439379, 0.139702514 , 9.790138    , 8.817995E-05, 8.55203252E-05, -0.00010049736, -3.12731361 , -0.004641216, -1.84188775E-05, 920.7081    , 28.9621334  , 800.998169  , 0.14        , 3           , 14          , 0.0009799757, 0.00174917607
-0.04987178 , 0.13893196  , 9.792026    , 0.000149436877, -8.849893E-06, -0.000279244035, -3.12731218 , -0.00464116735, -1.5625501E-05, 920.7081    , 28.9621334  , 800.998169  , 0.15        , 3           , 15          , 0           , 0.000378526951
-0.04956958 , 0.141996488 , 9.802028    , 0.000507029239, -0.000103338738, -0.000302550441, -3.12730718 , -0.004640177, -1.25855859E-05, 920.7081    , 28.9621334  , 800.9982    , 0.16        , 3           , 16          , 0           , 1.401298E-45
-0.0581691042, 0.139527634 , 9.796766    , -4.54513938E-05, -2.35930784E-05, 0.000209926366, -3.12730765 , -0.004639911, -1.46812372E-05, 920.7081    , 28.9621334  , 800.9983    , 0.17        , 3           , 20          , 0           , 0
-0.0542966127, 0.144301042 , 9.800112    , -0.000213606341, 0.000108369393, -0.0003174006, -3.1273098  , -0.00464104 , -1.15230778E-05, 920.7081    , 28.9621334  , 800.998352  , 0.18        , 3           , 21          , 0           , 0
-0.0465970077, 0.144633785 , 9.786825    , 3.86284664E-05, 0.000382052036, -0.000128902931, -3.12730932 , -0.00464487867, -1.02887707E-05, 920.7081    , 28.9621334  , 800.9984    , 0.19        , 3           , 22          , 0           , 0
-0.0459500551, 0.15394634  , 9.786974    , 4.09747E-06 , 0.000480114948, 0.000171034277, -3.12730932 , -0.0046496545, -1.20674858E-05, 920.7081    , 28.9621334  , 800.9985    , 0.2         , 3           , 40          , 0           , 0
-0.0488233939, 0.135547429 , 9.801993    , 0.000640355749, 0.000101367594, 0.0004552169, -3.12728715 , -0.004667599, -1.67066864E-05, 920.7081    , 28.9621334  , 800.8264    , 0.21        , 3           , 41          , 0           , 0
-0.0462725945, 0.132352844 , 9.810695    , 0.000518419431, -0.000417119823, 0.0004262486, -3.12728214 , -0.00466336729, -2.09089976E-05, 920.7081    , 28.9621334  , 800.8265    , 0.22        , 3           , 42          , 0           , 0
-0.0459986  , 0.147572115 , 9.803851    , 1.68788247E-05, -9.84529E-05, -0.0007084058, -3.127282   , -0.004662485, -1.38116748E-05, 920.7161    , 28.9862156  , 800.826538  , 0.23        , 3           , 255         , 0           , 0
-0.0462363  , 0.148603871 , 9.790567    , -5.63112553E-06, -6.956549E-05, -7.82639254E-05, -3.127282   , -0.004661801, -1.30191738E-05, 920.7161    , 28.9862156  , 800.8266    , 0.24        , 3           , 255         , 0           , 0
-0.04533662 , 0.143525779 , 9.792711    , 0.000217173365, -0.000133575872, 0.000479507027, -3.12727976 , -0.00466039637, -1.77945712E-05, 920.7161    , 28.9862156  , 800.82666   , 0.25        , 3           , 255         , 0           , 0
-0.0467189178, 0.14245525  , 9.797301    , 0.000290578348, -6.913603E-05, 0.000495287939, -3.127277   , -0.004659634, -2.27369728E-05, 920.7161    , 28.9862156  , 800.8267    , 0.26        , 3           , 255         , 0           , 0
-0.05010829 , 0.150096819 , 9.803568    , -0.000154660142, -2.63601542E-05, -0.0004903207, -3.12727833 , -0.004659441, -1.78305654E-05, 920.7161    , 28.9862156  , 800.8268    , 0.27        , 3           , 255         , 0           , 0
-0.043449793, 0.15466769  , 9.798471    , 0.0005060235, -0.0003704062, -0.0005264551, -3.12727332 , -0.0046558124, -1.25136012E-05, 920.7161    , 28.9862156  , 800.826843  , 0.28        , 3           , 255         , 0           , 0
-0.03921434 , 0.145418122 , 9.788296    , 6.304274E-05, -3.55491647E-05, 0.00038605975, -3.12727284 , -0.00465540169, -1.63686582E-05, 920.7161    , 28.9862156  , 800.8269    , 0.29        , 3           , 255         , 0           , 0
-0.0510546342, 0.1452187   , 9.7808      , 2.79900851E-05, -0.00025730452, -5.73676662E-05, -3.12727237 , -0.00465283729, -1.575821E-05, 920.7161    , 28.9862156  , 800.826965  , 0.3         , 3           , 255         , 0           , 0
-0.04598474 , 0.135252148 , 9.784742    , 0.000259056222, -3.192213E-05, 0.000341927545, -3.12725663 , -0.00465448061, -1.92344087E-05, 920.7161    , 28.9862156  , 800.7454    , 0.31        , 3           , 255         , 0           , 0
-0.0446337573, 0.132290751 , 9.79688549  , 7.818022E-05, 0.000221324968, 0.0008553029, -3.12725568 , -0.004656571, -2.78181633E-05, 920.7161    , 28.9862156  , 800.7455    , 0.32        , 3           , 255         , 0           , 0
-0.039005056, 0.139160246 , 9.811749    , -0.000440384727, 0.000435286318, 0.0006370323, -3.12726021 , -0.0046608313, -3.42501444E-05, 920.710449  , 29.0036526  , 800.745544  , 0.33        , 3           , 255         , 0           , 0
-0.0466360822, 0.135628983 , 9.799555    , -0.000298922416, 7.22280238E-05, -0.000162153854, -3.127263   , -0.004661577, -3.26391419E-05, 920.710449  , 29.0036526  , 800.7456    , 0.34        , 3           , 255         , 0           , 0
-0.0457438454, 0.138602659 , 9.800077    , -0.000148485531, 0.000192358973, -0.0005592546, -3.1272645  , -0.00466358 , -2.70748151E-05, 920.710449  , 29.0036526  , 800.745667  , 0.35        , 3           , 255         , 0           , 0
-0.04861931 , 0.15091148  , 9.79697     , 0.0002183282, 5.74375736E-05, -0.000192014835, -3.12726235 , -0.004664182, -2.51631191E-05, 920.710449  , 29.0036526  , 800.7457    , 0.36        , 3           , 255         , 0           , 0
-0.0408422537, 0.144202158 , 9.791252    , 0.00011871953, 0.000199413742, 0.000625689863, -3.12726116 , -0.00466608675, -3.14478639E-05, 920.710449  , 29.0036526  , 800.7458    , 0.37        , 3           , 255         , 0           , 0
-0.0379084721, 0.14634946  , 9.805426    , 8.15338E-05 , 0.000337386155, 0.000577821163, -3.12726045 , -0.004669377, -3.72737522E-05, 920.710449  , 29.0036526  , 800.74585   , 0.38        , 3           , 255         , 0           , 0
-0.0365716927, 0.130335584 , 9.802027    , -0.0006108006, -0.0001378688, -3.28107853E-06, -3.12726641 , -0.004667999, -3.72211944E-05, 920.710449  , 29.0036526  , 800.7459    , 0.39        , 3           , 255         , 0           , 0
-0.04454288 , 0.13955763  , 9.797308    , 0.00030502642, 0.000107483822, 0.000438609131, -3.12726331 , -0.004669011, -4.162217E-05, 920.710449  , 29.0036526  , 800.746     , 0.4         , 3           , 255         , 0           , 0
-0.04597453 , 0.147434786 , 9.798518    , -0.000244502153, 0.00022641744, 0.0004978672, -3.127269   , -0.00466397358, -4.66176571E-05, 920.710449  , 29.0036526  , 800.717651  , 0.41        , 3           , 255         , 0           , 0
-0.0501110069, 0.145154148 , 9.794082    , -0.00018964184, 0.0001457833, -0.000355460827, -3.127271   , -0.004665482, -4.30843429E-05, 920.710449  , 29.0036526  , 800.7177    , 0.42        , 3           , 255         , 0           , 0
-0.04810495 , 0.150152817 , 9.786841    , -0.000530676334, -0.0005848077, -0.0009271964, -3.12727642 , -0.00465976773, -3.37297242E-05, 920.744     , 29.0159988  , 800.7178    , 0.43        , 3           , 255         , 0           , 0
-0.048235368, 0.148294911 , 9.786393    , -0.000245252973, -0.000229257974, 0.000102821476, -3.1272788  , -0.004657461, -3.472501E-05, 920.744     , 29.0159988  , 800.717834  , 0.44        , 3           , 255         , 0           , 0
-0.0436531566, 0.140324965 , 9.80396     , -2.74961349E-05, 0.000245202682, 0.000399849552, -3.127279   , -0.00465985527, -3.87581349E-05, 920.744     , 29.0159988  , 800.7179    , 0.45        , 3           , 255         , 0           , 0
-0.0470801666, 0.147032708 , 9.794823    , -0.000456673617, 0.000673188246, 4.57924325E-05, -3.12728357 , -0.00466657942, -3.931234E-05, 920.744     , 29.0159988  , 800.717957  , 0.46        , 3           , 255         , 0           , 0
-0.0501001254, 0.1397167   , 9.790021    , -0.000548784854, 0.0005842262, 0.0005265928, -3.127289   , -0.00467234664, -4.466124E-05, 920.744     , 29.0159988  , 800.718     , 0.47        , 3           , 255         , 0           , 0
-0.05229164 , 0.134603426 , 9.789886    , -0.000377853634, 0.000295878272, 2.08133424E-05, -3.12729287 , -0.00467530126, -4.491166E-05, 920.744     , 29.0159988  , 800.71814   , 0.48        , 3           , 255         , 0           , 0
-0.05325973 , 0.141701624 , 9.790498    , 7.86127057E-05, 0.000165898236, 7.993818E-05, -3.12729216 , -0.0046769483, -4.573467E-05, 920.744     , 29.0159988  , 800.718262  , 0.49        , 3           , 255         , 0           , 0
-0.0426796377, 0.1327896   , 9.790416    , 4.39736759E-05, 1.54750887E-05, 5.05782664E-05, -3.12729168 , -0.004677096, -4.62426069E-05, 920.744     , 29.0159988  , 800.7184    , 0.5         , 3           , 255         , 0           , 0
-0.037184298, 0.138488621 , 9.796228    , -3.56397941E-05, -5.0927978E-05, -0.0005701113, -3.12728238 , -0.00468627131, -4.058029E-05, 920.744     , 29.0159988  , 800.6392    , 0.51        , 3           , 255         , 0           , 0
-0.04176607 , 0.1420623   , 9.80067     , -0.0003066592, 1.8329476E-05, -0.000216062064, -3.12728548 , -0.00468648551, -3.84225423E-05, 920.744     , 29.0159988  , 800.6393    , 0.52        , 3           , 255         , 0           , 0
-0.0412406027, 0.153037012 , 9.797069    , -3.190909E-05, 7.241045E-05, 0.0002410234, -3.12728572 , -0.004687175, -4.08428568E-05, 920.7164    , 29.02414    , 800.639343  , 0.53        , 3           , 255         , 0           , 0
-0.0437114462, 0.142182559 , 9.7957325   , -0.0002835933, 0.0004590886, -5.76308521E-05, -3.12728858 , -0.00469177356, -4.0332292E-05, 920.7164    , 29.02414    , 800.6394    , 0.54        , 3           , 255         , 0           , 0
-0.04209736 , 0.143670529 , 9.787222    , -0.000579917, 0.000185676152, 0.000436717732, -3.1272943  , -0.00469356868, -4.47255152E-05, 920.7164    , 29.02414    , 800.639465  , 0.55        , 3           , 255         , 0           , 0
-0.0448231064, 0.143234938 , 9.789846    , -3.4836994E-05, -9.317021E-05, 0.0006777459, -3.12729454 , -0.00469253957, -5.148886E-05, 920.7164    , 29.02414    , 800.6395    , 0.56        , 3           , 255         , 0           , 0
-0.04827638 , 0.15266718  , 9.793127    , 3.35115474E-05, -0.00021913962, 4.22066369E-05, -3.1272943  , -0.004690342, -5.18795459E-05, 920.7164    , 29.02414    , 800.639648  , 0.57        , 3           , 255         , 0           , 0
-0.05478873 , 0.144586921 , 9.796583    , -0.00038602046, 0.000434592948, 6.953566E-05, -3.127298   , -0.004694678, -5.26369549E-05, 920.7164    , 29.02414    , 800.6398    , 0.58        , 3           , 255         , 0           , 0
-0.0530690365, 0.14896524  , 9.801233    , -0.000168720842, 0.000274462043, 5.10167156E-05, -3.12729979 , -0.00469741458, -5.318629E-05, 920.7164    , 29.02414    , 800.6399    , 0.59        , 3           , 255         , 0           , 0
-0.0413308479, 0.146550015 , 9.797037    , 6.769085E-05, 0.0007037801, -0.000183726646, -3.127299   , -0.00470447773, -5.144982E-05, 920.7164    , 29.02414    , 800.64      , 0.6         , 3           , 255         , 0           , 0
-0.0380655937, 0.1415416   , 9.79365349  , 1.17181335E-05, 0.000281448 , 0.0003506454, -3.12728238 , -0.00470377132, -5.5073775E-05, 920.7164    , 29.02414    , 800.629944  , 0.61        , 3           , 255         , 0           , 0
-0.0346727446, 0.14965336  , 9.791526    , -0.000433342, -5.27706E-05, 0.0005277203, -3.127287   , -0.00470316829, -6.034282E-05, 920.7164    , 29.02414    , 800.630066  , 0.62        , 3           , 255         , 0           , 0
-0.04184087 , 0.153691486 , 9.794972    , -0.0003174278, 0.000179443858, -3.14623467E-05, -3.12729    , -0.00470496668, -6.00538951E-05, 920.632446  , 29.02855    , 800.6302    , 0.63        , 3           , 255         , 0           , 0
-0.0394081958, 0.148657829 , 9.785627    , -6.35433244E-05, 0.000232144026, -0.000168142957, -3.12729073 , -0.004707312, -5.84058653E-05, 920.632446  , 29.02855    , 800.6303    , 0.64        , 3           , 255         , 0           , 0
-0.0361745059, 0.144892037 , 9.792263    , 0.0002687123, 3.11099E-05 , 0.0002195785, -3.12728786 , -0.00470759161, -6.06058456E-05, 920.632446  , 29.02855    , 800.630432  , 0.65        , 3           , 255         , 0           , 0
-0.0421298333, 0.146084517 , 9.797075    , 0.0006563396, 0.00015204621, 0.0002766346, -3.12728143 , -0.004709073, -6.339363E-05, 920.632446  , 29.02855    , 800.630554  , 0.66        , 3           , 255         , 0           , 0
-0.04174544 , 0.149827242 , 9.802841    , 0.000645781634, 0.000123340171, -0.000193019325, -3.127275   , -0.00471033342, -6.14813E-05, 920.632446  , 29.02855    , 800.6307    , 0.67        , 3           , 255         , 0           , 0
-0.0449582636, 0.142015427 , 9.795122    , 0.000187259866, -0.000356610049, -0.0004973991, -3.127273   , -0.004706839, -5.64568363E-05, 920.632446  , 29.02855    , 800.6308    , 0.68        , 3           , 255         , 0           , 0
-0.051525306, 0.150746986 , 9.794395    , 0.0005744422, -0.000221277, -0.0006148368, -3.12726736 , -0.00470471429, -5.02774856E-05, 920.632446  , 29.02855    , 800.6309    , 0.69        , 3           , 255         , 0           , 0
-0.0399621241, 0.148263946 , 9.787059    , 6.61747763E-05, 5.40823676E-05, 0.000476307934, -3.12726665 , -0.004705187, -5.504776E-05, 920.632446  , 29.02855    , 800.631042  , 0.7         , 3           , 255         , 0           , 0
-0.0467063673, 0.14883101  , 9.788432    , -0.0003061212, -2.38309149E-05, 0.000212556071, -3.127245   , -0.004688015, -5.72862555E-05, 920.632446  , 29.02855    , 800.739441  , 0.71        , 3           , 255         , 0           , 0
-0.0448978469, 0.144480109 , 9.7899065   , 0.00024135632, -0.0001227447, -0.000191596235, -3.12724233 , -0.004686815, -5.53529E-05, 920.632446  , 29.02855    , 800.7396    , 0.72        , 3           , 255         , 0           , 0
-0.0419062376, 0.1501508   , 9.790468    , -0.000231277314, -0.000241066446, -0.000427747029, -3.12724471 , -0.004684466, -5.104134E-05, 920.729431  , 29.0326214  , 800.7398    , 0.73        , 3           , 255         , 0           , 0
-0.0413128771, 0.142481416 , 9.796081    , -0.000113590329, 6.34701E-05 , -0.0002648427, -3.127246   , -0.004685139, -4.840233E-05, 920.729431  , 29.0326214  , 800.74      , 0.74        , 3           , 255         , 0           , 0
-0.0502261929, 0.144453719 , 9.80001     , 7.299811E-05, 0.000364660984, -2.29623984E-05, -3.12724519 , -0.004688788, -4.82250471E-05, 920.729431  , 29.0326214  , 800.7402    , 0.75        , 3           , 255         , 0           , 0
-0.0534865148, 0.143599838 , 9.789313    , 3.48144677E-05, -3.59625556E-05, -0.0003476527, -3.127245   , -0.00468847854, -4.474377E-05, 920.729431  , 29.0326214  , 800.740356  , 0.76        , 3           , 255         , 0           , 0
-0.0465115421, 0.152332634 , 9.785132    , 0.0002508025, -0.0004305516, -0.00070424017, -3.12724233 , -0.00468427455, -3.764041E-05, 920.729431  , 29.0326214  , 800.74054   , 0.77        , 3           , 255         , 0           , 0
-0.03976292 , 0.141154885 , 9.791224    , -1.3240031E-05, 5.21595357E-05, 0.000411393848, -3.12724257 , -0.004684737, -4.176135E-05, 920.729431  , 29.0326214  , 800.7407    , 0.78        , 3           , 255         , 0           , 0
-0.0488896854, 0.149303466 , 9.79258251  , -5.214382E-05, 0.0002641948, 0.000630614231, -3.127243   , -0.00468728831, -4.81046627E-05, 920.729431  , 29.0326214  , 800.7409    , 0.79        , 3           , 255         , 0           , 0
-0.05276563 , 0.148902029 , 9.796123    , 0.0004845336, 0.000273969024, -0.000311011681, -3.12723827 , -0.0046900725, -4.50342268E-05, 920.729431  , 29.0326214  , 800.7411    , 0.8         , 3           , 255         , 0           , 0
-0.0612137243, 0.133907691 , 9.789795    , 8.114334E-05, -0.000178162591, -0.000408717082, -3.12721539 , -0.00469102152, -4.102466E-05, 920.729431  , 29.0326214  , 800.7032    , 0.81        , 3           , 255         , 0           , 0
-0.05929657 , 0.141395167 , 9.792147    , -0.000380950631, -9.8636956E-05, 0.000321499276, -3.1272192  , -0.004689989, -4.42251E-05, 920.729431  , 29.0326214  , 800.703369  , 0.82        , 3           , 255         , 0           , 0
-0.06327262 , 0.1395531   , 9.800069    , -0.0004788051, 0.0001427636, 0.0002204903, -3.127224   , -0.00469138473, -4.64502627E-05, 920.6917    , 29.0368271  , 800.703552  , 0.83        , 3           , 255         , 0           , 0
-0.0533313043, 0.136629269 , 9.798273    , -0.0002377195, 1.49670523E-05, -0.000140599092, -3.12722635 , -0.00469155563, -4.504658E-05, 920.6917    , 29.0368271  , 800.703735  , 0.84        , 3           , 255         , 0           , 0
-0.0485133454, 0.138021454 , 9.792484    , -0.0003964624, -0.0002950977, 0.000416812574, -3.12723041 , -0.00468854466, -4.91718347E-05, 920.6917    , 29.0368271  , 800.7039    , 0.85        , 3           , 255         , 0           , 0
-0.04623001 , 0.138286248 , 9.79132652  , -8.407573E-05, 0.000151962624, 0.000276279374, -3.12723112 , -0.004690024, -5.19561254E-05, 920.6917    , 29.0368271  , 800.7041    , 0.86        , 3           , 255         , 0           , 0
-0.0404356681, 0.145096421 , 9.790454    , 0.0006146128, -2.24275282E-05, 0.00021095734, -3.12722516 , -0.00468977 , -5.40622241E-05, 920.6917    , 29.0368271  , 800.7043    , 0.87        , 3           , 255         , 0           , 0
-0.0437686853, 0.153610811 , 9.797113    , 0.00011857925, -0.000129019842, 1.23193313E-05, -3.127224   , -0.00468847854, -5.41668633E-05, 920.6917    , 29.0368271  , 800.704468  , 0.88        , 3           , 255         , 0           , 0
-0.04507112 , 0.147014618 , 9.79545     , -0.000362958235, -0.000119798118, 0.000233038765, -3.12722754 , -0.004687247, -5.647977E-05, 920.6917    , 29.0368271  , 800.704651  , 0.89        , 3           , 255         , 0           , 0
-0.0456487052, 0.154150188 , 9.796135    , -0.000161448435, 0.000221297145, 0.000111283065, -3.127229   , -0.00468944339, -5.76242564E-05, 920.6917    , 29.0368271  , 800.704834  , 0.9         , 3           , 255         , 0           , 0
-0.0421896838, 0.142281547 , 9.802288    , -0.000279199856, 0.0003986609, 0.0002556074, -3.12722564 , -0.00470740953, -6.02661348E-05, 920.6917    , 29.0368271  , 800.7178    , 0.91        , 3           , 255         , 0           , 0
-0.03562506 , 0.13808313  , 9.795294    , 0.000430681277, 0.0001274352, -4.98950249E-05, -3.12722135 , -0.00470869057, -5.978555E-05, 920.6917    , 29.0368271  , 800.717957  , 0.92        , 3           , 255         , 0           , 0
-0.03676122 , 0.148006052 , 9.796081    , 0.0006504073, -0.0003077234, -0.0005634566, -3.127215   , -0.0047056945, -5.41074078E-05, 920.728333  , 29.0388622  , 800.71814   , 0.93        , 3           , 255         , 0           , 0
-0.03258813 , 0.13564831  , 9.805279    , 0.0001280118, -3.627024E-05, -0.000658118166, -3.12721372 , -0.00470542675, -4.75217821E-05, 920.728333  , 29.0388622  , 800.7183    , 0.94        , 3           , 255         , 0           , 0
-0.0285029858, 0.147340253 , 9.798083    , -0.0001143564, 0.000583618763, -0.000236909269, -3.127215   , -0.00471129641, -4.52368768E-05, 920.728333  , 29.0388622  , 800.7185    , 0.95        , 3           , 255         , 0           , 0
-0.0282000154, 0.148949653 , 9.793088    , -0.000217468943, 5.84779773E-05, 0.000448515784, -3.127217   , -0.00471181562, -4.97299152E-05, 920.728333  , 29.0388622  , 800.7187    , 0.96        , 3           , 255         , 0           , 0
-0.0350325555, 0.147750109 , 9.803563    , -0.000707522035, -0.0002303553, 2.07620033E-05, -3.127224   , -0.00470950967, -4.99044036E-05, 920.728333  , 29.0388622  , 800.7189    , 0.97        , 3           , 255         , 0           , 0
-0.04227703 , 0.1512113   , 9.798572    , -0.000471266, -2.34359177E-05, 0.000613866956, -3.12722874 , -0.004709187, -5.60389926E-05, 920.728333  , 29.0388622  , 800.719055  , 0.98        , 3           , 255         , 0           , 0
-0.0446799248, 0.14140293  , 9.794824    , 1.717708E-05, -4.82754549E-05, -0.0003687243, -3.1272285  , -0.004708757, -5.234525E-05, 920.728333  , 29.0388622  , 800.7193    , 0.99        , 3           , 255         , 0           , 0
-0.0586549155, 0.14770481  , 9.797157    , -0.000300470041, 0.000346184359, -4.18900163E-05, -3.1272316  , -0.004712224, -5.19761161E-05, 920.728333  , 29.0388622  , 800.719543  , 1           , 3           , 0           , 6.60023642  , 100
-0.0534306765, 0.1469655   , 9.797458    , -0.000363610918, 0.0002505537, -0.000190049643, -3.12722635 , -0.004697225, -5.01540162E-05, 920.728333  , 29.0388622  , 800.69      , 1.01        , 3           , 1           , 0           , 0
-0.0569934435, 0.14401865  , 9.791886    , 9.333284E-05, -5.85247763E-05, 0.0002560082, -3.1272254  , -0.004696603, -5.27053926E-05, 920.728333  , 29.0388622  , 800.6902    , 1.02        , 3           , 2           , 0           , 0
-0.04031133 , 0.1452553   , 9.803201    , 0.000415880233, 0.0004407491, 0.0006659591, -3.127221   , -0.00470091449, -5.942753E-05, 920.707153  , 29.0410328  , 800.690369  , 1.03        , 3           , 3           , 0           , 0
-0.04446044 , 0.139513567 , 9.800578    , -0.000132963352, 0.000350543531, 0.00095401716, -3.12722254 , -0.00470428169, -6.901696E-05, 920.707153  , 29.0410328  , 800.690552  , 1.04        , 3           , 4           , 0           , 0
-0.05214719 , 0.143472746 , 9.797224    , -0.0006054978, -3.98993725E-05, -0.000236273729, -3.1272285  , -0.004703916, -6.664877E-05, 920.707153  , 29.0410328  , 800.690735  , 1.05        , 3           , 5           , 0           , 0
-0.0689983  , 0.149059027 , 9.793934    , -0.0002065606, 0.000236175489, -0.0005538851, -3.12723064 , -0.004706357, -6.114448E-05, 920.707153  , 29.0410328  , 800.6909    , 1.06        , 3           , 6           , 0           , 0
-0.05493342 , 0.155097336 , 9.7925      , -0.000295762322, 0.000208340818, -0.000304933259, -3.12723351 , -0.004708485, -5.81254171E-05, 920.707153  , 29.0410328  , 800.6911    , 1.07        , 3           , 7           , 0           , 0
-0.05209089 , 0.150867373 , 9.798726    , 0.000302664237, 0.0006381972, 0.0005180852, -3.12723041 , -0.00471479166, -6.339731E-05, 920.707153  , 29.0410328  , 800.6913    , 1.08        , 3           , 8           , 5           , 5
-0.0528981462, 0.143462449 , 9.801743    , 0.000265873037, 0.000483192271, 0.0005660221, -3.12722778 , -0.00471954234, -6.912627E-05, 920.707153  , 29.0410328  , 800.691467  , 1.09        , 3           , 9           , 5           , 0.1
-0.0453292951, 0.140843883 , 9.795214    , -0.0005561983, 0.000305147376, 0.000528723933, -3.12723327 , -0.004722517, -7.44567151E-05, 920.707153  , 29.0410328  , 800.69165   , 1.1         , 3           , 10          , 0.1         , 0.1
-0.0399574041, 0.146643385 , 9.788691    , -0.0004116143, 0.00015554612, 0.000544843148, -3.1272254  , -0.004738317, -7.998382E-05, 920.707153  , 29.0410328  , 800.6886    , 1.11        , 3           , 11          , 0.00937047  , 0.00937046949
-0.0407597  , 0.146722123 , 9.795011    , 0.000146285514, -0.0002503565, 0.000251699326, -3.127224   , -0.00473577762, -8.246456E-05, 920.707153  , 29.0410328  , 800.6888    , 1.12        , 3           , 12          , 0.174642846 , 0
-0.03627636 , 0.144697815 , 9.796146    , -5.90476557E-05, 2.515607E-05, -8.51569639E-05, -3.12722445 , -0.004736041, -8.16167E-05, 920.717834  , 29.0453072  , 800.688965  , 1.13        , 3           , 13          , 0           , 0
-0.05062318 , 0.14142786  , 9.789264    , -0.000102377089, 0.000208348385, 2.288085E-06, -3.12722564 , -0.004738124, -8.166951E-05, 920.717834  , 29.0453072  , 800.689148  , 1.14        , 3           , 14          , 0.000979888 , 0.00174917083
-0.0517878048, 0.1464406   , 9.800259    , 0.000176808448, -0.000279901782, 6.865943E-06, -3.12722373 , -0.00473532453, -8.169795E-05, 920.717834  , 29.0453072  , 800.689331  , 1.15        , 3           , 15          , 0           , 0.000378526543
-0.047016494, 0.1468773   , 9.797998    , -0.000323895249, -9.801111E-05, -0.000588569266, -3.127227   , -0.004734429, -7.579887E-05, 920.717834  , 29.0453072  , 800.6895    , 1.16        , 3           , 16          , 0           , 1.401298E-45
-0.0377523564, 0.14448     , 9.793047    , 0.0001537383, 0.0007461159, -7.955267E-05, -3.12722564 , -0.004741901, -7.511061E-05, 920.717834  , 29.0453072  , 800.6897    , 1.17        , 3           , 20          , 0           , 0
-0.0350015871, 0.148570448 , 9.793661    , -0.000751750951, 0.000473789521, 0.0003170887, -3.127233   , -0.004746592, -7.83492E-05, 920.717834  , 29.0453072  , 800.6899    , 1.18        , 3           , 21          , 0           , 0
-0.0299590416, 0.141082615 , 9.794489    , -0.00012647477, 6.173749E-05, 0.0001966148, -3.12723422 , -0.004747181, -8.03239745E-05, 920.717834  , 29.0453072  , 800.690063  , 1.19        , 3           , 22          , 0           , 0
-0.03226372 , 0.1414705   , 9.794644    , -4.14276146E-05, 0.0005872123, -0.000667980465, -3.1272347  , -0.00475314865, -7.37292648E-05, 920.717834  , 29.0453072  , 800.690247  , 1.2         , 3           , 40          , 0           , 0
-0.0306030177, 0.151109844 , 9.798896    , -0.000363113766, 0.0001715119, 0.000213359046, -3.127227   , -0.00473761372, -7.594078E-05, 920.717834  , 29.0453072  , 800.6765    , 1.21        , 3           , 41          , 0           , 0
-0.0418057255, 0.150460243 , 9.79359     , -7.352722E-05, 0.000214540632, 0.0002622635, -3.12722778 , -0.00473972 , -7.859393E-05, 920.717834  , 29.0453072  , 800.676636  , 1.22        , 3           , 42          , 0           , 0
-0.04209735 , 0.146664575 , 9.795273    , 0.000207602046, 0.000112002948, -4.790406E-05, -3.12722564 , -0.004740847, -7.813102E-05, 920.7182    , 29.0480213  , 800.676758  , 1.23        , 3           , 255         , 0           , 0
-0.04614409 , 0.14596872  , 9.797345    , -0.0004026324, -0.000625345856, 0.000209846388, -3.12722969 , -0.00473456364, -8.013942E-05, 920.7182    , 29.0480213  , 800.676941  , 1.24        , 3           , 255         , 0           , 0
-0.0518982634, 0.148037508 , 9.800968    , 0.000335128163, -0.000198260881, 0.00016310878, -3.12722635 , -0.0047325585, -8.174185E-05, 920.7182    , 29.0480213  , 800.6771    , 1.25        , 3           , 255         , 0           , 0
-0.056236513, 0.150789708 , 9.798494    , -0.0001158762, 0.00011559634, 0.00068151427, -3.12722754 , -0.004733616, -8.85728E-05, 920.7182    , 29.0480213  , 800.6773    , 1.26        , 3           , 255         , 0           , 0
-0.0472694151, 0.141888618 , 9.792564    , 0.000271868659, 0.000230435748, 0.000550005469, -3.12722468 , -0.00473584142, -9.410531E-05, 920.7182    , 29.0480213  , 800.6775    , 1.27        , 3           , 255         , 0           , 0
-0.0443357639, 0.148062825 , 9.792328    , -0.000188503182, -8.194649E-05, -0.000456947659, -3.12722659 , -0.004735088, -8.952459E-05, 920.7182    , 29.0480213  , 800.6777    , 1.28        , 3           , 255         , 0           , 0
-0.0510878339, 0.14575924  , 9.79756     , 1.61549542E-06, -0.000152041554, -5.608349E-05, -3.12722659 , -0.004733576, -8.894198E-05, 920.7182    , 29.0480213  , 800.677856  , 1.29        , 3           , 255         , 0           , 0
-0.0501345322, 0.147799388 , 9.800071    , 0.0004965537, -0.000165680773, -8.533336E-05, -3.12722158 , -0.00473193172, -8.80649459E-05, 920.7182    , 29.0480213  , 800.67804   , 1.3         , 3           , 255         , 0           , 0
-0.06217408 , 0.154061347 , 9.795804    , 5.553884E-05, -0.0001594167, -0.000809216755, -3.12720513 , -0.00472995732, -8.002654E-05, 920.7182    , 29.0480213  , 800.665466  , 1.31        , 3           , 255         , 0           , 0
-0.0603085533, 0.142518729 , 9.796537    , -0.000112893642, 0.000332046417, -0.000669273548, -3.12720633 , -0.004733374, -7.338236E-05, 920.7182    , 29.0480213  , 800.6656    , 1.32        , 3           , 255         , 0           , 0
-0.06531201 , 0.142235711 , 9.787612    , -0.000312683755, -0.000492969062, 0.0002707532, -3.12720942 , -0.00472840574, -7.6018674E-05, 920.693542  , 29.046257   , 800.6657    , 1.33        , 3           , 255         , 0           , 0
-0.05321435 , 0.148439333 , 9.794989    , -0.00043058634, 4.648429E-05, -0.000503426767, -3.12721372 , -0.004728943, -7.099168E-05, 920.693542  , 29.046257   , 800.665833  , 1.34        , 3           , 255         , 0           , 0
-0.0484288223, 0.154753834 , 9.799505    , -8.192129E-05, -0.00011682068, -0.000354614254, -3.12721467 , -0.004727826, -6.742915E-05, 920.693542  , 29.046257   , 800.665955  , 1.35        , 3           , 255         , 0           , 0
-0.05145554 , 0.147387922 , 9.791954    , 0.0003366631, 0.0001214036, -0.000104255247, -3.12721133 , -0.004729055, -6.640418E-05, 920.693542  , 29.046257   , 800.6661    , 1.36        , 3           , 255         , 0           , 0
-0.0551612675, 0.12624824  , 9.793089    , -0.00033001526, -0.000354729942, 0.000413179485, -3.12721443 , -0.00472544832, -7.048448E-05, 920.693542  , 29.046257   , 800.6662    , 1.37        , 3           , 255         , 0           , 0
-0.049598407, 0.141262054 , 9.797752    , 3.30110779E-05, -0.0001430778, 0.0005136678, -3.12721419 , -0.004723944, -7.559999E-05, 920.693542  , 29.046257   , 800.6663    , 1.38        , 3           , 255         , 0           , 0
-0.0495107658, 0.146541    , 9.788992    , 9.072409E-05, 0.000342774554, 0.0006826371, -3.12721324 , -0.004727273, -8.247484E-05, 920.693542  , 29.046257   , 800.666443  , 1.39        , 3           , 255         , 0           , 0
-0.05226298 , 0.1435692   , 9.795516    , -0.000115882605, 0.000289354124, 0.0002371888, -3.12721443 , -0.00473013241, -8.488805E-05, 920.693542  , 29.046257   , 800.666565  , 1.4         , 3           , 255         , 0           , 0
-0.04041914 , 0.146550059 , 9.797406    , -8.895021E-05, 0.000237005064, 0.0004221638, -3.12720513 , -0.00475466624, -8.919177E-05, 920.693542  , 29.046257   , 800.680664  , 1.41        , 3           , 255         , 0           , 0
-0.0357256159, 0.1481974   , 9.793961    , -6.817316E-05, -0.000114283757, 0.0002040246, -3.12720561 , -0.0047534937, -9.121534E-05, 920.693542  , 29.046257   , 800.680847  , 1.42        , 3           , 255         , 0           , 0
-0.0390525423, 0.145258337 , 9.793571    , -6.880041E-05, 2.49149743E-05, -0.0007193397, -3.12720633 , -0.004753846, -8.402636E-05, 920.726868  , 29.0482922  , 800.681     , 1.43        , 3           , 255         , 0           , 0
-0.0378911272, 0.154727787 , 9.798848    , 0.000266836956, -0.000109199435, -0.0006079676, -3.1272037  , -0.004752842, -7.793169E-05, 920.726868  , 29.0482922  , 800.6812    , 1.44        , 3           , 255         , 0           , 0
-0.03560711 , 0.1418741   , 9.795693    , 9.226531E-05, 0.0003391495, 0.000118709286, -3.12720275 , -0.00475621643, -7.916744E-05, 920.726868  , 29.0482922  , 800.6814    , 1.45        , 3           , 255         , 0           , 0
-0.041755408, 0.138987347 , 9.804454    , 1.41542405E-05, 0.0001377936, 0.000539089961, -3.12720275 , -0.004757516, -8.45775357E-05, 920.726868  , 29.0482922  , 800.6816    , 1.46        , 3           , 255         , 0           , 0
-0.0479852  , 0.154013187 , 9.798368    , 0.00015230698, 8.502661E-05, 0.000358534453, -3.127201   , -0.004758315, -8.817469E-05, 920.726868  , 29.0482922  , 800.681763  , 1.47        , 3           , 255         , 0           , 0
-0.04129284 , 0.140916854 , 9.788868    , -0.000448477629, 0.000317634549, 0.000139198033, -3.12720561 , -0.004761471, -8.961222E-05, 920.726868  , 29.0482922  , 800.681946  , 1.48        , 3           , 255         , 0           , 0
-0.0450957  , 0.150550053 , 9.793635    , -0.000290636963, 0.000450832536, -0.000112674432, -3.12720847 , -0.004765995, -8.855045E-05, 920.726868  , 29.0482922  , 800.6821    , 1.49        , 3           , 255         , 0           , 0
-0.0358547978, 0.1473815   , 9.801725    , -3.768131E-05, 0.000530272257, -0.000379919249, -3.127209   , -0.004771352, -8.482798E-05, 920.726868  , 29.0482922  , 800.6824    , 1.5         , 3           , 255         , 0           , 0
-0.04064862 , 0.151333153 , 9.803157    , -0.000600119471, 0.000376488664, 8.378099E-05, -3.1272018  , -0.00476062624, -8.578185E-05, 920.726868  , 29.0482922  , 800.659851  , 1.51        , 3           , 255         , 0           , 0
-0.05089376 , 0.155151546 , 9.794979    , -0.000221619615, -0.000108927721, 0.00129105267, -3.127204   , -0.00475935033, -9.86752E-05, 920.726868  , 29.0482922  , 800.66      , 1.52        , 3           , 255         , 0           , 0
-0.0408639237, 0.144634724 , 9.797606    , -0.000562919653, -0.00012895104, 0.0005283896, -3.12720966 , -0.00475798454, -0.000103939929, 920.7227    , 29.0495129  , 800.6601    , 1.53        , 3           , 255         , 0           , 0
-0.05220753 , 0.1438508   , 9.802967    , 0.0005386567, 8.08866462E-05, -0.000363925821, -3.12720418 , -0.004758846, -0.000100312733, 920.7227    , 29.0495129  , 800.6602    , 1.54        , 3           , 255         , 0           , 0
-0.056906648, 0.137356192 , 9.795774    , -0.0001526082, 0.00056825357, -0.000316518534, -3.12720585 , -0.00476457365, -9.722967E-05, 920.7227    , 29.0495129  , 800.660339  , 1.55        , 3           , 255         , 0           , 0
-0.0604321733, 0.13955614  , 9.791124    , -0.0003188703, 0.000472952262, -0.0006051061, -3.127209   , -0.00476938952, -9.124734E-05, 920.7227    , 29.0495129  , 800.660461  , 1.56        , 3           , 255         , 0           , 0
-0.05447065 , 0.148415565 , 9.80562     , 0.000149314175, 0.000168609316, -0.0001245072, -3.12720752 , -0.00477109337, -9.0026675E-05, 920.7227    , 29.0495129  , 800.6606    , 1.57        , 3           , 255         , 0           , 0
-0.04989127 , 0.1433203   , 9.799951    , 0.0004675251, -0.000372382347, 0.000679315941, -3.12720275 , -0.004767272, -9.6765456E-05, 920.7227    , 29.0495129  , 800.6607    , 1.58        , 3           , 255         , 0           , 0
-0.0544937029, 0.145982772 , 9.79586     , 0.000324510853, 0.000254314975, -2.15688779E-05, -3.12719965 , -0.00476981839, -9.658639E-05, 920.7227    , 29.0495129  , 800.6608    , 1.59        , 3           , 255         , 0           , 0
-0.0608382337, 0.140243351 , 9.799934    , -0.000140223943, -2.68806471E-05, -0.000888536742, -3.127201   , -0.0047696773, -8.769819E-05, 920.7227    , 29.0495129  , 800.66095   , 1.6         , 3           , 255         , 0           , 0
-0.0545302145, 0.138215482 , 9.7947855   , -7.886381E-06, 0.000564805465, 0.000955805241, -3.12719321 , -0.004785884, -9.737366E-05, 920.7227    , 29.0495129  , 800.6447    , 1.61        , 3           , 255         , 0           , 0
-0.0616416559, 0.144203857 , 9.798941    , -0.00038496434, 0.000591336749, 0.0009216918, -3.127197   , -0.004791663, -0.000106674626, 920.7227    , 29.0495129  , 800.6448    , 1.62        , 3           , 255         , 0           , 0
-0.0550392047, 0.139540389 , 9.792133    , -3.0225201E-05, -0.0004605488, -0.000206202545, -3.1271975  , -0.004787088, -0.000104546554, 920.6687    , 29.0512085  , 800.644836  , 1.63        , 3           , 255         , 0           , 0
-0.04227643 , 0.150926933 , 9.783707    , -0.000107830274, -0.000241804053, -0.000198331967, -3.12719846 , -0.0047846986, -0.000102528662, 920.6687    , 29.0512085  , 800.6449    , 1.64        , 3           , 255         , 0           , 0
-0.04211299 , 0.144058168 , 9.788487    , -0.000164572557, -0.0004205337, -0.000384042243, -3.12720013 , -0.004780549, -9.862817E-05, 920.6687    , 29.0512085  , 800.644958  , 1.65        , 3           , 255         , 0           , 0
-0.0527538173, 0.1298468   , 9.797606    , 0.000614671852, -7.917406E-07, 0.000187551253, -3.127194   , -0.0047805137, -0.000100503355, 920.6687    , 29.0512085  , 800.645     , 1.66        , 3           , 255         , 0           , 0
-0.0392064527, 0.145079464 , 9.798961    , 0.0005302386, 0.0004901483, -0.000128772721, -3.12718868 , -0.004785434, -9.92863643E-05, 920.6687    , 29.0512085  , 800.6451    , 1.67        , 3           , 255         , 0           , 0
-0.0307163857, 0.148510039 , 9.797701    , -0.000328250637, -0.000248803524, 0.000413846457, -3.127192   , -0.00478288624, -0.000103388513, 920.6687    , 29.0512085  , 800.645142  , 1.68        , 3           , 255         , 0           , 0
-0.0346270129, 0.142009422 , 9.793665    , -0.000778717455, -0.0003621931, 0.0003545232, -3.12719965 , -0.00477921357, -0.0001068812, 920.6687    , 29.0512085  , 800.6452    , 1.69        , 3           , 255         , 0           , 0
-0.0398528837, 0.1492931   , 9.801369    , 5.52828424E-05, -0.000163002289, 1.82213262E-06, -3.12719917 , -0.004777584, -0.000106875959, 920.6687    , 29.0512085  , 800.645264  , 1.7         , 3           , 255         , 0           , 0
-0.03752975 , 0.147602111 , 9.793406    , 0.000337621081, 6.274553E-06, -0.0004761964, -3.12719059 , -0.00477395859, -0.000102140417, 920.6687    , 29.0512085  , 800.689941  , 1.71        , 3           , 255         , 0           , 0
-0.03722456 , 0.146571189 , 9.788851    , 0.0003863892, 8.973875E-05, -0.000212083411, -3.12718678 , -0.00477488665, -0.000100032747, 920.6687    , 29.0512085  , 800.690247  , 1.72        , 3           , 255         , 0           , 0
-0.0353380442, 0.146474719 , 9.800069    , 0.00011062494, 0.000179142226, -0.000106888649, -3.12718558 , -0.004776693, -9.898979E-05, 920.71405   , 29.0548038  , 800.690552  , 1.73        , 3           , 255         , 0           , 0
-0.0404233448, 0.136650249 , 9.793985    , 0.000199974165, 0.000262369169, -5.12904953E-05, -3.12718368 , -0.00477932347, -9.851475E-05, 920.71405   , 29.0548038  , 800.690857  , 1.74        , 3           , 255         , 0           , 0
-0.03666694 , 0.148652747 , 9.7892065   , 3.22368E-05 , -0.000177157344, -6.37495541E-05, -3.12718344 , -0.004777562, -9.78518E-05, 920.71405   , 29.0548038  , 800.691162  , 1.75        , 3           , 255         , 0           , 0
-0.0354853645, 0.140429571 , 9.784523    , -0.000436975854, 0.000392382964, 3.79378034E-05, -3.12718773 , -0.004781479, -9.82876663E-05, 920.71405   , 29.0548038  , 800.691467  , 1.76        , 3           , 255         , 0           , 0
-0.0419413038, 0.143199831 , 9.79012     , 6.951811E-05, 0.0002060514, 0.0003657486, -3.127187   , -0.004783487, -0.000101974409, 920.71405   , 29.0548038  , 800.6918    , 1.77        , 3           , 255         , 0           , 0
-0.05256967 , 0.149339467 , 9.800285    , -0.000243253191, -7.821922E-05, 0.0006211861, -3.1271894  , -0.004782615, -0.000108174267, 920.71405   , 29.0548038  , 800.6921    , 1.78        , 3           , 255         , 0           , 0
-0.0582189672, 0.143591642 , 9.799861    , -0.000145057973, 0.000469068065, 0.000321101979, -3.12719083 , -0.00478725927, -0.000111452464, 920.71405   , 29.0548038  , 800.6924    , 1.79        , 3           , 255         , 0           , 0
-0.0470462739, 0.144901365 , 9.8006525   , -0.000226390548, 4.95316926E-05, -0.000120673707, -3.12719321 , -0.0047877715, -0.000110253008, 920.71405   , 29.0548038  , 800.6927    , 1.8         , 3           , 255         , 0           , 0
-0.04641333 , 0.147537    , 9.793966    , -0.000168993429, 2.90154712E-05, 0.00027627722, -3.127186   , -0.004776903, -0.000113061666, 920.71405   , 29.0548038  , 800.6819    , 1.81        , 3           , 255         , 0           , 0
-0.0509749055, 0.153856665 , 9.792003    , -0.000181556446, 0.00033143  , 0.000247249933, -3.12718773 , -0.00478018168, -0.000115581621, 920.71405   , 29.0548038  , 800.6821    , 1.82        , 3           , 255         , 0           , 0
-0.0546994321, 0.147467524 , 9.788079    , -0.000419132353, 0.000154028181, 0.000304759626, -3.127192   , -0.004781679, -0.000118651027, 920.698059  , 29.0541267  , 800.6824    , 1.83        , 3           , 255         , 0           , 0
-0.0614517443, 0.136189759 , 9.791658    , 0.000340935658, -5.00469469E-05, -0.0005793077, -3.12718868 , -0.00478126062, -0.000112851427, 920.698059  , 29.0541267  , 800.6826    , 1.84        , 3           , 255         , 0           , 0
-0.06212507 , 0.141549066 , 9.80596     , -7.304625E-05, 0.000143001555, -0.000308742659, -3.1271894  , -0.004782735, -0.000109784967, 920.698059  , 29.0541267  , 800.682861  , 1.85        , 3           , 255         , 0           , 0
-0.05309876 , 0.1451472   , 9.796061    , -0.000369231624, -0.000290988944, -2.70899036E-05, -3.127193   , -0.004779829, -0.000109472188, 920.698059  , 29.0541267  , 800.6831    , 1.86        , 3           , 255         , 0           , 0
-0.0568935275, 0.139964744 , 9.801539    , -0.0003621094, -0.000326639856, -4.28783824E-06, -3.12719655 , -0.004776564, -0.0001093823, 920.698059  , 29.0541267  , 800.6834    , 1.87        , 3           , 255         , 0           , 0
-0.0555196926, 0.1499798   , 9.795073    , -0.0003956703, -0.000123904319, 0.0007044724, -3.1272006  , -0.00477522332, -0.000116408351, 920.698059  , 29.0541267  , 800.6837    , 1.88        , 3           , 255         , 0           , 0
-0.0517661981, 0.150504589 , 9.794656    , -0.000228767283, -9.592867E-05, 6.367554E-05, -3.12720275 , -0.004774255, -0.000117031246, 920.698059  , 29.0541267  , 800.684     , 1.89        , 3           , 255         , 0           , 0
-0.0471458845, 0.143678129 , 9.790209    , -0.0002656298, 0.000170985 , 0.000640146667, -3.12720537 , -0.004775874, -0.000123456557, 920.698059  , 29.0541267  , 800.6843    , 1.9         , 3           , 255         , 0           , 0
-0.04060638 , 0.14599365  , 9.796755    , 0.000189235667, -7.040787E-05, 2.75136845E-05, -3.12719345 , -0.004791287, -0.00012377 , 920.698059  , 29.0541267  , 800.692749  , 1.91        , 3           , 255         , 0           , 0
-0.0405611172, 0.142509609 , 9.791899    , -5.52629353E-05, 9.957736E-05, 0.0004413433, -3.127194   , -0.004792219, -0.000128197265, 920.698059  , 29.0541267  , 800.693054  , 1.92        , 3           , 255         , 0           , 0
-0.0520807728, 0.142887622 , 9.801441    , 0.000184693374, 0.000219954876, 0.0006186075, -3.127192   , -0.0047943294, -0.0001344143, 920.6532    , 29.055891   , 800.693359  , 1.93        , 3           , 255         , 0           , 0
-0.0460866727, 0.143681929 , 9.797618    , 0.000240184483, 5.68598043E-05, 0.000233685423, -3.12718964 , -0.004794864, -0.000136759059, 920.6532    , 29.055891   , 800.6937    , 1.94        , 3           , 255         , 0           , 0
-0.0399076119, 0.146505073 , 9.801306    , -0.000236167863, 0.0005090565, 0.000975923031, -3.127192   , -0.004799813, -0.00014659045, 920.6532    , 29.055891   , 800.6941    , 1.95        , 3           , 255         , 0           , 0
-0.0381870046, 0.144918233 , 9.805294    , -0.000232732564, 0.000152015244, 0.0003976609, -3.1271944  , -0.004801275, -0.000150588487, 920.6532    , 29.055891   , 800.694458  , 1.96        , 3           , 255         , 0           , 0
-0.04369866 , 0.140403837 , 9.793072    , -0.000314655364, 2.421171E-05, 0.000250081823, -3.1271975  , -0.004801483, -0.0001530925, 920.6532    , 29.055891   , 800.6948    , 1.97        , 3           , 255         , 0           , 0
-0.0399915837, 0.151458278 , 9.805794    , 0.000214822823, 0.0002297184, 0.000459301635, -3.12719536 , -0.004803713, -0.000157718037, 920.6532    , 29.055891   , 800.6952    , 1.98        , 3           , 255         , 0           , 0
-0.04113857 , 0.1435718   , 9.79911     , -0.0004679404, 8.377945E-05, 0.000719940639, -3.1272     , -0.004804447, -0.000164928671, 920.6532    , 29.055891   , 800.695557  , 1.99        , 3           , 255         , 0           , 0
-0.0389348045, 0.1480402   , 9.796569    , 0.000323409447, 6.06416725E-05, -6.212597E-05, -3.12719679 , -0.004805062, -0.000164316225, 920.6532    , 29.055891   , 800.6959    , 2           , 3           , 0           , 7.60023642  , 200
-0.0509963557, 0.139015839 , 9.795799    , 0.000404061517, 0.000409258879, -0.000148021252, -3.12718582 , -0.004800474, -0.000162928074, 920.6532    , 29.055891   , 800.757263  , 2.01        , 3           , 1           , 0           , 0
-0.04663517 , 0.1443053   , 9.80143     , -0.000184167351, 0.000163918245, 9.018276E-05, -3.12718773 , -0.00480209943, -0.0001638534, 920.6532    , 29.055891   , 800.758     , 2.02        , 3           , 2           , 0           , 0
-0.03755047 , 0.144962937 , 9.784556    , 0.000242413371, -8.928252E-05, -0.000554635364, -3.12718534 , -0.00480128638, -0.000158294832, 920.68866   , 29.0569077  , 800.7587    , 2.03        , 3           , 3           , 0           , 0
-0.0411296673, 0.149655983 , 9.796244    , -0.000367401051, 2.7389382E-05, 4.98712761E-05, -3.127189   , -0.004801553, -0.00015879744, 920.68866   , 29.0569077  , 800.75946   , 2.04        , 3           , 4           , 0           , 0
-0.0540308245, 0.1564802   , 9.789414    , -0.0006618734, -7.27095176E-06, -0.0003064557, -3.1271956  , -0.00480152434, -0.0001557322, 920.68866   , 29.0569077  , 800.7602    , 2.05        , 3           , 5           , 0           , 0
-0.0534546748, 0.157186836 , 9.789508    , 0.000749137136, 0.000459512579, 1.91167928E-05, -3.127188   , -0.004806116, -0.0001559895, 920.68866   , 29.0569077  , 800.7609    , 2.06        , 3           , 6           , 0           , 0
-0.0554673672, 0.138720423 , 9.784198    , 0.000222034636, 0.000119454809, 0.000260692381, -3.12718582 , -0.004807273, -0.0001586133, 920.68866   , 29.0569077  , 800.761658  , 2.07        , 3           , 7           , 0           , 0
-0.0488338172, 0.136652634 , 9.797964    , -0.000172381289, -0.000106688123, 0.00028437213, -3.12718749 , -0.004806165, -0.000161441349, 920.68866   , 29.0569077  , 800.7624    , 2.08        , 3           , 8           , 5           , 5
-0.0491429  , 0.139765352 , 9.793772    , -1.44389924E-05, -0.000248171855, 0.000249536883, -3.12718773 , -0.00480364775, -0.00016390068, 920.68866   , 29.0569077  , 800.7631    , 2.09        , 3           , 9           , 5           , 0.1
-0.0586266741, 0.148769036 , 9.786196    , -5.66266244E-05, 0.000122238183, -0.000104991952, -3.12718821 , -0.004804885, -0.000162868469, 920.68866   , 29.0569077  , 800.763855  , 2.1         , 3           , 10          , 0.1         , 0.1
-0.06707589 , 0.1569136   , 9.798479    , 0.000356474775, 0.000203273259, 0.0007220547, -3.12717247 , -0.00481366273, -0.00017017583, 920.68866   , 29.0569077  , 800.7745    , 2.11        , 3           , 11          , 0.008375296 , 0.008375294
-0.05390923 , 0.155672669 , 9.793352    , 0.000444599427, 0.0005053363, 0.0008035929, -3.127168   , -0.00481859874, -0.000178283692, 920.68866   , 29.0569077  , 800.775269  , 2.12        , 3           , 12          , 0.174643889 , 0
-0.04457758 , 0.145031556 , 9.784202    , 0.00012830412, -2.18222849E-05, 0.0005394248, -3.12716675 , -0.00481830258, -0.000183674187, 920.708252  , 29.0573158  , 800.776062  , 2.13        , 3           , 13          , 0           , 0
-0.0358173847, 0.150630355 , 9.794858    , 9.140966E-05, 6.803812E-05, 0.0008317454, -3.12716579 , -0.004818863, -0.000192000472, 920.708252  , 29.0573158  , 800.776855  , 2.14        , 3           , 14          , 0.0009796805, 0.00174916093
-0.0417746976, 0.148575515 , 9.80583     , -1.58383045E-05, -0.000140334945, -6.54239E-05, -3.127166   , -0.00481746951, -0.000191326049, 920.708252  , 29.0573158  , 800.777649  , 2.15        , 3           , 15          , 0           , 0.000378525758
-0.0523251668, 0.150045842 , 9.809093    , -0.000337491, 8.505443E-05, 0.000267723051, -3.12716937 , -0.004818281, -0.000194015243, 920.708252  , 29.0573158  , 800.778442  , 2.16        , 3           , 16          , 0           , 1.401298E-45
-0.04658825 , 0.147469074 , 9.790865    , -0.000250570651, 0.000186378835, 0.0002952299, -3.12717175 , -0.004820103, -0.000196994079, 920.708252  , 29.0573158  , 800.779236  , 2.17        , 3           , 20          , 0           , 0
-0.04672747 , 0.136312455 , 9.792773    , -0.00015989464, 0.00024390989, -6.203435E-05, -3.12717342 , -0.00482255034, -0.000196408975, 920.708252  , 29.0573158  , 800.78      , 2.18        , 3           , 21          , 0           , 0
-0.043969892, 0.135457218 , 9.802817    , -0.00012888218, 0.000138880219, 0.0005749701, -3.12717462 , -0.00482385559, -0.000202178009, 920.708252  , 29.0573158  , 800.7808    , 2.19        , 3           , 22          , 0           , 0
-0.0356311835, 0.147694528 , 9.794478    , 0.000274871243, -7.509405E-05, -3.23141E-05, -3.127172   , -0.004823109, -0.000201844086, 920.708252  , 29.0573158  , 800.7816    , 2.2         , 3           , 40          , 0           , 0
-0.03185139 , 0.151907653 , 9.79029751  , 0.000357043464, -0.000147038489, -7.520916E-05, -3.12715673 , -0.004820952, -0.000201126357, 920.708252  , 29.0573158  , 800.7657    , 2.21        , 3           , 41          , 0           , 0
-0.0294810478, 0.148673624 , 9.808717    , 0.000446081278, -0.000112182111, 0.00101684476, -3.1271522  , -0.004819683, -0.000211277409, 920.708252  , 29.0573158  , 800.7664    , 2.22        , 3           , 42          , 0           , 0
-0.0340079069, 0.149931237 , 9.774765    , -0.000105977466, -5.01638278E-05, 5.479259E-05, -3.1271534  , -0.00481917476, -0.000211818027, 920.6958    , 29.0580616  , 800.767151  , 2.23        , 3           , 255         , 0           , 0
-0.0436017625, 0.155373842 , 9.78974     , -6.503513E-05, -0.000349497073, 0.000630146 , -3.127154   , -0.004815588, -0.000218068279, 920.6958    , 29.0580616  , 800.7679    , 2.24        , 3           , 255         , 0           , 0
-0.05032118 , 0.144452825 , 9.791649    , 5.581358E-05, 0.000464837416, 0.0005217352, -3.1271534  , -0.00482016057, -0.000223352152, 920.6958    , 29.0580616  , 800.7686    , 2.25        , 3           , 255         , 0           , 0
-0.05603546 , 0.138248369 , 9.787413    , 1.50164124E-05, 9.740086E-05, -0.000369776826, -3.1271534  , -0.004821188, -0.000219668873, 920.6958    , 29.0580616  , 800.769348  , 2.26        , 3           , 255         , 0           , 0
-0.0479167923, 0.1278198   , 9.791421    , 0.0005380573, -2.65231356E-05, 0.000247346325, -3.127148   , -0.004820887, -0.0002221382, 920.6958    , 29.0580616  , 800.7701    , 2.27        , 3           , 255         , 0           , 0
-0.0430794843, 0.133115858 , 9.794151    , -3.331271E-05, 0.000269647571, 0.000297398743, -3.12714815 , -0.00482354034, -0.000225150783, 920.6958    , 29.0580616  , 800.7708    , 2.28        , 3           , 255         , 0           , 0
-0.04980268 , 0.1446062   , 9.79841     , -0.0006766756, 0.000366573338, -0.0003043878, -3.127155   , -0.004827249, -0.0002221602, 920.6958    , 29.0580616  , 800.771545  , 2.29        , 3           , 255         , 0           , 0
-0.0392816328, 0.145953387 , 9.798777    , -0.000198632421, -0.000293346122, -0.0001818752, -3.127157   , -0.004824342, -0.000220299335, 920.6958    , 29.0580616  , 800.7723    , 2.3         , 3           , 255         , 0           , 0
-0.0492815524, 0.142657727 , 9.805875    , 4.74486733E-05, -0.000540352543, 0.000479375885, -3.12715    , -0.004807464, -0.000225045209, 920.6958    , 29.0580616  , 800.7731    , 2.31        , 3           , 255         , 0           , 0
-0.06215502 , 0.158987373 , 9.80438     , 0.000465827878, -7.668533E-05, -7.344468E-06, -3.12714553 , -0.004806698, -0.0002249607, 920.6958    , 29.0580616  , 800.7738    , 2.32        , 3           , 255         , 0           , 0
-0.06027875 , 0.155085549 , 9.795727    , 0.000518322 , -0.000180959585, 0.000298193248, -3.12714028 , -0.0048048445, -0.000227916127, 920.709839  , 29.0585365  , 800.774536  , 2.33        , 3           , 255         , 0           , 0
-0.0527901426, 0.150523588 , 9.794008    , 0.000138081145, -0.000108012115, 0.000417544274, -3.12713885 , -0.004803704, -0.000232075443, 920.709839  , 29.0585365  , 800.775269  , 2.34        , 3           , 255         , 0           , 0
-0.0510144643, 0.132995322 , 9.794951    , 3.18489037E-05, 0.000214640982, 0.000270932738, -3.12713861 , -0.004805811, -0.0002348155, 920.709839  , 29.0585365  , 800.776     , 2.35        , 3           , 255         , 0           , 0
-0.0411936045, 0.1301188   , 9.797076    , 7.47198937E-05, 0.0003483852, 6.720581E-05, -3.12713766 , -0.004809285, -0.000235537824, 920.709839  , 29.0585365  , 800.776733  , 2.36        , 3           , 255         , 0           , 0
-0.0410151742, 0.142537177 , 9.796209    , -0.000479283743, -0.000117177609, 9.204386E-05, -3.12714267 , -0.0048081  , -0.000236441192, 920.709839  , 29.0585365  , 800.777466  , 2.37        , 3           , 255         , 0           , 0
-0.03877281 , 0.150683358 , 9.794884    , -0.00015280291, 0.0003024207, 0.0004146747, -3.127144   , -0.00481106341, -0.00024063114, 920.709839  , 29.0585365  , 800.7782    , 2.38        , 3           , 255         , 0           , 0
-0.0404000543, 0.143112257 , 9.79700851  , 0.000672945753, 0.000711673638, 9.377024E-05, -3.12713742 , -0.004818166, -0.000241671587, 920.709839  , 29.0585365  , 800.778931  , 2.39        , 3           , 255         , 0           , 0
-0.04813342 , 0.153580114 , 9.78343     , 0.000212181709, 0.000185853569, 5.63856156E-05, -3.12713528 , -0.00482001528, -0.00024226222, 920.709839  , 29.0585365  , 800.779663  , 2.4         , 3           , 255         , 0           , 0
-0.0455419347, 0.14518258  , 9.800184    , 0.0005681504, 0.000250296667, -0.000123731792, -3.12712121 , -0.004825195, -0.000241101065, 920.709839  , 29.0585365  , 800.7608    , 2.41        , 3           , 255         , 0           , 0
-0.0440967269, 0.153517142 , 9.814802    , -0.0002306436, 0.000320313731, 0.0002754043, -3.12712359 , -0.004828358, -0.00024390113, 920.709839  , 29.0585365  , 800.7614    , 2.42        , 3           , 255         , 0           , 0
-0.0407200679, 0.1427784   , 9.787792    , -0.000365844578, -4.883483E-05, 0.00037364132, -3.12712717 , -0.004827815, -0.000247630029, 920.709534  , 29.0584011  , 800.762     , 2.43        , 3           , 255         , 0           , 0
-0.04160251 , 0.139074236 , 9.798639    , -0.000228410587, -0.000295342645, 0.000568297 , -3.12712955 , -0.00482478039, -0.000253269653, 920.709534  , 29.0584011  , 800.762634  , 2.44        , 3           , 255         , 0           , 0
-0.0381974354, 0.137492418 , 9.79225349  , -3.3668417E-05, 0.000136012211, 0.000576620747, -3.12712979 , -0.00482605631, -0.000259054854, 920.709534  , 29.0584011  , 800.763245  , 2.45        , 3           , 255         , 0           , 0
-0.0346364453, 0.1427236   , 9.78997     , 0.000376931159, 0.000225963071, 0.000187407772, -3.127126   , -0.00482828869, -0.000260961358, 920.709534  , 29.0584011  , 800.763855  , 2.46        , 3           , 255         , 0           , 0
-0.0487299934, 0.142512247 , 9.795857    , 0.00054684  , -0.000104076928, 0.000904307642, -3.12712049 , -0.004827117, -0.0002699883, 920.709534  , 29.0584011  , 800.764465  , 2.47        , 3           , 255         , 0           , 0
-0.0586878546, 0.144505277 , 9.79832     , 0.000149079715, -1.002755E-05, 0.00106644281, -3.12711883 , -0.00482686237, -0.000280649983, 920.709534  , 29.0584011  , 800.765137  , 2.48        , 3           , 255         , 0           , 0
-0.06073569 , 0.150226355 , 9.790497    , 9.554194E-05, -3.08891758E-05, 0.001255045 , -3.12711787 , -0.004826371, -0.000293194462, 920.709534  , 29.0584011  , 800.7658    , 2.49        , 3           , 255         , 0           , 0
-0.06611715 , 0.1433017   , 9.792948    , 0.000649425434, 1.58600742E-05, 0.000391898269, -3.12711143 , -0.004826473, -0.000297115272, 920.709534  , 29.0584011  , 800.7665    , 2.5         , 3           , 255         , 0           , 0
-0.06742132 , 0.140255868 , 9.791199    , 0.00013853563, -0.0001727977, -0.000368953974, -3.12710547 , -0.00482596876, -0.000293423043, 920.709534  , 29.0584011  , 800.7494    , 2.51        , 3           , 255         , 0           , 0
-0.0593878627, 0.142678291 , 9.800566    , -0.00013616943, 0.000323842745, -0.0002242048, -3.127107   , -0.00482923957, -0.000291228149, 920.709534  , 29.0584011  , 800.749939  , 2.52        , 3           , 255         , 0           , 0
-0.0577053539, 0.133020535 , 9.780196    , 0.000119125121, 0.0001385489, 0.000619787956, -3.12710571 , -0.004830535, -0.000297445367, 920.688965  , 29.0600281  , 800.7505    , 2.53        , 3           , 255         , 0           , 0
-0.05269881 , 0.134882838 , 9.798174    , 9.179837E-05, -7.729954E-05, 0.000214419939, -3.12710476 , -0.004829731, -0.000299578125, 920.688965  , 29.0600281  , 800.751038  , 2.54        , 3           , 255         , 0           , 0
-0.0536362939, 0.152744845 , 9.797991    , 0.000464115757, 8.166756E-05, 0.0007306251, -3.1271     , -0.00483044051, -0.000306895352, 920.688965  , 29.0600281  , 800.7516    , 2.55        , 3           , 255         , 0           , 0
-0.0537014827, 0.153347477 , 9.794275    , 1.40127959E-05, 0.0007245126, 0.0005067615, -3.1271     , -0.00483761169, -0.000312067365, 920.688965  , 29.0600281  , 800.752136  , 2.56        , 3           , 255         , 0           , 0
-0.04663583 , 0.149359778 , 9.802034    , -0.000430187327, 0.000149614993, 0.0005079687, -3.12710428 , -0.004839034, -0.00031716816, 920.688965  , 29.0600281  , 800.7527    , 2.57        , 3           , 255         , 0           , 0
-0.05314699 , 0.1435799   , 9.798843    , -0.000254473067, -0.000284676324, 0.000239818328, -3.12710667 , -0.00483615231, -0.000319524843, 920.688965  , 29.0600281  , 800.753235  , 2.58        , 3           , 255         , 0           , 0
-0.04082402 , 0.139074266 , 9.790219    , -0.000926462759, -9.521726E-06, -0.0005005809, -3.127116   , -0.00483613042, -0.000314518227, 920.688965  , 29.0600281  , 800.7538    , 2.59        , 3           , 255         , 0           , 0
-0.0399149731, 0.145155028 , 9.79809     , -0.000221821538, -7.877895E-05, 0.000190755149, -3.127118   , -0.004835314, -0.0003164141, 920.688965  , 29.0600281  , 800.754333  , 2.6         , 3           , 255         , 0           , 0
-0.0374692157, 0.147486567 , 9.79532051  , 2.21282244E-05, 0.0003362625, 0.00108149485, -3.127115   , -0.00484856451, -0.000327290152, 920.688965  , 29.0600281  , 800.766541  , 2.61        , 3           , 255         , 0           , 0
-0.0286583044, 0.1473804   , 9.787883    , -5.95494639E-05, 0.000123091158, 7.713062E-05, -3.12711573 , -0.004849784, -0.0003280792, 920.688965  , 29.0600281  , 800.767151  , 2.62        , 3           , 255         , 0           , 0
-0.02727436 , 0.148245111 , 9.783923    , -1.91108556E-05, 4.670408E-05, -0.0002040571, -3.127116   , -0.004850281, -0.000326045643, 920.7013    , 29.0626068  , 800.767761  , 2.63        , 3           , 255         , 0           , 0
-0.0294530876, 0.143364981 , 9.79653549  , 0.0004612459, 0.000338882557, 0.000104249804, -3.1271112  , -0.00485365372, -0.000327137066, 920.7013    , 29.0626068  , 800.7684    , 2.64        , 3           , 255         , 0           , 0
-0.0448419936, 0.149178386 , 9.783226    , -0.00027124444, 0.0003781676, -0.0002251849, -3.127114   , -0.00485746749, -0.000324940222, 920.7013    , 29.0626068  , 800.769     , 2.65        , 3           , 255         , 0           , 0
-0.0415051468, 0.149154589 , 9.78712     , -0.0003610024, 4.48756618E-05, -2.80050153E-05, -3.12711763 , -0.00485792058, -0.000324666675, 920.7013    , 29.0626068  , 800.7696    , 2.66        , 3           , 255         , 0           , 0
-0.0427312255, 0.145734027 , 9.786819    , -0.000120697427, 0.00035880052, -0.0003735202, -3.12711883 , -0.004861562, -0.000320983876, 920.7013    , 29.0626068  , 800.7702    , 2.67        , 3           , 255         , 0           , 0
-0.04512408 , 0.137554675 , 9.794947    , -0.0006022875, 0.000288993469, -0.000190340637, -3.12712479 , -0.00486448 , -0.0003191225, 920.7013    , 29.0626068  , 800.7708    , 2.68        , 3           , 255         , 0           , 0
-0.0419221632, 0.144834474 , 9.790625    , -0.000843073358, -0.000175607274, -0.0005365251, -3.12713337 , -0.00486280071, -0.0003137325, 920.7013    , 29.0626068  , 800.7714    , 2.69        , 3           , 255         , 0           , 0
-0.0433677658, 0.157482833 , 9.794538    , -0.000280931534, 0.000112048816, -0.000163311488, -3.12713623 , -0.004863945, -0.0003121158, 920.7013    , 29.0626068  , 800.772034  , 2.7         , 3           , 255         , 0           , 0
-0.0455230959, 0.147746474 , 9.800729    , -0.000184004311, 7.69125763E-05, -0.000177498223, -3.12712336 , -0.004839026, -0.000310422562, 920.7013    , 29.0626068  , 800.764954  , 2.71        , 3           , 255         , 0           , 0
-0.0553024225, 0.147033244 , 9.799747    , 0.000150844222, 0.000170919113, -9.873844E-05, -3.127122   , -0.004840749, -0.00030946 , 920.7013    , 29.0626068  , 800.765564  , 2.72        , 3           , 255         , 0           , 0
-0.0627022758, 0.146396324 , 9.798873    , 0.000171481632, 2.994982E-05, -9.41875041E-05, -3.12712026 , -0.004841062, -0.0003085226, 920.70636   , 29.0609779  , 800.7662    , 2.73        , 3           , 255         , 0           , 0
-0.0605211742, 0.139143914 , 9.792646    , -0.000270155084, -8.492614E-05, -0.000847445335, -3.12712288 , -0.00484033534, -0.00030003686, 920.70636   , 29.0609779  , 800.7668    , 2.74        , 3           , 255         , 0           , 0
-0.06459898 , 0.146657914 , 9.806144    , 2.6880065E-05, -0.000138794421, -0.000190198, -3.12712264 , -0.004838975, -0.000298115046, 920.70636   , 29.0609779  , 800.7674    , 2.75        , 3           , 255         , 0           , 0
-0.0589115135, 0.142257363 , 9.797685    , -0.0005465645, 0.000115661882, -0.000273690559, -3.12712812 , -0.004840171, -0.0002953952, 920.70636   , 29.0609779  , 800.768     , 2.76        , 3           , 255         , 0           , 0
-0.0695306659, 0.14485614  , 9.80344     , 0.000468704966, 0.000333121279, 0.000244780327, -3.12712336 , -0.004843467, -0.0002978909, 920.70636   , 29.0609779  , 800.7686    , 2.77        , 3           , 255         , 0           , 0
-0.06234982 , 0.144202173 , 9.790674    , 0.000399045646, 0.0005183446, -0.0003323882, -3.12711954 , -0.00484869769, -0.0002946424, 920.70636   , 29.0609779  , 800.7692    , 2.78        , 3           , 255         , 0           , 0
-0.0553250723, 0.141797021 , 9.797193    , -0.000122988829, 0.000155076967, 5.20471658E-05, -3.12712073 , -0.004850241, -0.000295185251, 920.70636   , 29.0609779  , 800.769836  , 2.79        , 3           , 255         , 0           , 0
-0.0548729375, 0.142941654 , 9.792307    , -0.000687430846, -0.000241372967, 0.000143708545, -3.12712765 , -0.00484780641, -0.000296587241, 920.70636   , 29.0609779  , 800.770447  , 2.8         , 3           , 255         , 0           , 0
-0.0515411124, 0.14362824  , 9.794287    , -0.000550202, -0.000363831525, 0.0007442747, -3.127129   , -0.004862271, -0.000303995825, 920.70636   , 29.0609779  , 800.756531  , 2.81        , 3           , 255         , 0           , 0
-0.0481529161, 0.13991335  , 9.803283    , -0.0004303099, 0.000121428864, 0.000419522985, -3.12713337 , -0.004863424, -0.000308208138, 920.70636   , 29.0609779  , 800.7571    , 2.82        , 3           , 255         , 0           , 0
-0.04462615 , 0.152515858 , 9.795942    , -9.67037049E-05, 0.000386554166, 0.000272967038, -3.12713432 , -0.00486725 , -0.000310993375, 920.7065    , 29.0627422  , 800.7576    , 2.83        , 3           , 255         , 0           , 0
-0.0344771743, 0.143739149 , 9.801956    , -0.000309706258, 0.000584795955, -9.439228E-05, -3.12713742 , -0.00487311 , -0.000310134084, 920.7065    , 29.0627422  , 800.7582    , 2.84        , 3           , 255         , 0           , 0
-0.042082943, 0.135262311 , 9.799133    , -0.000218190078, 0.000342868152, 5.46414522E-05, -3.12713957 , -0.004876531, -0.00031073 , 920.7065    , 29.0627422  , 800.7587    , 2.85        , 3           , 255         , 0           , 0
-0.0253237989, 0.143568188 , 9.790171    , -0.0004827007, 0.000135051669, 0.000136166 , -3.12714434 , -0.00487786159, -0.00031211102, 920.7065    , 29.0627422  , 800.7593    , 2.86        , 3           , 255         , 0           , 0
-0.0326542221, 0.137085274 , 9.79381752  , -0.00010219356, 0.0003548417, 0.000184524048, -3.12714553 , -0.004881383, -0.0003140073, 920.7065    , 29.0627422  , 800.7598    , 2.87        , 3           , 255         , 0           , 0
-0.03785926 , 0.138530135 , 9.793889    , 0.0002211046, 0.0007549963, 0.000404665 , -3.12714314 , -0.004888873, -0.00031816258, 920.7065    , 29.0627422  , 800.7604    , 2.88        , 3           , 255         , 0           , 0
-0.04398648 , 0.136527985 , 9.788754    , 5.2280724E-05, 0.000495476066, 0.000699198 , -3.12714267 , -0.004893726, -0.000325225352, 920.7065    , 29.0627422  , 800.7609    , 2.89        , 3           , 255         , 0           , 0
-0.0388005152, 0.145562932 , 9.790301    , -0.000890433439, 0.0004991797, 0.0005930766, -3.12715149 , -0.004898631, -0.000331227464, 920.7065    , 29.0627422  , 800.7615    , 2.9         , 3           , 255         , 0           , 0
-0.0432353951, 0.15465419  , 9.787433    , -0.000477594382, 0.0007903491, 0.000670735666, -3.12715626 , -0.00489209825, -0.000338048558, 920.7065    , 29.0627422  , 800.748657  , 2.91        , 3           , 255         , 0           , 0
-0.0384039357, 0.143179625 , 9.792414    , -0.0007769949, 0.0002862647, 0.000592199038, -3.127164   , -0.004894874, -0.000344011176, 920.7065    , 29.0627422  , 800.7491    , 2.92        , 3           , 255         , 0           , 0
-0.0452824757, 0.149305761 , 9.793057    , -0.0006219994, 0.000125432736, 8.068187E-05, -3.12717    , -0.00489611737, -0.000344836, 920.703857  , 29.0613861  , 800.7495    , 2.93        , 3           , 255         , 0           , 0
-0.0447469875, 0.144812837 , 9.790834    , -0.000743843731, 0.000280553824, 0.000229678 , -3.12717748 , -0.004898889, -0.000347173016, 920.703857  , 29.0613861  , 800.749939  , 2.94        , 3           , 255         , 0           , 0
-0.048129648, 0.137308046 , 9.804728    , -0.000300219283, -2.35073967E-05, 4.85881174E-05, -3.12718058 , -0.00489864731, -0.000347655441, 920.703857  , 29.0613861  , 800.750366  , 2.95        , 3           , 255         , 0           , 0
-0.04729882 , 0.133687884 , 9.794292    , -3.88055341E-05, -0.000130614149, -0.000163182136, -3.127181   , -0.00489736442, -0.000346005, 920.703857  , 29.0613861  , 800.750854  , 2.96        , 3           , 255         , 0           , 0
-0.0593423843, 0.138801262 , 9.788203    , -0.000315825047, -0.000223250245, -0.00012840025, -3.12718415 , -0.00489515066, -0.000344689, 920.703857  , 29.0613861  , 800.751343  , 2.97        , 3           , 255         , 0           , 0
-0.0586114638, 0.1401346   , 9.79086     , -0.0005430421, -2.94313068E-05, 0.000157185015, -3.12718964 , -0.004894834, -0.00034625642, 920.703857  , 29.0613861  , 800.751831  , 2.98        , 3           , 255         , 0           , 0
-0.05753994 , 0.139159039 , 9.795557    , -0.0002692542, 0.00023863453, 0.0005096197, -3.12719226 , -0.00489714649, -0.000351386378, 920.703857  , 29.0613861  , 800.7523    , 2.99        , 3           , 255         , 0           , 0
-0.05298055 , 0.143304661 , 9.805977    , 2.16678018E-05, -0.000349955633, 0.000724332 , -3.127192   , -0.004893543, -0.000358578458, 920.703857  , 29.0613861  , 800.7528    , 3           , 3           , 0           , 8.600237    , 300
-0.0510678366, 0.161309972 , 9.800826    , -0.000149410916, -0.000264154747, 0.0011245457, -3.127191   , -0.00489371829, -0.000369796238, 920.703857  , 29.0613861  , 800.7448    , 3.01        , 3           , 1           , 0           , 0
-0.0591057651, 0.150904328 , 9.79579     , -0.00012750813, -0.000123652979, 0.000287824951, -3.12719226 , -0.00489244051, -0.00037265633, 920.703857  , 29.0613861  , 800.745239  , 3.02        , 3           , 2           , 0           , 0
-0.0615093336, 0.12942794  , 9.789749    , -0.0008104086, 0.0005320265, 0.000193643034, -3.12720037 , -0.00489773229, -0.000374669122, 920.6777    , 29.0617924  , 800.745667  , 3.03        , 3           , 3           , 0           , 0
-0.06007738 , 0.1206215   , 9.788501    , -1.532142E-06, 0.0003166917, 0.0005064581, -3.12720037 , -0.00490082568, -0.000379778648, 920.6777    , 29.0617924  , 800.7461    , 3.04        , 3           , 4           , 0           , 0
-0.0614833832, 0.134555027 , 9.808676    , 0.000184107455, 0.0007016257, -8.07892648E-05, -3.12719846 , -0.0049078525, -0.000379071862, 920.6777    , 29.0617924  , 800.7465    , 3.05        , 3           , 5           , 0           , 0
-0.04678137 , 0.154004633 , 9.811651    , 0.000203859992, -0.0001700744, 0.0003541804, -3.12719655 , -0.00490610069, -0.00038258874, 920.6777    , 29.0617924  , 800.746948  , 3.06        , 3           , 6           , 0           , 0
-0.0494147539, 0.15183647  , 9.798685    , 0.0002843442, -0.000300788321, 0.00010804116, -3.12719369 , -0.00490307761, -0.000383625738, 920.6777    , 29.0617924  , 800.7474    , 3.07        , 3           , 7           , 0           , 0
-0.0378038  , 0.1511069   , 9.788416    , -0.000126869418, 0.000105771236, 0.000356519 , -3.127195   , -0.004904084, -0.000387205742, 920.6777    , 29.0617924  , 800.7478    , 3.08        , 3           , 8           , 5           , 5
-0.0315671936, 0.139765024 , 9.775313    , -0.000510454644, 0.000170895248, 0.000311316981, -3.1272     , -0.004905748, -0.000390343135, 920.6777    , 29.0617924  , 800.7482    , 3.09        , 3           , 9           , 5           , 0.1
-0.0349083543, 0.129541233 , 9.782957    , -0.000750903855, 0.000270878547, -1.62695069E-05, -3.12720752 , -0.004908459, -0.000390219444, 920.6777    , 29.0617924  , 800.748657  , 3.1         , 3           , 10          , 0.1         , 0.1
-0.0369226858, 0.13878496  , 9.796843    , -0.000473387947, 0.000494835433, -0.000298652943, -3.12720966 , -0.00491595827, -0.0003873168, 920.6777    , 29.0617924  , 800.7781    , 3.11        , 3           , 11          , 0.00758681167, 0.007586807
-0.0440567955, 0.145074069 , 9.7994      , -0.00043956656, 0.0008075442, -9.29017842E-05, -3.12721419 , -0.004924046, -0.00038650402, 920.6777    , 29.0617924  , 800.7787    , 3.12        , 3           , 12          , 0.174645633 , 0
-0.045011837, 0.144890875 , 9.788978    , -0.00112409261, 0.0007057707, -5.76781167E-05, -3.1272254  , -0.00493111042, -0.000386028725, 920.667542  , 29.0620632  , 800.7793    , 3.13        , 3           , 13          , 0           , 0
-0.0458739363, 0.168026358 , 9.7825985   , -0.000403853657, 0.000203626347, 0.000206404657, -3.12722945 , -0.00493311742, -0.000388121756, 920.667542  , 29.0620632  , 800.7799    , 3.14        , 3           , 14          , 0.000979474 , 0.00174921146
-0.0371054262, 0.167223737 , 9.787983    , -0.000414420676, -0.000139891985, 0.000135289156, -3.12723351 , -0.00493169855, -0.000389454362, 920.667542  , 29.0620632  , 800.7805    , 3.15        , 3           , 15          , 0           , 0.000378524
-0.0301324725, 0.14941439  , 9.800972    , -0.0001950285, 0.000106835039, -0.0001341292, -3.12723541 , -0.004932786, -0.0003881286, 920.667542  , 29.0620632  , 800.7811    , 3.16        , 3           , 16          , 0           , 1.401298E-45
-0.03222301 , 0.139166087 , 9.803205    , 0.000293809921, 0.000413173577, -0.000187129335, -3.12723255 , -0.004936944, -0.0003863168, 920.667542  , 29.0620632  , 800.781738  , 3.17        , 3           , 20          , 0           , 0
-0.0335379764, 0.134422749 , 9.804312    , 0.000378291821, 0.000421680976, -0.000448974257, -3.12722874 , -0.004941225, -0.000381888152, 920.667542  , 29.0620632  , 800.782349  , 3.18        , 3           , 21          , 0           , 0
-0.0447919369, 0.141777426 , 9.802219    , 0.000534827 , 0.000718693249, -0.000250397658, -3.12722349 , -0.00494844653, -0.000379487668, 920.667542  , 29.0620632  , 800.782959  , 3.19        , 3           , 22          , 0           , 0
-0.0496097952, 0.139655352 , 9.792863    , 0.0003897521, 0.000361910323, 0.000362007646, -3.12721944 , -0.004952013, -0.00038315932, 920.667542  , 29.0620632  , 800.783569  , 3.2         , 3           , 40          , 0           , 0
-0.0542417355, 0.139802784 , 9.791443    , 0.000587636 , 2.72865873E-05, 0.000739818 , -3.12720346 , -0.004938283, -0.00039061092, 920.667542  , 29.0620632  , 800.8222    , 3.21        , 3           , 41          , 0           , 0
-0.0588581078, 0.141123444 , 9.789005    , 0.000310913078, -6.842718E-05, 0.000658064964, -3.12720037 , -0.00493750442, -0.000397180935, 920.667542  , 29.0620632  , 800.823059  , 3.22        , 3           , 42          , 0           , 0
-0.0530557334, 0.12858434  , 9.788035    , 0.0003450443, 0.0004474495, 9.334006E-05, -3.12719679 , -0.00494196452, -0.0003981786, 920.742065  , 29.0625381  , 800.8239    , 3.23        , 3           , 255         , 0           , 0
-0.0525801964, 0.147323221 , 9.795672    , -0.00021061569, 0.0002663741, 0.0006881828, -3.127199   , -0.004944529, -0.000405097962, 920.742065  , 29.0625381  , 800.824768  , 3.24        , 3           , 255         , 0           , 0
-0.0526416823, 0.158221453 , 9.8103      , 0.000537159154, 0.00015039416, 7.1813E-05  , -3.12719345 , -0.00494602276, -0.000405837665, 920.742065  , 29.0625381  , 800.8256    , 3.25        , 3           , 255         , 0           , 0
-0.06412173 , 0.1556008   , 9.80525     , -0.000168028462, 0.0004666252, -0.000551399367, -3.12719512 , -0.004950768, -0.0004003915, 920.742065  , 29.0625381  , 800.826538  , 3.26        , 3           , 255         , 0           , 0
-0.06878562 , 0.155462429 , 9.798368    , -0.0003333059, 0.000460845884, 0.0005081097, -3.12719846 , -0.004955303, -0.000405538332, 920.742065  , 29.0625381  , 800.827454  , 3.27        , 3           , 255         , 0           , 0
-0.06553835 , 0.148499966 , 9.787364    , -0.000112868845, 0.000539833 , -8.234513E-05, -3.12719965 , -0.004960712, -0.0004047927, 920.742065  , 29.0625381  , 800.828369  , 3.28        , 3           , 255         , 0           , 0
-0.05449308 , 0.143864065 , 9.795745    , 0.000181733514, 0.0003702999, -0.000185281562, -3.127198   , -0.00496444 , -0.000402993348, 920.742065  , 29.0625381  , 800.8293    , 3.29        , 3           , 255         , 0           , 0
-0.04517851 , 0.151528612 , 9.805437    , -0.0004816997, 0.000174611574, 4.6017376E-05, -3.12720275 , -0.00496618 , -0.000403478625, 920.742065  , 29.0625381  , 800.8302    , 3.3         , 3           , 255         , 0           , 0
-0.0408507362, 0.146521181 , 9.810803    , -0.0006775076, 0.000168821774, 0.000619520142, -3.12720013 , -0.00498099951, -0.000409743516, 920.742065  , 29.0625381  , 800.7565    , 3.31        , 3           , 255         , 0           , 0
