Acc X       , Acc Y       , Acc Z       , Gyro X      , Gyro Y      , Gyro Z      , Euler X     , Euler Y     , Euler Z     , Pres X      , Pres Y      , Pres Z      , Time        , Status      , LowRate X   , LowRate Y   , LowRate Z    
-0.178473875, 0.08888457  , -9.785003   , 0           , 0           , 0           , -0.009083506, -0.0182367582, 0           , 923.602539  , 31.5505085  , 774.6462    , 0           , 2           , 0           , 5.47623158  , 0
-0.17802003 , 0.09071854  , -9.792779   , -0.0004131632, 0.000241381727, 0.0008655693, -0.009087547, -0.01823456 , 8.634629E-06, 923.602539  , 31.5505085  , 774.6462    , 0.01        , 3           , 1           , 0           , 0
-0.183181763, 0.0845215842, -9.791553   , 0.000194670749, 0.000194846449, 0.000657563738, -0.009085721, -0.0182325523, 1.51932127E-05, 923.602539  , 31.5505085  , 774.6462    , 0.02        , 3           , 2           , 0           , 0
-0.181120321, 0.09310924  , -9.790796   , 0.0002909305, -0.000402295351, 0.000282208435, -0.009082864, -0.0182365514, 1.8052122E-05, 923.5398    , 31.1134033  , 774.6462    , 0.03        , 3           , 3           , 0           , 0
-0.180258527, 0.08838476  , -9.788877   , -0.000312934251, -0.000521162641, 0.000165076111, -0.009086024, -0.0182417482, 1.97503887E-05, 923.5398    , 31.1134033  , 774.6462    , 0.04        , 3           , 4           , 0           , 0
-0.17765668 , 0.08868225  , -9.796537   , 4.591176E-05, -5.26777876E-05, -0.000176349728, -0.009085533, -0.01824229 , 1.79915041E-05, 923.5398    , 31.1134033  , 774.6462    , 0.05        , 3           , 5           , 0           , 0
-0.180740386, 0.0845157653, -9.796502   , 0.000595691032, -0.000127870444, 0.000108753935, -0.009079596, -0.0182435587, 1.90907722E-05, 923.5398    , 31.1134033  , 774.6462    , 0.06        , 3           , 6           , 0           , 0
-0.177167982, 0.08800914  , -9.794458   , 0.000427454681, -0.0003818446, 0.000170226209, -0.009075352, -0.0182473622, 2.082787E-05, 923.5398    , 31.1134033  , 774.6462    , 0.07        , 3           , 7           , 0           , 0
-0.186860085, 0.0953117162, -9.788845   , 0.000329104922, 9.075555E-05, 0.000154310532, -0.00907209 , -0.01824644 , 2.23629013E-05, 923.5398    , 31.1134033  , 774.6462    , 0.08        , 3           , 8           , 5           , 5
-0.17254439 , 0.0906373858, -9.795952   , 0.00086688716, -0.000208152953, -0.000176791087, -0.009063391, -0.0182485376, 2.06136974E-05, 923.5398    , 31.1134033  , 774.6462    , 0.09        , 3           , 9           , 5           , 0.1
-0.181559652, 0.0880491   , -9.78893    , 0.000315436977, -0.000101314305, -0.0004191199, -0.00906016 , -0.0182495881, 1.643126E-05, 923.5398    , 31.1134033  , 774.6462    , 0.1         , 3           , 10          , 0.1         , 0.1
-0.177958429, 0.091698356 , -9.790251   , 0.000248774071, 7.728397E-05, 0.000197136542, -0.009058593, -0.0182538349, 1.841199E-05, 923.5398    , 31.1134033  , 775.2091    , 0.11        , 3           , 11          , 0.0109544508, 0.0109544508
-0.178799555, 0.0902709   , -9.792388   , 0.000649330439, 0.0001534849, 0.000483695127, -0.009052188, -0.0182522554, 2.32355123E-05, 923.5398    , 31.1134033  , 775.2091    , 0.12        , 3           , 12          , 0.174642488 , 0
-0.177740455, 0.09183556  , -9.78475    , 0.000543035334, 0.0001990289, 0.000487947254, -0.009046847, -0.0182502214, 2.80974818E-05, 923.5459    , 31.151598   , 775.2091    , 0.13        , 3           , 13          , 0           , 0
-0.170963779, 0.0884855   , -9.788527   , 0.0001577361, 0.000390856119, 0.000253700768, -0.009045315, -0.0182462968, 3.059938E-05, 923.5459    , 31.151598   , 775.2091    , 0.14        , 3           , 14          , -0.000422439072, -0.000486956647
-0.1728019  , 0.08914836  , -9.795099   , 0.000562324945, 2.57254869E-05, -0.000520013331, -0.00903959852, -0.0182460826, 2.53964026E-05, 923.5459    , 31.151598   , 775.2091    , 0.15        , 3           , 15          , 0           , -0.000119196091
-0.173262328, 0.07950096  , -9.795044   , 0.000225147072, -0.00012500913, -0.000135027178, -0.009037322, -0.0182473455, 2.40572972E-05, 923.5459    , 31.151598   , 775.2091    , 0.16        , 3           , 16          , 0           , 1.401298E-45
-0.183323309, 0.083326146 , -9.788861   , 0.0001494544, 6.951584E-05, -0.000306368747, -0.009035771, -0.0182466768, 2.09870141E-05, 923.5459    , 31.151598   , 775.2091    , 0.17        , 3           , 20          , 0           , 0
-0.17485252 , 0.0859768838, -9.79053    , 0.0004902894, -6.19909551E-05, 5.27230441E-06, -0.009030869, -0.018247297, 2.10453491E-05, 923.5459    , 31.151598   , 775.2091    , 0.18        , 3           , 21          , 0           , 0
-0.180646345, 0.0860968158, -9.788248   , 0.0006679436, -0.0002381154, -0.000137360927, -0.009024167, -0.01824969 , 1.96931142E-05, 923.5459    , 31.151598   , 775.2091    , 0.19        , 3           , 22          , 0           , 0
-0.183155671, 0.090832524 , -9.787415   , 9.137759E-05, 0.000129768043, -0.000271707366, -0.009023204, -0.0182484165, 1.69640516E-05, 923.5459    , 31.151598   , 775.209167  , 0.2         , 3           , 40          , 0           , 0
-0.186438814, 0.084689416 , -9.793216   , 2.091314E-05, 5.10395039E-05, 0.000413450121, -0.009019307, -0.018241765, 2.102575E-05, 923.5459    , 31.151598   , 775.1815    , 0.21        , 3           , 41          , 0           , 0
-0.180632681, 0.09061874  , -9.78194    , 0.000206631536, 5.10127866E-05, 0.0007136539, -0.0090173725, -0.0182411913, 2.81584016E-05, 923.5459    , 31.151598   , 775.1816    , 0.22        , 3           , 42          , 0           , 0
-0.182213455, 0.09035526  , -9.789833   , 0.0001357508, -9.384041E-05, 4.83859767E-05, -0.009016023, -0.0182421263, 2.86507711E-05, 923.5678    , 31.1775131  , 775.181641  , 0.23        , 3           , 255         , 0           , 0
-0.191653028, 0.08720125  , -9.796672   , 0.000627406931, -2.98317173E-05, -0.000102016609, -0.00900973 , -0.0182424337, 2.76332E-05 , 923.5678    , 31.1775131  , 775.1817    , 0.24        , 3           , 255         , 0           , 0
-0.184899777, 0.10013447  , -9.792055   , 0.000184330784, -3.767194E-05, 0.000465903431, -0.009007973, -0.0182427689, 3.22961023E-05, 923.5678    , 31.1775131  , 775.181763  , 0.25        , 3           , 255         , 0           , 0
-0.187448055, 0.09197679  , -9.794184   , 0.000195613946, 0.000267904921, 0.0010487953, -0.009006208, -0.0182399936, 4.27609775E-05, 923.5678    , 31.1775131  , 775.1818    , 0.26        , 3           , 255         , 0           , 0
-0.18386282 , 0.09032833  , -9.795366   , -0.0003898223, 0.0008463902, 0.000465476 , -0.009010188, -0.0182314869, 4.733994E-05, 923.5678    , 31.1775131  , 775.1819    , 0.27        , 3           , 255         , 0           , 0
-0.182648093, 0.08985674  , -9.800332   , 0.000228595265, 0.000299836131, 0.000392336166, -0.009007974, -0.0182284582, 5.1236686E-05, 923.5678    , 31.1775131  , 775.181946  , 0.28        , 3           , 255         , 0           , 0
-0.176134884, 0.08798226  , -9.790113   , -0.0001809576, 7.69515464E-05, 0.000233916362, -0.009009826, -0.0182276629, 5.35691433E-05, 923.5678    , 31.1775131  , 775.182     , 0.29        , 3           , 255         , 0           , 0
-0.173416063, 0.091712594 , -9.794981   , 0.000111876696, -0.000261429464, -0.000140865872, -0.009008681, -0.01823029 , 5.21839E-05 , 923.5678    , 31.1775131  , 775.182068  , 0.3         , 3           , 255         , 0           , 0
-0.184329093, 0.09085207  , -9.788378   , 0.000543748436, -0.000294562546, -0.000267269876, -0.009011372, -0.0182486456, 4.96866523E-05, 923.5678    , 31.1775131  , 775.107056  , 0.31        , 3           , 255         , 0           , 0
-0.173605144, 0.08640112  , -9.797184   , 0.000354944845, 0.000415811257, -0.000477900467, -0.009007734, -0.0182445273, 4.486969E-05, 923.5678    , 31.1775131  , 775.1071    , 0.32        , 3           , 255         , 0           , 0
-0.172381   , 0.0892685   , -9.790232   , 0.000770590035, 7.00062956E-05, -0.000350971939, -0.008999965, -0.0182438623, 4.13533162E-05, 923.4923    , 31.1937962  , 775.1072    , 0.33        , 3           , 255         , 0           , 0
-0.1721745  , 0.08802204  , -9.789621   , 0.000547442934, 0.0006461901, -0.0007039692, -0.00899436 , -0.01823746 , 3.42547755E-05, 923.4923    , 31.1937962  , 775.107239  , 0.34        , 3           , 255         , 0           , 0
-0.1847662  , 0.09295695  , -9.799428   , -0.000207631383, 0.0003804539, -0.0007378967, -0.0089963  , -0.0182337258, 2.68408312E-05, 923.4923    , 31.1937962  , 775.1073    , 0.35        , 3           , 255         , 0           , 0
-0.1807013  , 0.09315411  , -9.794236   , 0.000285430171, 0.000242720242, -0.000370211463, -0.00899338 , -0.0182313286, 2.3116505E-05, 923.4923    , 31.1937962  , 775.107361  , 0.36        , 3           , 255         , 0           , 0
-0.1811935  , 0.09524236  , -9.797481   , 0.000482088828, -0.000396194053, -0.0009928298, -0.008988378, -0.0182353836, 1.32228233E-05, 923.4923    , 31.1937962  , 775.1074    , 0.37        , 3           , 255         , 0           , 0
-0.176044345, 0.100858152 , -9.796387   , -0.0002532141, 0.0005204461, 0.000315157231, -0.008990968, -0.0182301477, 1.63279237E-05, 923.4923    , 31.1937962  , 775.1075    , 0.38        , 3           , 255         , 0           , 0
-0.175883472, 0.0878625959, -9.786176   , 0.0003511928, 0.000308989984, 0.001047485 , -0.008987646, -0.01822696 , 2.677604E-05, 923.4923    , 31.1937962  , 775.107544  , 0.39        , 3           , 255         , 0           , 0
-0.179425359, 0.0888554454, -9.782598   , 0.000187276644, 0.000118273456, 0.000269264361, -0.008985821, -0.01822576 , 2.94583242E-05, 923.4923    , 31.1937962  , 775.1076    , 0.4         , 3           , 255         , 0           , 0
-0.178074986, 0.08902955  , -9.78522    , -8.296431E-05, 0.000581107 , -0.0003871065, -0.008998573, -0.0182179958, 2.57531519E-05, 923.4923    , 31.1937962  , 775.2415    , 0.41        , 3           , 255         , 0           , 0
-0.182294816, 0.0966414362, -9.791586   , -0.000296558952, 4.84637858E-05, -0.0004417511, -0.009001459, -0.0182175525, 2.13308376E-05, 923.4923    , 31.1937962  , 775.2416    , 0.42        , 3           , 255         , 0           , 0
-0.177118018, 0.08751251  , -9.796893   , 3.74609954E-05, 0.0001991645, 0.0004896756, -0.009001174, -0.0182155166, 2.62101585E-05, 923.523254  , 31.20906    , 775.241638  , 0.43        , 3           , 255         , 0           , 0
-0.1805548  , 0.08739877  , -9.788599   , 0.0006055469, 0.0004338325, -0.000289601739, -0.00899506453, -0.0182112027, 2.32748116E-05, 923.523254  , 31.20906    , 775.2417    , 0.44        , 3           , 255         , 0           , 0
-0.177203819, 0.09597644  , -9.800073   , 6.756096E-05, 0.00019425436, -0.000152755179, -0.008994362, -0.0182092786, 2.17296347E-05, 923.523254  , 31.20906    , 775.24176   , 0.45        , 3           , 255         , 0           , 0
-0.173723355, 0.09242942  , -9.791319   , 0.000469097722, 0.0003435047, 7.178722E-05, -0.00898968149, -0.0182058327, 2.24166779E-05, 923.523254  , 31.20906    , 775.2418    , 0.46        , 3           , 255         , 0           , 0
-0.18021962 , 0.0968163   , -9.794249   , 0.0006360342, 0.0001374764, 0.000332029042, -0.008983382, -0.0182044283, 2.57249285E-05, 923.523254  , 31.20906    , 775.2419    , 0.47        , 3           , 255         , 0           , 0
-0.183628857, 0.09381229  , -9.790343   , -0.000233478728, -0.0004908714, 1.33443682E-05, -0.00898572 , -0.0182093363, 2.59024873E-05, 923.523254  , 31.20906    , 775.241943  , 0.48        , 3           , 255         , 0           , 0
-0.188335121, 0.0930120349, -9.791912   , -0.000267907453, 7.244732E-05, -1.66244354E-05, -0.008988394, -0.0182086118, 2.5729707E-05, 923.523254  , 31.20906    , 775.242     , 0.49        , 3           , 255         , 0           , 0
-0.184684008, 0.09525427  , -9.79585552 , 8.668349E-05, -0.000134434929, -8.92058961E-05, -0.008987511, -0.018209964, 2.48496381E-05, 923.523254  , 31.20906    , 775.242065  , 0.5         , 3           , 255         , 0           , 0
-0.178895459, 0.09636779  , -9.792542   , -0.000115120842, 0.00026517373, 7.35403955E-05, -0.009004836, -0.0182149746, 2.58556447E-05, 923.523254  , 31.20906    , 775.266     , 0.51        , 3           , 255         , 0           , 0
-0.178017676, 0.09450695  , -9.791173   , 0.000152533758, 0.000262430782, 3.108081E-05, -0.009003315, -0.0182123464, 2.61428431E-05, 923.523254  , 31.20906    , 775.2661    , 0.52        , 3           , 255         , 0           , 0
-0.184683174, 0.0882858559, -9.796725   , 0.0002161347, 0.000357328652, -0.000812166138, -0.009001006, -0.0182088446, 1.79881972E-05, 923.5714    , 31.2127228  , 775.266235  , 0.53        , 3           , 255         , 0           , 0
-0.1879872  , 0.09021379  , -9.786995   , 0.000379214936, -2.1759537E-05, -1.85826284E-05, -0.00899721 , -0.0182090625, 1.78043119E-05, 923.5714    , 31.2127228  , 775.266357  , 0.54        , 3           , 255         , 0           , 0
-0.177171558, 0.09536755  , -9.802173   , -7.16098E-05, -1.09120738E-05, 0.0009756711, -0.008998104, -0.0182090849, 2.75629718E-05, 923.5714    , 31.2127228  , 775.2665    , 0.55        , 3           , 255         , 0           , 0
-0.180813581, 0.09023751  , -9.79504    , 0.0005379996, -0.000282738882, 0.0007259091, -0.008992856, -0.0182118472, 3.48482354E-05, 923.5714    , 31.2127228  , 775.2666    , 0.56        , 3           , 255         , 0           , 0
-0.178803876, 0.08551541  , -9.802487   , 0.0001939573, -0.000273432815, -0.000422049372, -0.008990841, -0.01821462 , 3.06519141E-05, 923.5714    , 31.2127228  , 775.2667    , 0.57        , 3           , 255         , 0           , 0
-0.178316444, 0.08344986  , -9.801173   , 0.000110059511, 0.000157512084, -0.000537564338, -0.008989642, -0.0182130933, 2.526156E-05, 923.5714    , 31.2127228  , 775.266846  , 0.58        , 3           , 255         , 0           , 0
-0.179979548, 0.0760102645, -9.790964   , 0.00012403747, 0.00068737386, -0.000237924891, -0.008988356, -0.0182062369, 2.282027E-05, 923.5714    , 31.2127228  , 775.266968  , 0.59        , 3           , 255         , 0           , 0
-0.175901145, 0.0778494552, -9.780008   , 0.0002099557, 0.0005641009, 0.0002795461, -0.008986308, -0.01820057 , 2.55653085E-05, 923.5714    , 31.2127228  , 775.2671    , 0.6         , 3           , 255         , 0           , 0
-0.171389148, 0.07270841  , -9.7904     , -5.2809366E-05, 0.000157921168, 0.0007807815, -0.00898592 , -0.0182041023, 3.33404751E-05, 923.5714    , 31.2127228  , 775.2079    , 0.61        , 3           , 255         , 0           , 0
-0.1777478  , 0.08113691  , -9.79711    , 0.0005892962, 0.000307790557, -0.0004712165, -0.008979942, -0.01820107 , 2.86001832E-05, 923.5714    , 31.2127228  , 775.208     , 0.62        , 3           , 255         , 0           , 0
-0.1852032  , 0.0935247   , -9.795635   , 0.0007378557, -7.797152E-05, 0.0001502138, -0.008972591, -0.0182018336, 3.01094751E-05, 923.594238  , 31.2203217  , 775.2081    , 0.63        , 3           , 255         , 0           , 0
-0.173671409, 0.0921354741, -9.792917   , 0.000479201874, -0.000204726384, 0.000476573245, -0.008967886, -0.0182038378, 3.489406E-05, 923.594238  , 31.2203217  , 775.208252  , 0.64        , 3           , 255         , 0           , 0
-0.180912986, 0.08521282  , -9.783475   , 0.0008939119, -2.10697181E-06, 0.000345689245, -0.00895901 , -0.0182038285, 3.8351478E-05, 923.594238  , 31.2203217  , 775.2084    , 0.65        , 3           , 255         , 0           , 0
-0.172460392, 0.09369751  , -9.783979   , 0.0004696673, -8.021787E-05, -0.0004895439, -0.008954222, -0.0182046723, 3.34627221E-05, 923.594238  , 31.2203217  , 775.2085    , 0.66        , 3           , 255         , 0           , 0
-0.171961129, 0.09577867  , -9.792208   , 0.000579158659, 0.000220813119, -0.00031726333, -0.00894837547, -0.018202493, 3.02700118E-05, 923.594238  , 31.2203217  , 775.2086    , 0.67        , 3           , 255         , 0           , 0
-0.175289422, 0.08773116  , -9.794036   , -2.83436384E-06, -0.0002727336, 0.000247498858, -0.008948448, -0.0182051975, 3.276964E-05, 923.594238  , 31.2203217  , 775.20874   , 0.68        , 3           , 255         , 0           , 0
-0.179386348, 0.0951104   , -9.795832   , 0.000181905 , 0.000110030436, 0.000237642016, -0.008946673, -0.0182040762, 3.51364579E-05, 923.594238  , 31.2203217  , 775.208862  , 0.69        , 3           , 255         , 0           , 0
-0.186020255, 0.08988405  , -9.788412   , 0.000254000915, 0.000191926083, -0.000264810253, -0.008944083, -0.01820218 , 3.247093E-05, 923.594238  , 31.2203217  , 775.209     , 0.7         , 3           , 255         , 0           , 0
-0.182852671, 0.0869446546, -9.785826   , -0.000252583064, -0.000411159039, 0.000142844045, -0.008949938, -0.0182032268, 3.39964281E-05, 923.594238  , 31.2203217  , 775.1343    , 0.71        , 3           , 255         , 0           , 0
-0.18147859 , 0.09303899  , -9.792877   , -0.000415922725, -7.865825E-05, 0.000406802283, -0.008954172, -0.0182039756, 3.807191E-05, 923.594238  , 31.2203217  , 775.134338  , 0.72        , 3           , 255         , 0           , 0
-0.180685744, 0.08915935  , -9.803682   , -4.25392936E-05, -0.000362155, 0.0007873874, -0.008954741, -0.0182075258, 4.59790062E-05, 923.5559    , 31.2243252  , 775.1344    , 0.73        , 3           , 255         , 0           , 0
-0.183729887, 0.0888581648, -9.794477   , 0.000224350923, 0.000120999961, 0.000542111462, -0.008952597, -0.0182062667, 5.13898267E-05, 923.5559    , 31.2243252  , 775.13446   , 0.74        , 3           , 255         , 0           , 0
-0.180213362, 0.08220661  , -9.794241   , 0.000722792931, -4.59670846E-05, 0.00047350215, -0.008945456, -0.0182066839, 5.612944E-05, 923.5559    , 31.2243252  , 775.1345    , 0.75        , 3           , 255         , 0           , 0
-0.173471645, 0.09641582  , -9.786553   , -0.000373574556, 0.000374942872, 0.0005300874, -0.008949287, -0.018202886, 6.13973E-05 , 923.5559    , 31.2243252  , 775.1346    , 0.76        , 3           , 255         , 0           , 0
-0.1722044  , 0.09721313  , -9.785088   , -0.0007893323, 0.000157145521, 0.000239920308, -0.008957223, -0.0182012953, 6.37826743E-05, 923.5559    , 31.2243252  , 775.134644  , 0.77        , 3           , 255         , 0           , 0
-0.17863071 , 0.0862589   , -9.784927   , 0.0001855758, -0.000221106544, 0.000228007528, -0.00895541 , -0.0182034839, 6.608278E-05, 923.5559    , 31.2243252  , 775.1347    , 0.78        , 3           , 255         , 0           , 0
-0.188525215, 0.08971073  , -9.786661   , -0.0004933679, -0.000198380527, 0.000173142209, -0.008960376, -0.0182054527, 6.78321449E-05, 923.5559    , 31.2243252  , 775.134766  , 0.79        , 3           , 255         , 0           , 0
-0.184601352, 0.08324673  , -9.787037   , -0.0006740625, -0.00020311019, 0.0007044689, -0.008967243, -0.0182074178, 7.489573E-05, 923.5559    , 31.2243252  , 775.1348    , 0.8         , 3           , 255         , 0           , 0
-0.181293771, 0.08542463  , -9.787096   , -4.024591E-05, -0.000227677287, -0.000609144568, -0.008973907, -0.0182186328, 6.894018E-05, 923.5559    , 31.2243252  , 775.1251    , 0.81        , 3           , 255         , 0           , 0
-0.181068256, 0.09107119  , -9.785115   , 0.0001777464, -1.61522184E-05, -0.000507325, -0.008972037, -0.01821884 , 6.386787E-05, 923.5559    , 31.2243252  , 775.1252    , 0.82        , 3           , 255         , 0           , 0
-0.167316347, 0.09641914  , -9.785456   , 2.36385968E-05, -7.1071554E-05, 0.0005468659, -0.008971901, -0.0182195  , 6.934344E-05, 923.5234    , 31.2249355  , 775.125244  , 0.83        , 3           , 255         , 0           , 0
-0.176552922, 0.09975119  , -9.79176    , -0.00023093613, 3.414828E-05, 0.00020700079, -0.008974246, -0.0182191413, 7.141059E-05, 923.5234    , 31.2249355  , 775.1253    , 0.84        , 3           , 255         , 0           , 0
-0.179284826, 0.09380247  , -9.792584   , -0.0001899396, -7.650163E-05, -0.000327190966, -0.008976086, -0.0182199366, 6.814522E-05, 923.5234    , 31.2249355  , 775.125366  , 0.85        , 3           , 255         , 0           , 0
-0.17247352 , 0.08406292  , -9.798492   , 0.000350967865, -0.0002090846, -7.960065E-05, -0.008972562, -0.018222034, 6.736791E-05, 923.5234    , 31.2249355  , 775.1254    , 0.86        , 3           , 255         , 0           , 0
-0.172727853, 0.0843575   , -9.788531   , 0.00108762539, 0.0001820623, 0.000129537861, -0.00896171 , -0.0182202011, 6.86470958E-05, 923.5234    , 31.2249355  , 775.1255    , 0.87        , 3           , 255         , 0           , 0
-0.174228042, 0.08579816  , -9.793616   , 0.0002612921, 0.0005388021, 0.000143026875, -0.008959124, -0.0182148013, 7.002924E-05, 923.5234    , 31.2249355  , 775.125549  , 0.88        , 3           , 255         , 0           , 0
-0.175584987, 0.0815657   , -9.779296   , -0.000173009787, 0.000347757479, 0.000190787585, -0.008960888, -0.0182113051, 7.190616E-05, 923.5234    , 31.2249355  , 775.1256    , 0.89        , 3           , 255         , 0           , 0
-0.175804675, 0.07121325  , -9.779726   , -0.000240324443, 0.000284607318, 0.0002622541, -0.008963339, -0.0182084385, 7.45034558E-05, 923.5234    , 31.2249355  , 775.1257    , 0.9         , 3           , 255         , 0           , 0
-0.181020781, 0.080991745 , -9.782702   , 0.000116916228, 0.0006227131, 0.0004231648, -0.008960032, -0.0181902815, 7.863943E-05, 923.5234    , 31.2249355  , 775.1555    , 0.91        , 3           , 255         , 0           , 0
-0.176080048, 0.07796819  , -9.792215   , 0.000478834845, 0.000350470567, 0.0009173762, -0.00895541 , -0.018186694, 8.7782726E-05, 923.5234    , 31.2249355  , 775.15564   , 0.92        , 3           , 255         , 0           , 0
-0.17555435 , 0.063288115 , -9.785112   , -0.000474826375, -0.000141695491, 0.0005555578, -0.008960259, -0.01818806 , 9.335153E-05, 923.558     , 31.2266979  , 775.155762  , 0.93        , 3           , 255         , 0           , 0
-0.172111124, 0.07755472  , -9.7883625  , -0.000165182515, 4.1233754E-05, 0.00020283481, -0.008961947, -0.01818763 , 9.537639E-05, 923.558     , 31.2266979  , 775.1559    , 0.94        , 3           , 255         , 0           , 0
-0.173868269, 0.09062372  , -9.790095   , -0.000226089323, -0.000313365017, 0.0001926673, -0.008964243, -0.018190749, 9.733135E-05, 923.558     , 31.2266979  , 775.156     , 0.95        , 3           , 255         , 0           , 0
-0.1728094  , 0.09619942  , -9.789399   , -0.0007258542, -9.818381E-05, 0.000446362945, -0.008971583, -0.0181916878, 0.000101804224, 923.558     , 31.2266979  , 775.1561    , 0.96        , 3           , 255         , 0           , 0
-0.17631    , 0.09612709  , -9.791862   , 0.0002500041, 4.95390268E-05, 0.0004553594, -0.008969165, -0.0181911513, 0.000106353829, 923.558     , 31.2266979  , 775.15625   , 0.97        , 3           , 255         , 0           , 0
-0.182553187, 0.101117507 , -9.790052   , 0.000663383049, 0.000402470469, 0.000293559 , -0.008962585, -0.0181870982, 0.000109253626, 923.558     , 31.2266979  , 775.1564    , 0.98        , 3           , 255         , 0           , 0
-0.1810734  , 0.104748331 , -9.792371   , 0.000454237976, 0.000110217166, 0.00019049496, -0.008958077, -0.0181859843, 0.0001111489, 923.558     , 31.2266979  , 775.1565    , 0.99        , 3           , 255         , 0           , 0
-0.193079516, 0.106076226 , -9.783939   , 0.000136588234, 0.000323542627, 0.000243716277, -0.008956756, -0.0181827229, 0.000113557318, 923.558     , 31.2266979  , 775.1566    , 1           , 3           , 0           , 6.47623634  , 100
-0.194422632, 0.09496796  , -9.787806   , 4.29274223E-05, -0.000126402563, 0.0002680597, -0.008963256, -0.01818543 , 0.000116374635, 923.558     , 31.2266979  , 775.1434    , 1.01        , 3           , 1           , 0           , 0
-0.19039613 , 0.09241364  , -9.791109   , -0.000345102482, 0.0004373788, -0.000508733734, -0.008966613, -0.0181811  , 0.000111247558, 923.558     , 31.2266979  , 775.1435    , 1.02        , 3           , 2           , 0           , 0
-0.184935778, 0.08513637  , -9.80171    , -0.000280035863, 0.000253070029, -0.000123631573, -0.008969392, -0.0181785822, 0.000109988425, 923.492249  , 31.2283955  , 775.1436    , 1.03        , 3           , 3           , 0           , 0
-0.183207184, 0.0982187241, -9.799477   , -0.00014354373, 5.17146837E-05, -0.000294933358, -0.008970773, -0.01817809 , 0.000107034146, 923.492249  , 31.2283955  , 775.143738  , 1.04        , 3           , 4           , 0           , 0
-0.1839939  , 0.07840293  , -9.7903     , -0.000595869264, -0.000256876781, -0.000200398063, -0.008976695, -0.01818068 , 0.000105053019, 923.492249  , 31.2283955  , 775.14386   , 1.05        , 3           , 5           , 0           , 0
-0.186722025, 0.08240753  , -9.795395   , -0.000302202156, 0.000105101062, 0.000372272159, -0.008979785, -0.0181795955, 0.000108766675, 923.492249  , 31.2283955  , 775.144     , 1.06        , 3           , 6           , 0           , 0
-0.181293249, 0.0870195255, -9.794135   , 0.000232650957, 0.000263816561, 0.000139913842, -0.008977484, -0.0181769412, 0.000110142268, 923.492249  , 31.2283955  , 775.1441    , 1.07        , 3           , 7           , 0           , 0
-0.181970432, 0.07950327  , -9.791158   , 0.0005051057, 0.000196453155, -0.000109315748, -0.008972412, -0.0181749873, 0.00010903136, 923.492249  , 31.2283955  , 775.1442    , 1.08        , 3           , 8           , 5           , 5
-0.17234011 , 0.08495207  , -9.797004   , 0.0007163852, -8.548089E-05, -0.00021224923, -0.008965209, -0.01817586 , 0.000106916326, 923.492249  , 31.2283955  , 775.144348  , 1.09        , 3           , 9           , 5           , 0.1
-0.182749122, 0.07745696  , -9.790695   , 0.000325407367, -0.0006361144, 0.00041140223, -0.008962031, -0.0181821845, 0.000111087778, 923.492249  , 31.2283955  , 775.1445    , 1.1         , 3           , 10          , 0.1         , 0.1
-0.170201987, 0.0881520361, -9.788716   , 0.000239557223, -0.000250076118, -2.622151E-05, -0.008954908, -0.0182003379, 0.000110762005, 923.492249  , 31.2283955  , 775.2024    , 1.11        , 3           , 11          , 0.00906415  , 0.00906415
-0.175568432, 0.08933156  , -9.78630352 , 0.000107761589, 0.000459204 , -0.000217005581, -0.008953792, -0.018195767, 0.000108550616, 923.492249  , 31.2283955  , 775.202637  , 1.12        , 3           , 12          , 0.174642846 , 0
-0.184135839, 0.0947478339, -9.784727   , 0.000321096566, 0.000144404738, 0.0004928336, -0.008950669, -0.0181942787, 0.000113466522, 923.526     , 31.230566   , 775.2029    , 1.13        , 3           , 13          , 0           , 0
-0.180048466, 0.09463922  , -9.793063   , 0.000429608539, 2.27185083E-05, 0.00042000477, -0.0089464495, -0.0181940142, 0.000117664968, 923.526     , 31.230566   , 775.2031    , 1.14        , 3           , 14          , -0.000422417943, -0.0004869316
-0.173544645, 0.09475835  , -9.793822   , -0.000609558949, 6.811015E-05, 0.0004943843, -0.008952635, -0.0181932878, 0.0001226032, 923.526     , 31.230566   , 775.203369  , 1.15        , 3           , 15          , 0           , -0.000119196244
-0.186805665, 0.0853537545, -9.791114   , -0.0008275153, -0.000239146466, -0.0007839639, -0.008960768, -0.01819575 , 0.000114784183, 923.526     , 31.230566   , 775.2037    , 1.16        , 3           , 16          , 0           , 1.401298E-45
-0.1798006  , 0.08437764  , -9.792323   , -0.000181095034, -0.000266088464, -0.00035253074, -0.008962513, -0.018198438, 0.000111282359, 923.526     , 31.230566   , 775.204     , 1.17        , 3           , 20          , 0           , 0
-0.173134133, 0.07671566  , -9.796313   , -0.0002414643, -0.000119171105, 0.000191080442, -0.008964964, -0.0181996133, 0.000113204049, 923.526     , 31.230566   , 775.2043    , 1.18        , 3           , 21          , 0           , 0
-0.17723994 , 0.0800757   , -9.78734    , 0.000392748974, 7.832065E-05, 1.66167665E-05, -0.00896104 , -0.0181988273, 0.000113363218, 923.526     , 31.230566   , 775.2046    , 1.19        , 3           , 22          , 0           , 0
-0.179540485, 0.0798654854, -9.785625   , -2.00035283E-05, -5.74536971E-05, 0.0007079623, -0.008961368, -0.0181993376, 0.0001204487, 923.526     , 31.230566   , 775.2049    , 1.2         , 3           , 40          , 0           , 0
-0.179436356, 0.0787571   , -9.788805   , 0.000450282736, -0.0002657307, -6.16015459E-05, -0.00895411149, -0.01820154 , 0.000119806486, 923.526     , 31.230566   , 775.2202    , 1.21        , 3           , 41          , 0           , 0
-0.1673556  , 0.08072035  , -9.789017   , -0.000226880016, -0.0003047169, 0.000112448783, -0.008956401, -0.0182045754, 0.000120958372, 923.526     , 31.230566   , 775.2205    , 1.22        , 3           , 42          , 0           , 0
-0.169971019, 0.08451965  , -9.793666   , -0.0004407263, -0.000108951266, -0.000357976765, -0.0089607425, -0.0182056967, 0.000117387994, 923.5405    , 31.2321262  , 775.2208    , 1.23        , 3           , 255         , 0           , 0
-0.186540142, 0.08094584  , -9.789731   , -0.000275807921, -0.000346715882, -0.000206677723, -0.008963464, -0.01820918 , 0.000115352079, 923.5405    , 31.2321262  , 775.2211    , 1.24        , 3           , 255         , 0           , 0
-0.174953416, 0.08563063  , -9.793819   , -0.000306624337, -9.904613E-05, -3.31135234E-05, -0.008966523, -0.0182101745, 0.00011502979, 923.5405    , 31.2321262  , 775.221436  , 1.25        , 3           , 255         , 0           , 0
-0.184473753, 0.08538323  , -9.795226   , -0.0005277826, 0.000209852267, 0.000116699419, -0.008971823, -0.018208066, 0.000116178082, 923.5405    , 31.2321262  , 775.2218    , 1.26        , 3           , 255         , 0           , 0
-0.176030636, 0.09465645  , -9.799428   , -0.000332918076, -6.127046E-05, -0.000207560966, -0.008975115, -0.0182086974, 0.000114107759, 923.5405    , 31.2321262  , 775.222168  , 1.27        , 3           , 255         , 0           , 0
-0.178426832, 0.0908624157, -9.79943    , -0.000178203569, -2.47028365E-05, -8.707079E-05, -0.00897687953, -0.0182089526, 0.000113239177, 923.5405    , 31.2321262  , 775.222534  , 1.28        , 3           , 255         , 0           , 0
-0.180958018, 0.09261458  , -9.785373   , -0.000134675764, -8.721228E-05, 0.0003982872, -0.008978299, -0.01820979 , 0.00011723028, 923.5405    , 31.2321262  , 775.2229    , 1.29        , 3           , 255         , 0           , 0
-0.166411117, 0.09716798  , -9.787573   , -0.00046950212, -0.0001499425, -0.0003679325, -0.008982928, -0.0182113182, 0.000113564041, 923.5405    , 31.2321262  , 775.223267  , 1.3         , 3           , 255         , 0           , 0
-0.176409259, 0.09037248  , -9.795423   , 0.000648233865, -0.000264063943, -0.000269703247, -0.008974581, -0.0182088539, 0.000110857407, 923.5405    , 31.2321262  , 775.2218    , 1.31        , 3           , 255         , 0           , 0
-0.180214316, 0.098611474 , -9.799316   , -7.91397761E-05, -0.000551652454, -3.31352858E-05, -0.008975368, -0.0182143748, 0.000110575544, 923.5405    , 31.2321262  , 775.222168  , 1.32        , 3           , 255         , 0           , 0
-0.180272549, 0.0857398   , -9.795014   , 0.0006707554, -2.74874037E-05, 0.0003312752, -0.008968721, -0.0182146188, 0.0001138911, 923.5272    , 31.2324657  , 775.222534  , 1.33        , 3           , 255         , 0           , 0
-0.180767745, 0.07594167  , -9.79401    , 0.000131863315, 4.26967745E-06, -7.04073245E-05, -0.008967388, -0.0182145834, 0.000113186572, 923.5272    , 31.2324657  , 775.2229    , 1.34        , 3           , 255         , 0           , 0
-0.173610359, 0.08612947  , -9.791815   , -0.000107661239, -2.22511E-05, -5.61101842E-05, -0.008968456, -0.0182148125, 0.000112627415, 923.5272    , 31.2324657  , 775.223267  , 1.35        , 3           , 255         , 0           , 0
-0.167017728, 0.07754312  , -9.7807     , 4.94449923E-05, -0.000437430746, -1.32767818E-05, -0.008967959, -0.0182191879, 0.000112533853, 923.5272    , 31.2324657  , 775.223633  , 1.36        , 3           , 255         , 0           , 0
-0.171541959, 0.08319123  , -9.790247   , -0.000467876322, 0.000103998347, 9.83966747E-05, -0.008972655, -0.0182181373, 0.0001135086, 923.5272    , 31.2324657  , 775.224     , 1.37        , 3           , 255         , 0           , 0
-0.1747572  , 0.0774650648, -9.791049   , -9.090983E-05, -0.000179185357, 0.000268750853, -0.008973612, -0.018219905, 0.000116212439, 923.5272    , 31.2324657  , 775.224365  , 1.38        , 3           , 255         , 0           , 0
-0.185700029, 0.09001078  , -9.786685   , -0.0004782133, 0.0005283495, -0.000188197213, -0.00897836 , -0.01821464 , 0.000114282855, 923.5272    , 31.2324657  , 775.224731  , 1.39        , 3           , 255         , 0           , 0
-0.186304644, 0.0955742151, -9.789682   , 5.17058943E-05, -4.628516E-05, -0.0002003602, -0.008977806, -0.018215118, 0.000112283211, 923.5272    , 31.2324657  , 775.2251    , 1.4         , 3           , 255         , 0           , 0
-0.171666056, 0.09403439  , -9.793457   , 0.000193164757, 0.000227989891, 6.61441445E-05, -0.008970956, -0.01821082 , 0.000112834467, 923.5272    , 31.2324657  , 775.237061  , 1.41        , 3           , 255         , 0           , 0
-0.184285432, 0.09849916  , -9.791967   , -0.000335954624, 0.000356481585, -0.0006329534, -0.008974199, -0.0182073135, 0.000106472311, 923.5272    , 31.2324657  , 775.2375    , 1.42        , 3           , 255         , 0           , 0
-0.184916139, 0.102494858 , -9.783224   , -0.0003186464, 0.000260392349, -0.000307459384, -0.00897733 , -0.018204743, 0.000103374034, 923.496155  , 31.234705   , 775.2379    , 1.43        , 3           , 255         , 0           , 0
-0.18574357 , 0.1031155   , -9.786992   , -0.0004875477, 0.000234046689, 0.000239062691, -0.008982248, -0.01820238 , 0.000105743879, 923.496155  , 31.234705   , 775.238342  , 1.44        , 3           , 255         , 0           , 0
-0.186218292, 0.105669223 , -9.790609   , 0.0003585509, 0.0001355418, -0.000502134557, -0.008978571, -0.018201068, 0.00010070984, 923.496155  , 31.234705   , 775.2388    , 1.45        , 3           , 255         , 0           , 0
-0.171584636, 0.100921728 , -9.789392   , 0.000210443846, 0.000237805827, 0.00040226226, -0.00897654 , -0.0181986541, 0.000104711522, 923.496155  , 31.234705   , 775.2392    , 1.46        , 3           , 255         , 0           , 0
-0.181255192, 0.09155245  , -9.792993   , -0.000131504814, 0.0002775244, 0.00103218108, -0.008978042, -0.0181957874, 0.000115009447, 923.496155  , 31.234705   , 775.2396    , 1.47        , 3           , 255         , 0           , 0
-0.187363073, 0.0896822959, -9.790268   , 0.000289996475, -0.00015294386, -0.000504043244, -0.00897504948, -0.01819736 , 0.00010998224, 923.496155  , 31.234705   , 775.240051  , 1.48        , 3           , 255         , 0           , 0
-0.175550014, 0.08160222  , -9.787712   , 0.000178743066, 0.0003322768, 0.0001909732, -0.008973297, -0.0181940217, 0.000111862348, 923.496155  , 31.234705   , 775.2405    , 1.49        , 3           , 255         , 0           , 0
-0.179215908, 0.08825419  , -9.78821    , 0.000174216868, -6.763384E-05, -5.87989925E-05, -0.008971546, -0.0181947034, 0.000111280373, 923.496155  , 31.234705   , 775.2409    , 1.5         , 3           , 255         , 0           , 0
-0.178130433, 0.08477428  , -9.785824   , -0.00013427806, 4.345225E-05, -0.0003382836, -0.008997001, -0.0182023887, 0.000108333348, 923.496155  , 31.234705   , 775.283752  , 1.51        , 3           , 255         , 0           , 0
-0.16794458 , 0.0931214243, -9.799563   , 0.00017181228, 0.0002310439, -0.000702125137, -0.008995154, -0.01820014 , 0.000101290607, 923.496155  , 31.234705   , 775.284363  , 1.52        , 3           , 255         , 0           , 0
-0.1675445  , 0.09051728  , -9.781007   , 0.00034933057, 0.000234253472, -0.000158889379, -0.008991632, -0.0181978159, 9.968047E-05, 923.5712    , 31.23484    , 775.285     , 1.53        , 3           , 255         , 0           , 0
-0.175767154, 0.08458324  , -9.799858   , 0.0003392619, -0.000266699877, 0.000169829145, -0.00898827 , -0.0182004664, 0.0001014029, 923.5712    , 31.23484    , 775.2856    , 1.54        , 3           , 255         , 0           , 0
-0.183573931, 0.08942549  , -9.798973   , -1.53417932E-06, -0.000256279716, 0.000316610734, -0.008988343, -0.0182030015, 0.000104592364, 923.5712    , 31.23484    , 775.2862    , 1.55        , 3           , 255         , 0           , 0
-0.169937342, 0.0959497243, -9.793104   , -0.000176820118, -0.000225328607, -0.000500071852, -0.008990019, -0.0182052962, 9.9611374E-05, 923.5712    , 31.23484    , 775.2868    , 1.56        , 3           , 255         , 0           , 0
-0.17396988 , 0.0992498845, -9.799646   , 0.0003428559, -5.573919E-05, -0.000460104842, -0.008986507, -0.0182058942, 9.501488E-05, 923.5712    , 31.23484    , 775.2874    , 1.57        , 3           , 255         , 0           , 0
-0.176459029, 0.0969447941, -9.791861   , 1.87380065E-05, 6.600664E-05, -0.000195550048, -0.008986284, -0.0182052515, 9.30532551E-05, 923.5712    , 31.23484    , 775.288     , 1.58        , 3           , 255         , 0           , 0
-0.174454182, 0.09494223  , -9.79328    , 3.53266369E-05, 0.0003628211, 0.000393770577, -0.008986002, -0.0182015877, 9.695875E-05, 923.5712    , 31.23484    , 775.288635  , 1.59        , 3           , 255         , 0           , 0
-0.181706935, 0.0911666751, -9.795332   , 2.28798017E-05, -7.004553E-05, -0.0004457094, -0.008985692, -0.0182023291, 9.25075E-05 , 923.5712    , 31.23484    , 775.289246  , 1.6         , 3           , 255         , 0           , 0
-0.189931363, 0.09559127  , -9.790528   , 0.00031845225, 1.52370194E-05, 0.00013376819, -0.008991584, -0.0181946624, 9.400865E-05, 923.5712    , 31.23484    , 775.247253  , 1.61        , 3           , 255         , 0           , 0
-0.18675746 , 0.08825887  , -9.793673   , 0.000588716532, 0.000193793647, 0.000935871445, -0.008985866, -0.0181926414, 0.00010335086, 923.5712    , 31.23484    , 775.2477    , 1.62        , 3           , 255         , 0           , 0
-0.187351868, 0.0908778161, -9.793053   , 0.000448097155, 0.000453292159, -5.810334E-05, -0.008981374, -0.0181881115, 0.000102729049, 923.551636  , 31.2332115  , 775.2481    , 1.63        , 3           , 255         , 0           , 0
-0.181035787, 0.0806330144, -9.788836   , 0.000224204981, 0.000589660951, 0.000136081566, -0.008979156, -0.0181822032, 0.000104037048, 923.551636  , 31.2332115  , 775.248535  , 1.64        , 3           , 255         , 0           , 0
-0.17102024 , 0.09242512  , -9.788129   , 0.000117653894, 0.000390794 , 0.00068942603, -0.008978103, -0.0181782339, 0.0001108969, 923.551636  , 31.2332115  , 775.248962  , 1.65        , 3           , 255         , 0           , 0
-0.172815472, 0.0948111   , -9.792096   , -0.000129176828, 0.00021457058, -0.000133782436, -0.008979372, -0.0181761  , 0.000109539666, 923.551636  , 31.2332115  , 775.2494    , 1.66        , 3           , 255         , 0           , 0
-0.177002549, 0.0836098939, -9.788449   , 4.64463374E-05, -0.000304621324, -0.0004558749, -0.008978823, -0.0181791876, 0.000105007821, 923.551636  , 31.2332115  , 775.2498    , 1.67        , 3           , 255         , 0           , 0
-0.176643059, 0.09112989  , -9.784588   , -1.90927531E-05, -4.70746E-05, -0.000311544165, -0.008978958, -0.0181796849, 0.000101896294, 923.551636  , 31.2332115  , 775.250244  , 1.68        , 3           , 255         , 0           , 0
-0.182134792, 0.0886768   , -9.795912   , 0.000213267063, -0.0007792867, 0.000170149957, -0.008976858, -0.01818746 , 0.000103667939, 923.551636  , 31.2332115  , 775.2507    , 1.69        , 3           , 255         , 0           , 0
-0.18450132 , 0.089388296 , -9.790629   , -4.22096637E-05, -0.000210756349, -0.000198043, -0.008977245, -0.0181895848, 0.000101706231, 923.551636  , 31.2332115  , 775.2511    , 1.7         , 3           , 255         , 0           , 0
-0.183144063, 0.09763904  , -9.789073   , -0.000183941651, -0.000132621964, -0.0007330558, -0.008983434, -0.0181989428, 9.446846E-05, 923.551636  , 31.2332115  , 775.2339    , 1.71        , 3           , 255         , 0           , 0
-0.1732711  , 0.08582588  , -9.79750252 , -0.000193831482, -0.000176136789, -2.84671842E-06, -0.008985372, -0.0182007048, 9.445581E-05, 923.551636  , 31.2332115  , 775.2342    , 1.72        , 3           , 255         , 0           , 0
-0.177124292, 0.090066    , -9.791464   , 0.0005065766, 0.000249864766, 4.18080162E-05, -0.008980314, -0.0181982033, 9.48514862E-05, 923.5102    , 31.2372818  , 775.234558  , 1.73        , 3           , 255         , 0           , 0
-0.177230582, 0.09623273  , -9.780748   , 9.616962E-05, 0.000225834781, 0.0002870184, -0.008979405, -0.01819592 , 9.770169E-05, 923.5102    , 31.2372818  , 775.2349    , 1.74        , 3           , 255         , 0           , 0
-0.166589662, 0.09580512  , -9.784844   , -0.000183098047, 2.50159646E-05, 0.000807172852, -0.00898138247, -0.0181955975, 0.000105771978, 923.5102    , 31.2372818  , 775.2353    , 1.75        , 3           , 255         , 0           , 0
-0.167092964, 0.0861811861, -9.787092   , -8.886194E-05, -6.816117E-05, -0.000269321346, -0.00898222253, -0.0181963034, 0.000103084618, 923.5102    , 31.2372818  , 775.235657  , 1.76        , 3           , 255         , 0           , 0
-0.186143   , 0.08786832  , -9.79330349 , 0.0005092731, 9.87610838E-05, -8.53874E-05, -0.008977115, -0.0181953218, 0.000102221791, 923.5102    , 31.2372818  , 775.236     , 1.77        , 3           , 255         , 0           , 0
-0.180894852, 0.09260311  , -9.797432   , 0.000285768881, -0.000120744517, 0.000422979152, -0.008974333, -0.0181964915, 0.000106462845, 923.5102    , 31.2372818  , 775.2364    , 1.78        , 3           , 255         , 0           , 0
-0.17836985 , 0.08586842  , -9.784742   , 0.000181171519, -0.000510004757, 0.0007788271, -0.008972665, -0.0182015225, 0.000114297669, 923.5102    , 31.2372818  , 775.236755  , 1.79        , 3           , 255         , 0           , 0
-0.171827048, 0.08210267  , -9.785436   , 0.0004572368, -0.000424583035, 0.0005964713, -0.00896820147, -0.0182057153, 0.000120301069, 923.5102    , 31.2372818  , 775.2371    , 1.8         , 3           , 255         , 0           , 0
-0.165853992, 0.08829002  , -9.7817955  , -0.0003401394, -9.877037E-05, -0.000253257342, -0.008977949, -0.0182007141, 0.000117893433, 923.5102    , 31.2372818  , 775.268066  , 1.81        , 3           , 255         , 0           , 0
-0.177204818, 0.08745399  , -9.786898   , 0.000166585145, 0.00012579863, -0.000214989457, -0.008976243, -0.0181994755, 0.000115732029, 923.5102    , 31.2372818  , 775.2686    , 1.82        , 3           , 255         , 0           , 0
-0.1808543  , 0.09206143  , -9.79617    , -0.00027457 , 0.000373160146, 1.77476613E-06, -0.008978988, -0.0181957446, 0.000115716277, 923.5213    , 31.2370777  , 775.269165  , 1.83        , 3           , 255         , 0           , 0
-0.181032866, 0.100341879 , -9.791766   , 0.0001884702, 0.000233855477, -0.000363082974, -0.008977037, -0.0181934386, 0.000112064081, 923.5213    , 31.2370777  , 775.2697    , 1.84        , 3           , 255         , 0           , 0
-0.18341    , 0.09842408  , -9.79124451 , 5.66057E-05 , 0.000102758291, -0.0007577297, -0.008976333, -0.01819248 , 0.000104476807, 923.5213    , 31.2370777  , 775.270264  , 1.85        , 3           , 255         , 0           , 0
-0.186586544, 0.09678693  , -9.783194   , -0.0002596888, 1.98201742E-05, 7.921364E-06, -0.008978931, -0.01819228 , 0.000104554238, 923.5213    , 31.2370777  , 775.2708    , 1.86        , 3           , 255         , 0           , 0
-0.193101   , 0.09351568  , -9.794817   , 0.0002917499, -3.14307981E-05, 0.000257320935, -0.008976061, -0.0181925725, 0.000107130538, 923.5213    , 31.2370777  , 775.271362  , 1.87        , 3           , 255         , 0           , 0
-0.185239881, 0.09727493  , -9.802317   , -0.0001603339, 0.0002452716, 0.00010285544, -0.008977682, -0.0181901138, 0.000108137174, 923.5213    , 31.2370777  , 775.2719    , 1.88        , 3           , 255         , 0           , 0
-0.187574908, 0.09771524  , -9.791868   , -0.000138037809, 0.000160428928, 7.816912E-05, -0.00897907652, -0.0181884989, 0.000108904547, 923.5213    , 31.2370777  , 775.272461  , 1.89        , 3           , 255         , 0           , 0
-0.18631354 , 0.08644283  , -9.787341   , 7.54746725E-06, -8.237496E-05, -0.000924715, -0.008978833, -0.018189406, 9.96638555E-05, 923.5213    , 31.2370777  , 775.273     , 1.9         , 3           , 255         , 0           , 0
-0.180307776, 0.091147624 , -9.785768   , -0.000130721659, -7.23412959E-05, 0.000152933731, -0.008995343, -0.0182017814, 0.000101476064, 923.5213    , 31.2370777  , 775.287537  , 1.91        , 3           , 255         , 0           , 0
-0.1790345  , 0.09702823  , -9.788508   , 1.621942E-05, -9.671424E-05, 0.000204870259, -0.008995218, -0.01820273 , 0.000103533668, 923.5213    , 31.2370777  , 775.288147  , 1.92        , 3           , 255         , 0           , 0
-0.184502572, 0.0921764746, -9.79066    , 0.0002824473, -0.0006004895, 0.0004249478, -0.008992473, -0.0182086937, 0.000107837572, 923.5771    , 31.2391815  , 775.288757  , 1.93        , 3           , 255         , 0           , 0
-0.177882284, 0.08634567  , -9.790448   , 0.000113871705, -0.000328271766, 0.000227418233, -0.008991375, -0.0182119571, 0.0001101415, 923.5771    , 31.2391815  , 775.289368  , 1.94        , 3           , 255         , 0           , 0
-0.181362838, 0.08666489  , -9.784733   , -0.0001823022, -0.000403003127, -0.000347950758, -0.008993135, -0.01821602 , 0.000106697888, 923.5771    , 31.2391815  , 775.29      , 1.95        , 3           , 255         , 0           , 0
-0.1694007  , 0.094672814 , -9.786772   , -8.662476E-05, -1.46446982E-05, -4.61704549E-05, -0.008993993, -0.01821617 , 0.000106237443, 923.5771    , 31.2391815  , 775.2906    , 1.96        , 3           , 255         , 0           , 0
-0.188694775, 0.08978686  , -9.787571   , 0.000269934651, -0.000101173471, -0.000245146919, -0.008991249, -0.0182172041, 0.000103794824, 923.5771    , 31.2391815  , 775.2912    , 1.97        , 3           , 255         , 0           , 0
-0.1772911  , 0.0908855647, -9.783601   , -1.54531735E-05, -1.71653228E-05, -0.000232468941, -0.008991361, -0.0182173979, 0.000101471443, 923.5771    , 31.2391815  , 775.2918    , 1.98        , 3           , 255         , 0           , 0
-0.173008233, 0.0994645655, -9.786549   , -1.02643971E-05, 0.000358570047, 0.00121306116, -0.008991684, -0.0182137  , 0.000113571019, 923.5771    , 31.2391815  , 775.2924    , 1.99        , 3           , 255         , 0           , 0
-0.186141074, 0.09126689  , -9.791941   , -0.000139374228, 0.000188729609, 0.000269681739, -0.008993126, -0.0182117857, 0.000116251133, 923.5771    , 31.2391815  , 775.293     , 2           , 3           , 0           , 7.47623634  , 200
-0.177254915, 0.101827815 , -9.789637   , -0.000167421327, -0.00018460126, -0.000207252509, -0.009007736, -0.01821847 , 0.000114431372, 923.5771    , 31.2391815  , 775.2384    , 2.01        , 3           , 1           , 0           , 0
-0.1760254  , 0.0960666537, -9.78954    , 0.0002373219, -0.000173926965, -0.000372241222, -0.009005296, -0.018220244, 0.000110724257, 923.5771    , 31.2391815  , 775.2387    , 2.02        , 3           , 2           , 0           , 0
-0.181193143, 0.09255044  , -9.79027748 , 0.000412347727, 1.67750113E-05, 0.000387228327, -0.009001244, -0.0182200409, 0.00011459543, 923.56604   , 31.2385712  , 775.239     , 2.03        , 3           , 3           , 0           , 0
-0.17383492 , 0.100249186 , -9.797508   , 0.000267156982, 8.857253E-05, 0.000809070654, -0.008998719, -0.0182190835, 0.00012267899, 923.56604   , 31.2385712  , 775.2393    , 2.04        , 3           , 4           , 0           , 0
-0.183787853, 0.08999339  , -9.795164   , 0.000152129855, 7.994662E-05, -0.0003385685, -0.008997136, -0.0182183143, 0.000119285767, 923.56604   , 31.2385712  , 775.2396    , 2.05        , 3           , 5           , 0           , 0
-0.179421425, 0.09685771  , -9.787151   , 0.000364426232, -0.000102250284, 0.000219122609, -0.00899353251, -0.0182193182, 0.000121486417, 923.56604   , 31.2385712  , 775.2399    , 2.06        , 3           , 6           , 0           , 0
-0.174872562, 0.0807595849, -9.784502   , 4.79944865E-05, 0.000324388617, 0.000100346879, -0.0089930715, -0.0182160642, 0.000122460813, 923.56604   , 31.2385712  , 775.240234  , 2.07        , 3           , 7           , 0           , 0
-0.1745842  , 0.07510056  , -9.789141   , -0.0004754437, 0.000621043844, -0.000405379251, -0.00899775 , -0.01820989 , 0.000118350756, 923.56604   , 31.2385712  , 775.24054   , 2.08        , 3           , 8           , 5           , 5
-0.173672274, 0.08156647  , -9.787569   , -0.000219947455, 0.000197959656, 0.000235228392, -0.008999992, -0.0182078891, 0.00012068545, 923.56604   , 31.2385712  , 775.240845  , 2.09        , 3           , 9           , 5           , 0.1
-0.16541335 , 0.07870756  , -9.785663   , -0.000301901338, -0.000197573187, 0.000253160251, -0.009003056, -0.018209843, 0.000123235091, 923.56604   , 31.2385712  , 775.24115   , 2.1         , 3           , 10          , 0.1         , 0.1
-0.180873454, 0.08247949  , -9.782996   , 1.03152415E-05, -3.384039E-05, -0.000478457951, -0.00900630653, -0.0182038527, 0.000118515709, 923.56604   , 31.2385712  , 775.205139  , 2.11        , 3           , 11          , 0.007887236 , 0.007887236
-0.182522267, 0.08967991  , -9.787046   , 4.10635839E-05, -5.0364557E-05, -0.000162285534, -0.009005867, -0.01820437 , 0.000116897216, 923.56604   , 31.2385712  , 775.2052    , 2.12        , 3           , 12          , 0.174643889 , 0
-0.175418884, 0.09981039  , -9.784144   , -0.0002329183, -0.000118923985, 0.000386075815, -0.009008266, -0.0182055235, 0.000120769073, 923.5304    , 31.23796    , 775.205261  , 2.13        , 3           , 13          , 0           , 0
-0.179497749, 0.09525625  , -9.803282   , 0.000118386088, 5.792451E-05, 0.0007225433, -0.009007215, -0.01820488 , 0.000127990017, 923.5304    , 31.23796    , 775.2053    , 2.14        , 3           , 14          , -0.000422254438, -0.000486915669
-0.1799561  , 0.09610508  , -9.800566   , 0.000253745529, 8.2704355E-07, 0.0003639672, -0.009004745, -0.01820484 , 0.000131629989, 923.5304    , 31.23796    , 775.2054    , 2.15        , 3           , 15          , 0           , -0.000119199089
-0.185186237, 0.101980269 , -9.794836   , -0.000144320657, 0.000346628251, 0.000222379575, -0.009006229, -0.0182013549, 0.0001338228, 923.5304    , 31.23796    , 775.205444  , 2.16        , 3           , 16          , 0           , 1.401298E-45
-0.189226121, 0.09263857  , -9.791483   , 0.000383324281, 0.000408724 , 0.000373515417, -0.009002462, -0.0181972329, 0.0001375215, 923.5304    , 31.23796    , 775.2055    , 2.17        , 3           , 20          , 0           , 0
-0.189991176, 0.107449077 , -9.790113   , 0.000334144628, -0.000149828062, 7.974802E-05, -0.008999134, -0.018198723, 0.000138332558, 923.5304    , 31.23796    , 775.205566  , 2.18        , 3           , 21          , 0           , 0
-0.179412037, 0.09853788  , -9.79058552 , 0.000235471176, -0.000158956886, 0.00077026186, -0.00899692 , -0.0182002429, 0.000146050254, 923.5304    , 31.23796    , 775.2057    , 2.19        , 3           , 22          , 0           , 0
-0.176252186, 0.0990982652, -9.790518   , 0.00010162039, 0.000204067648, 0.00109218515, -0.008996103, -0.0181981064, 0.000156954833, 923.5304    , 31.23796    , 775.2058    , 2.2         , 3           , 40          , 0           , 0
-0.174866349, 0.09767595  , -9.79411    , -5.86871465E-05, -0.000235917978, -0.000149438129, -0.009014641, -0.0182083361, 0.000155808855, 923.5304    , 31.23796    , 775.2184    , 2.21        , 3           , 41          , 0           , 0
-0.175498024, 0.08599053  , -9.788485   , 0.000481276249, 0.000175265712, 0.000304124522, -0.009009883, -0.0182065554, 0.00015883462, 923.5304    , 31.23796    , 775.218567  , 2.22        , 3           , 42          , 0           , 0
-0.175361484, 0.08633558  , -9.793352   , -9.566231E-05, 5.19750465E-05, -8.182741E-05, -0.009010825, -0.0182060432, 0.000158011579, 923.5451    , 31.2387753  , 775.21875   , 2.23        , 3           , 255         , 0           , 0
-0.176845834, 0.0914044   , -9.791387   , -0.0005057418, 0.000171210966, 0.0005581841, -0.009015984, -0.018204283, 0.00016357853, 923.5451    , 31.2387753  , 775.218933  , 2.24        , 3           , 255         , 0           , 0
-0.174488142, 0.0841653   , -9.786317   , -0.000257480773, 0.000126893574, 0.000500487746, -0.009018648, -0.01820297 , 0.000168572471, 923.5451    , 31.2387753  , 775.2191    , 2.25        , 3           , 255         , 0           , 0
-0.17856577 , 0.08422062  , -9.796619   , -0.0003113476, 0.000153845525, 0.0005679113, -0.009021865, -0.01820138 , 0.000174238274, 923.5451    , 31.2387753  , 775.2193    , 2.26        , 3           , 255         , 0           , 0
-0.18644622 , 0.09304101  , -9.787234   , 0.0002812014, -6.36182958E-05, -0.000151433516, -0.009019026, -0.01820203 , 0.000172729531, 923.5451    , 31.2387753  , 775.2195    , 2.27        , 3           , 255         , 0           , 0
-0.169369578, 0.09204219  , -9.782152   , -6.525623E-05, 6.82922546E-05, -0.000597754, -0.00901956949, -0.0182014  , 0.000166745231, 923.5451    , 31.2387753  , 775.219666  , 2.28        , 3           , 255         , 0           , 0
-0.17668426 , 0.09187655  , -9.786092   , 0.000135714479, 0.0003044407, 0.000448662526, -0.009018294, -0.0181983132, 0.000171204854, 923.5451    , 31.2387753  , 775.219849  , 2.29        , 3           , 255         , 0           , 0
-0.175592929, 0.09431621  , -9.787836   , 3.5005447E-05, 0.000393116032, -0.000120351469, -0.009017921, -0.0181943979, 0.000169965773, 923.5451    , 31.2387753  , 775.220032  , 2.3         , 3           , 255         , 0           , 0
-0.173692569, 0.0886073858, -9.794579   , -1.92043371E-05, -0.000189275015, -0.000311067648, -0.009022847, -0.0181914549, 0.000166959 , 923.5451    , 31.2387753  , 775.212036  , 2.31        , 3           , 255         , 0           , 0
-0.179354936, 0.09526402  , -9.798136   , 0.00043462895, -5.46179363E-05, -0.000543355651, -0.009018403, -0.018192051, 0.00016152981, 923.5451    , 31.2387753  , 775.212158  , 2.32        , 3           , 255         , 0           , 0
-0.169036016, 0.08620651  , -9.791101   , 0.000445109617, 0.000113046262, 0.00015888903, -0.009013982, -0.0181909055, 0.000163108663, 923.5357    , 31.2381649  , 775.2123    , 2.33        , 3           , 255         , 0           , 0
-0.175743371, 0.09164454  , -9.78146648 , -1.72385189E-05, 0.0002555824, -0.000136212911, -0.00901413 , -0.0181883611, 0.000161723379, 923.5357    , 31.2381649  , 775.2124    , 2.34        , 3           , 255         , 0           , 0
-0.1883247  , 0.0917607546, -9.780376   , 0.0001954888, 0.00105052488, -0.000372399547, -0.009012104, -0.01817789 , 0.000157904258, 923.5357    , 31.2381649  , 775.2125    , 2.35        , 3           , 255         , 0           , 0
-0.182809249, 0.08979557  , -9.79786    , 0.000797856832, 0.00030670024, 0.000371808361, -0.009004192, -0.01817479 , 0.0001615951, 923.5357    , 31.2381649  , 775.212646  , 2.36        , 3           , 255         , 0           , 0
-0.180559576, 0.0971736461, -9.796365   , -0.000588293537, -0.000116098439, -0.000335563527, -0.009010013, -0.01817598 , 0.000158249575, 923.5357    , 31.2381649  , 775.212769  , 2.37        , 3           , 255         , 0           , 0
-0.172411   , 0.0922697559, -9.7943325  , -0.0007036654, -5.930639E-05, -0.000670349866, -0.009016928, -0.018176632, 0.000151550732, 923.5357    , 31.2381649  , 775.2129    , 2.38        , 3           , 255         , 0           , 0
-0.183326453, 0.08319621  , -9.797687   , -0.000559319044, 0.0004426166, 9.64259161E-05, -0.009022538, -0.0181721989, 0.000152475157, 923.5357    , 31.2381649  , 775.213     , 2.39        , 3           , 255         , 0           , 0
-0.192368433, 0.08358778  , -9.793446   , -9.095995E-06, 0.000304733461, 0.000311208656, -0.009022684, -0.01816913 , 0.000155560076, 923.5357    , 31.2381649  , 775.213135  , 2.4         , 3           , 255         , 0           , 0
-0.182418644, 0.09061325  , -9.797618   , -0.000352079573, 6.47377747E-05, 6.30435534E-06, -0.009029562, -0.01817183 , 0.000155678252, 923.5357    , 31.2381649  , 775.2183    , 2.41        , 3           , 255         , 0           , 0
-0.174724355, 0.08357923  , -9.799269   , -4.68419457E-05, -0.000287917384, -0.000108500251, -0.009030011, -0.0181747135, 0.00015461912, 923.5357    , 31.2381649  , 775.2185    , 2.42        , 3           , 255         , 0           , 0
-0.182084218, 0.0713668242, -9.793478   , 0.000100835983, -7.111061E-05, 5.37167871E-05, -0.009029012, -0.01817542 , 0.000155162765, 923.5573    , 31.23959    , 775.2187    , 2.43        , 3           , 255         , 0           , 0
-0.18404758 , 0.09101466  , -9.794788   , -0.0001695762, -0.0005533759, 0.0005338195, -0.009030806, -0.0181809068, 0.000160551455, 923.5573    , 31.23959    , 775.2189    , 2.44        , 3           , 255         , 0           , 0
-0.181087166, 0.102495894 , -9.790796   , -1.49343687E-05, -5.66041563E-05, 0.000487779 , -0.009031043, -0.0181814283, 0.000165434845, 923.5573    , 31.23959    , 775.219055  , 2.45        , 3           , 255         , 0           , 0
-0.178372219, 0.0933372453, -9.791937   , -8.161634E-05, 0.0002410294, 0.000418987271, -0.009031936, -0.01817898 , 0.000169603358, 923.5573    , 31.23959    , 775.219238  , 2.46        , 3           , 255         , 0           , 0
-0.184483618, 0.08450501  , -9.784322   , 1.22297206E-05, 0.000232251652, -9.292986E-05, -0.009031797, -0.0181766637, 0.000168652987, 923.5573    , 31.23959    , 775.2194    , 2.47        , 3           , 255         , 0           , 0
-0.1806114  , 0.08598731  , -9.789177   , -0.0006518689, -0.000171195366, 0.0005311385, -0.009038411, -0.018178327, 0.000173980385, 923.5573    , 31.23959    , 775.2196    , 2.48        , 3           , 255         , 0           , 0
-0.177121386, 0.08735077  , -9.790763   , -0.000293247052, -0.000227163429, -9.801537E-06, -0.009041342, -0.0181806  , 0.000173902852, 923.5573    , 31.23959    , 775.2198    , 2.49        , 3           , 255         , 0           , 0
-0.1904923  , 0.0833490342, -9.793989   , -0.0005826042, 0.0006024829, 0.000683925929, -0.00904729 , -0.0181745142, 0.000180688323, 923.5573    , 31.23959    , 775.22      , 2.5         , 3           , 255         , 0           , 0
-0.1816226  , 0.092421636 , -9.791077   , 3.347121E-05, 0.000330357172, 0.000667806831, -0.009044984, -0.0181778837, 0.000187299112, 923.5573    , 31.23959    , 775.1956    , 2.51        , 3           , 255         , 0           , 0
-0.176590025, 0.0886610746, -9.786116   , 0.0003322316, -0.000144926249, 0.000285883143, -0.009041715, -0.0181793086, 0.00019017134, 923.5573    , 31.23959    , 775.1957    , 2.52        , 3           , 255         , 0           , 0
-0.183097929, 0.08854546  , -9.787011   , -0.00083147944, 1.853364E-05, 0.000361664075, -0.00905009452, -0.01817909 , 0.000193786647, 923.5172    , 31.2396564  , 775.19574   , 2.53        , 3           , 255         , 0           , 0
-0.171459243, 0.0914896   , -9.785418   , -0.000107063417, 0.0004936778, 0.000389934576, -0.009051234, -0.0181741174, 0.0001976417, 923.5172    , 31.2396564  , 775.1958    , 2.54        , 3           , 255         , 0           , 0
-0.1772499  , 0.0923846   , -9.78924751 , -7.917735E-05, 0.0007530665, 9.087114E-05, -0.009052042, -0.01816658 , 0.0001984823, 923.5172    , 31.2396564  , 775.195862  , 2.55        , 3           , 255         , 0           , 0
-0.179231673, 0.09255986  , -9.793849   , -0.000151692278, 0.000383620063, 0.0003658877, -0.009053624, -0.01816271 , 0.000202106821, 923.5172    , 31.2396564  , 775.1959    , 2.56        , 3           , 255         , 0           , 0
-0.167752355, 0.09164826  , -9.797243   , -0.000287518575, -0.00043291715, 0.000589089643, -0.009056606, -0.0181669854, 0.000208037512, 923.5172    , 31.2396564  , 775.196     , 2.57        , 3           , 255         , 0           , 0
-0.178878322, 0.08707879  , -9.794736   , 0.000257600856, -0.000113115238, 0.0005038304, -0.009054122, -0.0181680731, 0.000213086561, 923.5172    , 31.2396564  , 775.196045  , 2.58        , 3           , 255         , 0           , 0
-0.177522108, 0.08689225  , -9.80258    , 0.000447923085, -6.698462E-05, 0.0003080696, -0.009049701, -0.0181687158, 0.000216173634, 923.5172    , 31.2396564  , 775.1961    , 2.59        , 3           , 255         , 0           , 0
-0.167836577, 0.08679117  , -9.79455948 , 0.000253554375, 6.18881E-05 , 0.000566045463, -0.009047267, -0.0181680452, 0.000221829061, 923.5172    , 31.2396564  , 775.196167  , 2.6         , 3           , 255         , 0           , 0
-0.17358914 , 0.08274557  , -9.791338   , -9.763392E-05, 3.727086E-05, 0.000311681 , -0.009050683, -0.018164048, 0.000224986114, 923.5172    , 31.2396564  , 775.229     , 2.61        , 3           , 255         , 0           , 0
-0.173732877, 0.08563972  , -9.788824   , -3.8482307E-05, -0.000226123841, -0.000273597543, -0.009051018, -0.0181663353, 0.0002222703, 923.5172    , 31.2396564  , 775.229248  , 2.62        , 3           , 255         , 0           , 0
-0.183678612, 0.104281344 , -9.801153   , 0.000213606487, 0.000164800033, -0.000352621952, -0.00904882 , -0.0181647185, 0.000218728863, 923.5551    , 31.2410126  , 775.2295    , 2.63        , 3           , 255         , 0           , 0
-0.182153374, 0.102683924 , -9.801012   , -0.000143000972, 0.000569036871, -0.000574435166, -0.009050144, -0.01815908 , 0.000212932413, 923.5551    , 31.2410126  , 775.2298    , 2.64        , 3           , 255         , 0           , 0
-0.175031543, 0.08745726  , -9.78749752 , 0.000118754513, 0.0003301622, -0.000443153753, -0.00904887449, -0.01815582 , 0.000208470563, 923.5551    , 31.2410126  , 775.2301    , 2.65        , 3           , 255         , 0           , 0
-0.178586364, 0.08755083  , -9.789328   , 0.000552483369, 0.000217218738, -0.000314890582, -0.009043291, -0.0181536768, 0.00020530168, 923.5551    , 31.2410126  , 775.2304    , 2.66        , 3           , 255         , 0           , 0
-0.177518278, 0.07713933  , -9.787662   , -0.0002531091, 0.000147524639, 0.000621131447, -0.009045936, -0.0181521457, 0.000211500286, 923.5551    , 31.2410126  , 775.2307    , 2.67        , 3           , 255         , 0           , 0
-0.169427186, 0.0863183439, -9.791417   , 8.161878E-06, 0.0002606563, 0.000164757133, -0.009045884, -0.0181495249, 0.000213124455, 923.5551    , 31.2410126  , 775.231     , 2.68        , 3           , 255         , 0           , 0
-0.176345691, 0.08452896  , -9.800804   , 0.00034440626, -0.000271686818, -3.337724E-05, -0.009042433, -0.0181522444, 0.000212815212, 923.5551    , 31.2410126  , 775.2313    , 2.69        , 3           , 255         , 0           , 0
-0.170236617, 0.08016017  , -9.789067   , 0.000307383074, 4.42988821E-05, 0.0004892602, -0.00903945 , -0.0181517564, 0.000217704292, 923.5551    , 31.2410126  , 775.2316    , 2.7         , 3           , 255         , 0           , 0
-0.177943334, 0.08826397  , -9.792264   , -0.0007311769, -0.0001909312, -0.000191995132, -0.009045295, -0.0181503315, 0.000215775435, 923.5551    , 31.2410126  , 775.2079    , 2.71        , 3           , 255         , 0           , 0
-0.185033709, 0.08430701  , -9.796342   , -0.0008135321, 8.90056253E-05, 0.0009783279, -0.009053607, -0.0181493517, 0.0002255516, 923.5551    , 31.2410126  , 775.208     , 2.72        , 3           , 255         , 0           , 0
-0.175136045, 0.0820416138, -9.793119   , 0.0003517747, 0.000487833924, 0.000954520539, -0.00905026 , -0.018144384, 0.00023505358, 923.5262    , 31.24176    , 775.2081    , 2.73        , 3           , 255         , 0           , 0
-0.1824421  , 0.0787656158, -9.794111   , 0.00031461005, -0.0001349661, 0.0002870819, -0.009047166, -0.01814571 , 0.0002379369, 923.5262    , 31.24176    , 775.208252  , 2.74        , 3           , 255         , 0           , 0
-0.17865935 , 0.09696989  , -9.787134   , 3.84313753E-05, -0.00024533167, 0.00018482063, -0.009046816, -0.0181481466, 0.0002398075, 923.5262    , 31.24176    , 775.2084    , 2.75        , 3           , 255         , 0           , 0
-0.16925332 , 0.09833186  , -9.794197   , -0.000177101232, -1.02916383E-05, 0.000220964459, -0.009048627, -0.01814823 , 0.000242018286, 923.5262    , 31.24176    , 775.2085    , 2.76        , 3           , 255         , 0           , 0
-0.180529118, 0.09488062  , -9.784421   , 0.000205481789, 5.66499366E-05, 0.000597131031, -0.00904668 , -0.0181476083, 0.000247985066, 923.5262    , 31.24176    , 775.2086    , 2.77        , 3           , 255         , 0           , 0
-0.181887954, 0.102164604 , -9.783938   , 9.328936E-05, 5.18199522E-05, 0.000112381123, -0.009045768, -0.0181470811, 0.000249104283, 923.5262    , 31.24176    , 775.20874   , 2.78        , 3           , 255         , 0           , 0
-0.1826663  , 0.09350075  , -9.792018   , 8.726487E-05, 0.0004660535, 0.0001384803, -0.009044919, -0.01814241 , 0.000250447076, 923.5262    , 31.24176    , 775.208862  , 2.79        , 3           , 255         , 0           , 0
-0.178056389, 0.0912778   , -9.784826   , 0.000475101318, -0.0001054937, -0.000100147605, -0.00904015 , -0.0181434732, 0.000249455 , 923.5262    , 31.24176    , 775.209     , 2.8         , 3           , 255         , 0           , 0
-0.1725617  , 0.09509818  , -9.787135   , 0.000402258564, 0.0003859883, 4.56508133E-07, -0.00904156547, -0.01814284 , 0.0002495234, 923.5262    , 31.24176    , 775.2281    , 2.81        , 3           , 255         , 0           , 0
-0.183715746, 0.08715515  , -9.789038   , -0.000117827876, 0.000218246772, 3.13480123E-05, -0.009042749, -0.018140655, 0.000249817182, 923.5262    , 31.24176    , 775.228333  , 2.82        , 3           , 255         , 0           , 0
-0.184999809, 0.0882887   , -9.789459   , 0.0001954523, -0.000527717755, 0.000231272687, -0.00904084 , -0.01814591 , 0.000252177852, 923.535767  , 31.23864    , 775.2286    , 2.83        , 3           , 255         , 0           , 0
-0.179228917, 0.0939536   , -9.78496552 , 0.000211682112, -0.000200718, -0.0002527715, -0.00903867651, -0.01814794 , 0.000249668054, 923.535767  , 31.23864    , 775.2288    , 2.84        , 3           , 255         , 0           , 0
-0.185415208, 0.08368848  , -9.785342   , 0.0003728933, 0.00022296817, -0.000270182849, -0.009034898, -0.0181457363, 0.0002469458, 923.535767  , 31.23864    , 775.229065  , 2.85        , 3           , 255         , 0           , 0
-0.183542356, 0.09376218  , -9.792963   , 0.000170008949, 2.42761453E-05, 3.556269E-05, -0.009033205, -0.01814549 , 0.000247299264, 923.535767  , 31.23864    , 775.2293    , 2.86        , 3           , 255         , 0           , 0
-0.1891511  , 0.09626384  , -9.783059   , -0.00043159668, 9.937078E-05, 0.000157502087, -0.00903755 , -0.01814448 , 0.000248865457, 923.535767  , 31.23864    , 775.2296    , 2.87        , 3           , 255         , 0           , 0
-0.1886922  , 0.08214803  , -9.787847   , 0.000226953212, 7.464673E-05, 4.081004E-05, -0.00903528649, -0.0181437321, 0.0002492669, 923.535767  , 31.23864    , 775.2299    , 2.88        , 3           , 255         , 0           , 0
-0.187434345, 0.0855175257, -9.789737   , 0.000454535533, -4.86697536E-06, -7.486491E-05, -0.009030728, -0.018143788, 0.000248518569, 923.535767  , 31.23864    , 775.2302    , 2.89        , 3           , 255         , 0           , 0
-0.194306448, 0.0833140761, -9.787941   , 0.000323741668, -0.000174583518, 0.000417627743, -0.009027568, -0.018145496, 0.000252711034, 923.535767  , 31.23864    , 775.2305    , 2.9         , 3           , 255         , 0           , 0
-0.185289875, 0.0913453251, -9.793485   , 4.38210263E-05, 0.000263450929, 0.000111430891, -0.00902841 , -0.018162312, 0.000253824546, 923.535767  , 31.23864    , 775.233643  , 2.91        , 3           , 255         , 0           , 0
-0.1813691  , 0.0825242549, -9.795519   , 0.000210986735, 0.000153764617, -0.000219113281, -0.009026261, -0.0181607939, 0.00025161932, 923.535767  , 31.23864    , 775.233948  , 2.92        , 3           , 255         , 0           , 0
-0.178366482, 0.09007814  , -9.797704   , 0.0001561945, 0.00034208165, 0.000215604334, -0.009024737, -0.0181573555, 0.0002537447, 923.546448  , 31.2399273  , 775.234253  , 2.93        , 3           , 255         , 0           , 0
-0.181910038, 0.08259713  , -9.803804   , 0.000117263146, -6.51489245E-06, 0.000306139118, -0.00902362 , -0.0181573946, 0.000256807019, 923.546448  , 31.2399273  , 775.234558  , 2.94        , 3           , 255         , 0           , 0
-0.181057408, 0.0893472955, -9.796082   , 0.0001648899, -9.07359645E-05, -0.000154254551, -0.009021943, -0.0181583147, 0.0002552725, 923.546448  , 31.2399273  , 775.234863  , 2.95        , 3           , 255         , 0           , 0
-0.172095731, 0.08749548  , -9.795458   , -0.000140050659, 0.00017398849, -0.000173620065, -0.00902331248, -0.01815659 , 0.0002535204, 923.546448  , 31.2399273  , 775.235168  , 2.96        , 3           , 255         , 0           , 0
-0.17463848 , 0.0926924348, -9.793025   , -0.0005339216, 0.000397253956, -7.28740342E-05, -0.009028639, -0.0181526225, 0.000252755737, 923.546448  , 31.2399273  , 775.2355    , 2.97        , 3           , 255         , 0           , 0
-0.185606435, 0.08660748  , -9.794534   , -0.00014013215, 0.0003413405, 0.000297327439, -0.009030093, -0.0181491859, 0.000255698484, 923.546448  , 31.2399273  , 775.2358    , 2.98        , 3           , 255         , 0           , 0
-0.189252526, 0.09235056  , -9.787173   , -0.0005397726, -0.000120916986, 6.08243972E-05, -0.009035502, -0.0181503855, 0.000256317726, 923.546448  , 31.2399273  , 775.2361    , 2.99        , 3           , 255         , 0           , 0
-0.182014555, 0.08565937  , -9.79291    , -0.000460719981, -9.989389E-05, -2.18144924E-05, -0.009040105, -0.0181513876, 0.000256108557, 923.546448  , 31.2399273  , 775.2364    , 3           , 3           , 0           , 8.476236    , 300
-0.17914851 , 0.09173223  , -9.797958   , -0.000208889076, -0.000186315156, 0.000397708733, -0.009041799, -0.0181581657, 0.000260094384, 923.546448  , 31.2399273  , 775.2238    , 3.01        , 3           , 1           , 0           , 0
-0.17975691 , 0.092414856 , -9.795819   , -0.000342200743, 0.000102643156, 0.000450786552, -0.009045303, -0.0181570984, 0.000264593429, 923.546448  , 31.2399273  , 775.22406   , 3.02        , 3           , 2           , 0           , 0
-0.187827453, 0.09376675  , -9.796966   , -0.000105328567, 1.66449754E-05, 0.000291762582, -0.009046409, -0.0181569066, 0.0002675098, 923.5306    , 31.2385025  , 775.2243    , 3.03        , 3           , 3           , 0           , 0
-0.188820049, 0.0957257748, -9.792109   , -9.392796E-06, -0.0001660125, 0.000576695951, -0.009046607, -0.0181585141, 0.00027329236, 923.5306    , 31.2385025  , 775.224548  , 3.04        , 3           , 4           , 0           , 0
-0.179801032, 0.08995217  , -9.79153252 , 0.000109807879, 9.4170915E-05, -7.08943844E-05, -0.009045497, -0.018157579, 0.000272574835, 923.5306    , 31.2385025  , 775.2248    , 3.05        , 3           , 5           , 0           , 0
-0.180090919, 0.08037643  , -9.790138   , 7.44620047E-05, 0.0002796155, 0.000390736735, -0.009044822, -0.0181547441, 0.000276457315, 923.5306    , 31.2385025  , 775.225037  , 3.06        , 3           , 6           , 0           , 0
-0.1852428  , 0.08095032  , -9.791277   , -4.489167E-05, 0.000172923261, 0.000307044538, -0.009045327, -0.0181529876, 0.0002795124, 923.5306    , 31.2385025  , 775.2253    , 3.07        , 3           , 7           , 0           , 0
-0.191252023, 0.0831047148, -9.793058   , -0.000108844833, -0.000397087948, 0.000207700767, -0.009046455, -0.018156942, 0.000281625544, 923.5306    , 31.2385025  , 775.2255    , 3.08        , 3           , 8           , 5           , 5
-0.178168491, 0.07927517  , -9.787135   , 8.019328E-06, 9.575774E-05, 0.0003162949, -0.009046432, -0.0181559548, 0.000284780137, 923.5306    , 31.2385025  , 775.225769  , 3.09        , 3           , 9           , 5           , 0.1
-0.178976417, 0.0839456   , -9.789837   , 0.0002620492, 0.000216695043, 1.80443531E-05, -0.009043814, -0.0181537848, 0.000284941023, 923.5306    , 31.2385025  , 775.226     , 3.1         , 3           , 10          , 0.1         , 0.1
-0.181360677, 0.09136134  , -9.790578   , -0.000160086551, -0.0001277989, -3.73939329E-05, -0.009042875, -0.01816385 , 0.0002845326, 923.5306    , 31.2385025  , 775.2368    , 3.11        , 3           , 11          , 0.00711479  , 0.007114788
-0.180354342, 0.0868821442, -9.790309   , 0.0004049001, -0.000160318246, -0.00023538628, -0.009038783, -0.0181654748, 0.000282193 , 923.5306    , 31.2385025  , 775.2371    , 3.12        , 3           , 12          , 0.174645633 , 0
-0.17085129 , 0.08892814  , -9.795588   , 0.000624995737, -9.166455E-06, 0.000224179676, -0.009032575, -0.0181655455, 0.000284435868, 923.510254  , 31.2403355  , 775.2374    , 3.13        , 3           , 13          , 0           , 0
-0.174426377, 0.08482649  , -9.791295   , -0.000385200139, -0.00011200647, 0.000112777918, -0.009036448, -0.0181666575, 0.000285573915, 923.510254  , 31.2403355  , 775.237732  , 3.14        , 3           , 14          , -0.000422157347, -0.000486721023
-0.179488376, 0.0825045258, -9.79416752 , -6.55193E-05, -0.000285423972, -0.00029294024, -0.009037049, -0.018169539, 0.000282669964, 923.510254  , 31.2403355  , 775.238037  , 3.15        , 3           , 15          , 0           , -0.00011919911
-0.185767651, 0.09603844  , -9.79797    , 0.000302700617, 1.25444785E-05, 0.0004921671, -0.009034113, -0.01816937 , 0.000287591 , 923.510254  , 31.2403355  , 775.238342  , 3.16        , 3           , 16          , 0           , 1.401298E-45
-0.1812072  , 0.09897281  , -9.794853   , 0.0006575752, 0.0003796091, 0.000887339644, -0.009027698, -0.0181654934, 0.000296430982, 923.510254  , 31.2403355  , 775.238647  , 3.17        , 3           , 20          , 0           , 0
-0.170527652, 0.09126301  , -9.792089   , 0.000397327531, 0.0005024554, 0.0001621755, -0.009023753, -0.0181604549, 0.0002980076, 923.510254  , 31.2403355  , 775.238953  , 3.18        , 3           , 21          , 0           , 0
-0.174425617, 0.08359695  , -9.79873    , -0.000216296525, 0.0004246026, -0.000794066233, -0.009025771, -0.0181562826, 0.00029002782, 923.510254  , 31.2403355  , 775.239258  , 3.19        , 3           , 22          , 0           , 0
-0.181243733, 0.0961479843, -9.795082   , -0.000110271678, 0.0003771904, -0.0004381808, -0.009026794, -0.0181525536, 0.000285611546, 923.510254  , 31.2403355  , 775.2396    , 3.2         , 3           , 40          , 0           , 0
-0.179289654, 0.09174676  , -9.787367   , -0.000120905694, -5.32433332E-05, -0.0003149484, -0.009030342, -0.0181531012, 0.000282510038, 923.510254  , 31.2403355  , 775.2772    , 3.21        , 3           , 41          , 0           , 0
-0.1797291  , 0.09825981  , -9.791069   , -0.000226586009, -0.000184941891, 0.000599758 , -0.009032717, -0.0181548949, 0.000288524956, 923.510254  , 31.2403355  , 775.2778    , 3.22        , 3           , 42          , 0           , 0
-0.179671556, 0.08385583  , -9.800371   , 0.000187582758, -0.000238029723, 0.000433537469, -0.009030921, -0.0181572381, 0.000292882265, 923.565552  , 31.2391815  , 775.2783    , 3.23        , 3           , 255         , 0           , 0
-0.186076313, 0.0827095956, -9.797309   , -4.15119575E-06, 0.000259611639, -5.365666E-05, -0.009030952, -0.0181546453, 0.0002923222, 923.565552  , 31.2391815  , 775.2789    , 3.24        , 3           , 255         , 0           , 0
-0.17357485 , 0.08014543  , -9.801062   , 0.000110751018, -8.916124E-05, -0.000201627234, -0.009029808, -0.0181555562, 0.000290313765, 923.565552  , 31.2391815  , 775.2795    , 3.25        , 3           , 255         , 0           , 0
-0.174952239, 0.0859057456, -9.800824   , -0.00058995327, -0.0002346733, 0.000396918855, -0.00903578 , -0.0181578659, 0.00029430454, 923.565552  , 31.2391815  , 775.2801    , 3.26        , 3           , 255         , 0           , 0
-0.179838553, 0.09097435  , -9.79149151 , -0.000398851174, -0.000153665344, -0.000417199917, -0.009039693, -0.0181594379, 0.000290146 , 923.565552  , 31.2391815  , 775.2807    , 3.27        , 3           , 255         , 0           , 0
-0.1743902  , 0.0947679654, -9.789974   , -0.000142818142, 0.000436449045, -0.0002864299, -0.009041067, -0.0181551  , 0.000287241943, 923.565552  , 31.2391815  , 775.2813    , 3.28        , 3           , 255         , 0           , 0
-0.1851995  , 0.0908299237, -9.787075   , 0.000556995 , 7.4522366E-05, 0.000292249344, -0.00903555 , -0.0181543287, 0.000290158 , 923.565552  , 31.2391815  , 775.2819    , 3.29        , 3           , 255         , 0           , 0
-0.190805078, 0.084036015 , -9.785031   , 0.000154155976, 8.030969E-05, 0.000517564768, -0.009034102, -0.01815348 , 0.000295326929, 923.565552  , 31.2391815  , 775.282532  , 3.3         , 3           , 255         , 0           , 0
-0.178249881, 0.0918230042, -9.787815   , 0.000295151171, 1.86663819E-05, -0.000170709216, -0.009030934, -0.0181574132, 0.000293614576, 923.565552  , 31.2391815  , 775.2362    , 3.31        , 3           , 255         , 0           , 0
-0.180357963, 0.088687554 , -9.791457   , 0.000428958 , -0.000172583474, 0.000228365912, -0.009026688, -0.0181591175, 0.00029591404, 923.565552  , 31.2391815  , 775.2365    , 3.32        , 3           , 255         , 0           , 0
-0.188556388, 0.09195121  , -9.791375   , 5.70244738E-05, -6.48071E-05, -0.000313397031, -0.009026059, -0.0181597918, 0.0002927856, 923.543335  , 31.23959    , 775.2368    , 3.33        , 3           , 255         , 0           , 0
-0.182090461, 0.09996764  , -9.791059   , -0.000236306631, -0.000131334964, 1.24625149E-05, -0.009028425, -0.018161105, 0.0002929221, 923.543335  , 31.23959    , 775.2371    , 3.34        , 3           , 255         , 0           , 0
-0.185106978, 0.09067915  , -9.794806   , -0.000526492542, 0.0003122049, -0.000173671811, -0.009033657, -0.018158   , 0.000291157 , 923.543335  , 31.23959    , 775.2374    , 3.35        , 3           , 255         , 0           , 0
-0.177207038, 0.0931389555, -9.794337   , 0.000236226726, 0.00026902766, 0.0007366342, -0.009031427, -0.0181552414, 0.0002984998, 923.543335  , 31.23959    , 775.237732  , 3.36        , 3           , 255         , 0           , 0
-0.179224759, 0.09556138  , -9.798062   , 0.0004469412, 0.000213575637, 0.0006900966, -0.009027084, -0.0181530453, 0.000305382157, 923.543335  , 31.23959    , 775.238037  , 3.37        , 3           , 255         , 0           , 0
-0.17997846 , 0.09332381  , -9.795054   , 9.841155E-05, -2.50787416E-05, 0.0005105158, -0.009026192, -0.0181532484, 0.000310490082, 923.543335  , 31.23959    , 775.238342  , 3.38        , 3           , 255         , 0           , 0
-0.179479435, 0.09466449  , -9.795963   , 0.000114454364, 0.0005101533, -4.40034637E-06, -0.009025046, -0.0181481522, 0.000310400035, 923.543335  , 31.23959    , 775.238647  , 3.39        , 3           , 255         , 0           , 0
-0.17993705 , 0.09185232  , -9.79359    , 0.000123260834, 0.000339589838, 0.000193385378, -0.009023849, -0.0181447379, 0.000312303455, 923.543335  , 31.23959    , 775.238953  , 3.4         , 3           , 255         , 0           , 0
-0.1717017  , 0.09563096  , -9.79256248 , 0.0005466326, -5.11976832E-05, 0.000833834 , -0.009025948, -0.0181501284, 0.00032078175, 923.543335  , 31.23959    , 775.23      , 3.41        , 3           , 255         , 0           , 0
-0.181494266, 0.09145712  , -9.791969   , -0.000222753413, 0.000410894136, 0.000397023483, -0.009028248, -0.0181459822, 0.000324715249, 923.543335  , 31.23959    , 775.2302    , 3.42        , 3           , 255         , 0           , 0
-0.182788223, 0.103561662 , -9.794487   , 0.000575594255, 0.0004699445, -0.0006203961, -0.009022378, -0.0181413386, 0.0003184683, 923.5337    , 31.238842   , 775.230469  , 3.43        , 3           , 255         , 0           , 0
-0.1743212  , 0.08758197  , -9.793389   , 0.000271640543, -0.000116859941, -0.000424936385, -0.009019586, -0.0181425475, 0.000314229052, 923.5337    , 31.238842   , 775.2307    , 3.44        , 3           , 255         , 0           , 0
-0.178551078, 0.08721803  , -9.790147   , 0.000221943774, 0.000632009062, 0.0005202677, -0.009017461, -0.0181361809, 0.0003193753, 923.5337    , 31.238842   , 775.230957  , 3.45        , 3           , 255         , 0           , 0
-0.170278162, 0.09290757  , -9.796156   , -0.000110923225, 0.0005869399, -0.000163371849, -0.00901853852, -0.01813033 , 0.000317688478, 923.5337    , 31.238842   , 775.2312    , 3.46        , 3           , 255         , 0           , 0
-0.17470029 , 0.0941468552, -9.795214   , -0.000108676992, 0.0005043474, -0.0006898861, -0.009019501, -0.0181253459, 0.00031074346, 923.5337    , 31.238842   , 775.231445  , 3.47        , 3           , 255         , 0           , 0
-0.180478126, 0.08036822  , -9.803924   , -0.000184867211, 0.000214376487, -0.0009271954, -0.009021181, -0.0181232877, 0.000301451248, 923.5337    , 31.238842   , 775.2317    , 3.48        , 3           , 255         , 0           , 0
-0.174683854, 0.09190048  , -9.796483   , -0.000215391832, 8.950272E-06, -0.000966558349, -0.00902316 , -0.0181232821, 0.0002917839, 923.5337    , 31.238842   , 775.231934  , 3.49        , 3           , 255         , 0           , 0
-0.180084556, 0.0913520455, -9.785655   , 0.0002861091, 0.0002371431, 0.0005017324, -0.009020389, -0.0181208625, 0.000296780345, 923.5337    , 31.238842   , 775.2322    , 3.5         , 3           , 255         , 0           , 0
-0.174959809, 0.08678813  , -9.796214   , 0.000211695311, -0.000172760832, 0.000257300184, -0.009023236, -0.0181214157, 0.000299458246, 923.5337    , 31.238842   , 775.238     , 3.51        , 3           , 255         , 0           , 0
-0.16330573 , 0.09109394  , -9.788133   , -0.000202680909, 0.000212246319, -0.0007602832, -0.009025124, -0.0181193613, 0.0002918355, 923.5337    , 31.238842   , 775.2383    , 3.52        , 3           , 255         , 0           , 0
-0.178179935, 0.08615981  , -9.790577   , -9.706497E-05, 0.000395772047, -0.000518991263, -0.009025999, -0.0181154516, 0.000286609342, 923.547241  , 31.2407417  , 775.2386    , 3.53        , 3           , 255         , 0           , 0
-0.177809387, 0.09331472  , -9.789839   , -0.000387620385, -6.960539E-05, 0.000361691462, -0.009029942, -0.0181161147, 0.000290232885, 923.547241  , 31.2407417  , 775.2389    , 3.54        , 3           , 255         , 0           , 0
-0.170034319, 0.09604601  , -9.794721   , -0.0006547036, -0.000149104366, 0.000146425358, -0.009036516, -0.0181175917, 0.000291710749, 923.547241  , 31.2407417  , 775.2392    , 3.55        , 3           , 255         , 0           , 0
-0.186238781, 0.08893234  , -9.786742   , 6.06127433E-05, -4.74755361E-05, -2.000494E-05, -0.009035906, -0.0181180686, 0.000291514967, 923.547241  , 31.2407417  , 775.2395    , 3.56        , 3           , 255         , 0           , 0
-0.186773449, 0.09381218  , -9.791655   , 0.000394460716, 0.000132923422, -8.757351E-05, -0.009031945, -0.018116748, 0.000290627126, 923.547241  , 31.2407417  , 775.2398    , 3.57        , 3           , 255         , 0           , 0
-0.179062   , 0.09649704  , -9.792207   , 0.000107055675, 0.0002112223, -0.000412198366, -0.009030799, -0.018114673, 0.000286485651, 923.547241  , 31.2407417  , 775.2401    , 3.58        , 3           , 255         , 0           , 0
-0.179116249, 0.0859233439, -9.793417   , 0.000214136307, 0.000459551142, -0.0002756778, -0.009028608, -0.0181101076, 0.000283687143, 923.547241  , 31.2407417  , 775.2404    , 3.59        , 3           , 255         , 0           , 0
-0.172150344, 0.08411536  , -9.788051   , 0.0001377152, 0.000632656156, -0.000273700367, -0.00902718 , -0.0181038063, 0.000280892738, 923.547241  , 31.2407417  , 775.2407    , 3.6         , 3           , 255         , 0           , 0
-0.172788948, 0.08631299  , -9.790349   , 0.00029165484, 0.000234064617, -7.68394748E-05, -0.00902751647, -0.0181002989, 0.000280162261, 923.547241  , 31.2407417  , 775.2261    , 3.61        , 3           , 255         , 0           , 0
-0.184525013, 0.09132507  , -9.792372   , 0.0004136194, 0.000230600737, 0.0003223968, -0.009023437, -0.0180979632, 0.00028336572, 923.547241  , 31.2407417  , 775.2263    , 3.62        , 3           , 255         , 0           , 0
-0.182433933, 0.0949582458, -9.795527   , 0.000126730767, -2.90729513E-05, 0.00013277652, -0.009022194, -0.01809824 , 0.00028469626, 923.589966  , 31.2416248  , 775.226563  , 3.63        , 3           , 255         , 0           , 0
-0.181104392, 0.100079253 , -9.79067    , 0.000151387823, 8.358227E-05, -7.973151E-05, -0.009020666, -0.0180974118, 0.000283891335, 923.589966  , 31.2416248  , 775.2268    , 3.64        , 3           , 255         , 0           , 0
-0.17620419 , 0.0893130749, -9.795369   , -0.000448751845, 0.000161421078, -0.000543383, -0.009025054, -0.0180958472, 0.0002784424, 923.589966  , 31.2416248  , 775.227051  , 3.65        , 3           , 255         , 0           , 0
-0.176214173, 0.09562303  , -9.790785   , 0.000134075468, -0.000118110474, 0.0009355441, -0.009023883, -0.0180969443, 0.0002878094, 923.589966  , 31.2416248  , 775.2273    , 3.66        , 3           , 255         , 0           , 0
-0.179757938, 0.0812142342, -9.790639   , -0.0001295575, 3.88422632E-06, -0.000437281182, -0.0090251  , -0.0180969443, 0.00028343586, 923.589966  , 31.2416248  , 775.227539  , 3.67        , 3           , 255         , 0           , 0
-0.170874536, 0.08389939  , -9.790823   , -0.000263309863, 0.000186384568, -0.000816453248, -0.009027584, -0.0180951543, 0.000275253667, 923.589966  , 31.2416248  , 775.2278    , 3.68        , 3           , 255         , 0           , 0
-0.178709865, 0.08167357  , -9.787668   , 2.77466315E-05, 0.000427116232, 9.459614E-05, -0.009027323, -0.0180908758, 0.000276161154, 923.589966  , 31.2416248  , 775.228     , 3.69        , 3           , 255         , 0           , 0
-0.1913372  , 0.086684    , -9.789299   , 0.000257850479, -0.000562813366, 0.00079334405, -0.009024888, -0.018096434, 0.0002841462, 923.589966  , 31.2416248  , 775.2283    , 3.7         , 3           , 255         , 0           , 0
-0.182140276, 0.08955737  , -9.790449   , 0.000192689622, -0.000327355752, 0.000619095168, -0.009024388, -0.0181034431, 0.000290391064, 923.589966  , 31.2416248  , 775.154846  , 3.71        , 3           , 255         , 0           , 0
-0.1832898  , 0.0961499   , -9.788128   , 2.81668035E-05, 0.000287175179, 0.000470434985, -0.009024193, -0.018100528, 0.000295069971, 923.589966  , 31.2416248  , 775.1546    , 3.72        , 3           , 255         , 0           , 0
-0.174995631, 0.09590996  , -9.794077   , -7.72503554E-05, 0.00064007123, 0.000186817473, -0.009024997, -0.01809411 , 0.000296880549, 923.5067    , 31.243185   , 775.154358  , 3.73        , 3           , 255         , 0           , 0
-0.175567165, 0.0923193544, -9.792801   , -3.45352746E-05, 0.000332831463, 0.000530855963, -0.009025439, -0.0180907324, 0.0003021596, 923.5067    , 31.243185   , 775.1542    , 3.74        , 3           , 255         , 0           , 0
-0.176886678, 0.08914069  , -9.793268   , 0.000395076175, 0.0006967583, -0.000180238392, -0.009021453, -0.0180837829, 0.000300294138, 923.5067    , 31.243185   , 775.154     , 3.75        , 3           , 255         , 0           , 0
-0.1816782  , 0.08522821  , -9.799786   , 0.0003141849, 0.000372590119, 0.00027635647, -0.009018361, -0.0180800315, 0.000303024368, 923.5067    , 31.243185   , 775.1538    , 3.76        , 3           , 255         , 0           , 0
-0.180760533, 0.08255013  , -9.789946   , 0.000157444621, 2.22181552E-05, -1.53715664E-05, -0.009016786, -0.01807981 , 0.000302868633, 923.5067    , 31.243185   , 775.1536    , 3.77        , 3           , 255         , 0           , 0
-0.1741464  , 0.09467085  , -9.796645   , -0.0002453837, -0.000157189555, 0.00040948455, -0.009019312, -0.0180813447, 0.0003069781, 923.5067    , 31.243185   , 775.153442  , 3.78        , 3           , 255         , 0           , 0
-0.17922467 , 0.08307777  , -9.792662   , -0.0006856226, -0.000121245859, 1.06245207E-05, -0.009026171, -0.0180825572, 0.000307095266, 923.5067    , 31.243185   , 775.153259  , 3.79        , 3           , 255         , 0           , 0
-0.17563583 , 0.08527238  , -9.79171848 , 2.03773379E-05, 3.453181E-05, -0.000347241235, -0.009025903, -0.0180822425, 0.0003036194, 923.5067    , 31.243185   , 775.1531    , 3.8         , 3           , 255         , 0           , 0
-0.178141743, 0.0880356058, -9.789848   , -3.80633574E-05, 4.46229533E-05, 0.000706895837, -0.009027981, -0.0180837  , 0.000310713338, 923.5067    , 31.243185   , 775.208557  , 3.81        , 3           , 255         , 0           , 0
-0.183236212, 0.08857096  , -9.79031849 , -0.000359181518, 8.401723E-06, 0.000963709957, -0.009031745, -0.0180835333, 0.0003203506, 923.5067    , 31.243185   , 775.2087    , 3.82        , 3           , 255         , 0           , 0
-0.183673516, 0.0870739445, -9.794538   , -6.68350549E-05, -3.852861E-05, 0.0002214066, -0.009032454, -0.0180838928, 0.000322568376, 923.549438  , 31.2402     , 775.2088    , 3.83        , 3           , 255         , 0           , 0
-0.183248371, 0.09670369  , -9.786305   , 6.105073E-05, 0.00015636289, -0.0002546664, -0.009031797, -0.0180823524, 0.000320007326, 923.549438  , 31.2402     , 775.2089    , 3.84        , 3           , 255         , 0           , 0
-0.18073234 , 0.09184815  , -9.791971   , -0.000450650434, -0.000537041, 0.0004340062, -0.009036383, -0.0180876832, 0.000324396329, 923.549438  , 31.2402     , 775.2091    , 3.85        , 3           , 255         , 0           , 0
-0.17972295 , 0.09262204  , -9.797081   , -0.000564081, 0.0002466602, 0.000323486543, -0.009042079, -0.0180851873, 0.0003276092, 923.549438  , 31.2402     , 775.2093    , 3.86        , 3           , 255         , 0           , 0
-0.185400948, 0.0958041549, -9.792527   , -0.00040319268, 0.000289214368, 9.73045462E-05, -0.009046128, -0.0180822853, 0.000328556169, 923.549438  , 31.2402     , 775.2095    , 3.87        , 3           , 255         , 0           , 0
-0.18776679 , 0.09552774  , -9.794677   , -0.00036802105, -2.7983624E-06, 1.21248668E-05, -0.009049809, -0.0180823114, 0.000328677648, 923.549438  , 31.2402     , 775.209656  , 3.88        , 3           , 255         , 0           , 0
-0.178923324, 0.08743851  , -9.797838   , -0.000227489654, 2.54596525E-05, -0.000841799949, -0.00905193 , -0.0180821326, 0.0003202565, 923.549438  , 31.2402     , 775.209839  , 3.89        , 3           , 255         , 0           , 0
-0.188147679, 0.0867094845, -9.799898   , -4.39747819E-05, 0.00011735392, -0.000932696334, -0.009052201, -0.0180810448, 0.000310918025, 923.549438  , 31.2402     , 775.21      , 3.9         , 3           , 255         , 0           , 0
-0.1826584  , 0.0881773457, -9.79727    , -0.000215365348, 0.000196528941, -0.000175275462, -0.009058015, -0.0180874187, 0.0003092141, 923.549438  , 31.2402     , 775.1965    , 3.91        , 3           , 255         , 0           , 0
-0.182078078, 0.08391942  , -9.79635048 , 2.19979265E-05, 8.679507E-05, -0.000143415964, -0.00905777 , -0.0180865638, 0.00030777193, 923.549438  , 31.2402     , 775.196533  , 3.92        , 3           , 255         , 0           , 0
-0.179786339, 0.08046087  , -9.794747   , -2.74649938E-05, 0.0003693566, 0.000328848022, -0.009058102, -0.0180828441, 0.0003110273, 923.502747  , 31.23769    , 775.1966    , 3.93        , 3           , 255         , 0           , 0
-0.174077541, 0.0860222653, -9.785311   , -0.00019196808, 0.000459590985, 0.000546354742, -0.009060121, -0.0180781968, 0.000316449732, 923.502747  , 31.23769    , 775.196655  , 3.94        , 3           , 255         , 0           , 0
-0.174916849, 0.08695041  , -9.793836   , -1.48359977E-05, 0.0003487065, -0.000259116, -0.009060222, -0.01807473 , 0.00031382672, 923.502747  , 31.23769    , 775.1967    , 3.95        , 3           , 255         , 0           , 0
-0.181424141, 0.08466036  , -9.794864   , -4.71898529E-05, 0.000130704255, 0.0003743577, -0.009060761, -0.01807339 , 0.0003175588, 923.502747  , 31.23769    , 775.1968    , 3.96        , 3           , 255         , 0           , 0
-0.172803119, 0.09282836  , -9.794962   , -0.000152414, -0.000134486821, 0.00120873237, -0.009062502, -0.0180746261, 0.0003296595, 923.502747  , 31.23769    , 775.196838  , 3.97        , 3           , 255         , 0           , 0
-0.183202043, 0.0909147263, -9.791132   , -0.0002730386, -0.00018037 , 0.0010993235, -0.009065431, -0.0180763286, 0.000340670143, 923.502747  , 31.23769    , 775.19696   , 3.98        , 3           , 255         , 0           , 0
-0.171751931, 0.0884540454, -9.791554   , -9.540832E-05, 0.0003700279, 0.00133379828, -0.009066626, -0.0180725064, 0.0003539758, 923.502747  , 31.23769    , 775.1971    , 3.99        , 3           , 255         , 0           , 0
-0.178942278, 0.0979739651, -9.796163   , -0.000123222213, 0.00018343408, 3.776799E-05, -0.009067865, -0.018070668, 0.0003543369, 923.502747  , 31.23769    , 775.1972    , 4           , 3           , 0           , 9.476236    , 400
-0.184920937, 0.0905119553, -9.794768   , 0.000192375912, 0.000271009165, -0.0003050818, -0.009064885, -0.0180695672, 0.0003512432, 923.502747  , 31.23769    , 775.251831  , 4.01        , 3           , 1           , 0           , 0
-0.176626056, 0.08871323  , -9.793177   , 0.000190509163, 0.000286752678, -0.000343716441, -0.00906292 , -0.0180667341, 0.0003477797, 923.502747  , 31.23769    , 775.252258  , 4.02        , 3           , 2           , 0           , 0
-0.180346638, 0.09003162  , -9.79416752 , -0.000103260943, -5.23424824E-05, 0.0009206317, -0.009064117, -0.0180671718, 0.00035699163, 923.554932  , 31.2400627  , 775.2527    , 4.03        , 3           , 3           , 0           , 0
-0.17340371 , 0.09155073  , -9.797526   , 0.000121979479, 2.02959345E-05, 0.0008396292, -0.009063049, -0.0180668943, 0.0003653869, 923.554932  , 31.2400627  , 775.2531    , 4.04        , 3           , 4           , 0           , 0
-0.179114178, 0.0896536857, -9.799467   , -0.000107014057, 0.000138557574, 0.0001665446, -0.009064148, -0.0180654936, 0.00036703996, 923.554932  , 31.2400627  , 775.25354   , 4.05        , 3           , 5           , 0           , 0
-0.17604816 , 0.0864480659, -9.78536    , 0.000223698313, 0.00010876439, -2.47459975E-05, -0.009061907, -0.0180644076, 0.0003667826, 923.554932  , 31.2400627  , 775.253967  , 4.06        , 3           , 6           , 0           , 0
-0.166511446, 0.08558     , -9.792577   , 0.000264107715, 0.000501967734, -0.0004531334, -0.009059183, -0.0180594288, 0.000362205348, 923.554932  , 31.2400627  , 775.2544    , 4.07        , 3           , 7           , 0           , 0
-0.16956225 , 0.0817888454, -9.794211   , 0.000115201692, -1.29260006E-05, 0.0009397466, -0.009058201, -0.0180594753, 0.0003716049, 923.554932  , 31.2400627  , 775.2548    , 4.08        , 3           , 8           , 5           , 5
-0.180409044, 0.09357016  , -9.788716   , -0.0002746056, -0.0002803823, 0.000684647355, -0.009061071, -0.0180622172, 0.000378477416, 923.554932  , 31.2400627  , 775.255249  , 4.09        , 3           , 9           , 5           , 0.1
-0.1774786  , 0.09149996  , -9.784158   , -2.84846174E-05, 0.000453325367, -0.0007655552, -0.009061217, -0.0180577524, 0.000370780064, 923.554932  , 31.2400627  , 775.2557    , 4.1         , 3           , 10          , 0.1         , 0.1
-0.180160433, 0.08252756  , -9.78781    , 0.000257997715, 0.000451852975, 0.000144722668, -0.009058935, -0.0180524681, 0.000372191367, 923.554932  , 31.2400627  , 775.2282    , 4.11        , 3           , 11          , 0.00661961734, 0.006619615
-0.180594057, 0.09523891  , -9.795607   , -6.1228E-05 , 0.000386106985, -0.0002549364, -0.009059499, -0.01804863 , 0.000369606831, 923.554932  , 31.2400627  , 775.2285    , 4.12        , 3           , 12          , 0.174648076 , 0
-0.179182455, 0.08611808  , -9.797617   , -0.000110702618, 0.000134713744, 0.0008030836, -0.009060752, -0.01804721 , 0.000377626246, 923.5135    , 31.24115    , 775.2288    , 4.13        , 3           , 13          , 0           , 0
-0.185781851, 0.0882334   , -9.790014   , -0.0005876174, 0.000245667063, 7.814876E-05, -0.009066641, -0.0180447455, 0.0003783855, 923.5135    , 31.24115    , 775.2291    , 4.14        , 3           , 14          , -0.0004220093, -0.0004865783
-0.177942187, 0.08495823  , -9.784838   , -6.984858E-05, 0.0002665104, -0.0004394825, -0.00906726 , -0.01804212 , 0.000373966061, 923.5135    , 31.24115    , 775.229431  , 4.15        , 3           , 15          , 0           , -0.000119200507
-0.172964782, 0.08842236  , -9.785921   , 0.0003922617, 0.0002622914, 0.0004922666, -0.00906342547, -0.01803945 , 0.000378865458, 923.5135    , 31.24115    , 775.229736  , 4.16        , 3           , 16          , 0           , 1.401298E-45
-0.1782846  , 0.094366394 , -9.786379   , -0.000305965223, 0.000100741221, 0.000904579239, -0.009066648, -0.0180383623, 0.000387902954, 923.5135    , 31.24115    , 775.230042  , 4.17        , 3           , 20          , 0           , 0
-0.182880908, 0.0906504542, -9.789087   , -0.0008994619, -6.73499E-05, 0.00116510317, -0.009075852, -0.0180389266, 0.000399561162, 923.5135    , 31.24115    , 775.230347  , 4.18        , 3           , 21          , 0           , 0
-0.178285271, 0.08823539  , -9.78771    , -0.00012251336, 9.04433255E-05, 6.463096E-05, -0.009077087, -0.0180380177, 0.000400199351, 923.5135    , 31.24115    , 775.230652  , 4.19        , 3           , 22          , 0           , 0
-0.1845073  , 0.09314673  , -9.792404   , -0.000139386073, 6.414778E-05, -0.000347041932, -0.009078418, -0.0180374067, 0.000396722753, 923.5135    , 31.24115    , 775.230957  , 4.2         , 3           , 40          , 0           , 0
-0.18305026 , 0.09028049  , -9.789999   , -0.0006433188, 0.00022418279, -0.0010619536, -0.009085443, -0.0180415437, 0.0003860959, 923.5135    , 31.24115    , 775.265259  , 4.21        , 3           , 41          , 0           , 0
-0.1764939  , 0.08085203  , -9.793715   , -0.000121698424, 8.90393E-05 , -7.649888E-05, -0.009086645, -0.018040657, 0.000385322724, 923.5135    , 31.24115    , 775.265747  , 4.22        , 3           , 42          , 0           , 0
-0.173599049, 0.09036953  , -9.80156    , -0.000251134625, 8.93762044E-05, -0.000177663329, -0.009089124, -0.0180397816, 0.000383537816, 923.5473    , 31.2412167  , 775.266235  , 4.23        , 3           , 255         , 0           , 0
-0.17165193 , 0.08560268  , -9.796725   , 0.000223898664, 0.000385933585, 0.000350836141, -0.009086948, -0.01803589 , 0.000387011445, 923.5473    , 31.2412167  , 775.2667    , 4.24        , 3           , 255         , 0           , 0
-0.178921133, 0.08474503  , -9.789891   , 5.915528E-05, 0.0004412087, 0.000231015 , -0.00908639748, -0.01803146 , 0.0003892817, 923.5473    , 31.2412167  , 775.2672    , 4.25        , 3           , 255         , 0           , 0
-0.183693558, 0.09324393  , -9.794062   , 0.000147444516, -8.340285E-06, -1.36282906E-05, -0.009084923, -0.0180315431, 0.000389146182, 923.5473    , 31.2412167  , 775.2677    , 4.26        , 3           , 255         , 0           , 0
-0.178378627, 0.0853902847, -9.795911   , 6.03568042E-05, -0.0003578468, 0.000308267423, -0.009084376, -0.0180350952, 0.00039226166, 923.5473    , 31.2412167  , 775.2682    , 4.27        , 3           , 255         , 0           , 0
-0.17883727 , 0.09318848  , -9.792104   , -3.75203672E-05, -0.0001187427, 0.00113424752, -0.009084955, -0.01803618 , 0.000403616024, 923.5473    , 31.2412167  , 775.2687    , 4.28        , 3           , 255         , 0           , 0
-0.180344969, 0.08103977  , -9.787516   , 0.000186319725, 0.000347892055, 0.000811708 , -0.009083238, -0.018032629, 0.0004117023, 923.5473    , 31.2412167  , 775.2692    , 4.29        , 3           , 255         , 0           , 0
-0.178705245, 0.0824288   , -9.793185   , 0.000284786744, 0.000109067623, -0.000247337972, -0.009080345, -0.0180315617, 0.000409218745, 923.5473    , 31.2412167  , 775.2698    , 4.3         , 3           , 255         , 0           , 0
-0.178051531, 0.09272033  , -9.790136   , -0.000556306448, -0.000800588052, 0.000394679082, -0.009082828, -0.01804193 , 0.000413181726, 923.5473    , 31.2412167  , 775.25116   , 4.31        , 3           , 255         , 0           , 0
-0.179470092, 0.08400984  , -9.794035   , -0.000468249636, -9.70872643E-05, 0.00100180937, -0.009087688, -0.0180428084, 0.0004232096, 923.5473    , 31.2412167  , 775.2516    , 4.32        , 3           , 255         , 0           , 0
-0.174292445, 0.08708757  , -9.796883   , 0.0002522603, 0.0001358605, 0.000592456432, -0.009085274, -0.0180413947, 0.000429122359, 923.5375    , 31.242506   , 775.252     , 4.33        , 3           , 255         , 0           , 0
-0.174945518, 0.09814455  , -9.795985   , -9.11754E-05, 9.02260945E-05, 0.000377301069, -0.009086253, -0.0180404577, 0.000432887551, 923.5375    , 31.242506   , 775.252441  , 4.34        , 3           , 255         , 0           , 0
-0.176974982, 0.102384545 , -9.789097   , 0.000245830626, 0.000129711349, 0.0003687627, -0.009083863, -0.0180391278, 0.000436563772, 923.5375    , 31.242506   , 775.252869  , 4.35        , 3           , 255         , 0           , 0
-0.183457643, 0.100906827 , -9.787523   , 0.0001684402, -7.221647E-05, -9.451396E-05, -0.009082163, -0.018039858, 0.0004356251, 923.5375    , 31.242506   , 775.2533    , 4.36        , 3           , 255         , 0           , 0
-0.175242335, 0.09684312  , -9.795969   , 0.000133824215, -0.000136882154, 0.000137367359, -0.009080848, -0.018041214, 0.000437011331, 923.5375    , 31.242506   , 775.2537    , 4.37        , 3           , 255         , 0           , 0
-0.180087283, 0.09562792  , -9.78602    , 0.000149514 , -0.000360777165, 0.0002589766, -0.0090794  , -0.0180448  , 0.000439634139, 923.5375    , 31.242506   , 775.25415   , 4.38        , 3           , 255         , 0           , 0
-0.178396583, 0.09399252  , -9.794165   , -0.000288487849, 7.950855E-05, 0.0003687262, -0.009082352, -0.0180439688, 0.000443314464, 923.5375    , 31.242506   , 775.2546    , 4.39        , 3           , 255         , 0           , 0
-0.173863217, 0.0816981643, -9.797137   , 0.000248332333, 8.18079861E-05, 0.00041966865, -0.009079944, -0.0180431139, 0.000447504164, 923.5375    , 31.242506   , 775.255     , 4.4         , 3           , 255         , 0           , 0
-0.1831294  , 0.09028452  , -9.791931   , -4.95917338E-05, 0.000535838 , 0.000215398613, -0.00908676349, -0.0180388745, 0.00044972304, 923.5375    , 31.242506   , 775.2522    , 4.41        , 3           , 255         , 0           , 0
-0.1770729  , 0.09943441  , -9.791611   , -0.000410713634, -3.94517265E-05, -0.000138939809, -0.009090846, -0.0180392824, 0.000448337145, 923.5375    , 31.242506   , 775.2526    , 4.42        , 3           , 255         , 0           , 0
-0.187033385, 0.095706895 , -9.7912035  , 9.46353248E-05, 0.000268665259, -0.000631736, -0.009089786, -0.0180366524, 0.000441994722, 923.5082    , 31.2422352  , 775.253052  , 4.43        , 3           , 255         , 0           , 0
-0.179518044, 0.08394731  , -9.790875   , -0.0001221817, -5.577234E-05, -0.000288596377, -0.009090955, -0.0180372354, 0.000439113559, 923.5082    , 31.2422352  , 775.2535    , 4.44        , 3           , 255         , 0           , 0
-0.183847159, 0.09168723  , -9.79631    , -0.0003505966, -2.166853E-05, 0.0008904777, -0.009094622, -0.0180373713, 0.0004480211, 923.5082    , 31.2422352  , 775.2539    , 4.45        , 3           , 255         , 0           , 0
-0.188266277, 0.093239814 , -9.794104   , -0.000184186239, 0.000141536468, 0.000315957819, -0.009096521, -0.0180359241, 0.0004511681, 923.5082    , 31.2422352  , 775.254333  , 4.46        , 3           , 255         , 0           , 0
-0.183794171, 0.0894811749, -9.790296   , -0.000280121953, 0.000242851631, 1.39781987E-05, -0.009099323, -0.0180334952, 0.000451285829, 923.5082    , 31.2422352  , 775.254761  , 4.47        , 3           , 255         , 0           , 0
-0.179377422, 0.0839729756, -9.794146   , -0.000124111568, -0.000176077214, 0.000321497151, -0.009100623, -0.0180352256, 0.0004545171, 923.5082    , 31.2422352  , 775.2552    , 4.48        , 3           , 255         , 0           , 0
-0.172472328, 0.08167018  , -9.783373   , 0.00037421615, 2.64620467E-05, 0.000519037654, -0.009096975, -0.0180349126, 0.0004597056, 923.5082    , 31.2422352  , 775.2556    , 4.49        , 3           , 255         , 0           , 0
-0.173837841, 0.08280973  , -9.786656   , 0.0006004206, 0.000108660664, 0.0005902955, -0.009091076, -0.01803377 , 0.000465599267, 923.5082    , 31.2422352  , 775.256042  , 4.5         , 3           , 255         , 0           , 0
-0.179767579, 0.08397505  , -9.786545   , 0.000174763234, 0.000218271714, 0.0006371121, -0.009089747, -0.0180382431, 0.00047195662, 923.5082    , 31.2422352  , 775.2942    , 4.51        , 3           , 255         , 0           , 0
-0.174186647, 0.08824976  , -9.783949   , 0.000108901324, -0.000256459753, 3.072332E-05, -0.009088662, -0.0180408023, 0.0004722872, 923.5082    , 31.2422352  , 775.294861  , 4.52        , 3           , 255         , 0           , 0
-0.17798081 , 0.09218727  , -9.784173   , 0.0007700536, -0.000305934052, -0.000224190677, -0.009080922, -0.0180438831, 0.000470072846, 923.5435    , 31.2422352  , 775.295532  , 4.53        , 3           , 255         , 0           , 0
-0.182342142, 0.0870440155, -9.797365   , -0.000177352253, -8.858915E-07, -0.0007341278, -0.009082564, -0.01804396 , 0.0004627309, 923.5435    , 31.2422352  , 775.2962    , 4.54        , 3           , 255         , 0           , 0
-0.176989764, 0.0858791545, -9.797938   , 0.00017087732, 0.0007297896, -0.000102667938, -0.009080834, -0.018036671, 0.000461637828, 923.5435    , 31.2422352  , 775.2969    , 4.55        , 3           , 255         , 0           , 0
-0.18006143 , 0.0896733552, -9.791643   , 5.91258868E-06, 0.000386123575, -0.0006286182, -0.009080662, -0.0180328675, 0.000455316 , 923.5435    , 31.2422352  , 775.297546  , 4.56        , 3           , 255         , 0           , 0
-0.1744667  , 0.08178197  , -9.793104   , -0.000178937189, 0.000238828623, -0.0008475419, -0.009082297, -0.0180305559, 0.000446818041, 923.5435    , 31.2422352  , 775.2982    , 4.57        , 3           , 255         , 0           , 0
-0.179515764, 0.07901893  , -9.798337   , 0.0002729415, 0.000476406 , -0.000666904671, -0.009079446, -0.0180258527, 0.000440105185, 923.5435    , 31.2422352  , 775.2989    , 4.58        , 3           , 255         , 0           , 0
-0.190622   , 0.09288035  , -9.792167   , -0.000412097463, 0.000147335522, -0.0004163619, -0.009083493, -0.0180244166, 0.0004359277, 923.5435    , 31.2422352  , 775.299561  , 4.59        , 3           , 255         , 0           , 0
-0.1848232  , 0.0885755345, -9.793157   , 0.000227976256, 0.000104646286, 5.664285E-05, -0.009081223, -0.0180233661, 0.0004364847, 923.5435    , 31.2422352  , 775.300232  , 4.6         , 3           , 255         , 0           , 0
-0.181362167, 0.09407281  , -9.798245   , -6.74843E-05, 0.000365574029, 0.0002937521, -0.009078971, -0.0180247556, 0.000439335621, 923.5435    , 31.2422352  , 775.2826    , 4.61        , 3           , 255         , 0           , 0
-0.181580648, 0.08886612  , -9.797289   , 0.000256541185, 0.000119190081, 0.0009028015, -0.009076568, -0.0180234816, 0.000448353647, 923.5435    , 31.2422352  , 775.283142  , 4.62        , 3           , 255         , 0           , 0
-0.180866435, 0.09120115  , -9.793699   , 0.0003178115, -0.000348528265, 0.000651146634, -0.009073509, -0.0180269089, 0.0004548974, 923.586548  , 31.2419624  , 775.2837    , 4.63        , 3           , 255         , 0           , 0
-0.184294641, 0.09156052  , -9.789362   , 0.000675547635, -0.000154774112, 4.36470145E-05, -0.009066761, -0.0180284511, 0.000455347967, 923.586548  , 31.2419624  , 775.284241  , 4.64        , 3           , 255         , 0           , 0
-0.1791788  , 0.09163597  , -9.787664   , 0.00053067354, -0.000247557473, 0.000323060551, -0.00906151347, -0.0180308986, 0.00045860128, 923.586548  , 31.2419624  , 775.2848    , 4.65        , 3           , 255         , 0           , 0
-0.174371079, 0.09426584  , -9.789845   , 3.69124173E-05, -8.55836552E-05, 0.000149811545, -0.009061172, -0.01803174 , 0.0004601073, 923.586548  , 31.2419624  , 775.285339  , 4.66        , 3           , 255         , 0           , 0
-0.1766339  , 0.09160253  , -9.788321   , -0.000208306155, -0.0004049497, -0.0005288705, -0.00906316 , -0.0180358365, 0.000454854773, 923.586548  , 31.2419624  , 775.2859    , 4.67        , 3           , 255         , 0           , 0
-0.181615338, 0.08920099  , -9.788703   , -0.000293752964, -0.00021937053, -0.000376961922, -0.00906602852, -0.0180380642, 0.0004511047, 923.586548  , 31.2419624  , 775.286438  , 4.68        , 3           , 255         , 0           , 0
-0.185875028, 0.0897571146, -9.78984451 , -0.0001257029, 3.18869425E-05, -0.000279155181, -0.009067236, -0.01803777 , 0.000448309933, 923.586548  , 31.2419624  , 775.287     , 4.69        , 3           , 255         , 0           , 0
-0.184339136, 0.08554927  , -9.785843   , -5.02814364E-05, 0.000144754624, 8.27462063E-05, -0.009067753, -0.0180363152, 0.000449124374, 923.586548  , 31.2419624  , 775.287537  , 4.7         , 3           , 255         , 0           , 0
-0.177423358, 0.09086873  , -9.784475   , -3.183636E-05, -9.653135E-05, 0.000374745752, -0.00907133147, -0.0180442575, 0.0004529385, 923.586548  , 31.2419624  , 775.2105    , 4.71        , 3           , 255         , 0           , 0
-0.178351626, 0.0855317   , -9.792473   , -0.000583489833, -0.000177004782, 0.00094858394, -0.009077338, -0.0180459376, 0.000462441356, 923.586548  , 31.2419624  , 775.2106    , 4.72        , 3           , 255         , 0           , 0
-0.17372182 , 0.08672388  , -9.791682   , -0.000435969676, -8.289324E-05, 0.0007880436, -0.00908184 , -0.0180466957, 0.000470330036, 923.5096    , 31.2421     , 775.210632  , 4.73        , 3           , 255         , 0           , 0
-0.178636521, 0.09244864  , -9.79374    , -0.000211124716, -0.000279402069, -0.000209621154, -0.009083914, -0.0180495083, 0.000468259 , 923.5096    , 31.2421     , 775.2107    , 4.74        , 3           , 255         , 0           , 0
-0.176501721, 0.08686027  , -9.795838   , -2.11614533E-05, 0.000140480581, -0.0004700876, -0.009084039, -0.0180481449, 0.0004635449, 923.5096    , 31.2421     , 775.2108    , 4.75        , 3           , 255         , 0           , 0
-0.179798752, 0.08309396  , -9.791788   , 0.00041782172, 1.350962E-05, 0.000111406567, -0.00907988 , -0.0180480015, 0.0004646579, 923.5096    , 31.2421     , 775.210938  , 4.76        , 3           , 255         , 0           , 0
-0.177578032, 0.07826011  , -9.781547   , 0.000679365359, 0.000187394326, 0.000479006878, -0.009073175, -0.0180460867, 0.000469431427, 923.5096    , 31.2421     , 775.21106   , 4.77        , 3           , 255         , 0           , 0
-0.180236429, 0.07610004  , -9.789589   , 0.000636076438, 0.000307099428, 0.0003350934, -0.009066872, -0.0180429835, 0.000472754822, 923.5096    , 31.2421     , 775.2112    , 4.78        , 3           , 255         , 0           , 0
-0.185848072, 0.0879847854, -9.786764   , 0.000244623 , -1.26214582E-06, 0.000117441639, -0.009064448, -0.0180429853, 0.000473929482, 923.5096    , 31.2421     , 775.2113    , 4.79        , 3           , 255         , 0           , 0
-0.1720073  , 0.0826711059, -9.790601   , 0.000126262777, -5.03633055E-05, 0.000676187454, -0.009063308, -0.0180434287, 0.000480696559, 923.5096    , 31.2421     , 775.2114    , 4.8         , 3           , 255         , 0           , 0
-0.172215745, 0.08782113  , -9.791313   , 0.0001364314, -0.000185577228, -0.000708269537, -0.009055206, -0.0180475451, 0.0004735107, 923.5096    , 31.2421     , 775.2541    , 4.81        , 3           , 255         , 0           , 0
-0.177975923, 0.08846438  , -9.790368   , 0.000499400659, -0.000193959655, -0.000207995414, -0.009050176, -0.0180495027, 0.000471448147, 923.5096    , 31.2421     , 775.254456  , 4.82        , 3           , 255         , 0           , 0
-0.180899858, 0.08709417  , -9.785366   , -6.413611E-07, -0.000101286714, -0.00102719932, -0.009049996, -0.01805061 , 0.0004611843, 923.5252    , 31.2404022  , 775.2548    , 4.83        , 3           , 255         , 0           , 0
-0.180444583, 0.0932900161, -9.788104   , 0.000491275336, -8.4485655E-05, -0.000146998646, -0.009045056, -0.018051466, 0.0004597218, 923.5252    , 31.2404022  , 775.2552    , 4.84        , 3           , 255         , 0           , 0
-0.179725572, 0.0923109949, -9.790671   , 0.000296658021, -0.00026408417, 0.0008837151, -0.00904225 , -0.0180540234, 0.0004685837, 923.5252    , 31.2404022  , 775.255554  , 4.85        , 3           , 255         , 0           , 0
