Acc X       , Acc Y       , Acc Z       , Gyro X      , Gyro Y      , Gyro Z      , Euler X     , Euler Y     , Euler Z     , Pres X      , Pres Y      , Pres Z      , Time        , Status      , LowRate X   , LowRate Y   , LowRate Z    
-0.08900639 , 0.1848604   , -9.784821   , 0           , 0           , 0           , -0.0188903213, -0.0090945  , 1.96301985  , 918.5542    , 30.9910164  , 820.0518    , 0           , 2           , 0           , 5.420232    , 0
-0.09215994 , 0.187111527 , -9.790007   , -0.000220628048, 0.000295869773, 0.000294244936, -0.01889243 , -0.009091478, 1.96302271  , 918.5542    , 30.9910164  , 820.0518    , 0.01        , 7           , 1           , 0           , 0
-0.08675621 , 0.186192051 , -9.792326   , 0.000411406247, 0.000449529267, -0.000290748634, -0.01888829 , -0.009087037, 1.96301985  , 918.5542    , 30.9910164  , 820.0518    , 0.02        , 7           , 2           , 0           , 0
-0.0798761  , 0.18439126  , -9.79911    , -9.06526038E-05, 5.49986726E-06, -0.0003871678, -0.01888916 , -0.009087056, 1.96301591  , 918.5641    , 30.5590649  , 820.0518    , 0.03        , 7           , 3           , 0           , 0
-0.08256631 , 0.1825264   , -9.797399   , 0.000405661325, -0.0003988868, 0.000518459361, -0.0188851524, -0.009090947, 1.96302116  , 918.5641    , 30.5590649  , 820.0518    , 0.04        , 7           , 4           , 0           , 0
-0.0869137645, 0.183338121 , -9.796401   , 6.429582E-06, -0.000490865, -0.000647667854, -0.0188850313, -0.009095975, 1.96301484  , 918.5641    , 30.5590649  , 820.0518    , 0.05        , 7           , 5           , 0           , 0
-0.08480422 , 0.187475681 , -9.791994   , -0.000369599118, -4.12669033E-06, -0.000400922261, -0.0188886877, -0.009096093, 1.96301079  , 918.5641    , 30.5590649  , 820.0518    , 0.06        , 7           , 6           , 0           , 0
-0.0813704  , 0.194097772 , -9.792844   , -4.11309375E-05, 0.000886674155, 0.000110637746, -0.0188891068, -0.009087207, 1.96301174  , 918.5641    , 30.5590649  , 820.0518    , 0.07        , 7           , 7           , 0           , 0
-0.085344106, 0.1855621   , -9.79266548 , 0.000211355567, 5.50245168E-05, -0.000300794229, -0.0188869685, -0.009086715, 1.96300876  , 918.5641    , 30.5590649  , 820.0518    , 0.08        , 7           , 8           , 5           , 5
-0.08905408 , 0.179176465 , -9.798224   , 8.146727E-05, -0.000194446533, -0.000400398043, -0.0188861154, -0.009088732, 1.96300471  , 918.5641    , 30.5590649  , 820.0518    , 0.09        , 7           , 9           , 5           , 0.1
-0.09399667 , 0.188925177 , -9.79581451 , 0.000142443139, 0.0005081018, -5.558473E-05, -0.018884683, -0.009083663, 1.96300411  , 918.5641    , 30.5590649  , 820.0518    , 0.1         , 7           , 10          , 0.1         , 0.1
-0.08083288 , 0.187967986 , -9.79453    , -0.0001550354, 1.20177283E-05, 0.000165704769, -0.0188893527, -0.009073655, 1.96300578  , 918.5641    , 30.5590649  , 819.9648    , 0.11        , 7           , 11          , 0.0109544508, 0.0109544508
-0.08532057 , 0.184068859 , -9.798448   , -0.000342866668, -0.000411237241, -0.000363209285, -0.0188927483, -0.009077835, 1.9630022   , 918.5641    , 30.5590649  , 819.9648    , 0.12        , 7           , 12          , 0.0346410163, 0
-0.095352754, 0.1814724   , -9.796774   , -0.0005635595, 0.0005717725, 0.0003481289, -0.0188984144, -0.00907205 , 1.96300566  , 918.556152  , 30.5965137  , 819.9648    , 0.13        , 7           , 13          , 0           , 0
-0.08914226 , 0.178227261 , -9.788936   , 0.0001136064, 0.000572442834, 0.000400672085, -0.0188973136, -0.009066253, 1.96300983  , 918.556152  , 30.5965137  , 819.9648    , 0.14        , 7           , 14          , -0.000119095021, 0.000913002936
-0.0906123742, 0.179934174 , -9.79684448 , 0.000464778452, -0.00019297254, 1.787742E-05, -0.0188926663, -0.009068177, 1.96300983  , 918.556152  , 30.5965137  , 819.9648    , 0.15        , 7           , 15          , 0           , 0.000171059786
-0.09193005 , 0.187121853 , -9.794764   , 0.000342769985, 0.0001891476, 0.000617371232, -0.0188892968, -0.009066169, 1.963016    , 918.556152  , 30.5965137  , 819.964844  , 0.16        , 7           , 16          , 0           , 1.401298E-45
-0.0916971862, 0.174887627 , -9.79291248 , 0.00042086668, 0.000237731088, -0.000309079216, -0.01888506 , -0.009063852, 1.96301293  , 918.556152  , 30.5965137  , 819.9649    , 0.17        , 7           , 20          , 0           , 0
-0.09299849 , 0.188617587 , -9.790597   , 0.000143900354, 0.00023053278, -0.000703467231, -0.018883558, -0.00906168 , 1.96300578  , 918.556152  , 30.5965137  , 819.964966  , 0.18        , 7           , 21          , 0           , 0
-0.09154041 , 0.18918784  , -9.787161   , 0.00028710693, 0.00036204356, -8.13786755E-07, -0.0188806839, -0.009058062, 1.96300578  , 918.556152  , 30.5965137  , 819.965     , 0.19        , 7           , 22          , 0           , 0
-0.09079503 , 0.18894279  , -9.79398251 , 0.0003930832, 0.000172096246, 7.15328351E-05, -0.0188767631, -0.009056326, 1.96300662  , 918.556152  , 30.5965137  , 819.9651    , 0.2         , 7           , 40          , 0           , 0
-0.08545842 , 0.186957955 , -9.793554   , 3.61337879E-05, 0.0005454734, 0.000409520057, -0.0188727211, -0.009055172, 1.96301067  , 918.556152  , 30.5965137  , 820.000854  , 0.21        , 7           , 41          , 0           , 0
-0.08211787 , 0.17871578  , -9.797111   , -0.0001407479, 0.000257021631, 6.04761E-05 , -0.01887413 , -0.009052591, 1.96301126  , 918.556152  , 30.5965137  , 820.0009    , 0.22        , 7           , 42          , 1           , 0
-0.0863852  , 0.1831644   , -9.793152   , -0.000111126421, 0.000440629665, -3.07638256E-05, -0.01887524 , -0.009048193, 1.96301091  , 918.5562    , 30.6201229  , 820.001     , 0.23        , 7           , 255         , 0           , 0
-0.09127883 , 0.193513617 , -9.793396   , -0.000228033372, 0.000404828344, 0.0004079434, -0.0188775584, -0.009044068, 1.963015    , 918.5562    , 30.6201229  , 820.001038  , 0.24        , 7           , 255         , 0           , 0
-0.09223713 , 0.185160354 , -9.799022   , 7.217839E-05, -0.000318182923, -0.0006183246, -0.01887678 , -0.009047368, 1.96300876  , 918.5562    , 30.6201229  , 820.0011    , 0.25        , 7           , 255         , 0           , 0
-0.09039346 , 0.185700491 , -9.789995   , -0.000167955819, -0.000674124, 0.000254773331, -0.0188784823, -0.009054056, 1.96301162  , 918.5562    , 30.6201229  , 820.00116   , 0.26        , 7           , 255         , 0           , 0
-0.0861519  , 0.197794691 , -9.793995   , 0.00014355786, 0.00012772216, 0.0003089365, -0.0188770723, -0.009052721, 1.96301472  , 918.5562    , 30.6201229  , 820.0012    , 0.27        , 7           , 255         , 0           , 0
-0.09044503 , 0.201076359 , -9.800685   , 0.000372512935, 0.000311315525, -0.000375139643, -0.0188733172, -0.009049678, 1.963011    , 918.5562    , 30.6201229  , 820.0013    , 0.28        , 7           , 255         , 0           , 0
-0.09327768 , 0.189934283 , -9.798044   , -0.0003913306, 0.0003095162, -0.000337407429, -0.0188771971, -0.009046646, 1.96300757  , 918.5562    , 30.6201229  , 820.001343  , 0.29        , 7           , 255         , 0           , 0
-0.09052466 , 0.188188523 , -9.797534   , 0.000415074144, -0.0004791271, -0.000896398735, -0.018872967, -0.009051607, 1.96299863  , 918.5562    , 30.6201229  , 820.0014    , 0.3         , 7           , 255         , 0           , 0
-0.08593626 , 0.190055773 , -9.790815   , 0.00114382943, -0.000519637833, 0.00028624307, -0.0188741516, -0.009057348, 1.96300173  , 918.5562    , 30.6201229  , 820.0124    , 0.31        , 7           , 255         , 0           , 0
-0.0871931762, 0.187354371 , -9.788421   , -0.0002633569, -0.000114903727, 0.000263517548, -0.01887681 , -0.009058445, 1.96300435  , 918.5562    , 30.6201229  , 820.012451  , 0.32        , 7           , 255         , 0           , 0
-0.0857114047, 0.190476626 , -9.805067   , 0.0006008565, -0.000234728679, 0.000652473769, -0.0188708585, -0.00906067 , 1.96301091  , 918.5483    , 30.63783    , 820.0125    , 0.33        , 7           , 255         , 0           , 0
-0.08639741 , 0.197107747 , -9.803211   , 0.0005361996, 0.000178299786, 0.0002447146, -0.0188655164, -0.009058841, 1.96301341  , 918.5483    , 30.63783    , 820.0126    , 0.34        , 7           , 255         , 0           , 0
-0.0951580554, 0.187187821 , -9.792211   , 0.000233749452, -0.000210591417, -0.000323280634, -0.0188631527, -0.009061008, 1.96301007  , 918.5483    , 30.63783    , 820.012634  , 0.35        , 7           , 255         , 0           , 0
-0.08897368 , 0.189372033 , -9.794004   , 0.000282847759, -0.0005760498, 0.0006806633, -0.0188603867, -0.009066639, 1.963017    , 918.5483    , 30.63783    , 820.0127    , 0.36        , 7           , 255         , 0           , 0
-0.0886455253, 0.187018156 , -9.79702    , 0.000184817909, -0.000201095012, -0.0006329962, -0.0188584812, -0.009068768, 1.96301079  , 918.5483    , 30.63783    , 820.012756  , 0.37        , 7           , 255         , 0           , 0
-0.0774606  , 0.189134881 , -9.791136   , 0.0002014376, -1.98548078E-05, -0.0002897161, -0.0188564416, -0.009069021, 1.96300793  , 918.5483    , 30.63783    , 820.0128    , 0.38        , 7           , 255         , 0           , 0
-0.08380982 , 0.196567953 , -9.801732   , 0.0005653006, -7.021119E-05, 0.000323541259, -0.0188508164, -0.009069663, 1.96301126  , 918.5483    , 30.63783    , 820.0129    , 0.39        , 7           , 255         , 0           , 0
-0.09246889 , 0.193348244 , -9.786073   , 0.0002677562, 0.000426412851, 2.44386611E-05, -0.0188481454, -0.009065394, 1.96301138  , 918.5483    , 30.63783    , 820.012939  , 0.4         , 7           , 255         , 0           , 0
-0.08453579 , 0.186077908 , -9.781387   , 0.000171631837, -0.00013360841, -2.04016251E-05, -0.0188649688, -0.00906179752, 1.96301126  , 918.5483    , 30.63783    , 820.0371    , 0.41        , 7           , 255         , 0           , 0
-0.08200326 , 0.198668748 , -9.792406   , 0.000134393675, -0.000446514256, 0.0005187208, -0.0188636761, -0.009066164, 1.96301651  , 918.5483    , 30.63783    , 820.0372    , 0.42        , 7           , 255         , 0           , 0
-0.08617288 , 0.195819467 , -9.817894   , -4.29592546E-05, -0.000122233992, -0.000123805614, -0.0188640933, -0.00906741 , 1.9630152   , 918.5883    , 30.6488876  , 820.037231  , 0.43        , 7           , 255         , 0           , 0
-0.08943472 , 0.185034066 , -9.808339   , 0.0005690181, -0.000256835425, -0.0005719763, -0.01885835 , -0.009070087, 1.9630096   , 918.5883    , 30.6488876  , 820.0373    , 0.44        , 7           , 255         , 0           , 0
-0.09083767 , 0.183298975 , -9.797172   , 0.0007099384, 0.000314438134, -0.000454563356, -0.0188512113, -0.009067029, 1.963005    , 918.5883    , 30.6488876  , 820.037354  , 0.45        , 7           , 255         , 0           , 0
-0.09130559 , 0.181429833 , -9.78374    , 0.000582027831, -0.000605774054, 0.0005620213, -0.0188454427, -0.009072979, 1.96301079  , 918.5883    , 30.6488876  , 820.0374    , 0.46        , 7           , 255         , 0           , 0
-0.08601793 , 0.175834447 , -9.781183   , 0.000469746883, 0.000151274959, 0.000202018578, -0.0188407656, -0.009071428, 1.96301281  , 918.5883    , 30.6488876  , 820.0375    , 0.47        , 7           , 255         , 0           , 0
-0.0837303251, 0.183803916 , -9.786802   , 0.000103506056, -0.000480974617, 0.0001363376, -0.018839743, -0.00907621 , 1.96301436  , 918.5883    , 30.6488876  , 820.0376    , 0.48        , 7           , 255         , 0           , 0
-0.0961181149, 0.180062383 , -9.798335   , 0.000328504248, -9.71674453E-05, -0.000444512523, -0.0188364163, -0.009077264, 1.96301     , 918.5883    , 30.6488876  , 820.0377    , 0.49        , 7           , 255         , 0           , 0
-0.09181167 , 0.179179579 , -9.800894   , 0.0004024735, -2.602354E-05, -0.000670575537, -0.0188323315, -0.009077651, 1.96300316  , 918.5883    , 30.6488876  , 820.037842  , 0.5         , 7           , 255         , 0           , 0
-0.0786415339, 0.1744797   , -9.80521    , 0.000530160964, -0.000162091921, -0.000124468381, -0.01882772 , -0.009077331, 1.963002    , 918.5883    , 30.6488876  , 819.977966  , 0.51        , 7           , 255         , 0           , 0
-0.0871250257, 0.174780726 , -9.793111   , -0.0004597857, 0.000467038422, 0.0002665352, -0.0188323446, -0.009072611, 1.96300459  , 918.5883    , 30.6488876  , 819.978     , 0.52        , 7           , 255         , 0           , 0
-0.0935045  , 0.175837263 , -9.794487   , -4.551334E-05, 0.0006559967, 0.000426093757, -0.01883283 , -0.009065972, 1.96300864  , 918.57135   , 30.6571655  , 819.978149  , 0.53        , 7           , 255         , 0           , 0
-0.08803495 , 0.168607831 , -9.8013525  , 0.000612355361, 0.000226573145, 0.00042034575, -0.01882675 , -0.009063628, 1.96301293  , 918.57135   , 30.6571655  , 819.9783    , 0.54        , 7           , 255         , 0           , 0
-0.08415264 , 0.168390632 , -9.802423   , -0.000114539595, 9.277888E-05, -0.000289864722, -0.0188278668, -0.009062753, 1.96301     , 918.57135   , 30.6571655  , 819.9784    , 0.55        , 7           , 255         , 0           , 0
-0.0926049054, 0.1824464   , -9.79035    , 0.000151307744, -0.0001010421, -0.000156795912, -0.0188263431, -0.009063793, 1.9630084   , 918.57135   , 30.6571655  , 819.9785    , 0.56        , 7           , 255         , 0           , 0
-0.09640649 , 0.185593933 , -9.786192   , 0.0005128011, 0.0005589597, -0.000339377846, -0.0188211836, -0.00905827 , 1.963005    , 918.57135   , 30.6571655  , 819.978638  , 0.57        , 7           , 255         , 0           , 0
-0.09541675 , 0.186403289 , -9.799253   , 0.000384463638, 0.000284466369, -0.0012307202, -0.0188172236, -0.009055656, 1.96299267  , 918.57135   , 30.6571655  , 819.97876   , 0.58        , 7           , 255         , 0           , 0
-0.09324092 , 0.19344382  , -9.805136   , 7.492154E-05, -0.000110221561, -0.000413207279, -0.0188164376, -0.009056835, 1.96298862  , 918.57135   , 30.6571655  , 819.9789    , 0.59        , 7           , 255         , 0           , 0
-0.0894614458, 0.198403031 , -9.801788   , 0.0001808822, 0.0006633908, 0.000557607738, -0.0188146774, -0.009050098, 1.962994    , 918.57135   , 30.6571655  , 819.979     , 0.6         , 7           , 255         , 0           , 0
-0.09367494 , 0.193525925 , -9.800228   , -6.98594959E-05, 0.0002154833, 0.000457395072, -0.0188062042, -0.009050484, 1.96299839  , 918.57135   , 30.6571655  , 819.9653    , 0.61        , 7           , 255         , 0           , 0
-0.0895793661, 0.188605636 , -9.783488   , 0.0009854991, 0.000241674308, 0.0005312086, -0.0187963974, -0.009047968, 1.96300387  , 918.57135   , 30.6571655  , 819.9654    , 0.62        , 7           , 255         , 0           , 0
-0.08556485 , 0.195760652 , -9.78996849 , 0.000521236565, -0.000150154287, 6.352503E-05, -0.01879119 , -0.009049458, 1.96300447  , 918.565063  , 30.66205    , 819.9655    , 0.63        , 7           , 255         , 0           , 0
-0.0814361349, 0.198379815 , -9.796143   , -0.0002369066, -8.936529E-05, 0.0009826126, -0.0187936481, -0.009050167, 1.96301436  , 918.565063  , 30.66205    , 819.965637  , 0.64        , 7           , 255         , 0           , 0
-0.09244309 , 0.200564742 , -9.796965   , -0.000544426148, 0.000629349 , 0.00096712145, -0.01879918 , -0.009043693, 1.9630239   , 918.565063  , 30.66205    , 819.965759  , 0.65        , 7           , 255         , 0           , 0
-0.08179593 , 0.196582869 , -9.799137   , -0.000228195946, 0.0005033381, 0.000131623 , -0.0188014712, -0.009038635, 1.96302509  , 918.565063  , 30.66205    , 819.9659    , 0.66        , 7           , 255         , 0           , 0
-0.0873595  , 0.19639954  , -9.793996   , -2.69955781E-05, 0.000298004656, 5.92334254E-06, -0.01880174 , -0.009035654, 1.96302509  , 918.565063  , 30.66205    , 819.966     , 0.67        , 7           , 255         , 0           , 0
-0.08468102 , 0.1874632   , -9.7948     , 0.000362612162, -0.0004464477, -3.13993223E-05, -0.0187981129, -0.009040121, 1.963025    , 918.565063  , 30.66205    , 819.9661    , 0.68        , 7           , 255         , 0           , 0
-0.0900096  , 0.184252    , -9.80793    , 0.0005249565, -0.0003562871, 0.0008012013, -0.0187929347, -0.009043533, 1.96303308  , 918.565063  , 30.66205    , 819.966248  , 0.69        , 7           , 255         , 0           , 0
-0.09072928 , 0.189542264 , -9.804888   , -0.000228463672, 7.0152746E-05, -6.606184E-05, -0.0187952146, -0.009042843, 1.96303248  , 918.565063  , 30.66205    , 819.9664    , 0.7         , 7           , 255         , 0           , 0
-0.09132157 , 0.1818472   , -9.805201   , -1.09624889E-05, -0.0005627002, -9.666522E-05, -0.01881841 , -0.009046127, 1.96303177  , 918.565063  , 30.66205    , 819.9648    , 0.71        , 7           , 255         , 0           , 0
-0.0874962  , 0.177845687 , -9.792341   , 0.000249521167, -0.000243100571, -0.0005897667, -0.018815862, -0.009048669, 1.96302593  , 918.565063  , 30.66205    , 819.9649    , 0.72        , 7           , 255         , 0           , 0
-0.09232618 , 0.169703066 , -9.785063   , -0.0004706486, 0.0008419639, -0.000235593034, -0.0188205447, -0.009040292, 1.96302342  , 918.564636  , 30.6635418  , 819.965     , 0.73        , 7           , 255         , 0           , 0
-0.0898460448, 0.167487428 , -9.78223    , 1.511498E-05, -5.373743E-05, -0.000127914609, -0.01882038 , -0.009040854, 1.96302223  , 918.564636  , 30.6635418  , 819.965149  , 0.74        , 7           , 255         , 0           , 0
-0.08799247 , 0.166562    , -9.792028   , -0.00096949836, 0.000451333122, -0.000211927851, -0.0188300572, -0.009036383, 1.96302     , 918.564636  , 30.6635418  , 819.9653    , 0.75        , 7           , 255         , 0           , 0
-0.0865086  , 0.176113933 , -9.799185   , -0.000161977281, 0.000442420016, -0.0008645857, -0.0188316  , -0.009032121, 1.96301138  , 918.564636  , 30.6635418  , 819.9654    , 0.76        , 7           , 255         , 0           , 0
-0.09600463 , 0.184350342 , -9.804329   , 0.000330454815, -1.92858279E-05, -0.00128477416, -0.018828176, -0.009032555, 1.96299863  , 918.564636  , 30.6635418  , 819.9655    , 0.77        , 7           , 255         , 0           , 0
-0.0823464841, 0.180896863 , -9.791456   , 0.0006580327, 1.64125813E-05, -0.000605237437, -0.0188215431, -0.009032505, 1.96299243  , 918.564636  , 30.6635418  , 819.965637  , 0.78        , 7           , 255         , 0           , 0
-0.08732185 , 0.16994305  , -9.7908535  , -0.000148046558, 0.000359863858, -0.000478176982, -0.018822981, -0.009028996, 1.96298778  , 918.564636  , 30.6635418  , 819.965759  , 0.79        , 7           , 255         , 0           , 0
-0.09393396 , 0.179350272 , -9.794662   , -0.0003602547, 0.000292563578, -0.0003503377, -0.0188265517, -0.009026137, 1.9629842   , 918.564636  , 30.6635418  , 819.9659    , 0.8         , 7           , 255         , 0           , 0
-0.0876860246, 0.1771057   , -9.79407    , 9.995871E-05, -8.25079042E-05, -0.0002627166, -0.0187980719, -0.009029996, 1.96298146  , 918.564636  , 30.6635418  , 819.9653    , 0.81        , 7           , 255         , 0           , 0
-0.08994403 , 0.184450567 , -9.796391   , -0.0004192542, -5.66770323E-05, 0.000157743518, -0.0188022759, -0.009030533, 1.962983    , 918.564636  , 30.6635418  , 819.9654    , 0.82        , 7           , 255         , 0           , 0
-0.0937863439, 0.185055569 , -9.794113   , -0.0002479298, -0.000108371489, 0.000326749345, -0.0188047867, -0.009031555, 1.96298635  , 918.575745  , 30.66334    , 819.9655    , 0.83        , 7           , 255         , 0           , 0
-0.09579812 , 0.184038073 , -9.788499   , -0.000332608324, 0.000287945615, 0.000126883475, -0.0188081227, -0.009028651, 1.96298766  , 918.575745  , 30.66334    , 819.965637  , 0.84        , 7           , 255         , 0           , 0
-0.08793398 , 0.195954159 , -9.785837   , 0.000159929768, 0.0008264239, 0.000427172752, -0.01880656 , -0.009020308, 1.96299171  , 918.575745  , 30.66334    , 819.965759  , 0.85        , 7           , 255         , 0           , 0
-0.0844007  , 0.192906231 , -9.793248   , 0.000138159608, 0.000402671169, -0.000147600658, -0.0188051648, -0.009016311, 1.96299028  , 918.575745  , 30.66334    , 819.9659    , 0.86        , 7           , 255         , 0           , 0
-0.08258182 , 0.191421241 , -9.802136   , -0.000324227934, -0.000185415964, -0.000377106, -0.0188083723, -0.009018233, 1.96298647  , 918.575745  , 30.66334    , 819.966064  , 0.87        , 7           , 255         , 0           , 0
-0.0830539  , 0.197264031 , -9.796586   , -0.000205812743, 0.00020873  , -0.000139176336, -0.0188104175, -0.009016172, 1.962985    , 918.575745  , 30.66334    , 819.966248  , 0.88        , 7           , 255         , 0           , 0
-0.0863202661, 0.18850778  , -9.788513   , 0.000830728561, -0.000585498, 0.000688250468, -0.0188021753, -0.009021896, 1.96299219  , 918.575745  , 30.66334    , 819.966431  , 0.89        , 7           , 255         , 0           , 0
-0.0855582  , 0.189753383 , -9.788309   , 0.00113750063, -0.000123428414, -4.898051E-05, -0.0187907964, -0.009023138, 1.96299183  , 918.575745  , 30.66334    , 819.9666    , 0.9         , 7           , 255         , 0           , 0
-0.08288291 , 0.1937307   , -9.795703   , 0.000742824166, -1.02848862E-05, -5.255548E-05, -0.0187972039, -0.009021154, 1.96299148  , 918.575745  , 30.66334    , 819.9531    , 0.91        , 7           , 255         , 0           , 0
-0.0841536745, 0.1901333   , -9.791544   , -0.000221781083, 0.000212454761, -0.000412626017, -0.0187993851, -0.009019106, 1.96298718  , 918.575745  , 30.66334    , 819.953247  , 0.92        , 7           , 255         , 0           , 0
-0.0906775445, 0.203688145 , -9.796535   , -0.000442541961, -0.000103121158, -9.620999E-07, -0.0188038088, -0.009020138, 1.9629873   , 918.52655   , 30.6697845  , 819.953369  , 0.93        , 7           , 255         , 0           , 0
-0.08202481 , 0.200808018 , -9.793238   , -0.000186573423, -0.000279062835, -5.70137927E-05, -0.0188056715, -0.009022938, 1.96298671  , 918.52655   , 30.6697845  , 819.9535    , 0.94        , 7           , 255         , 0           , 0
-0.08829813 , 0.194904178 , -9.790464   , -0.000446658174, 0.000196185487, -0.000174641726, -0.0188101232, -0.009021009, 1.962985    , 918.52655   , 30.6697845  , 819.9536    , 0.95        , 7           , 255         , 0           , 0
-0.09324501 , 0.190779477 , -9.784663   , -1.04855353E-05, 0.00012450706, -0.000702795, -0.0188101642, -0.009019896, 1.96297789  , 918.52655   , 30.6697845  , 819.953735  , 0.96        , 7           , 255         , 0           , 0
-0.08421705 , 0.192520708 , -9.78669    , 0.00028883302, 0.000239114568, -0.0005045195, -0.01880723 , -0.009017602, 1.96297288  , 918.52655   , 30.6697845  , 819.953857  , 0.97        , 7           , 255         , 0           , 0
-0.08846504 , 0.183030725 , -9.792366   , 9.076369E-05, -0.000195623667, 3.2927288E-05, -0.0188063271, -0.009019551, 1.96297324  , 918.52655   , 30.6697845  , 819.954     , 0.98        , 7           , 255         , 0           , 0
-0.09597305 , 0.18173793  , -9.79952049 , -0.00017998027, 0.000106657331, 7.73830543E-05, -0.01880813 , -0.00901847 , 1.96297383  , 918.52655   , 30.6697845  , 819.954163  , 0.99        , 7           , 255         , 0           , 0
-0.08962087 , 0.184829727 , -9.808487   , -8.330317E-05, -0.000232473423, 0.000156649316, -0.0188089758, -0.009020764, 1.9629755   , 918.52655   , 30.6697845  , 819.954346  , 1           , 7           , 0           , 6.42023659  , 100
-0.0922802538, 0.185351253 , -9.8014     , -0.000406291743, 0.000116905139, 0.0004606162, -0.0188337155, -0.009018333, 1.96298027  , 918.52655   , 30.6697845  , 819.997     , 1.01        , 7           , 1           , 0           , 0
-0.08857729 , 0.183381692 , -9.800131   , 0.000205477612, 0.00013966969, 0.0008991525, -0.0188317411, -0.009016768, 1.96298933  , 918.52655   , 30.6697845  , 819.997253  , 1.02        , 7           , 2           , 0           , 0
-0.075805746, 0.172301963 , -9.793833   , 0.000579444168, -0.000182787422, 0.0005670425, -0.0188259985, -0.009018486, 1.962995    , 918.5882    , 30.67026    , 819.9975    , 1.03        , 7           , 3           , 0           , 0
-0.08818726 , 0.17192328  , -9.787187   , -0.000172172833, -0.0004035225, 4.886408E-05, -0.0188277252, -0.00902251247, 1.96299553  , 918.5882    , 30.67026    , 819.997742  , 1.04        , 7           , 4           , 0           , 0
-0.100515351, 0.1779172   , -9.787906   , -4.517917E-05, 5.162094E-05, -0.0004943441, -0.0188281331, -0.009022089, 1.96299064  , 918.5882    , 30.67026    , 819.998     , 1.05        , 7           , 5           , 0           , 0
-0.0959133059, 0.18208757  , -9.79785    , -0.0005730069, 0.000227355456, 3.45776934E-05, -0.0188338626, -0.009019809, 1.96299088  , 918.5882    , 30.67026    , 819.9982    , 1.06        , 7           , 6           , 0           , 0
-0.09537791 , 0.175163224 , -9.792996   , -0.0003542803, -0.000102098857, -0.000621197745, -0.0188373532, -0.009020947, 1.9629848   , 918.5882    , 30.67026    , 819.9985    , 1.07        , 7           , 7           , 0           , 0
-0.09692533 , 0.176057667 , -9.794718   , 0.00021594041, 0.000187859347, 0.000164263925, -0.0188352074, -0.009019038, 1.96298635  , 918.5882    , 30.67026    , 819.9987    , 1.08        , 7           , 8           , 5           , 5
-0.09778787 , 0.170027226 , -9.791273   , -0.0004559349, 0.000155260263, -0.0005951169, -0.0188397113, -0.009017597, 1.96298051  , 918.5882    , 30.67026    , 819.998962  , 1.09        , 7           , 9           , 5           , 0.1
-0.08521322 , 0.168560386 , -9.795302   , -0.000469643681, 0.00039771985, -0.0003911255, -0.0188443735, -0.009013693, 1.96297646  , 918.5882    , 30.67026    , 819.9992    , 1.1         , 7           , 10          , 0.1         , 0.1
-0.08264683 , 0.171162933 , -9.794337   , -0.000288536, 0.000459739473, -5.456255E-05, -0.0188251957, -0.009017972, 1.96297574  , 918.5882    , 30.67026    , 819.970032  , 1.11        , 7           , 11          , 0.009421792 , 0.009421792
-0.08591341 , 0.180201858 , -9.798324   , -0.0009793745, 0.0005063703, -0.000163855584, -0.0188349728, -0.00901294 , 1.96297407  , 918.5882    , 30.67026    , 819.9702    , 1.12        , 7           , 12          , 0.0346428268, 0
-0.09168635 , 0.184110269 , -9.794456   , 4.2583335E-05, 0.000317243859, 0.00036072894, -0.01883458 , -0.009009701, 1.96297765  , 918.5582    , 30.6756172  , 819.9704    , 1.13        , 7           , 13          , 0           , 0
-0.0874950439, 0.185364649 , -9.80563    , -0.000100127778, 0.0006491612, -0.000281243963, -0.0188355558, -0.009003265, 1.96297467  , 918.5582    , 30.6756172  , 819.9706    , 1.14        , 7           , 14          , -0.000119088239, 0.000913011143
-0.08443494 , 0.1943318   , -9.799338   , 0.0004178363, 0.0004632536, -0.000530836638, -0.01883133 , -0.008998731, 1.9629693   , 918.5582    , 30.6756172  , 819.970764  , 1.15        , 7           , 15          , 0           , 0.000171059874
-0.08733012 , 0.187230036 , -9.791208   , 0.000130840752, 0.000120732933, -0.000546015857, -0.01882997 , -0.008997627, 1.96296382  , 918.5582    , 30.6756172  , 819.970947  , 1.16        , 7           , 16          , 0           , 1.401298E-45
-0.0883339047, 0.191372633 , -9.790509   , 3.04474961E-05, -0.0006491303, 1.59972114E-06, -0.0188296679, -0.009004117, 1.962964    , 918.5582    , 30.6756172  , 819.9711    , 1.17        , 7           , 20          , 0           , 0
-0.07530199 , 0.20782423  , -9.794447   , 0.000209177364, 0.000353000825, 0.000300843443, -0.0188276023, -0.00900053 , 1.962967    , 918.5582    , 30.6756172  , 819.9713    , 1.18        , 7           , 21          , 0           , 0
-0.07377754 , 0.205370232 , -9.802298   , 0.00020011657, 0.000184881035, -0.0003036075, -0.0188255757, -0.008998739, 1.96296394  , 918.5582    , 30.6756172  , 819.9715    , 1.19        , 7           , 22          , 0           , 0
-0.07685987 , 0.206054643 , -9.793332   , 2.32358943E-05, 3.77687975E-05, -0.0003884391, -0.0188253056, -0.008998433, 1.96296012  , 918.5582    , 30.6756172  , 819.9717    , 1.2         , 7           , 40          , 0           , 0
-0.0862064958, 0.192630842 , -9.786889   , 0.000100843004, 0.000151750282, -8.275651E-05, -0.018839946, -0.00898583047, 1.96295929  , 918.5582    , 30.6756172  , 819.9774    , 1.21        , 7           , 41          , 0           , 0
-0.08691557 , 0.200510666 , -9.78663    , 0.000134281116, -0.000114779221, 8.271841E-05, -0.01883861 , -0.008986962, 1.96296024  , 918.5582    , 30.6756172  , 819.977661  , 1.22        , 7           , 42          , 1           , 0
-0.0845881253, 0.207230419 , -9.798922   , -0.000185414712, 0.000113639748, 0.0004943346, -0.01884051 , -0.008985733, 1.96296513  , 918.6023    , 30.672905   , 819.9779    , 1.23        , 7           , 255         , 0           , 0
-0.08898662 , 0.203111619 , -9.80439949 , -2.271714E-05, 0.00011642708, 0.000278660562, -0.0188407619, -0.008984515, 1.96296775  , 918.6023    , 30.672905   , 819.978149  , 1.24        , 7           , 255         , 0           , 0
-0.09182094 , 0.193831623 , -9.794584   , -0.0001491342, -2.36648484E-05, -0.0002869902, -0.01884223 , -0.008984807, 1.96296489  , 918.6023    , 30.672905   , 819.9784    , 1.25        , 7           , 255         , 0           , 0
-0.100462273, 0.193060115 , -9.793894   , -0.000189179758, 0.000256519183, -0.0007428995, -0.0188440513, -0.008982383, 1.96295738  , 918.6023    , 30.672905   , 819.978638  , 1.26        , 7           , 255         , 0           , 0
-0.09204956 , 0.190921634 , -9.789814   , -0.000101491663, -0.000130949833, -4.35219263E-05, -0.0188450627, -0.008983701, 1.962957    , 918.6023    , 30.672905   , 819.9789    , 1.27        , 7           , 255         , 0           , 0
-0.08656643 , 0.180601284 , -9.776655   , -7.272816E-05, -0.00010637939, -0.00051024917, -0.0188457444, -0.008984861, 1.9629519   , 918.6023    , 30.672905   , 819.9791    , 1.28        , 7           , 255         , 0           , 0
-0.08830863 , 0.183916092 , -9.789095   , -7.165143E-05, 0.000121490564, -0.0007355227, -0.0188463964, -0.008983785, 1.96294451  , 918.6023    , 30.672905   , 819.9794    , 1.29        , 7           , 255         , 0           , 0
-0.08721527 , 0.187429115 , -9.797358   , -6.2164574E-05, 0.000395753537, 6.108485E-05, -0.0188470241, -0.008979817, 1.9629451   , 918.6023    , 30.672905   , 819.9796    , 1.3         , 7           , 255         , 0           , 0
-0.09082419 , 0.190475479 , -9.797994   , 0.000125592866, 0.000411967223, 0.0002570635, -0.0188719332, -0.008979553, 1.962948    , 918.6023    , 30.672905   , 819.938843  , 1.31        , 7           , 255         , 0           , 0
-0.09875796 , 0.1795426   , -9.791046   , -1.21224E-06, 5.65984519E-05, -0.0007426784, -0.0188718755, -0.008979126, 1.96294045  , 918.6023    , 30.672905   , 819.938965  , 1.32        , 7           , 255         , 0           , 0
-0.100628868, 0.1691488   , -9.790227   , 0.0005068174, -1.4537829E-05, -1.24782673E-05, -0.0188668072, -0.008979274, 1.96294045  , 918.563354  , 30.67616    , 819.9391    , 1.33        , 7           , 255         , 0           , 0
-0.09872089 , 0.167762667 , -9.793134   , -0.0002729316, -0.000324776571, -5.98821935E-05, -0.0188695323, -0.008982532, 1.96293986  , 918.563354  , 30.67616    , 819.9392    , 1.34        , 7           , 255         , 0           , 0
-0.08638405 , 0.17946589  , -9.793325   , -0.0004413159, 0.000212664425, 0.0003430269, -0.0188739747, -0.008980341, 1.96294332  , 918.563354  , 30.67616    , 819.939331  , 1.35        , 7           , 255         , 0           , 0
-0.0904328749, 0.180701643 , -9.799295   , -0.0001576101, 0.000176960311, 0.00013773  , -0.0188755635, -0.008978545, 1.96294475  , 918.563354  , 30.67616    , 819.939453  , 1.36        , 7           , 255         , 0           , 0
-0.08316544 , 0.173613474 , -9.79316    , 0.000366116 , 0.000259911816, 0.000134876 , -0.0188719127, -0.008975919, 1.962946    , 918.563354  , 30.67616    , 819.9396    , 1.37        , 7           , 255         , 0           , 0
-0.081338   , 0.177920833 , -9.790052   , -0.000131216424, -5.680375E-05, 0.000310851116, -0.0188732538, -0.008976429, 1.962949    , 918.563354  , 30.67616    , 819.9397    , 1.38        , 7           , 255         , 0           , 0
-0.08708832 , 0.182415187 , -9.799505   , -0.000151247572, 0.000101453566, 0.00055167533, -0.0188748147, -0.008975312, 1.96295464  , 918.563354  , 30.67616    , 819.9398    , 1.39        , 7           , 255         , 0           , 0
-0.09122773 , 0.181756184 , -9.797322   , 0.000137625437, 0.000300634827, 0.000114664173, -0.01887345 , -0.008972284, 1.96295571  , 918.563354  , 30.67616    , 819.939941  , 1.4         , 7           , 255         , 0           , 0
-0.09789236 , 0.190621734 , -9.799908   , 0.000192364023, 0.0002708797, 0.000149129759, -0.0188552961, -0.008976637, 1.962957    , 918.563354  , 30.67616    , 819.9436    , 1.41        , 7           , 255         , 0           , 0
-0.09422909 , 0.180720419 , -9.801034   , 1.91339277E-05, -0.0002676589, 3.29493923E-05, -0.0188551061, -0.008979308, 1.96295738  , 918.563354  , 30.67616    , 819.9437    , 1.42        , 7           , 255         , 0           , 0
-0.0829878  , 0.1742153   , -9.796392   , -0.0004114337, 0.000152940745, 0.000293757068, -0.0188592449, -0.008977723, 1.96296024  , 918.602539  , 30.678196   , 819.943848  , 1.43        , 7           , 255         , 0           , 0
-0.08785282 , 0.174522415 , -9.794317   , -8.473745E-05, 0.00020924455, 0.0006260564, -0.01886015 , -0.008975513, 1.96296644  , 918.602539  , 30.678196   , 819.944     , 1.44        , 7           , 255         , 0           , 0
-0.09489032 , 0.185822636 , -9.796933   , -0.000108601191, 3.580912E-05, 0.0004397285, -0.018861277, -0.008975075, 1.962971    , 918.602539  , 30.678196   , 819.9441    , 1.45        , 7           , 255         , 0           , 0
-0.09375121 , 0.188476175 , -9.794348   , 0.00047054264, -0.00015149184, -0.0004681354, -0.018856531, -0.0089766765, 1.9629662   , 918.602539  , 30.678196   , 819.9442    , 1.46        , 7           , 255         , 0           , 0
-0.0886060447, 0.182745263 , -9.789301   , 0.0009791141, -0.0002036469, 1.37889874E-05, -0.0188467428, -0.008978711, 1.96296644  , 918.602539  , 30.678196   , 819.944336  , 1.47        , 7           , 255         , 0           , 0
-0.08984508 , 0.186245233 , -9.801181   , -5.19108726E-05, -0.000207722071, 0.0002819504, -0.0188472886, -0.008980735, 1.9629693   , 918.602539  , 30.678196   , 819.944458  , 1.48        , 7           , 255         , 0           , 0
-0.08724332 , 0.19241938  , -9.792795   , 7.915774E-05, -0.000143169193, 0.0003451006, -0.0188465267, -0.0089821  , 1.96297288  , 918.602539  , 30.678196   , 819.9446    , 1.49        , 7           , 255         , 0           , 0
-0.07568928 , 0.192232177 , -9.795908   , 0.00013788142, 0.000250080251, -0.0005072725, -0.0188451018, -0.008979696, 1.96296775  , 918.602539  , 30.678196   , 819.9447    , 1.5         , 7           , 255         , 0           , 0
-0.0918896347, 0.188157022 , -9.800801   , -0.000427820225, 0.000301838852, -0.000355526456, -0.0188493785, -0.008979693, 1.9629643   , 918.602539  , 30.678196   , 819.906555  , 1.51        , 7           , 255         , 0           , 0
-0.08259408 , 0.178186417 , -9.801867   , 0.00019372403, 0.000181994168, -0.0002637825, -0.0188474189, -0.00897792 , 1.96296167  , 918.602539  , 30.678196   , 819.906555  , 1.52        , 7           , 255         , 0           , 0
-0.09065843 , 0.192688033 , -9.798231   , 0.000218224246, -0.000698453339, 0.000189328421, -0.0188452564, -0.008984867, 1.9629637   , 918.561     , 30.6766357  , 819.906555  , 1.53        , 7           , 255         , 0           , 0
-0.08947049 , 0.19807893  , -9.79798    , 0.0003246683, -4.92632971E-05, 0.000858466 , -0.0188420862, -0.008985197, 1.9629724   , 918.561     , 30.6766357  , 819.906555  , 1.54        , 7           , 255         , 0           , 0
-0.09272698 , 0.188199371 , -9.7861     , -7.35850263E-05, -0.000177260838, 0.000777406967, -0.01884289 , -0.008986823, 1.96298     , 918.561     , 30.6766357  , 819.906555  , 1.55        , 7           , 255         , 0           , 0
-0.09385494 , 0.188580841 , -9.79117    , 3.995344E-05, -2.95809E-05, 0.000892173848, -0.0188425742, -0.008986952, 1.962989    , 918.561     , 30.6766357  , 819.906555  , 1.56        , 7           , 255         , 0           , 0
-0.0906558558, 0.191924    , -9.797322   , 0.000376583455, 0.000454149675, 0.0005923626, -0.0188388564, -0.008982298, 1.96299481  , 918.561     , 30.6766357  , 819.906555  , 1.57        , 7           , 255         , 0           , 0
-0.09112877 , 0.194959283 , -9.800119   , 0.000369629764, -0.000100573874, 0.0005128783, -0.0188352074, -0.008983207, 1.963       , 918.561     , 30.6766357  , 819.906555  , 1.58        , 7           , 255         , 0           , 0
-0.0877912  , 0.182520479 , -9.805616   , -0.000358673045, -0.000295323785, 0.000165101374, -0.01883881 , -0.00898613 , 1.96300173  , 918.561     , 30.6766357  , 819.906555  , 1.59        , 7           , 255         , 0           , 0
-0.08428918 , 0.1892434   , -9.801413   , -0.000393622118, -2.25342228E-05, -0.0001332958, -0.0188427381, -0.008986378, 1.96300042  , 918.561     , 30.6766357  , 819.906555  , 1.6         , 7           , 255         , 0           , 0
-0.08063091 , 0.183771119 , -9.79626751 , -0.000260427973, 0.000185002631, 0.000112083071, -0.0188542213, -0.008987276, 1.96300173  , 918.561     , 30.6766357  , 819.9166    , 1.61        , 7           , 255         , 0           , 0
-0.08548559 , 0.187299773 , -9.796972   , -4.24879836E-05, 0.0001638701, -9.020202E-05, -0.0188546386, -0.008985654, 1.96300077  , 918.561     , 30.6766357  , 819.9167    , 1.62        , 7           , 255         , 0           , 0
-0.08293804 , 0.193637192 , -9.795461   , 0.000196859735, -0.000133565569, 0.000459168485, -0.01885271 , -0.008986902, 1.96300554  , 918.602661  , 30.67867    , 819.916748  , 1.63        , 7           , 255         , 0           , 0
-0.08643962 , 0.190983042 , -9.798784   , -0.000287037954, 6.46380358E-05, 0.0002467032, -0.0188556034, -0.00898621 , 1.96300793  , 918.602661  , 30.67867    , 819.9168    , 1.64        , 7           , 255         , 0           , 0
-0.0944175944, 0.184181064 , -9.793965   , -4.54538822E-05, -1.26276282E-05, -0.000841649249, -0.0188559834, -0.008986495, 1.96299946  , 918.602661  , 30.67867    , 819.9169    , 1.65        , 7           , 255         , 0           , 0
-0.09238322 , 0.190267652 , -9.797079   , -0.00015216152, -3.27558955E-05, 0.000389361667, -0.0188575387, -0.00898675 , 1.9630034   , 918.602661  , 30.67867    , 819.916931  , 1.66        , 7           , 255         , 0           , 0
-0.100180387, 0.178323373 , -9.795208   , -2.31836311E-05, 1.46240345E-05, -0.000150656648, -0.0188577566, -0.008986633, 1.96300173  , 918.602661  , 30.67867    , 819.917     , 1.67        , 7           , 255         , 0           , 0
-0.101163864, 0.1732511   , -9.787876   , 0.000448993378, 0.000473540684, -0.0007276208, -0.0188532  , -0.008982035, 1.96299458  , 918.602661  , 30.67867    , 819.917053  , 1.68        , 7           , 255         , 0           , 0
-0.0834978744, 0.173125669 , -9.799906   , -0.0003306768, 0.000433425477, -0.0004527376, -0.018856464, -0.008977784, 1.96298993  , 918.602661  , 30.67867    , 819.9171    , 1.69        , 7           , 255         , 0           , 0
-0.08892204 , 0.174922556 , -9.790653   , 0.0002518627, -0.0003481062, 0.000102900318, -0.018853955, -0.0089812465, 1.962991    , 918.602661  , 30.67867    , 819.9172    , 1.7         , 7           , 255         , 0           , 0
-0.08513455 , 0.180134982 , -9.784019   , 1.39257172E-05, -0.0005693198, -0.0002302127, -0.0188499428, -0.008990445, 1.96298873  , 918.602661  , 30.67867    , 819.8804    , 1.71        , 7           , 255         , 0           , 0
-0.08526491 , 0.177013546 , -9.78465748 , 0.0005901638, -0.0004095289, -0.000116531512, -0.01884403 , -0.008994561, 1.96298766  , 918.602661  , 30.67867    , 819.880249  , 1.72        , 7           , 255         , 0           , 0
-0.09216379 , 0.18155925  , -9.792526   , 0.000636043667, -4.659721E-05, 0.0004593386, -0.0188377146, -0.008994941, 1.96299219  , 918.545532  , 30.6784     , 819.8801    , 1.73        , 7           , 255         , 0           , 0
-0.09234178 , 0.181775257 , -9.789293   , 0.0002947931, 0.000242695736, 1.548008E-05, -0.0188347679, -0.008992511, 1.96299231  , 918.545532  , 30.6784     , 819.88      , 1.74        , 7           , 255         , 0           , 0
-0.0934997946, 0.1757749   , -9.800117   , 0.0005052788, 0.0002801697, -0.000103011414, -0.0188297033, -0.008989729, 1.96299124  , 918.545532  , 30.6784     , 819.8799    , 1.75        , 7           , 255         , 0           , 0
-0.09563163 , 0.1782232   , -9.789831   , 0.000264145463, 0.000193759275, 0.000194080043, -0.01882708 , -0.008987754, 1.96299326  , 918.545532  , 30.6784     , 819.879761  , 1.76        , 7           , 255         , 0           , 0
-0.0802714452, 0.1890429   , -9.792801   , 8.19742E-05 , 0.000249145844, 0.000617705751, -0.0188263152, -0.008985147, 1.96299946  , 918.545532  , 30.6784     , 819.879639  , 1.77        , 7           , 255         , 0           , 0
-0.07918842 , 0.184097245 , -9.791662   , -0.0002535899, -0.000463815959, -0.000344610336, -0.0188288223, -0.00898985 , 1.962996    , 918.545532  , 30.6784     , 819.8795    , 1.78        , 7           , 255         , 0           , 0
-0.08755756 , 0.181455061 , -9.793988   , -0.000346276152, 7.246685E-05, -0.000430167129, -0.0188322458, -0.008989206, 1.96299183  , 918.545532  , 30.6784     , 819.8794    , 1.79        , 7           , 255         , 0           , 0
-0.094211176, 0.189695433 , -9.799751   , -4.45091E-05, 0.000164584431, -0.0004310126, -0.0188326519, -0.008987641, 1.96298742  , 918.545532  , 30.6784     , 819.8793    , 1.8         , 7           , 255         , 0           , 0
-0.0882642046, 0.185876861 , -9.793345   , 8.232579E-05, -0.000463228818, -0.0005686753, -0.01882494 , -0.008993654, 1.96298182  , 918.545532  , 30.6784     , 819.910767  , 1.81        , 7           , 255         , 0           , 0
-0.08652263 , 0.190732867 , -9.794807   , -0.000253919716, -0.000594805344, -0.0007440855, -0.0188274141, -0.008999739, 1.96297455  , 918.545532  , 30.6784     , 819.9108    , 1.82        , 7           , 255         , 0           , 0
-0.0847867951, 0.193085462 , -9.799025   , 0.000192606181, 5.887996E-06, 0.000187569123, -0.0188255031, -0.008999644, 1.96297646  , 918.565369  , 30.6810455  , 819.9109    , 1.83        , 7           , 255         , 0           , 0
-0.0945842639, 0.183381408 , -9.793854   , -7.12265537E-05, 0.000389753433, 0.0004294253, -0.0188262574, -0.008995665, 1.96298075  , 918.565369  , 30.6810455  , 819.91095   , 1.84        , 7           , 255         , 0           , 0
-0.09345915 , 0.181760043 , -9.78261852 , -0.000241511036, 6.601791E-05, 0.0008304864, -0.0188287422, -0.008994849, 1.96298909  , 918.565369  , 30.6810455  , 819.911     , 1.85        , 7           , 255         , 0           , 0
-0.0906041861, 0.186281666 , -9.792427   , -9.263262E-06, -0.000306692149, 0.0006402059, -0.0188288912, -0.008997794, 1.96299553  , 918.565369  , 30.6810455  , 819.9111    , 1.86        , 7           , 255         , 0           , 0
-0.08395481 , 0.178467184 , -9.803368   , -0.0005535593, 3.632251E-05, 0.000256929168, -0.0188344531, -0.008997383, 1.962998    , 918.565369  , 30.6810455  , 819.911133  , 1.87        , 7           , 255         , 0           , 0
-0.0883924  , 0.178660691 , -9.808874   , -0.000255182647, -0.00031072594, -0.0004856152, -0.0188369621, -0.009000581, 1.96299326  , 918.565369  , 30.6810455  , 819.9112    , 1.88        , 7           , 255         , 0           , 0
-0.0812194943, 0.184972972 , -9.793531   , 6.498575E-05, -0.0006617887, -0.0007345346, -0.01883625 , -0.009007337, 1.96298611  , 918.565369  , 30.6810455  , 819.911255  , 1.89        , 7           , 255         , 0           , 0
-0.08072748 , 0.181361273 , -9.790624   , 0.0005136991, -0.0008968661, -0.00051093346, -0.0188310668, -0.009016399, 1.96298122  , 918.565369  , 30.6810455  , 819.9113    , 1.9         , 7           , 255         , 0           , 0
-0.0878400058, 0.185139462 , -9.787291   , 0.0003017728, -6.869243E-05, -0.0005510383, -0.0188280251, -0.00901534 , 1.96297586  , 918.565369  , 30.6810455  , 819.9167    , 1.91        , 7           , 255         , 0           , 0
-0.08925298 , 0.185955971 , -9.787267   , -0.000125626742, 0.0002680695, 1.88910926E-05, -0.0188292842, -0.009012657, 1.9629761   , 918.565369  , 30.6810455  , 819.9168    , 1.92        , 7           , 255         , 0           , 0
-0.08996751 , 0.186498612 , -9.798022   , -3.08133458E-05, -7.197965E-05, 0.0002914033, -0.0188296158, -0.009013322, 1.96297908  , 918.5048    , 30.67901    , 819.916931  , 1.93        , 7           , 255         , 0           , 0
-0.0825938  , 0.192846239 , -9.799217   , -0.000353887881, 0.000123405538, 5.123594E-05, -0.0188331585, -0.009012076, 1.96297956  , 918.5048    , 30.67901    , 819.917053  , 1.94        , 7           , 255         , 0           , 0
-0.0935451761, 0.187694639 , -9.793848   , -2.1915941E-05, 0.000205764838, 0.000619542669, -0.0188334342, -0.009009902, 1.96298563  , 918.5048    , 30.67901    , 819.9172    , 1.95        , 7           , 255         , 0           , 0
-0.08860193 , 0.186919779 , -9.794438   , -0.000110200315, 0.000729022839, 0.000413339236, -0.0188345723, -0.009002537, 1.96298957  , 918.5048    , 30.67901    , 819.9173    , 1.96        , 7           , 255         , 0           , 0
-0.0815164447, 0.186941832 , -9.793007   , 9.935163E-05, -7.25211E-05, 0.000683019 , -0.018833641, -0.00900313351, 1.96299648  , 918.5048    , 30.67901    , 819.9174    , 1.97        , 7           , 255         , 0           , 0
-0.08625331 , 0.194847584 , -9.797939   , 0.000191679719, -0.000301792054, 0.000221877533, -0.0188317467, -0.00900611 , 1.96299875  , 918.5048    , 30.67901    , 819.917542  , 1.98        , 7           , 255         , 0           , 0
-0.09029332 , 0.1918977   , -9.793531   , 7.87856843E-05, 0.00018870068, 2.972949E-05, -0.01883096 , -0.009004218, 1.962999    , 918.5048    , 30.67901    , 819.917664  , 1.99        , 7           , 255         , 0           , 0
-0.0955504254, 0.18646197  , -9.800683   , 5.707219E-05, 0.000168234634, 0.000498794543, -0.0188304335, -0.009002442, 1.963004    , 918.5048    , 30.67901    , 819.9178    , 2           , 7           , 0           , 7.42023659  , 200
-0.08895335 , 0.194087446 , -9.800015   , -0.000630606432, -8.87493952E-05, -4.40774165E-05, -0.0188453849, -0.00900391 , 1.96300375  , 918.5048    , 30.67901    , 819.9957    , 2.01        , 7           , 1           , 0           , 0
-0.08591097 , 0.180908412 , -9.789682   , 2.37725471E-05, 4.184508E-05, -0.0003872653, -0.018845113, -0.009003564, 1.96299982  , 918.5048    , 30.67901    , 819.996338  , 2.02        , 7           , 2           , 0           , 0
-0.08633144 , 0.187049523 , -9.793292   , 0.000401269615, 5.74170263E-05, 0.0005252653, -0.0188411474, -0.00900288951, 1.96300507  , 918.5473    , 30.67935    , 819.996948  , 2.03        , 7           , 3           , 0           , 0
-0.09491415 , 0.191178322 , -9.798129   , -0.000231868587, -0.000102979073, 0.0004344844, -0.0188435055, -0.009003838, 1.96300948  , 918.5473    , 30.67935    , 819.997559  , 2.04        , 7           , 4           , 0           , 0
-0.0923478752, 0.187222034 , -9.798349   , 0.0004235297, 0.0003505352, -0.0003710658, -0.0188392363, -0.009000403, 1.96300566  , 918.5473    , 30.67935    , 819.998169  , 2.05        , 7           , 5           , 0           , 0
-0.0823231  , 0.189976066 , -9.79547    , 0.000919741 , -9.461929E-05, -0.0002173677, -0.01883002 , -0.009001389, 1.96300364  , 918.5473    , 30.67935    , 819.9988    , 2.06        , 7           , 6           , 0           , 0
-0.08778135 , 0.184372634 , -9.793777   , 0.00112127326, -0.000152031134, -0.0004138075, -0.0188187677, -0.009002987, 1.96299958  , 918.5473    , 30.67935    , 819.9994    , 2.07        , 7           , 7           , 0           , 0
-0.08449404 , 0.181129009 , -9.78792    , 0.000432713568, 3.13337659E-06, -0.000294051948, -0.0188144166, -0.00900301 , 1.9629966   , 918.5473    , 30.67935    , 820         , 2.08        , 7           , 8           , 5           , 5
-0.084642455, 0.186201125 , -9.786924   , 0.0005368083, -5.51810372E-05, 0.000226376607, -0.0188090652, -0.009003521, 1.96299887  , 918.5473    , 30.67935    , 820.0006    , 2.09        , 7           , 9           , 5           , 0.1
-0.09158843 , 0.184921041 , -9.799824   , 8.895389E-05, 3.25130532E-05, -0.0008564017, -0.0188081022, -0.009003355, 1.96299028  , 918.5473    , 30.67935    , 820.0012    , 2.1         , 7           , 10          , 0.1         , 0.1
-0.08864435 , 0.193891943 , -9.795353   , -0.0005098414, -0.0007645814, 0.000677288859, -0.0188178383, -0.009010329, 1.96299732  , 918.5473    , 30.67935    , 820.0183    , 2.11        , 7           , 11          , 0.008395548 , 0.00839555
-0.08190948 , 0.184416831 , -9.794535   , 2.64545815E-05, -0.0004919471, -0.0001271015, -0.01881756 , -0.00901527 , 1.96299613  , 918.5473    , 30.67935    , 820.019043  , 2.12        , 7           , 12          , 0.03464815  , 0
-0.08719589 , 0.184755415 , -9.78996849 , 0.000566563453, -2.95545324E-05, -0.000776165165, -0.0188118257, -0.009015711, 1.96298838  , 918.547241  , 30.6801643  , 820.0198    , 2.13        , 7           , 13          , 0           , 0
-0.08474961 , 0.187067956 , -9.792534   , 0.0001355416, 0.00033114542, -0.00024076282, -0.018810451, -0.009012445, 1.962986    , 918.547241  , 30.6801643  , 820.0205    , 2.14        , 7           , 14          , -0.000119024015, 0.0009130304
-0.09485588 , 0.189134926 , -9.78994    , -4.593098E-05, -2.56468775E-06, 0.0001456631, -0.0188109223, -0.009012443, 1.96298742  , 918.547241  , 30.6801643  , 820.02124   , 2.15        , 7           , 15          , 0           , 0.000171059655
-0.09754525 , 0.19787626  , -9.793576   , 0.0003734444, -0.000292052, 0.0008347974, -0.01880726 , -0.009015205, 1.96299589  , 918.547241  , 30.6801643  , 820.022     , 2.16        , 7           , 16          , 0           , 1.401298E-45
-0.08785407 , 0.1923954   , -9.79926    , -7.58502E-05, -0.000116383017, 0.000366959284, -0.0188080519, -0.009016299, 1.96299958  , 918.547241  , 30.6801643  , 820.0227    , 2.17        , 7           , 20          , 0           , 0
-0.08446947 , 0.1877174   , -9.791883   , -0.000477001129, -0.000217473076, -0.000161465883, -0.0188128073, -0.009018504, 1.962998    , 918.547241  , 30.6801643  , 820.023438  , 2.18        , 7           , 21          , 0           , 0
-0.09260465 , 0.180757955 , -9.783014   , 6.561915E-05, 9.55319847E-05, -7.456408E-05, -0.0188121442, -0.009017561, 1.96299732  , 918.547241  , 30.6801643  , 820.0242    , 2.19        , 7           , 22          , 0           , 0
-0.08994191 , 0.187257    , -9.787522   , -0.000154340552, 0.000207789766, -0.000424415834, -0.01881365 , -0.009015563, 1.962993    , 918.547241  , 30.6801643  , 820.0249    , 2.2         , 7           , 40          , 0           , 0
-0.08990709 , 0.195577979 , -9.802092   , -0.000329847477, 0.000270323071, 9.524495E-05, -0.0188276023, -0.009014596, 1.9629941   , 918.547241  , 30.6801643  , 820.039368  , 2.21        , 7           , 41          , 0           , 0
-0.07991896 , 0.199337438 , -9.791294   , -0.000131452514, 0.000160442491, 4.16511175E-05, -0.01882892 , -0.009012986, 1.96299458  , 918.547241  , 30.6801643  , 820.0402    , 2.22        , 7           , 42          , 1           , 0
-0.08761566 , 0.19412896  , -9.792735   , -0.0006026684, 0.000115705829, 0.000152225824, -0.0188349616, -0.009011799, 1.96299613  , 918.5531    , 30.6819267  , 820.0411    , 2.23        , 7           , 255         , 0           , 0
-0.08499329 , 0.185617626 , -9.801139   , -0.000157320435, -0.000140972785, -3.409908E-05, -0.0188365355, -0.009013214, 1.96299577  , 918.5531    , 30.6819267  , 820.041931  , 2.24        , 7           , 255         , 0           , 0
-0.08133455 , 0.187914208 , -9.786928   , 0.000146933075, 0.000372281938, 0.000342504471, -0.0188350938, -0.009009426, 1.96299922  , 918.5531    , 30.6819267  , 820.0428    , 2.25        , 7           , 255         , 0           , 0
-0.08458404 , 0.189410731 , -9.792827   , 0.000436727278, 0.0002401389, 0.0002032963, -0.0188307445, -0.009006987, 1.96300113  , 918.5531    , 30.6819267  , 820.04364   , 2.26        , 7           , 255         , 0           , 0
-0.0846595839, 0.18571417  , -9.793949   , -0.000226150529, -0.00043573312, 8.6961445E-05, -0.0188330114, -0.009011327, 1.96300209  , 918.5531    , 30.6819267  , 820.0445    , 2.27        , 7           , 255         , 0           , 0
-0.08526107 , 0.183173835 , -9.797093   , 0.000394668139, -0.000274143124, 0.0006509133, -0.0188291259, -0.009013944, 1.96300864  , 918.5531    , 30.6819267  , 820.045349  , 2.28        , 7           , 255         , 0           , 0
-0.08488095 , 0.18019411  , -9.794221   , 0.0004713087, -0.0007488447, -2.94148776E-05, -0.0188244116, -0.009021438, 1.96300852  , 918.5531    , 30.6819267  , 820.0462    , 2.29        , 7           , 255         , 0           , 0
-0.08487891 , 0.177423835 , -9.793873   , 0.0005151449, -0.000976217852, 0.0005442354, -0.0188193116, -0.009031094, 1.96301425  , 918.5531    , 30.6819267  , 820.047058  , 2.3         , 7           , 255         , 0           , 0
-0.0897588  , 0.1794903   , -9.797517   , 0.000265790673, -0.0006687655, 0.0009324133, -0.0188234374, -0.00903063547, 1.9630239   , 918.5531    , 30.6819267  , 820.0513    , 2.31        , 7           , 255         , 0           , 0
-0.0904495  , 0.183526754 , -9.790483   , 0.000720056938, -0.000825923344, 0.0003426858, -0.0188162755, -0.009038826, 1.9630276   , 918.5531    , 30.6819267  , 820.0521    , 2.32        , 7           , 255         , 0           , 0
-0.0878567547, 0.188625842 , -9.800997   , 0.0008162222, -0.000906694157, -0.00019622613, -0.0188080948, -0.009047928, 1.96302593  , 918.5689    , 30.6833515  , 820.053     , 2.33        , 7           , 255         , 0           , 0
-0.07922843 , 0.17952624  , -9.801129   , 0.00060012535, -0.00106018386, 0.000236056 , -0.0188021138, -0.009058482, 1.96302855  , 918.5689    , 30.6833515  , 820.053833  , 2.34        , 7           , 255         , 0           , 0
-0.0859792754, 0.181622624 , -9.802168   , 0.000406982 , -0.00111801759, -0.000461214, -0.0187980048, -0.009069746, 1.96302414  , 918.5689    , 30.6833515  , 820.0547    , 2.35        , 7           , 255         , 0           , 0
-0.0894019455, 0.193552911 , -9.793587   , 0.00068606087, -0.00140175479, 0.000246232725, -0.0187911671, -0.009083713, 1.963027    , 918.5689    , 30.6833515  , 820.055542  , 2.36        , 7           , 255         , 0           , 0
-0.09009412 , 0.189709932 , -9.796045   , 0.0003945477, -0.000962698832, -0.000235625877, -0.0187872034, -0.009093382, 1.96302485  , 918.5689    , 30.6833515  , 820.0564    , 2.37        , 7           , 255         , 0           , 0
-0.100346647, 0.184695467 , -9.793689   , -0.000205750286, -0.00117249438, 0.00034870283, -0.0187892951, -0.009105037, 1.96302867  , 918.5689    , 30.6833515  , 820.057251  , 2.38        , 7           , 255         , 0           , 0
-0.09151241 , 0.181057483 , -9.792288   , -2.08668862E-05, -0.0008648669, 0.0001461277, -0.0187895186, -0.009113655, 1.96303022  , 918.5689    , 30.6833515  , 820.0581    , 2.39        , 7           , 255         , 0           , 0
-0.0923253745, 0.1865312   , -9.796883   , -0.00026636757, -0.0005880372, -5.13129125E-05, -0.0187921766, -0.009119546, 1.96302974  , 918.5689    , 30.6833515  , 820.059     , 2.4         , 7           , 255         , 0           , 0
-0.0894157961, 0.187881753 , -9.79265    , 0.00022827732, -0.000312746444, -0.000135380178, -0.0187910218, -0.009124229, 1.96302843  , 918.5689    , 30.6833515  , 820.0408    , 2.41        , 7           , 255         , 0           , 0
-0.08580665 , 0.188883185 , -9.798753   , 0.000358451944, -0.0005049199, 0.0004540137, -0.018787479, -0.009129192, 1.9630332   , 918.5689    , 30.6833515  , 820.041565  , 2.42        , 7           , 255         , 0           , 0
-0.09209418 , 0.192579076 , -9.800067   , 0.000821443333, -0.0005614032, 0.000789001933, -0.0187793374, -0.009134656, 1.96304131  , 918.542664  , 30.6833515  , 820.042358  , 2.43        , 7           , 255         , 0           , 0
-0.09563374 , 0.181604087 , -9.797628   , 0.00026536145, -0.000661999336, 0.000295883219, -0.0187767129, -0.009141217, 1.9630444   , 918.542664  , 30.6833515  , 820.043152  , 2.44        , 7           , 255         , 0           , 0
-0.09208872 , 0.178455755 , -9.792775   , 0.00035004277, -0.000147442624, 0.0009221907, -0.0187732968, -0.009142519, 1.96305358  , 918.542664  , 30.6833515  , 820.043945  , 2.45        , 7           , 255         , 0           , 0
-0.0870028958, 0.179958269 , -9.780391   , 0.0004888905, -0.000129679393, 9.695611E-05, -0.0187684167, -0.009143796, 1.96305466  , 918.542664  , 30.6833515  , 820.044739  , 2.46        , 7           , 255         , 0           , 0
-0.09570234 , 0.176805288 , -9.796133   , -1.12162015E-05, -9.140547E-05, 0.00017776298, -0.0187685452, -0.009144677, 1.96305633  , 918.542664  , 30.6833515  , 820.045532  , 2.47        , 7           , 255         , 0           , 0
-0.103201948, 0.169392258 , -9.800941   , 0.000100576421, -9.41140461E-05, 0.000267232885, -0.0187675636, -0.009145567, 1.96305919  , 918.542664  , 30.6833515  , 820.0463    , 2.48        , 7           , 255         , 0           , 0
-0.0952988341, 0.166261762 , -9.7851     , -0.000111077556, 0.000152790919, -2.04493117E-05, -0.0187686738, -0.009144043, 1.963059    , 918.542664  , 30.6833515  , 820.0471    , 2.49        , 7           , 255         , 0           , 0
-0.0889467746, 0.1680902   , -9.794329   , -5.14831554E-05, 0.000108547858, 0.000553327962, -0.0187692381, -0.009142853, 1.96306455  , 918.542664  , 30.6833515  , 820.0479    , 2.5         , 7           , 255         , 0           , 0
-0.0971719  , 0.166251153 , -9.798418   , -3.581443E-05, -8.967827E-05, 0.000189502593, -0.01875961 , -0.009149762, 1.96306634  , 918.542664  , 30.6833515  , 820.0658    , 2.51        , 7           , 255         , 0           , 0
-0.0932163  , 0.172503546 , -9.791262   , -0.000145478974, 8.99247243E-05, -0.000185012366, -0.01876105 , -0.009148897, 1.96306443  , 918.542664  , 30.6833515  , 820.0667    , 2.52        , 7           , 255         , 0           , 0
-0.08632591 , 0.167983726 , -9.786828   , 0.000108747925, 3.27867456E-05, -0.000208175465, -0.0187599417, -0.00914861 , 1.96306229  , 918.5039    , 30.6824017  , 820.0676    , 2.53        , 7           , 255         , 0           , 0
-0.08967169 , 0.174797088 , -9.79315948 , 0.000487994053, -0.0006963513, -0.000159392948, -0.0187550485, -0.0091556  , 1.96306086  , 918.5039    , 30.6824017  , 820.068542  , 2.54        , 7           , 255         , 0           , 0
-0.08830747 , 0.174420431 , -9.790267   , 0.00033001398, -0.000384288549, 0.00013030837, -0.0187517609, -0.00915942 , 1.96306229  , 918.5039    , 30.6824017  , 820.069458  , 2.55        , 7           , 255         , 0           , 0
-0.09032886 , 0.190539882 , -9.793108   , 0.0004542746, -0.0002976579, 0.0005272695, -0.01874727 , -0.00916229747, 1.96306753  , 918.5039    , 30.6824017  , 820.0704    , 2.56        , 7           , 255         , 0           , 0
-0.09049613 , 0.190911323 , -9.793032   , 9.03184336E-05, -0.000393007, 0.000782912248, -0.01874644 , -0.00916608 , 1.9630754   , 918.5039    , 30.6824017  , 820.0713    , 2.57        , 7           , 255         , 0           , 0
-0.09303058 , 0.192438185 , -9.795401   , 0.000825095747, -0.000585729, -0.0003494081, -0.0187381562, -0.009172   , 1.9630723   , 918.5039    , 30.6824017  , 820.0722    , 2.58        , 7           , 255         , 0           , 0
-0.093727015, 0.193639323 , -9.783653   , 0.000279192027, -0.0007136611, 0.000166411235, -0.01873538 , -0.009179104, 1.96307421  , 918.5039    , 30.6824017  , 820.0731    , 2.59        , 7           , 255         , 0           , 0
-0.09137205 , 0.194259554 , -9.785851   , -3.066864E-05, 0.000207783363, -0.000505949, -0.0187356453, -0.00917711947, 1.96306908  , 918.5039    , 30.6824017  , 820.074036  , 2.6         , 7           , 255         , 0           , 0
-0.0821667239, 0.199092656 , -9.790788   , 0.000132782166, -0.000185515382, -0.000276888371, -0.0187297985, -0.009183086, 1.96306634  , 918.5039    , 30.6824017  , 820.1416    , 2.61        , 7           , 255         , 0           , 0
-0.0948221  , 0.195787147 , -9.797693   , 0.000238237582, -0.000423107878, 4.605358E-05, -0.0187274218, -0.009187307, 1.96306694  , 918.5039    , 30.6824017  , 820.142944  , 2.62        , 7           , 255         , 0           , 0
-0.09671477 , 0.194853544 , -9.79652    , -0.000121591416, -0.000352777075, 0.00127975713, -0.0187287536, -0.009190593, 1.96307969  , 918.5907    , 30.68057    , 820.1443    , 2.63        , 7           , 255         , 0           , 0
-0.08212705 , 0.19745031  , -9.805117   , 0.0003440252, -0.000381387828, 0.000560117653, -0.0187253673, -0.009194303, 1.96308541  , 918.5907    , 30.68057    , 820.1456    , 2.64        , 7           , 255         , 0           , 0
-0.08629425 , 0.194927692 , -9.791919   , 0.0006187072, -0.000454108376, -0.000207364661, -0.0187191628, -0.009198881, 1.96308351  , 918.5907    , 30.68057    , 820.147     , 2.65        , 7           , 255         , 0           , 0
-0.0903425738, 0.186450526 , -9.784308   , 0.000136289033, -0.0007461669, -0.0008693653, -0.01871772 , -0.009206504, 1.963075    , 918.5907    , 30.68057    , 820.1483    , 2.66        , 7           , 255         , 0           , 0
-0.09390205 , 0.194312155 , -9.794206   , 9.725829E-05, -0.00021612976, -0.000399847224, -0.01871671 , -0.009208741, 1.963071    , 918.5907    , 30.68057    , 820.149658  , 2.67        , 7           , 255         , 0           , 0
-0.09094065 , 0.186429054 , -9.800695   , 0.000344208122, 0.000440016447, 0.0005713054, -0.0187133215, -0.009204233, 1.96307659  , 918.5907    , 30.68057    , 820.151     , 2.68        , 7           , 255         , 0           , 0
-0.086556986, 0.18123576  , -9.79531    , 4.06082836E-05, -7.024844E-05, 0.000690112356, -0.01871298 , -0.009204809, 1.96308351  , 918.5907    , 30.68057    , 820.152344  , 2.69        , 7           , 255         , 0           , 0
-0.08562243 , 0.182012558 , -9.793081   , 0.000899754465, -0.000286856957, 0.000443047524, -0.0187040251, -0.009207594, 1.963088    , 918.5907    , 30.68057    , 820.1537    , 2.7         , 7           , 255         , 0           , 0
-0.09099124 , 0.184699148 , -9.791371   , 0.000490279461, -0.000145392667, 0.00018068096, -0.0187133532, -0.009206916, 1.96309018  , 918.5907    , 30.68057    , 820.091431  , 2.71        , 7           , 255         , 0           , 0
-0.09561731 , 0.181125432 , -9.791051   , -0.000451834, 2.13971362E-07, -0.000124429687, -0.0187178589, -0.009206938, 1.96308887  , 918.5907    , 30.68057    , 820.0924    , 2.72        , 7           , 255         , 0           , 0
-0.09853655 , 0.178543463 , -9.78436    , -0.0007985933, -0.000111139147, -3.92249931E-05, -0.0187258441, -0.009208056, 1.96308839  , 918.555237  , 30.68091    , 820.0934    , 2.73        , 7           , 255         , 0           , 0
-0.09576319 , 0.183371142 , -9.789522   , -0.000273110636, -0.0007619674, 0.000738517265, -0.0187286418, -0.00921553653, 1.9630959   , 918.555237  , 30.68091    , 820.09436   , 2.74        , 7           , 255         , 0           , 0
-0.102418043, 0.185613587 , -9.789297   , 0.0003256605, 2.78790249E-05, 0.000369558868, -0.01872542 , -0.009215185, 1.96309972  , 918.555237  , 30.68091    , 820.095337  , 2.75        , 7           , 255         , 0           , 0
-0.09421746 , 0.179746792 , -9.788958   , -0.000235428466, -9.681948E-05, 0.000684540137, -0.0187278371, -0.009216026, 1.96310663  , 918.555237  , 30.68091    , 820.0963    , 2.76        , 7           , 255         , 0           , 0
-0.08223751 , 0.1856718   , -9.799195   , -0.000194193548, -4.906353E-05, 4.448305E-05, -0.0187297836, -0.00921651 , 1.96310711  , 918.555237  , 30.68091    , 820.0973    , 2.77        , 7           , 255         , 0           , 0
-0.09272076 , 0.182651863 , -9.799602   , -8.199598E-05, 7.453561E-05, 8.779047E-05, -0.0187306143, -0.009215748, 1.963108    , 918.555237  , 30.68091    , 820.098267  , 2.78        , 7           , 255         , 0           , 0
-0.09167005 , 0.190485373 , -9.794275   , -0.000243262315, -0.000238048844, -0.0008298971, -0.0187329669, -0.009218283, 1.96309972  , 918.555237  , 30.68091    , 820.099243  , 2.79        , 7           , 255         , 0           , 0
-0.07711593 , 0.1903131   , -9.794368   , 0.000128137748, -0.000126934552, -0.000221205555, -0.0187316667, -0.009219593, 1.96309745  , 918.555237  , 30.68091    , 820.1002    , 2.8         , 7           , 255         , 0           , 0
-0.0829898641, 0.187595084 , -9.794916   , 0.000150745167, -5.081354E-06, -0.0005437945, -0.0187318735, -0.009223745, 1.96309209  , 918.555237  , 30.68091    , 820.093933  , 2.81        , 7           , 255         , 0           , 0
-0.08932537 , 0.187419474 , -9.793748   , 0.0003573567, -0.000283186149, -0.000400186284, -0.0187282637, -0.00922665 , 1.96308827  , 918.555237  , 30.68091    , 820.094849  , 2.82        , 7           , 255         , 0           , 0
-0.08606364 , 0.1826954   , -9.790978   , 0.0006179607, -0.000588427531, 0.000428480824, -0.0187221225, -0.009232451, 1.96309268  , 918.557251  , 30.6841     , 820.095764  , 2.83        , 7           , 255         , 0           , 0
-0.08665576 , 0.1914414   , -9.795901   , 0.000279478234, -0.00018981687, -0.0005276854, -0.01871928 , -0.009234449, 1.96308744  , 918.557251  , 30.6841     , 820.0967    , 2.84        , 7           , 255         , 0           , 0
-0.08663394 , 0.193182632 , -9.801826   , 7.178289E-05, -0.000290537137, -1.22171623E-05, -0.0187185612, -0.00923735648, 1.96308732  , 918.557251  , 30.6841     , 820.0976    , 2.85        , 7           , 255         , 0           , 0
-0.0887427852, 0.183103859 , -9.791918   , 0.000385741238, -8.319836E-05, -4.46070335E-05, -0.0187147036, -0.00923819747, 1.963087    , 918.557251  , 30.6841     , 820.0985    , 2.86        , 7           , 255         , 0           , 0
