Acc X       , Acc Y       , Acc Z       , Gyro X      , Gyro Y      , Gyro Z      , Euler X     , Euler Y     , Euler Z     , Pres X      , Pres Y      , Pres Z      , Time        , Status      , LowRate X   , LowRate Y   , LowRate Z    
-0.15394254 , -0.102514774, 9.788183    , 0           , 0           , 0           , 3.13111973  , -0.0157252271, 0           , 921.611755  , 32.8756676  , 792.526733  , 0           , 2           , 0           , 5.920232    , 0
-0.151028559, -0.103896439, 9.802014    , 0.000135739392, -0.000108283828, 0.000312549178, 3.131121    , -0.0157245453, -3.13695841E-06, 921.611755  , 32.8756676  , 792.526733  , 0.01        , 3           , 1           , 0           , 0
-0.151068419, -0.100066587, 9.801596    , -0.000269505719, 4.7224923E-05, -0.000390177069, 3.1311183   , -0.0157249719, 7.699279E-07, 921.611755  , 32.8756676  , 792.526733  , 0.02        , 3           , 2           , 0           , 0
-0.1493009  , -0.0971704  , 9.795241    , -6.404845E-05, -0.000183469267, -0.000228376433, 3.13111758  , -0.0157231148, 3.03458069E-06, 921.572632  , 32.44962    , 792.526733  , 0.03        , 3           , 3           , 0           , 0
-0.149550676, -0.09835279 , 9.791747    , -9.048864E-05, 0.00018258128, 0.000544336333, 3.13111663  , -0.0157249961, -2.38990924E-06, 921.572632  , 32.44962    , 792.526733  , 0.04        , 3           , 4           , 0           , 0
-0.157464772, -0.09698625 , 9.801264    , 0.000113729213, 1.9427971E-05, 0.000460243144, 3.131118    , -0.0157252382, -6.990506E-06, 921.572632  , 32.44962    , 792.526733  , 0.05        , 3           , 5           , 0           , 0
-0.160798877, -0.0965932  , 9.798542    , -0.000347175461, 0.00034351644, 0.0003105094, 3.13111448  , -0.0157287065, -1.00597326E-05, 921.572632  , 32.44962    , 792.526733  , 0.06        , 3           , 6           , 0           , 0
-0.15790011 , -0.0969241858, 9.798107    , -0.0001300876, 0.000304967427, -0.000234945721, 3.13111329  , -0.0157317314, -7.678198E-06, 921.572632  , 32.44962    , 792.526733  , 0.07        , 3           , 7           , 0           , 0
-0.1568071  , -0.09364729 , 9.804727    , 0.000575167 , 0.000161070144, -0.0002504759, 3.131119    , -0.0157333165, -5.15644E-06, 921.572632  , 32.44962    , 792.526733  , 0.08        , 3           , 8           , 5           , 5
-0.155516475, -0.09084735 , 9.808463    , -9.41929757E-05, 1.60092022E-05, 0.0006712824, 3.131118    , -0.0157335475, -1.18678863E-05, 921.572632  , 32.44962    , 792.526733  , 0.09        , 3           , 9           , 5           , 0.1
-0.153134286, -0.104023874, 9.799846    , -6.886211E-05, 0.000352840434, 0.0005403476, 3.13111734  , -0.0157371331, -1.72346572E-05, 921.572632  , 32.44962    , 792.526733  , 0.1         , 3           , 10          , 0.1         , 0.1
-0.158516243, -0.1084609  , 9.795       , 9.904709E-05, 0.000164820172, 0.000255416933, 3.13113141  , -0.0157391522, -1.99767019E-05, 921.572632  , 32.44962    , 792.881     , 0.11        , 3           , 11          , 0.0109544508, 0.0109544508
-0.156717628, -0.108322836, 9.800775    , -8.1094855E-05, -6.02680375E-05, 0.00049260247, 3.1311307   , -0.0157386  , -2.49092554E-05, 921.572632  , 32.44962    , 792.881     , 0.12        , 3           , 12          , 0.174642488 , 0
-0.141861752, -0.110675059, 9.794527    , 8.343102E-05, 3.88350454E-05, 0.0005580856, 3.13113165  , -0.0157390479, -3.04862988E-05, 921.5812    , 32.4902573  , 792.881     , 0.13        , 3           , 13          , 0           , 0
-0.144339412, -0.1121219  , 9.792059    , -0.000125817314, 2.034253E-05, -0.000465312245, 3.13113046  , -0.0157392025, -2.58308482E-05, 921.5812    , 32.4902573  , 792.881042  , 0.14        , 3           , 14          , -0.000735917, -0.000605872832
-0.1528667  , -0.112298295, 9.801389    , -0.000245085219, 1.61045464E-05, -0.0004932926, 3.13112783  , -0.0157393124, -2.089601E-05, 921.5812    , 32.4902573  , 792.8811    , 0.15        , 3           , 15          , 0           , -0.000148296967
-0.156038463, -0.109243825, 9.797129    , -7.302669E-05, 3.73873045E-05, 0.000452264765, 3.131127    , -0.0157397334, -2.54149618E-05, 921.5812    , 32.4902573  , 792.881165  , 0.16        , 3           , 16          , 0           , 1.401298E-45
-0.15100418 , -0.103160761, 9.796962    , 1.207157E-05, -0.000186411839, 0.000153343 , 3.13112736  , -0.0157378856, -2.69679585E-05, 921.5812    , 32.4902573  , 792.8812    , 0.17        , 3           , 20          , 0           , 0
-0.162238643, -0.113474324, 9.7997      , -0.000382230035, 0.0004761671, 0.001111156 , 3.13112378  , -0.0157427583, -3.80301753E-05, 921.5812    , 32.4902573  , 792.8813    , 0.18        , 3           , 21          , 0           , 0
-0.163823515, -0.103998065, 9.791826    , 0.000320540625, 0.000135235779, 0.000297897845, 3.13112688  , -0.0157441422, -4.099513E-05, 921.5812    , 32.4902573  , 792.881348  , 0.19        , 3           , 22          , 0           , 0
-0.1505054  , -0.09362839 , 9.789827    , 0.000251437 , 5.91672724E-05, -0.000112585636, 3.1311295   , -0.0157447215, -3.98630327E-05, 921.5812    , 32.4902573  , 792.8814    , 0.2         , 3           , 40          , 0           , 0
-0.157674134, -0.09742816 , 9.799201    , -0.000746938749, -0.0001047884, -0.000439546246, 3.13110566  , -0.0157422945, -3.52210482E-05, 921.5812    , 32.4902573  , 792.8417    , 0.21        , 3           , 41          , 0           , 0
-0.168375015, -0.09016194 , 9.795248    , -0.000291130855, -9.614258E-05, -0.0008476131, 3.13110256  , -0.015741244, -2.67546184E-05, 921.5812    , 32.4902573  , 792.841736  , 0.22        , 3           , 42          , 0           , 0
-0.159663677, -0.09068471 , 9.800112    , 9.43233E-05 , 0.000176200469, 1.41674391E-05, 3.13110352  , -0.015743006, -2.68778331E-05, 921.573364  , 32.51502    , 792.8418    , 0.23        , 3           , 255         , 0           , 0
-0.160537   , -0.0918351859, 9.807563    , 0.000396008458, 6.231479E-05, 0.0004060915, 3.13110757  , -0.015743671, -3.093239E-05, 921.573364  , 32.51502    , 792.841858  , 0.24        , 3           , 255         , 0           , 0
-0.15371491 , -0.09599383 , 9.799455    , 0.000427742722, 0.000225626485, 0.000450690219, 3.13111186  , -0.0157459751, -3.54158474E-05, 921.573364  , 32.51502    , 792.8419    , 0.25        , 3           , 255         , 0           , 0
-0.1428388  , -0.0938887149, 9.793188    , 5.21281036E-05, 0.000478167174, 0.000110488967, 3.13111234  , -0.0157507677, -3.64706648E-05, 921.573364  , 32.51502    , 792.842     , 0.26        , 3           , 255         , 0           , 0
-0.146921456, -0.08966185 , 9.796626    , 0.000450376217, 0.000467136 , -0.0005417217, 3.13111687  , -0.0157553814, -3.100426E-05, 921.573364  , 32.51502    , 792.842041  , 0.27        , 3           , 255         , 0           , 0
-0.146679789, -0.09932096 , 9.802496    , 0.000442477583, 0.0003330377, 0.000261027075, 3.13112116  , -0.0157587379, -3.357977E-05, 921.573364  , 32.51502    , 792.8421    , 0.28        , 3           , 255         , 0           , 0
-0.1576345  , -0.0917260051, 9.801183    , 0.000275117432, 7.333484E-05, -3.17889353E-05, 3.131124    , -0.0157594681, -3.325418E-05, 921.573364  , 32.51502    , 792.842163  , 0.29        , 3           , 255         , 0           , 0
-0.160262257, -0.09198267 , 9.798365    , -0.000329630217, 7.957278E-05, 0.000227713608, 3.13112068  , -0.0157602876, -3.55231E-05, 921.573364  , 32.51502    , 792.8422    , 0.3         , 3           , 255         , 0           , 0
-0.151370019, -0.09924569 , 9.800036    , 4.29828069E-05, 0.000109920511, 0.0003643555, 3.13114643  , -0.0157644  , -3.955148E-05, 921.573364  , 32.51502    , 792.8528    , 0.31        , 3           , 255         , 0           , 0
-0.147268578, -0.1080621  , 9.795882    , -0.0001482233, 0.0002839176, -0.000214446525, 3.13114476  , -0.0157672167, -3.73772746E-05, 921.573364  , 32.51502    , 792.852844  , 0.32        , 3           , 255         , 0           , 0
-0.146501347, -0.113361262, 9.797041    , -5.307491E-06, -1.98311755E-05, 4.69159E-05 , 3.13114476  , -0.015767023, -3.784853E-05, 921.62146   , 32.53198    , 792.8529    , 0.33        , 3           , 255         , 0           , 0
-0.1503813  , -0.110287271, 9.79204     , -7.31769251E-05, -4.63758479E-05, 0.000373144168, 3.131144    , -0.0157665983, -4.15849827E-05, 921.62146   , 32.53198    , 792.852966  , 0.34        , 3           , 255         , 0           , 0
-0.150479048, -0.107047617, 9.798179    , 0.000162771787, 0.000523176 , 0.0004518024, 3.13114572  , -0.0157718714, -4.60485571E-05, 921.62146   , 32.53198    , 792.853     , 0.35        , 3           , 255         , 0           , 0
-0.149369463, -0.11163111 , 9.795082    , -6.786303E-05, 0.0002731612, 0.000451859436, 3.13114524  , -0.01577465 , -5.05388125E-05, 921.62146   , 32.53198    , 792.8531    , 0.36        , 3           , 255         , 0           , 0
-0.154628843, -0.102495171, 9.797065    , 0.000449473329, -0.000577550149, 4.71464664E-05, 3.13114977  , -0.01576888 , -5.10706341E-05, 921.62146   , 32.53198    , 792.853149  , 0.37        , 3           , 255         , 0           , 0
-0.152525753, -0.103889048, 9.797894    , 0.0004612579, -0.0002992435, 0.000355959521, 3.1311543   , -0.01576593 , -5.466162E-05, 921.62146   , 32.53198    , 792.8532    , 0.38        , 3           , 255         , 0           , 0
-0.143965036, -0.110284343, 9.793436    , 0.000498706242, 0.000234390725, -5.29894751E-05, 3.13115931  , -0.0157682654, -5.410724E-05, 921.62146   , 32.53198    , 792.8533    , 0.39        , 3           , 255         , 0           , 0
-0.146958277, -0.102111146, 9.794613    , 0.000387849519, 4.94630076E-05, 0.000425415055, 3.13116336  , -0.0157688055, -5.835642E-05, 921.62146   , 32.53198    , 792.853333  , 0.4         , 3           , 255         , 0           , 0
-0.156416267, -0.105929054, 9.802786    , 0.0002921977, -0.000214795291, 0.0006302689, 3.13115263  , -0.0157510079, -6.446622E-05, 921.62146   , 32.53198    , 792.7486    , 0.41        , 3           , 255         , 0           , 0
-0.155054346, -0.103036143, 9.797789    , 0.00016034802, 6.520125E-05, 9.36476E-05 , 3.1311543   , -0.0157516673, -6.539592E-05, 921.62146   , 32.53198    , 792.748657  , 0.42        , 3           , 255         , 0           , 0
-0.153876483, -0.109135345, 9.799502    , 0.0004864816, -7.98463E-05, -0.0005427783, 3.131159    , -0.0157508124, -5.99762352E-05, 921.613831  , 32.54134    , 792.7487    , 0.43        , 3           , 255         , 0           , 0
-0.154497936, -0.110148333, 9.803589    , -0.0003866732, 0.000226576958, -0.0009468041, 3.131155    , -0.01575298 , -5.04841155E-05, 921.613831  , 32.54134    , 792.7488    , 0.44        , 3           , 255         , 0           , 0
-0.151871   , -0.105917349, 9.799244    , -0.000222096045, 0.000487277925, 0.000109627028, 3.13115287  , -0.01575786 , -5.152957E-05, 921.613831  , 32.54134    , 792.7489    , 0.45        , 3           , 255         , 0           , 0
-0.144422352, -0.09888267 , 9.798403    , -0.000127464882, 0.000555293343, 0.00016110843, 3.13115168  , -0.0157634262, -5.30827419E-05, 921.613831  , 32.54134    , 792.749     , 0.46        , 3           , 255         , 0           , 0
-0.1489947  , -0.100060262, 9.790776    , -0.000193972315, -0.0002960569, -0.000781706, 3.13114953  , -0.0157603864, -4.52962522E-05, 921.613831  , 32.54134    , 792.749146  , 0.47        , 3           , 255         , 0           , 0
-0.1539174  , -0.10253866 , 9.791601    , 2.90084281E-05, -0.000164797239, 0.000121719386, 3.13114977  , -0.015758751, -4.65306948E-05, 921.613831  , 32.54134    , 792.749268  , 0.48        , 3           , 255         , 0           , 0
-0.157978028, -0.1059116  , 9.802641    , 0.000184670382, 8.44138558E-05, 0.000898824132, 3.131152    , -0.0157596879, -5.551053E-05, 921.613831  , 32.54134    , 792.7494    , 0.49        , 3           , 255         , 0           , 0
-0.150203466, -0.1064686  , 9.796972    , -0.000167092949, 8.49182252E-05, 0.000182448159, 3.13115025  , -0.0157605559, -5.7326215E-05, 921.613831  , 32.54134    , 792.7495    , 0.5         , 3           , 255         , 0           , 0
-0.157689139, -0.09278614 , 9.80146     , 0.00020741683, 0.000373689953, 0.000196902954, 3.13114572  , -0.01575989 , -5.915203E-05, 921.613831  , 32.54134    , 792.700256  , 0.51        , 3           , 255         , 0           , 0
-0.1551153  , -0.102657512, 9.803272    , -1.7756538E-05, 0.000214755913, 5.23846466E-05, 3.13114548  , -0.0157620423, -5.96534628E-05, 921.613831  , 32.54134    , 792.7004    , 0.52        , 3           , 255         , 0           , 0
-0.1543928  , -0.10622225 , 9.801683    , 0.000123248377, 0.000118921947, -0.0004046075, 3.13114667  , -0.01576319 , -5.55947772E-05, 921.590637  , 32.55335    , 792.7005    , 0.53        , 3           , 255         , 0           , 0
-0.15157178 , -0.09872539 , 9.808752    , 0.000232903112, 0.0003348781, -0.000419197953, 3.13114882  , -0.0157664958, -5.13676423E-05, 921.590637  , 32.55335    , 792.7006    , 0.54        , 3           , 255         , 0           , 0
-0.145877674, -0.105379917, 9.802594    , 0.000353152864, 0.000158219045, -3.76639946E-05, 3.13115239  , -0.0157680735, -5.09744859E-05, 921.590637  , 32.55335    , 792.700745  , 0.55        , 3           , 255         , 0           , 0
-0.15809688 , -0.112315677, 9.798559    , 3.41963023E-05, 0.000386410946, 0.000200031776, 3.13115287  , -0.0157719553, -5.2934538E-05, 921.590637  , 32.55335    , 792.700867  , 0.56        , 3           , 255         , 0           , 0
-0.162900746, -0.119447961, 9.79400349  , 0.0004715938, 8.246605E-05, 0.000112057183, 3.13115764  , -0.0157727916, -5.404656E-05, 921.590637  , 32.55335    , 792.701     , 0.57        , 3           , 255         , 0           , 0
-0.163900688, -0.117333971, 9.795906    , -1.22447382E-05, -0.000164298981, 0.000531679136, 3.1311574   , -0.0157712065, -5.93807381E-05, 921.590637  , 32.55335    , 792.7011    , 0.58        , 3           , 255         , 0           , 0
-0.1548341  , -0.115278088, 9.794531    , 0.000309625058, -5.746103E-05, 0.000589382253, 3.13116074  , -0.0157706924, -6.52808158E-05, 921.590637  , 32.55335    , 792.701233  , 0.59        , 3           , 255         , 0           , 0
-0.14710474 , -0.107817434, 9.794527    , 0.000276579172, 0.000157748087, 0.000101205136, 3.13116336  , -0.01577228 , -6.627645E-05, 921.590637  , 32.55335    , 792.701355  , 0.6         , 3           , 255         , 0           , 0
-0.150721788, -0.109013855, 9.80492     , -0.000117573654, 0.000292784651, -0.000160013646, 3.131149    , -0.01577667 , -6.443732E-05, 921.590637  , 32.55335    , 792.7044    , 0.61        , 3           , 255         , 0           , 0
-0.142599523, -0.113058984, 9.796437    , -0.0005877023, -4.518061E-05, -0.000146293576, 3.131143    , -0.0157762021, -6.297905E-05, 921.590637  , 32.55335    , 792.7045    , 0.62        , 3           , 255         , 0           , 0
-0.145414814, -0.115560032, 9.800081    , 6.7588524E-05, -0.000115664734, 0.000535142957, 3.13114381  , -0.0157751013, -6.834281E-05, 921.6442    , 32.5580978  , 792.704651  , 0.63        , 3           , 255         , 0           , 0
-0.14991577 , -0.1185719  , 9.79847     , 0.000581445056, 0.000292093377, 0.000177687543, 3.13114977  , -0.0157780387, -7.008926E-05, 921.6442    , 32.5580978  , 792.7048    , 0.64        , 3           , 255         , 0           , 0
-0.1522127  , -0.09755029 , 9.797812    , -1.979334E-05, 0.000145897618, 0.0006338247, 3.13114977  , -0.015779566, -7.64125652E-05, 921.6442    , 32.5580978  , 792.7049    , 0.65        , 3           , 255         , 0           , 0
-0.156827942, -0.09734545 , 9.795631    , -8.598098E-05, 5.722529E-05, -2.14490137E-05, 3.13114882  , -0.0157801379, -7.619207E-05, 921.6442    , 32.5580978  , 792.705     , 0.66        , 3           , 255         , 0           , 0
-0.165945143, -0.09675138 , 9.792033    , 8.524279E-05, 5.17370645E-05, 0.000585616333, 3.13114977  , -0.0157807153, -8.204311E-05, 921.6442    , 32.5580978  , 792.705139  , 0.67        , 3           , 255         , 0           , 0
-0.15012309 , -0.09687271 , 9.78601     , 0.000235321 , 0.000160254771, -0.000190957624, 3.13115215  , -0.0157822967, -8.011671E-05, 921.6442    , 32.5580978  , 792.705261  , 0.68        , 3           , 255         , 0           , 0
-0.152116746, -0.09523024 , 9.799434    , -0.0004780016, -0.0001378766, 2.68475633E-05, 3.13114738  , -0.015780922, -8.03996E-05, 921.6442    , 32.5580978  , 792.7054    , 0.69        , 3           , 255         , 0           , 0
-0.159783214, -0.103142895, 9.802242    , -0.000511566352, 2.355798E-05, 2.291266E-05, 3.13114214  , -0.01578116 , -8.062628E-05, 921.6442    , 32.5580978  , 792.7055    , 0.7         , 3           , 255         , 0           , 0
-0.156143829, -0.117459252, 9.805735    , 0.000143559009, 0.0003140225, 0.000247286865, 3.13113832  , -0.0157789178, -8.298333E-05, 921.6442    , 32.5580978  , 792.6339    , 0.71        , 3           , 255         , 0           , 0
-0.155061886, -0.104771063, 9.809492    , 0.000582758861, 0.000587996154, 0.000531030761, 3.13114429  , -0.01578485 , -8.823242E-05, 921.6442    , 32.5580978  , 792.634033  , 0.72        , 3           , 255         , 0           , 0
-0.15029183 , -0.101360396, 9.807239    , 0.000412208523, 0.0002801428, -0.000341555162, 3.13114834  , -0.0157876164, -8.47874544E-05, 921.574768  , 32.564      , 792.634155  , 0.73        , 3           , 255         , 0           , 0
-0.153776586, -0.102417663, 9.795948    , -0.000291770382, 0.000124473852, -0.000348515, 3.13114548  , -0.0157888234, -8.128916E-05, 921.574768  , 32.564      , 792.6343    , 0.74        , 3           , 255         , 0           , 0
-0.153632149, -0.10698209 , 9.800955    , -0.0008257606, 8.380599E-05, -0.0002156151, 3.13113713  , -0.01578964 , -7.912414E-05, 921.574768  , 32.564      , 792.6344    , 0.75        , 3           , 255         , 0           , 0
-0.139983118, -0.1054693  , 9.80347     , 4.15671966E-05, 0.0001275983, -0.000422664278, 3.13113737  , -0.01579087 , -7.48839739E-05, 921.574768  , 32.564      , 792.6345    , 0.76        , 3           , 255         , 0           , 0
-0.147827417, -0.115122184, 9.79418     , -0.000379129255, 0.0001771333, -0.000284547743, 3.13113356  , -0.015792612, -7.201985E-05, 921.574768  , 32.564      , 792.634644  , 0.77        , 3           , 255         , 0           , 0
-0.157125682, -0.104796216, 9.794206    , -0.000127610052, 0.000404267979, 0.0005457228, 3.13113236  , -0.01579671 , -7.743502E-05, 921.574768  , 32.564      , 792.634766  , 0.78        , 3           , 255         , 0           , 0
-0.151463076, -0.110133871, 9.7981      , -0.000590817246, 0.000566864561, 0.000380638929, 3.13112664  , -0.0158024188, -8.118228E-05, 921.574768  , 32.564      , 792.6349    , 0.79        , 3           , 255         , 0           , 0
-0.156631425, -0.099751316, 9.799528    , 9.173388E-05, 0.000373643881, 0.00113573321, 3.1311276   , -0.0158062726, -9.2501E-05 , 921.574768  , 32.564      , 792.635     , 0.8         , 3           , 255         , 0           , 0
-0.157911867, -0.09384828 , 9.793877    , 0.000195137225, -0.000119583274, 0.000590044656, 3.1311202   , -0.01579955 , -9.826412E-05, 921.574768  , 32.564      , 792.6664    , 0.81        , 3           , 255         , 0           , 0
-0.151349321, -0.09772389 , 9.801155    , 0.000121348014, -0.0002223191, -0.000523749855, 3.1311214   , -0.0157972723, -9.304967E-05, 921.574768  , 32.564      , 792.666565  , 0.82        , 3           , 255         , 0           , 0
-0.150084183, -0.104266644, 9.792963    , 0.000660485763, 3.30770272E-05, -0.0001979681, 3.13112783  , -0.0157975815, -9.106643E-05, 921.597534  , 32.5638657  , 792.666748  , 0.83        , 3           , 255         , 0           , 0
-0.1501108  , -0.105706476, 9.796991    , 0.0002677591, 9.428541E-05, 0.0007933334, 3.1311307   , -0.0157986078, -9.899027E-05, 921.597534  , 32.5638657  , 792.666931  , 0.84        , 3           , 255         , 0           , 0
-0.136378884, -0.104317568, 9.787874    , 0.000275356433, 0.000146048842, 0.0005556158, 3.13113356  , -0.01580013 , -0.000104531406, 921.597534  , 32.5638657  , 792.6671    , 0.85        , 3           , 255         , 0           , 0
-0.147726208, -0.09822606 , 9.785389    , -0.000451437139, 3.52680217E-07, 0.0005849956, 3.131129    , -0.0158001911, -0.00011038161, 921.597534  , 32.5638657  , 792.6673    , 0.86        , 3           , 255         , 0           , 0
-0.15494065 , -0.097408   , 9.799641    , 0.000432263885, -0.000210158119, 6.32654E-05 , 3.13113356  , -0.0157980975, -0.000111036265, 921.597534  , 32.5638657  , 792.6675    , 0.87        , 3           , 255         , 0           , 0
-0.165131122, -0.0982312039, 9.79775     , 0.000144185207, 1.14966533E-05, 0.000202542607, 3.131135    , -0.0157982316, -0.000113060574, 921.597534  , 32.5638657  , 792.667664  , 0.88        , 3           , 255         , 0           , 0
-0.161287308, -0.10507796 , 9.802521    , 0.000562860456, 8.825521E-05, 0.000455702975, 3.13114071  , -0.0157991629, -0.000117608586, 921.597534  , 32.5638657  , 792.667847  , 0.89        , 3           , 255         , 0           , 0
-0.156353682, -0.110545419, 9.79722     , 0.0005000177, -5.197624E-05, 0.0001868752, 3.13114572  , -0.0157986619, -0.000119482858, 921.597534  , 32.5638657  , 792.668     , 0.9         , 3           , 255         , 0           , 0
-0.155806184, -0.107189104, 9.801221    , -0.000219016685, -9.606028E-05, 0.0005208341, 3.13114619  , -0.0157931373, -0.000124742452, 921.597534  , 32.5638657  , 792.666931  , 0.91        , 3           , 255         , 0           , 0
-0.157688364, -0.109695077, 9.798841    , -0.0004975485, 1.76995527E-05, 0.000463842647, 3.13114119  , -0.0157933645, -0.00012937923, 921.597534  , 32.5638657  , 792.6671    , 0.92        , 3           , 255         , 0           , 0
-0.152459592, -0.113727048, 9.800401    , -0.0002218901, 0.0005005345, -3.14907666E-05, 3.131139    , -0.0157983638, -0.000129011984, 921.6092    , 32.5656281  , 792.6673    , 0.93        , 3           , 255         , 0           , 0
-0.144836262, -0.102817833, 9.795702    , -0.000161712815, 0.000317263068, -0.000190982348, 3.13113737  , -0.0158015154, -0.00012706891, 921.6092    , 32.5656281  , 792.6675    , 0.94        , 3           , 255         , 0           , 0
-0.15525347 , -0.1060138  , 9.799438    , -0.00035839132, 0.000188639882, -0.000439743453, 3.13113379  , -0.0158033557, -0.000122651574, 921.6092    , 32.5656281  , 792.667664  , 0.95        , 3           , 255         , 0           , 0
-0.156645328, -0.09429784 , 9.787313    , -0.000370600843, 5.12283877E-05, 0.0005164324, 3.13113022  , -0.015803922, -0.000127810781, 921.6092    , 32.5656281  , 792.667847  , 0.96        , 3           , 255         , 0           , 0
-0.153471515, -0.09612776 , 9.792616    , -0.000254478655, 4.65759076E-05, 0.000458912866, 3.1311276   , -0.0158044342, -0.000132395246, 921.6092    , 32.5656281  , 792.668     , 0.97        , 3           , 255         , 0           , 0
-0.154059425, -0.09761812 , 9.802686    , 0.0001534961, 0.0001650549, -3.39255348E-05, 3.13112926  , -0.01580608 , -0.000132038724, 921.6092    , 32.5656281  , 792.6682    , 0.98        , 3           , 255         , 0           , 0
-0.155226812, -0.102397516, 9.803328    , 0.000209773076, 0.0003383027, 0.00043345103, 3.13113141  , -0.01580951 , -0.000136338029, 921.6092    , 32.5656281  , 792.6684    , 0.99        , 3           , 255         , 0           , 0
-0.159267336, -0.0971741155, 9.801417    , -0.000102260732, 4.79234732E-05, 4.473317E-05, 3.13113022  , -0.0158099923, -0.000136780363, 921.6092    , 32.5656281  , 792.6686    , 1           , 3           , 0           , 6.92023659  , 100
-0.150095865, -0.09563266 , 9.797254    , 7.83707947E-05, 5.49891847E-05, -4.27134219E-05, 3.13113046  , -0.01580963 , -0.000136338713, 921.6092    , 32.5656281  , 792.654663  , 1.01        , 3           , 1           , 0           , 0
-0.151890457, -0.106566928, 9.798778    , -0.000294420344, -0.000238457287, 0.0003943171, 3.1311276   , -0.0158072859, -0.000140306991, 921.6092    , 32.5656281  , 792.654846  , 1.02        , 3           , 2           , 0           , 0
-0.15454416 , -0.110920943, 9.799779    , 0.000135216571, 0.000427750841, -9.10350354E-06, 3.131129    , -0.0158115625, -0.0001401712, 921.607056  , 32.5722771  , 792.655     , 1.03        , 3           , 3           , 0           , 0
-0.153165966, -0.1051992  , 9.801868    , 0.0005029541, 0.00020843235, 0.000240951631, 3.131134    , -0.01581367 , -0.000142559016, 921.607056  , 32.5722771  , 792.6552    , 1.04        , 3           , 4           , 0           , 0
-0.159973741, -0.107115306, 9.799671    , 0.000753038854, 0.000152166467, 0.0004397329, 3.13114166  , -0.0158152375, -0.000146940627, 921.607056  , 32.5722771  , 792.6554    , 1.05        , 3           , 5           , 0           , 0
-0.1593479  , -0.107295215, 9.797142    , 0.0003410988, 0.0003733663, -0.0005773968, 3.131145    , -0.01581891 , -0.0001411274, 921.607056  , 32.5722771  , 792.6556    , 1.06        , 3           , 6           , 0           , 0
-0.161535665, -0.1086027  , 9.799189    , -2.64955452E-05, -6.290933E-05, -0.000205485267, 3.13114476  , -0.01581826 , -0.000139079013, 921.607056  , 32.5722771  , 792.655762  , 1.07        , 3           , 7           , 0           , 0
-0.1579677  , -0.107834257, 9.806482    , -0.000352299132, -0.000536548265, 0.0001985584, 3.13114119  , -0.0158129167, -0.000141120763, 921.607056  , 32.5722771  , 792.655945  , 1.08        , 3           , 8           , 5           , 5
-0.155457422, -0.1134095  , 9.798365    , 0.000704702048, -0.000104597013, 7.710261E-05, 3.13114834  , -0.01581188 , -0.000141902783, 921.607056  , 32.5722771  , 792.6561    , 1.09        , 3           , 9           , 5           , 0.1
-0.154174119, -0.11504402 , 9.798376    , -2.03278032E-05, -0.000240649155, -0.000124820508, 3.131148    , -0.0158094615, -0.000140679651, 921.607056  , 32.5722771  , 792.6563    , 1.1         , 3           , 10          , 0.1         , 0.1
-0.146353066, -0.111762844, 9.797155    , -9.59557947E-05, -0.000136172515, 0.000184537173, 3.1311357   , -0.0158098545, -0.000142360615, 921.607056  , 32.5722771  , 792.6465    , 1.11        , 3           , 11          , 0.009605473 , 0.009605473
-0.149988919, -0.106532812, 9.801041    , -0.000117930293, -1.8112245E-05, 0.00011028436, 3.13113475  , -0.015809685, -0.000143465411, 921.607056  , 32.5722771  , 792.646667  , 1.12        , 3           , 12          , 0.174642846 , 0
-0.159321517, -0.104310453, 9.800826    , -0.000433623034, -1.56605383E-05, -3.69349727E-05, 3.13113022  , -0.0158095248, -0.000143097684, 921.601257  , 32.5735664  , 792.646851  , 1.13        , 3           , 13          , 0           , 0
-0.1655511  , -0.0983521342, 9.793255    , -0.000295332924, -0.000174889632, -0.0006532549, 3.13112736  , -0.0158077069, -0.000136583141, 921.601257  , 32.5735664  , 792.647034  , 1.14        , 3           , 14          , -0.0007358812, -0.000605854439
-0.162584558, -0.09365807 , 9.798553    , 0.000201455725, -0.0002495615, 0.0005114657, 3.13112926  , -0.0158052649, -0.000141724144, 921.601257  , 32.5735664  , 792.6472    , 1.15        , 3           , 15          , 0           , -0.000148296211
-0.163241476, -0.100562572, 9.802313    , 0.00015718647, 8.32841E-05 , 0.0009579975, 3.13113117  , -0.0158061981, -0.000151295826, 921.601257  , 32.5735664  , 792.6474    , 1.16        , 3           , 16          , 0           , 1.401298E-45
-0.164482161, -0.09514482 , 9.797626    , 0.0005016193, 6.094406E-05, 0.00108818733, 3.13113618  , -0.015806919, -0.000162171826, 921.601257  , 32.5735664  , 792.6476    , 1.17        , 3           , 20          , 0           , 0
-0.163414091, -0.09738346 , 9.793177    , 0.000122055237, 0.0002327796, 0.00032688654, 3.13113761  , -0.0158092827, -0.0001654165, 921.601257  , 32.5735664  , 792.647766  , 1.18        , 3           , 21          , 0           , 0
-0.147389442, -0.08948965 , 9.802852    , 8.65117763E-05, 0.000192820415, 0.0006624381, 3.13113856  , -0.0158112813, -0.000172021042, 921.601257  , 32.5735664  , 792.647949  , 1.19        , 3           , 22          , 0           , 0
-0.149909943, -0.100721   , 9.803914    , 0.000188101782, -0.0001366086, -0.000341051578, 3.13114023  , -0.0158098787, -0.00016862464, 921.601257  , 32.5735664  , 792.648132  , 1.2         , 3           , 40          , 0           , 0
-0.15608415 , -0.101634525, 9.802533    , -7.816986E-05, -5.70920529E-05, -0.000202495808, 3.13114548  , -0.0158142727, -0.000166699159, 921.601257  , 32.5735664  , 792.6455    , 1.21        , 3           , 41          , 0           , 0
-0.146699145, -0.101998471, 9.794184    , 0.0005418847, 0.000203303673, 0.0003123468, 3.131151    , -0.0158163384, -0.00016980154, 921.601257  , 32.5735664  , 792.6457    , 1.22        , 3           , 42          , 0           , 0
-0.136182517, -0.100350179, 9.792807    , 0.000167581136, -5.96402679E-05, -8.15511157E-05, 3.13115263  , -0.0158157349, -0.000168992236, 921.575134  , 32.57499    , 792.6459    , 1.23        , 3           , 255         , 0           , 0
-0.150519341, -0.101919331, 9.790274    , 1.81269133E-05, 0.0003646115, -0.0003492529, 3.13115263  , -0.0158193447, -0.000165461475, 921.575134  , 32.57499    , 792.646057  , 1.24        , 3           , 255         , 0           , 0
-0.162274778, -0.109777734, 9.800768    , 0.000365277752, 0.000243290735, 0.00014158024, 3.13115644  , -0.0158217922, -0.00016685194, 921.575134  , 32.57499    , 792.64624   , 1.25        , 3           , 255         , 0           , 0
-0.1554561  , -0.107313618, 9.807482    , 0.0004325747, 0.000148985157, -0.000438303745, 3.13116074  , -0.0158232357, -0.000162453129, 921.575134  , 32.57499    , 792.6464    , 1.26        , 3           , 255         , 0           , 0
-0.155106872, -0.116565607, 9.796759    , -0.000468415616, -0.000165883452, -0.000364946027, 3.131156    , -0.0158215389, -0.000158820811, 921.575134  , 32.57499    , 792.6466    , 1.27        , 3           , 255         , 0           , 0
-0.151722819, -0.121208549, 9.796387    , 6.220711E-06, -8.6641754E-05, -4.040316E-05, 3.131156    , -0.015820669, -0.000158425813, 921.575134  , 32.57499    , 792.6468    , 1.28        , 3           , 255         , 0           , 0
-0.1588647  , -0.11762289 , 9.802842    , -0.000342591375, 0.000335299672, 0.000742663746, 3.13115263  , -0.0158241019, -0.000165817779, 921.575134  , 32.57499    , 792.647     , 1.29        , 3           , 255         , 0           , 0
-0.154640257, -0.118053272, 9.797275    , 9.5862255E-05, 8.802925E-05, 0.000151124084, 3.13115358  , -0.0158249978, -0.000167319871, 921.575134  , 32.57499    , 792.647156  , 1.3         , 3           , 255         , 0           , 0
-0.15038684 , -0.104405917, 9.805876    , 0.000628445239, -0.0002845119, 0.000785024255, 3.13114381  , -0.0158172045, -0.000174943139, 921.575134  , 32.57499    , 792.6716    , 1.31        , 3           , 255         , 0           , 0
-0.152771264, -0.100225605, 9.796972    , 0.0002399084, -0.000424344325, 0.0005950249, 3.13114619  , -0.0158130229, -0.000180938019, 921.575134  , 32.57499    , 792.6719    , 1.32        , 3           , 255         , 0           , 0
-0.152739137, -0.104232036, 9.801759    , 0.0007011993, -0.000425873324, -0.000438467716, 3.131153    , -0.0158087239, -0.0001765976, 921.592041  , 32.5751953  , 792.6722    , 1.33        , 3           , 255         , 0           , 0
-0.147424474, -0.106346644, 9.793268    , -2.17598281E-05, -0.000307758572, 4.54331166E-06, 3.131153    , -0.0158056412, -0.000176675167, 921.592041  , 32.5751953  , 792.6725    , 1.34        , 3           , 255         , 0           , 0
-0.15898481 , -0.106265523, 9.79381752  , 7.86601449E-05, 0.000399309851, 0.00109360449, 3.131154    , -0.015809752, -0.00018757 , 921.592041  , 32.5751953  , 792.6728    , 1.35        , 3           , 255         , 0           , 0
-0.156407729, -0.09291403 , 9.800974    , 0.00011798687, 0.000217619323, 0.000815262 , 3.13115525  , -0.01581201 , -0.0001957003, 921.592041  , 32.5751953  , 792.6731    , 1.36        , 3           , 255         , 0           , 0
-0.153208777, -0.101199582, 9.80028     , 0.000250509271, -0.000446305959, -9.95155E-05, 3.13115788  , -0.0158075336, -0.000194751672, 921.592041  , 32.5751953  , 792.6734    , 1.37        , 3           , 255         , 0           , 0
-0.160054177, -0.108856693, 9.796899    , 0.000451146538, -0.0001942821, 0.000114788563, 3.13116241  , -0.0158056021, -0.000195919914, 921.592041  , 32.5751953  , 792.6737    , 1.38        , 3           , 255         , 0           , 0
-0.159385279, -0.101182088, 9.7981205   , 0.000193211483, -9.455369E-05, -0.000395484327, 3.131164    , -0.0158046149, -0.000191974745, 921.592041  , 32.5751953  , 792.674     , 1.39        , 3           , 255         , 0           , 0
-0.156444043, -0.09534885 , 9.800894    , -0.000327159767, 0.000348221918, -0.000115820541, 3.131161    , -0.015808085, -0.000190780134, 921.592041  , 32.5751953  , 792.6743    , 1.4         , 3           , 255         , 0           , 0
-0.151016563, -0.09935709 , 9.800128    , -0.000191223866, -0.00017026643, 0.0001266414, 3.13115931  , -0.0158060975, -0.0001920709, 921.592041  , 32.5751953  , 792.678345  , 1.41        , 3           , 255         , 0           , 0
-0.157140583, -0.103551939, 9.803442    , 0.000237029977, 1.48293329E-05, 7.440525E-06, 3.13116169  , -0.0158062465, -0.000192143765, 921.592041  , 32.5751953  , 792.67865   , 1.42        , 3           , 255         , 0           , 0
-0.159462422, -0.102833427, 9.796705    , 0.000297383667, -0.000309410563, -0.000579644169, 3.13116455  , -0.015803095, -0.000186379344, 921.584     , 32.5735664  , 792.678955  , 1.43        , 3           , 255         , 0           , 0
-0.148801357, -0.106139764, 9.800276    , 1.29886321E-05, -5.7209807E-05, 9.8397184E-05, 3.13116479  , -0.0158025324, -0.000187369325, 921.584     , 32.5735664  , 792.67926   , 1.44        , 3           , 255         , 0           , 0
-0.144798577, -0.1051754  , 9.803037    , -0.000248366967, -0.000323956716, 0.00119118835, 3.13116241  , -0.0157994181, -0.0001993155, 921.584     , 32.5735664  , 792.6796    , 1.45        , 3           , 255         , 0           , 0
-0.155869022, -0.09813694 , 9.792395    , 0.00061094  , 0.0001719539, 0.00045630103, 3.1311686   , -0.015801182, -0.000203860764, 921.584     , 32.5735664  , 792.68      , 1.46        , 3           , 255         , 0           , 0
-0.152094662, -0.09806004 , 9.792831    , -0.000200939889, -0.000339871156, -0.0002710981, 3.1311667   , -0.0157977566, -0.000201185117, 921.584     , 32.5735664  , 792.680359  , 1.47        , 3           , 255         , 0           , 0
-0.151814073, -0.10376294 , 9.800084    , -0.000128369487, 6.212556E-05, 0.000185314508, 3.13116527  , -0.0157983974, -0.000203031857, 921.584     , 32.5735664  , 792.6807    , 1.48        , 3           , 255         , 0           , 0
-0.144875914, -0.105860367, 9.801697    , 0.0006524659, -5.74920559E-05, 0.000342469662, 3.131172    , -0.0157978572, -0.00020646269, 921.584     , 32.5735664  , 792.6811    , 1.49        , 3           , 255         , 0           , 0
-0.156759843, -0.12175224 , 9.796399    , -1.949328E-05, 1.78472255E-05, -0.00019430356, 3.1311717   , -0.0157980137, -0.000204517724, 921.584     , 32.5735664  , 792.681458  , 1.5         , 3           , 255         , 0           , 0
-0.14736639 , -0.112992682, 9.815644    , -0.000257272972, -0.0003226294, -1.51192362E-05, 3.13116455  , -0.0157894529, -0.000204326279, 921.584     , 32.5735664  , 792.6935    , 1.51        , 3           , 255         , 0           , 0
-0.1462358  , -0.113530256, 9.806702    , 0.000347669731, 0.000235699146, 0.0006241203, 3.13116813  , -0.0157918762, -0.0002105432, 921.584     , 32.5735664  , 792.6939    , 1.52        , 3           , 255         , 0           , 0
-0.14591448 , -0.104952917, 9.802816    , 0.000206009485, -0.000130251108, 0.0004887162, 3.13117027  , -0.0157906245, -0.000215444132, 921.55426   , 32.5787239  , 792.694336  , 1.53        , 3           , 255         , 0           , 0
-0.15792723 , -0.1075052  , 9.800352    , 0.000676305848, 0.0002802805, -0.0008477978, 3.13117671  , -0.0157933384, -0.000206936573, 921.55426   , 32.5787239  , 792.694763  , 1.54        , 3           , 255         , 0           , 0
-0.153119534, -0.100697234, 9.791342    , -0.00015148439, 0.000543853559, -0.0004982513, 3.13117528  , -0.0157987233, -0.000201897186, 921.55426   , 32.5787239  , 792.6952    , 1.55        , 3           , 255         , 0           , 0
-0.162021011, -0.0907640457, 9.801437    , -0.000506663229, 0.000304844434, -5.12421539E-05, 3.13117     , -0.015801765, -0.000201352959, 921.55426   , 32.5787239  , 792.6956    , 1.56        , 3           , 255         , 0           , 0
-0.156003758, -0.09591684 , 9.80596352  , -0.000298965257, -0.000296304817, 0.0004581053, 3.13116717  , -0.01579885 , -0.000205965116, 921.55426   , 32.5787239  , 792.696045  , 1.57        , 3           , 255         , 0           , 0
-0.150481984, -0.09468906 , 9.799133    , 0.0001641722, 3.72795039E-05, 0.0002312341, 3.13116884  , -0.0157992467, -0.000208273632, 921.55426   , 32.5787239  , 792.6965    , 1.58        , 3           , 255         , 0           , 0
-0.14492701 , -0.0946603641, 9.80553     , 9.05356137E-05, -0.000479081529, -0.0004401795, 3.1311698   , -0.0157944113, -0.000203921591, 921.55426   , 32.5787239  , 792.6969    , 1.59        , 3           , 255         , 0           , 0
-0.148727909, -0.0929281563, 9.802198    , 0.0009515304, -0.000187048747, 0.0003918132, 3.13117933  , -0.0157925822, -0.000207859382, 921.55426   , 32.5787239  , 792.6973    , 1.6         , 3           , 255         , 0           , 0
-0.154212475, -0.0923004746, 9.801842    , 0.000345955516, 1.50611741E-05, 0.000126781044, 3.13118482  , -0.0157867372, -0.00020915881, 921.55426   , 32.5787239  , 792.739746  , 1.61        , 3           , 255         , 0           , 0
-0.157805   , -0.100413963, 9.813448    , 0.0003920321, -0.0005784494, -0.000122028316, 3.13118887  , -0.01578094 , -0.000207998673, 921.55426   , 32.5787239  , 792.7404    , 1.62        , 3           , 255         , 0           , 0
-0.162758112, -0.0983537  , 9.795199    , 0.000507073244, -0.000169292034, 0.000412812427, 3.13119388  , -0.01577929 , -0.000212144572, 921.569946  , 32.5774345  , 792.7411    , 1.63        , 3           , 255         , 0           , 0
-0.153677553, -0.1068847  , 9.790105    , 0.00043886347, -0.000275629864, 0.000118251293, 3.13119841  , -0.0157765448, -0.000213355786, 921.569946  , 32.5774345  , 792.74176   , 1.64        , 3           , 255         , 0           , 0
-0.157890156, -0.103361629, 9.801029    , -0.00053278514, -5.70210977E-05, -0.000710874563, 3.131193    , -0.0157759022, -0.000206252647, 921.569946  , 32.5774345  , 792.742432  , 1.65        , 3           , 255         , 0           , 0
-0.158743426, -0.106411122, 9.801211    , -0.000246656418, -0.000302462373, -0.0006961579, 3.1311903   , -0.0157728065, -0.000199322181, 921.569946  , 32.5774345  , 792.7431    , 1.66        , 3           , 255         , 0           , 0
-0.149609029, -0.109175324, 9.811401    , -0.0006316229, -5.18842135E-05, 0.000151228916, 3.131184    , -0.0157723036, -0.000200839931, 921.569946  , 32.5774345  , 792.7438    , 1.67        , 3           , 255         , 0           , 0
-0.153039828, -0.105028436, 9.800289    , -0.000201035989, 0.000132926682, 0.0002598202, 3.131182    , -0.01577366 , -0.000203424439, 921.569946  , 32.5774345  , 792.744446  , 1.68        , 3           , 255         , 0           , 0
-0.140699655, -0.1166998  , 9.804917    , 0.0002273054, 5.1553885E-05, 0.0008220376, 3.13118458  , -0.0157742612, -0.00021163981, 921.569946  , 32.5774345  , 792.7451    , 1.69        , 3           , 255         , 0           , 0
-0.152460784, -0.118073866, 9.799165    , -0.000161710428, -0.000155855611, -4.14447422E-05, 3.131183    , -0.0157726984, -0.000211241568, 921.569946  , 32.5774345  , 792.7458    , 1.7         , 3           , 255         , 0           , 0
-0.156278312, -0.121211469, 9.795786    , 0.0001147397, -0.0002259182, -0.0005659091, 3.13117743  , -0.0157694  , -0.000205503835, 921.569946  , 32.5774345  , 792.7667    , 1.71        , 3           , 255         , 0           , 0
-0.145130083, -0.11328204 , 9.795347    , 0.0003144374, 0.000138892385, -1.60187483E-07, 3.13118052  , -0.01577079 , -0.00020548774, 921.569946  , 32.5774345  , 792.7675    , 1.72        , 3           , 255         , 0           , 0
-0.154235154, -0.109505117, 9.789673    , 0.0005926719, 0.000333739124, 0.00117379765, 3.13118672  , -0.0157742444, -0.000217191482, 921.602661  , 32.5785866  , 792.7683    , 1.73        , 3           , 255         , 0           , 0
-0.150814012, -0.118641868, 9.796019    , 0.000502690964, -0.000281818968, -0.000182232543, 3.13119173  , -0.0157714114, -0.000215398381, 921.602661  , 32.5785866  , 792.7691    , 1.74        , 3           , 255         , 0           , 0
-0.153220668, -0.109046355, 9.801638    , -0.000567298441, -0.0003954717, -2.186255E-05, 3.131186    , -0.0157674514, -0.0002152209, 921.602661  , 32.5785866  , 792.7699    , 1.75        , 3           , 255         , 0           , 0
-0.163904309, -0.110509217, 9.803148    , -0.0003433177, -0.0003073287, 0.000568821852, 3.13118267  , -0.01576444 , -0.000220941365, 921.602661  , 32.5785866  , 792.7707    , 1.76        , 3           , 255         , 0           , 0
-0.155238226, -0.0996192  , 9.799191    , -0.000110777386, -0.000295104634, 0.000810424564, 3.13118172  , -0.015761571, -0.0002290767, 921.602661  , 32.5785866  , 792.7715    , 1.77        , 3           , 255         , 0           , 0
-0.146687463, -0.09788108 , 9.807163    , 0.0005682184, 2.45074043E-05, 0.000489610131, 3.13118744  , -0.0157618672, -0.000233970481, 921.602661  , 32.5785866  , 792.7723    , 1.78        , 3           , 255         , 0           , 0
-0.149228573, -0.100993611, 9.80129051  , 0.000460296753, 0.000229572062, 0.0003470063, 3.13119221  , -0.0157642011, -0.00023741684, 921.602661  , 32.5785866  , 792.7731    , 1.79        , 3           , 255         , 0           , 0
-0.14878349 , -0.0927983  , 9.802292    , 0.000839663961, 5.64060174E-05, 9.289079E-05, 3.13120055  , -0.0157647766, -0.000238339911, 921.602661  , 32.5785866  , 792.773865  , 1.8         , 3           , 255         , 0           , 0
-0.136539072, -0.09413913 , 9.800047    , -6.865419E-05, 0.00025694436, 0.000171347114, 3.13118958  , -0.0157631654, -0.000239864, 921.602661  , 32.5785866  , 792.754761  , 1.81        , 3           , 255         , 0           , 0
-0.151761577, -0.0947485343, 9.800325    , -0.000280887529, 0.000241713045, 0.0002998134, 3.13118672  , -0.0157656129, -0.000242837152, 921.602661  , 32.5785866  , 792.755432  , 1.82        , 3           , 255         , 0           , 0
-0.146311522, -0.09450525 , 9.80191     , -0.0005154161, 6.7855115E-05, -6.605992E-05, 3.13118172  , -0.0157662835, -0.000242169452, 921.641     , 32.5792656  , 792.7561    , 1.83        , 3           , 255         , 0           , 0
-0.149425969, -0.09314288 , 9.797982    , -0.000487330428, 0.0003423132, 0.0004201664, 3.13117671  , -0.01576975 , -0.000246335636, 921.641     , 32.5792656  , 792.7568    , 1.84        , 3           , 255         , 0           , 0
-0.153383374, -0.102679893, 9.797062    , -5.15547E-05, 0.000429322681, 1.64264929E-06, 3.13117623  , -0.0157740414, -0.000246307376, 921.641     , 32.5792656  , 792.757446  , 1.85        , 3           , 255         , 0           , 0
-0.151835456, -0.103112817, 9.791539    , 0.00010476436, 0.000140133721, -0.000242949158, 3.13117719  , -0.0157754179, -0.000243863135, 921.641     , 32.5792656  , 792.7581    , 1.86        , 3           , 255         , 0           , 0
-0.156709135, -0.106644452, 9.789444    , 0.0005059537, -0.000445219, -0.000311195559, 3.13118219  , -0.0157709345, -0.0002407974, 921.641     , 32.5792656  , 792.7588    , 1.87        , 3           , 255         , 0           , 0
-0.160055354, -0.107294932, 9.796698    , 0.000116606592, -0.000248653, -5.119467E-05, 3.13118339  , -0.0157684479, -0.0002403113, 921.641     , 32.5792656  , 792.7595    , 1.88        , 3           , 255         , 0           , 0
-0.154321223, -0.112335369, 9.791971    , -9.886193E-05, -0.000146697275, 0.000216738321, 3.13118243  , -0.0157669988, -0.000242494076, 921.641     , 32.5792656  , 792.760254  , 1.89        , 3           , 255         , 0           , 0
-0.151676282, -0.108565785, 9.794834    , -0.000225524651, -0.0003538801, 0.000241309346, 3.13118029  , -0.0157634839, -0.000244944124, 921.641     , 32.5792656  , 792.761     , 1.9         , 3           , 255         , 0           , 0
-0.153620631, -0.106994584, 9.798094    , 0.0005438739, -0.000181937939, 0.00058141147, 3.13118649  , -0.0157544054, -0.000250788726, 921.641     , 32.5792656  , 792.6981    , 1.91        , 3           , 255         , 0           , 0
-0.16113697 , -0.103943229, 9.810903    , 0.000276953069, -0.000166300335, -0.0002515788, 3.13118935  , -0.0157527123, -0.000248290162, 921.641     , 32.5792656  , 792.6984    , 1.92        , 3           , 255         , 0           , 0
-0.15452078 , -0.09819998 , 9.796405    , 0.000112065696, -0.0001941697, 2.205203E-05, 3.1311903   , -0.0157507733, -0.000248530938, 921.608154  , 32.581028   , 792.6988    , 1.93        , 3           , 255         , 0           , 0
-0.156069219, -0.105105914, 9.800446    , 0.000417964853, -0.000252767582, -0.0007038789, 3.13119435  , -0.0157481711, -0.000241518108, 921.608154  , 32.581028   , 792.699158  , 1.94        , 3           , 255         , 0           , 0
-0.158850655, -0.109390393, 9.794907    , 0.000580740045, -0.000244059367, -0.000418868323, 3.13120031  , -0.01574569 , -0.000237354587, 921.608154  , 32.581028   , 792.6995    , 1.95        , 3           , 255         , 0           , 0
-0.15276739 , -0.103684887, 9.797931    , -0.000265141949, -0.0002689741, -0.000553813356, 3.13119745  , -0.01574294 , -0.000231844169, 921.608154  , 32.581028   , 792.6999    , 1.96        , 3           , 255         , 0           , 0
-0.1486089  , -0.104196861, 9.795746    , 0.000507870864, -0.000147568, 4.683315E-05, 3.13120246  , -0.0157414712, -0.00023232786, 921.608154  , 32.581028   , 792.700256  , 1.97        , 3           , 255         , 0           , 0
-0.158006281, -0.0994001  , 9.799849    , 0.000200266775, 6.875384E-05, 0.0005942849, 3.13120461  , -0.0157422218, -0.000238263819, 921.608154  , 32.581028   , 792.7006    , 1.98        , 3           , 255         , 0           , 0
-0.147420973, -0.102577791, 9.795338    , 0.0009038653, 1.64505327E-05, -6.239378E-05, 3.13121367  , -0.015742382, -0.0002376382, 921.608154  , 32.581028   , 792.701     , 1.99        , 3           , 255         , 0           , 0
-0.144721627, -0.104402326, 9.789159    , 0.00041362425, -0.000176174217, 0.000157005634, 3.13121772  , -0.015740633, -0.00023922656, 921.608154  , 32.581028   , 792.701355  , 2           , 3           , 0           , 7.92023659  , 200
-0.155364022, -0.108950473, 9.79932     , 0.000176300528, -0.000238159031, 0.000342850515, 3.13121581  , -0.0157368463, -0.000242620008, 921.608154  , 32.581028   , 792.6834    , 2.01        , 3           , 1           , 0           , 0
-0.159677491, -0.10534887 , 9.799506    , -0.0006041305, 0.000106663734, 0.000160106327, 3.13120985  , -0.01573793 , -0.000244210067, 921.608154  , 32.581028   , 792.683655  , 2.02        , 3           , 2           , 0           , 0
-0.15265587 , -0.100119926, 9.791027    , 2.02912488E-05, 7.746881E-05, -0.000220067755, 3.13121     , -0.0157386828, -0.000242001217, 921.571533  , 32.5842857  , 792.6839    , 2.03        , 3           , 3           , 0           , 0
-0.154067665, -0.09919037 , 9.799078    , -6.866478E-05, 0.000237831817, -0.00100453582, 3.13120914  , -0.015740959, -0.00023193071, 921.571533  , 32.5842857  , 792.684143  , 2.04        , 3           , 4           , 0           , 0
-0.15722999 , -0.09110612 , 9.807035    , 7.972331E-05, -6.168941E-05, -0.0001991616, 3.13120985  , -0.0157403182, -0.0002299454, 921.571533  , 32.5842857  , 792.6844    , 2.05        , 3           , 5           , 0           , 0
-0.1553594  , -0.102448687, 9.809851    , -5.23441122E-05, -0.000246366777, 0.000484809047, 3.13120937  , -0.0157379042, -0.0002348193, 921.571533  , 32.5842857  , 792.684631  , 2.06        , 3           , 6           , 0           , 0
-0.138248369, -0.103338741, 9.798769    , 0.000573043 , -0.000358460762, 0.0002380833, 3.13121533  , -0.0157343447, -0.000237237487, 921.571533  , 32.5842857  , 792.6849    , 2.07        , 3           , 7           , 0           , 0
-0.143779039, -0.10407839 , 9.794563    , -4.461367E-05, -0.000274398655, 0.0005175715, 3.13121486  , -0.0157316532, -0.000242441922, 921.571533  , 32.5842857  , 792.6851    , 2.08        , 3           , 8           , 5           , 5
-0.1495145  , -0.108175837, 9.804696    , 8.69895448E-05, -6.471551E-05, 0.00105867826, 3.13121581  , -0.0157311168, -0.000253035862, 921.571533  , 32.5842857  , 792.685364  , 2.09        , 3           , 9           , 5           , 0.1
-0.140619755, -0.10957472 , 9.793337    , 3.825035E-05, -0.000472669781, 0.00050385535, 3.13121629  , -0.0157264434, -0.0002581237, 921.571533  , 32.5842857  , 792.6856    , 2.1         , 3           , 10          , 0.1         , 0.1
-0.153788179, -0.106620312, 9.805583    , -0.000153662753, -0.0004780977, 7.65804944E-05, 3.13121223  , -0.0157152731, -0.000258898159, 921.571533  , 32.5842857  , 792.7141    , 2.11        , 3           , 11          , 0.008714039 , 0.008714039
-0.1491387  , -0.102979004, 9.799708    , 0.000231387734, -0.000397660653, 3.4642726E-05, 3.13121462  , -0.0157113038, -0.000259285851, 921.571533  , 32.5842857  , 792.714539  , 2.12        , 3           , 12          , 0.174643889 , 0
-0.149500474, -0.107561328, 9.795425    , 0.000474067056, -0.000110610796, 0.000162260578, 3.13121939  , -0.015710216, -0.000260920031, 921.5641    , 32.5829964  , 792.714966  , 2.13        , 3           , 13          , 0           , 0
-0.146926448, -0.107473709, 9.799043    , -0.000259183231, -0.000440062839, 0.00015402479, 3.13121676  , -0.0157058313, -0.000262506015, 921.5641    , 32.5829964  , 792.7154    , 2.14        , 3           , 14          , -0.0007358099, -0.000605782261
-0.149240509, -0.107372463, 9.802876    , -0.000108739128, 1.98208145E-05, 0.0005336848, 3.13121581  , -0.0157060847, -0.000267841, 921.5641    , 32.5829964  , 792.7158    , 2.15        , 3           , 15          , 0           , -0.0001482943
-0.1561121  , -0.09859787 , 9.79927     , 0.000174923684, -0.000396839343, 0.0006999374, 3.13121772  , -0.015702188, -0.0002748819, 921.5641    , 32.5829964  , 792.716248  , 2.16        , 3           , 16          , 0           , 1.401298E-45
-0.151891991, -0.110411778, 9.797488    , 7.17970543E-05, -0.000288890558, 0.0001075176, 3.13121843  , -0.0156993084, -0.0002759871, 921.5641    , 32.5829964  , 792.7167    , 2.17        , 3           , 20          , 0           , 0
-0.150007635, -0.107015826, 9.800909    , 0.000259304215, -0.0006733468, 0.000806204043, 3.131221    , -0.01569266 , -0.0002841194, 921.5641    , 32.5829964  , 792.7171    , 2.18        , 3           , 21          , 0           , 0
-0.1476278  , -0.101254165, 9.802141    , 3.92172951E-05, -0.000254569924, -0.000466884638, 3.13122129  , -0.0156900659, -0.000279476779, 921.5641    , 32.5829964  , 792.7176    , 2.19        , 3           , 22          , 0           , 0
-0.156195864, -0.10163448 , 9.80246     , 0.00058267283, -0.000123123056, -8.440296E-05, 3.13122725  , -0.0156888273, -0.000278645457, 921.5641    , 32.5829964  , 792.7181    , 2.2         , 3           , 40          , 0           , 0
-0.156032979, -0.105646513, 9.792455    , 0.000338020676, -6.619544E-05, -0.000217603781, 3.13122487  , -0.0156832766, -0.000276387058, 921.5641    , 32.5829964  , 792.752869  , 2.21        , 3           , 41          , 0           , 0
-0.155466884, -0.09786544 , 9.80475     , 0.000633634569, -3.15221841E-05, 0.00059431314, 3.13123131  , -0.0156830214, -0.000282333727, 921.5641    , 32.5829964  , 792.75354   , 2.22        , 3           , 42          , 0           , 0
-0.15015538 , -0.08390774 , 9.790236    , 0.000102487917, 0.000136343762, 3.16917E-05 , 3.13123226  , -0.0156843886, -0.000282636523, 921.566162  , 32.5844879  , 792.7542    , 2.23        , 3           , 255         , 0           , 0
-0.16574344 , -0.106131971, 9.789282    , -0.0001297344, -8.8974426E-05, 0.000574613165, 3.131231    , -0.0156835578, -0.000288392126, 921.566162  , 32.5844879  , 792.7549    , 2.24        , 3           , 255         , 0           , 0
-0.15463683 , -0.110366426, 9.79245949  , -0.000233793515, -2.710236E-05, 0.000537298736, 3.131229    , -0.0156833436, -0.000293768157, 921.566162  , 32.5844879  , 792.755554  , 2.25        , 3           , 255         , 0           , 0
-0.144124433, -0.102038942, 9.805587    , -0.000271468482, 0.000282383437, 0.000564521353, 3.1312263   , -0.0156862251, -0.000299384352, 921.566162  , 32.5844879  , 792.7562    , 2.26        , 3           , 255         , 0           , 0
-0.152353764, -0.100399815, 9.800408    , 0.000107311935, -0.0002758706, -0.0002385962, 3.13122725  , -0.0156834424, -0.000297026883, 921.566162  , 32.5844879  , 792.7569    , 2.27        , 3           , 255         , 0           , 0
-0.152589381, -0.110531606, 9.801095    , 0.000337657053, -0.0006574053, -1.83827942E-05, 3.13123059  , -0.0156768709, -0.0002969112, 921.566162  , 32.5844879  , 792.757568  , 2.28        , 3           , 255         , 0           , 0
-0.145822361, -0.106252752, 9.802257    , -0.0005280397, -0.000432659348, 0.000192975393, 3.13122535  , -0.0156725589, -0.000298885861, 921.566162  , 32.5844879  , 792.75824   , 2.29        , 3           , 255         , 0           , 0
-0.1403294  , -0.101631939, 9.799391    , -0.000662654231, -0.000679194869, 0.00055072573, 3.131219    , -0.0156658273, -0.0003044638, 921.566162  , 32.5844879  , 792.7589    , 2.3         , 3           , 255         , 0           , 0
-0.150519878, -0.105502352, 9.796974    , 6.298814E-05, -0.0004173488, 0.000322923064, 3.13121772  , -0.0156580061, -0.000307708862, 921.566162  , 32.5844879  , 792.7865    , 2.31        , 3           , 255         , 0           , 0
-0.1495058  , -0.102054335, 9.801754    , -0.000161230739, 0.000121185265, 0.000705400133, 3.13121629  , -0.0156592932, -0.0003147506, 921.566162  , 32.5844879  , 792.787354  , 2.32        , 3           , 255         , 0           , 0
-0.149053723, -0.104216971, 9.79626751  , 3.578898E-05, 6.350246E-05, -0.000587848248, 3.13121653  , -0.0156598687, -0.000308865274, 921.6065    , 32.5857773  , 792.7882    , 2.33        , 3           , 255         , 0           , 0
-0.14283897 , -0.0944062546, 9.800565    , 0.0008288182, 0.0001828628, -0.0006694393, 3.13122463  , -0.0156616271, -0.00030215166, 921.6065    , 32.5857773  , 792.789063  , 2.34        , 3           , 255         , 0           , 0
-0.150620058, -0.106051043, 9.80147     , 3.896316E-05, -1.02020567E-06, -0.0002722687, 3.131225    , -0.0156615879, -0.000299428939, 921.6065    , 32.5857773  , 792.7899    , 2.35        , 3           , 255         , 0           , 0
-0.153201967, -0.10389962 , 9.802577    , -0.0004829709, -6.316649E-05, -1.935281E-05, 3.13122034  , -0.0156609546, -0.000299241947, 921.6065    , 32.5857773  , 792.790833  , 2.36        , 3           , 255         , 0           , 0
-0.150129169, -0.09871781 , 9.805814    , 0.000125642284, -0.000251189165, 0.0002878495, 3.13122153  , -0.0156584736, -0.000302146625, 921.6065    , 32.5857773  , 792.791748  , 2.37        , 3           , 255         , 0           , 0
-0.15407896 , -0.09406843 , 9.802916    , -0.000124496117, 0.00013836025, 0.000840059249, 3.13122034  , -0.0156599451, -0.000310533243, 921.6065    , 32.5857773  , 792.792664  , 2.38        , 3           , 255         , 0           , 0
-0.152857542, -0.106546208, 9.806101    , 5.80815831E-05, 0.0006042328, -0.000482625532, 3.13122082  , -0.0156659335, -0.00030564412, 921.6065    , 32.5857773  , 792.7936    , 2.39        , 3           , 255         , 0           , 0
-0.152747139, -0.11163877 , 9.797228    , 0.0006218242, 0.0005573815, -8.954536E-06, 3.13122725  , -0.0156715047, -0.000305496738, 921.6065    , 32.5857773  , 792.7945    , 2.4         , 3           , 255         , 0           , 0
-0.142000824, -0.103808679, 9.799614    , 7.083686E-05, -0.0002513812, -0.00025669043, 3.131226    , -0.0156642944, -0.000302928966, 921.6065    , 32.5857773  , 792.764343  , 2.41        , 3           , 255         , 0           , 0
-0.162509188, -0.1085207  , 9.80391     , -0.000144784222, 0.000136070215, 1.02965569E-05, 3.13122463  , -0.0156656578, -0.00030301782, 921.6065    , 32.5857773  , 792.7651    , 2.42        , 3           , 255         , 0           , 0
-0.150072142, -0.115218379, 9.803475    , 0.00015957898, -8.62370944E-05, -0.000191657382, 3.1312263   , -0.0156647749, -0.000301110122, 921.5712    , 32.5858459  , 792.7658    , 2.43        , 3           , 255         , 0           , 0
-0.15204227 , -0.113606393, 9.796293    , 0.0005232345, 0.0005529092, -0.0002184914, 3.13123131  , -0.015670279, -0.000298867759, 921.5712    , 32.5858459  , 792.766541  , 2.44        , 3           , 255         , 0           , 0
-0.154859483, -0.102783546, 9.801469    , 6.532966E-05, 8.32298538E-05, -0.0002751596, 3.131232    , -0.0156710818, -0.000296107377, 921.5712    , 32.5858459  , 792.7673    , 2.45        , 3           , 255         , 0           , 0
-0.153825268, -0.102665342, 9.798773    , 0.000476755085, 0.000246205862, 0.000149069412, 3.13123679  , -0.015673561, -0.000297572667, 921.5712    , 32.5858459  , 792.768     , 2.46        , 3           , 255         , 0           , 0
-0.153110653, -0.103377894, 9.802002    , 0.00107986294, -6.7476125E-05, 0.000107751926, 3.13124752  , -0.0156728979, -0.0002986573, 921.5712    , 32.5858459  , 792.768738  , 2.47        , 3           , 255         , 0           , 0
-0.146139935, -0.102535583, 9.802264    , 0.000549763441, -0.000305773166, -0.0001225749, 3.131253    , -0.0156698283, -0.0002974631, 921.5712    , 32.5858459  , 792.7695    , 2.48        , 3           , 255         , 0           , 0
-0.148538038, -0.1058263  , 9.801577    , -0.000380927057, -7.365929E-05, 0.000398052856, 3.13124943  , -0.0156691317, -0.0003014514, 921.5712    , 32.5858459  , 792.7702    , 2.49        , 3           , 255         , 0           , 0
-0.153482988, -0.102225736, 9.801969    , -2.56762723E-05, -0.000312382123, 0.000581934641, 3.13124919  , -0.0156660676, -0.000307303359, 921.5712    , 32.5858459  , 792.770935  , 2.5         , 3           , 255         , 0           , 0
-0.145690054, -0.09677844 , 9.804784    , 0.000342135841, -0.000428108324, 0.000424499274, 3.13124561  , -0.0156588014, -0.000311483425, 921.5712    , 32.5858459  , 792.790649  , 2.51        , 3           , 255         , 0           , 0
-0.1446611  , -0.101077892, 9.799199    , -9.593344E-05, -5.1116047E-05, -0.000442567456, 3.13124466  , -0.0156582445, -0.000307062845, 921.5712    , 32.5858459  , 792.7915    , 2.52        , 3           , 255         , 0           , 0
-0.159290463, -0.103949562, 9.805937    , -4.654168E-06, 0.000158018229, -0.000293177261, 3.13124466  , -0.0156597942, -0.0003041146, 921.57196   , 32.58537    , 792.792358  , 2.53        , 3           , 255         , 0           , 0
-0.154003918, -0.108375952, 9.800713    , -4.16227267E-05, 0.000170594314, -4.659273E-05, 3.13124418  , -0.0156614948, -0.000303631, 921.57196   , 32.58537    , 792.7932    , 2.54        , 3           , 255         , 0           , 0
-0.148298323, -0.105843008, 9.800796    , -0.000111342, 0.0005129252, -0.000380618731, 3.131243    , -0.0156665836, -0.000299771578, 921.57196   , 32.58537    , 792.794067  , 2.55        , 3           , 255         , 0           , 0
-0.154347584, -0.114571773, 9.803488    , 0.000200810842, 7.77235255E-05, -9.670829E-05, 3.131245    , -0.015667351, -0.0002987964, 921.57196   , 32.58537    , 792.7949    , 2.56        , 3           , 255         , 0           , 0
-0.159728855, -0.107208177, 9.80849552  , -0.000346315675, 0.00023968608, -0.0002423757, 3.13124156  , -0.015669724, -0.000296347716, 921.57196   , 32.58537    , 792.7958    , 2.57        , 3           , 255         , 0           , 0
-0.154394791, -0.116346918, 9.799117    , -9.92683345E-05, -3.987353E-05, 0.000103216269, 3.13124061  , -0.0156693365, -0.000297384046, 921.57196   , 32.58537    , 792.796631  , 2.58        , 3           , 255         , 0           , 0
-0.148181424, -0.114543214, 9.801465    , -6.832543E-05, -0.000530583, 0.0006315844, 3.13124     , -0.0156640969, -0.000303755078, 921.57196   , 32.58537    , 792.7975    , 2.59        , 3           , 255         , 0           , 0
-0.151769415, -0.115828112, 9.801025    , -0.000268213917, -0.00030645082, 0.000815856969, 3.13123727  , -0.0156611167, -0.00031194574, 921.57196   , 32.58537    , 792.79834   , 2.6         , 3           , 255         , 0           , 0
-0.15197812 , -0.104174659, 9.801329    , 0.000141568133, 3.1484582E-05, -6.681499E-05, 3.13122869  , -0.0156592112, -0.000311116455, 921.57196   , 32.58537    , 792.8138    , 2.61        , 3           , 255         , 0           , 0
-0.148770362, -0.09755019 , 9.79925251  , -3.71554052E-05, 0.00031210616, -9.450523E-05, 3.13122821  , -0.0156623237, -0.000310139, 921.57196   , 32.58537    , 792.814758  , 2.62        , 3           , 255         , 0           , 0
-0.14416647 , -0.105955288, 9.802941    , -1.66299287E-05, 0.000413992064, 0.000853039266, 3.13122821  , -0.0156665519, -0.000318626873, 921.6239    , 32.58883    , 792.815735  , 2.63        , 3           , 255         , 0           , 0
-0.15569222 , -0.104664184, 9.802656    , 0.000109223765, 0.000254418352, 0.000428806758, 3.1312294   , -0.01566914 , -0.00032288878, 921.6239    , 32.58883    , 792.8167    , 2.64        , 3           , 255         , 0           , 0
-0.151776671, -0.10398607 , 9.800139    , 9.952497E-05, -0.000174697721, 0.000217666253, 3.13123035  , -0.0156674143, -0.000325083645, 921.6239    , 32.58883    , 792.8177    , 2.65        , 3           , 255         , 0           , 0
-0.143116862, -0.103846215, 9.799301    , 0.0004363259, 0.000381073332, -0.000466823054, 3.13123465  , -0.0156711768, -0.000320375722, 921.6239    , 32.58883    , 792.818665  , 2.66        , 3           , 255         , 0           , 0
-0.1510551  , -0.103016332, 9.798951    , -0.000301520049, -0.0003643182, 0.0008831904, 3.13123178  , -0.0156676229, -0.000329245784, 921.6239    , 32.58883    , 792.819641  , 2.67        , 3           , 255         , 0           , 0
-0.1522095  , -0.08891567 , 9.793074    , 0.000129831547, 0.000236603169, 0.000213272346, 3.13123322  , -0.0156700071, -0.000331354066, 921.6239    , 32.58883    , 792.8206    , 2.68        , 3           , 255         , 0           , 0
-0.155877054, -0.09729133 , 9.79682     , 0.000855242368, 0.000411199057, 0.000809328456, 3.1312418   , -0.0156742074, -0.000339405175, 921.6239    , 32.58883    , 792.8216    , 2.69        , 3           , 255         , 0           , 0
-0.149028212, -0.105024435, 9.791397    , 0.000402977457, 0.000201509043, 0.000480558956, 3.131246    , -0.0156762712, -0.0003441901, 921.6239    , 32.58883    , 792.8226    , 2.7         , 3           , 255         , 0           , 0
-0.159684271, -0.0940832347, 9.798712    , 7.614441E-05, 0.000462902477, 0.00062810845, 3.131247    , -0.0156755541, -0.000350426242, 921.6239    , 32.58883    , 792.763245  , 2.71        , 3           , 255         , 0           , 0
-0.156939551, -0.1009501  , 9.794975    , 0.000428510568, 0.000547760457, -3.62735E-05, 3.13125134  , -0.0156810265, -0.000350006856, 921.6239    , 32.58883    , 792.763855  , 2.72        , 3           , 255         , 0           , 0
-0.157574683, -0.104457118, 9.800618    , -0.000167792023, 0.000226998527, 0.000244043214, 3.13124967  , -0.0156833176, -0.000352423842, 921.5931    , 32.58693    , 792.764465  , 2.73        , 3           , 255         , 0           , 0
-0.153567791, -0.105802849, 9.79711151  , -6.143056E-05, -4.29191277E-05, 0.000453355024, 3.13124919  , -0.0156829357, -0.000356962031, 921.5931    , 32.58693    , 792.7651    , 2.74        , 3           , 255         , 0           , 0
-0.1596193  , -0.10641259 , 9.792778    , -0.00022231706, 5.873578E-05, 7.977345E-06, 3.13124681  , -0.0156835224, -0.000357035751, 921.5931    , 32.58693    , 792.7657    , 2.75        , 3           , 255         , 0           , 0
-0.142810985, -0.10831511 , 9.794422    , 2.310332E-05, 0.000150287669, 0.0009535092, 3.13124728  , -0.0156851262, -0.000366555731, 921.5931    , 32.58693    , 792.7663    , 2.76        , 3           , 255         , 0           , 0
-0.151367277, -0.101514891, 9.800756    , 0.000169208448, 3.06472066E-05, 0.000183786877, 3.131249    , -0.0156854466, -0.0003683905, 921.5931    , 32.58693    , 792.7669    , 2.77        , 3           , 255         , 0           , 0
-0.1552044  , -0.108736753, 9.80378     , 0.000483124662, 0.000143776619, 0.000583489134, 3.131254    , -0.015686946, -0.000374210766, 921.5931    , 32.58693    , 792.7675    , 2.78        , 3           , 255         , 0           , 0
-0.155242756, -0.11286322 , 9.795057    , 0.000916582765, -0.0005501012, 0.0007159795, 3.13126326  , -0.01568152 , -0.00038142773, 921.5931    , 32.58693    , 792.7681    , 2.79        , 3           , 255         , 0           , 0
-0.1501532  , -0.106668189, 9.794704    , 0.00018155243, 0.0002492215, 6.554619E-07, 3.131265    , -0.0156840123, -0.000381408521, 921.5931    , 32.58693    , 792.768738  , 2.8         , 3           , 255         , 0           , 0
-0.150151372, -0.113879025, 9.794207    , 0.0005659192, 0.0002480037, 0.00014721413, 3.13126421  , -0.0156874731, -0.000382753817, 921.5931    , 32.58693    , 792.759033  , 2.81        , 3           , 255         , 0           , 0
-0.1515967  , -0.109016143, 9.796877    , 0.000522727962, -2.94757774E-06, 0.0001985959, 3.13126945  , -0.0156874638, -0.000384740182, 921.5931    , 32.58693    , 792.7596    , 2.82        , 3           , 255         , 0           , 0
-0.158494368, -0.108275354, 9.803901    , 0.000324040244, 9.50753456E-05, 0.000132720248, 3.13127279  , -0.0156884287, -0.0003860576, 921.5896    , 32.5881538  , 792.760132  , 2.83        , 3           , 255         , 0           , 0
-0.15138562 , -0.0992482752, 9.801245    , 4.154339E-05, -0.000115569565, 0.000299758918, 3.13127327  , -0.0156873018, -0.000389067252, 921.5896    , 32.5881538  , 792.7607    , 2.84        , 3           , 255         , 0           , 0
-0.1529358  , -0.104297236, 9.797373    , -7.935951E-05, -4.16046241E-05, 0.0005728361, 3.13127255  , -0.0156869441, -0.000394800154, 921.5896    , 32.5881538  , 792.7612    , 2.85        , 3           , 255         , 0           , 0
-0.152352631, -0.105454683, 9.79999     , 0.000129848137, 3.97866825E-06, -5.335569E-05, 3.13127375  , -0.01568698 , -0.000394266157, 921.5896    , 32.5881538  , 792.7618    , 2.86        , 3           , 255         , 0           , 0
-0.140000969, -0.106828891, 9.795998    , -5.319307E-06, -0.000152976136, 0.000805146468, 3.131274    , -0.0156855322, -0.000402333768, 921.5896    , 32.5881538  , 792.7623    , 2.87        , 3           , 255         , 0           , 0
-0.142199665, -0.09943128 , 9.795126    , -1.27031235E-05, -8.951116E-06, -1.67678809E-06, 3.13127375  , -0.0156854428, -0.000402317935, 921.5896    , 32.5881538  , 792.7629    , 2.88        , 3           , 255         , 0           , 0
-0.150890425, -0.09691952 , 9.798944    , 6.295275E-06, 0.000200146751, 0.001061901 , 3.131274    , -0.0156875532, -0.000412916736, 921.5896    , 32.5881538  , 792.7634    , 2.89        , 3           , 255         , 0           , 0
-0.156945556, -0.09759785 , 9.80065     , -0.00025143614, 0.00036663693, -0.000289814256, 3.13127136  , -0.01569119 , -0.000409980654, 921.5896    , 32.5881538  , 792.764     , 2.9         , 3           , 255         , 0           , 0
-0.149446547, -0.102004096, 9.795641    , -0.000222776958, -6.645161E-05, -0.000417846721, 3.13126421  , -0.0156854466, -0.000405731553, 921.5896    , 32.5881538  , 792.759766  , 2.91        , 3           , 255         , 0           , 0
-0.146365076, -0.09655363 , 9.79492     , 0.0005679983, -0.000238721725, 0.000179620751, 3.13127     , -0.0156830773, -0.00040755255, 921.5896    , 32.5881538  , 792.7603    , 2.92        , 3           , 255         , 0           , 0
-0.150191754, -0.105366409, 9.794373    , 0.0006047836, -0.000722476165, -0.000238913359, 3.131276    , -0.01567583 , -0.0004052378, 921.6265    , 32.59107    , 792.760864  , 2.93        , 3           , 255         , 0           , 0
-0.161282375, -0.102279104, 9.797473    , 0.000622093037, -0.000460453215, -0.00030606892, 3.131282    , -0.01567119 , -0.0004022245, 921.6265    , 32.59107    , 792.7614    , 2.94        , 3           , 255         , 0           , 0
-0.1637631  , -0.107083812, 9.800702    , 0.0005942718, 0.000114681665, 0.000193924614, 3.131288    , -0.0156723578, -0.00040415203, 921.6265    , 32.59107    , 792.761963  , 2.95        , 3           , 255         , 0           , 0
-0.161405668, -0.1059083  , 9.799603    , -0.00015046529, 0.000442806981, 0.000192075735, 3.13128662  , -0.0156768057, -0.0004060272, 921.6265    , 32.59107    , 792.7625    , 2.96        , 3           , 255         , 0           , 0
-0.149787933, -0.116637446, 9.797878    , -0.000263052178, -0.0003437444, -0.0003799575, 3.131284    , -0.01567333 , -0.0004022629, 921.6265    , 32.59107    , 792.763062  , 2.97        , 3           , 255         , 0           , 0
-0.149326876, -0.100843   , 9.791612    , -0.0006411708, -6.14421442E-05, -0.0007757638, 3.13127732  , -0.0156726371, -0.00039451124, 921.6265    , 32.59107    , 792.7636    , 2.98        , 3           , 255         , 0           , 0
-0.148116186, -0.100026488, 9.792763    , -0.000611830968, -5.1142415E-05, -7.893423E-05, 3.13127112  , -0.0156721119, -0.000393727183, 921.6265    , 32.59107    , 792.76416   , 2.99        , 3           , 255         , 0           , 0
-0.144183636, -0.102612033, 9.8041      , -0.000102393853, -5.69202821E-05, 0.000524244737, 3.13127017  , -0.0156715978, -0.000398975739, 921.6265    , 32.59107    , 792.7647    , 3           , 3           , 0           , 8.920237    , 300
-0.153799444, -0.103175804, 9.794088    , -0.0008205497, -0.000208546349, 0.0004932939, 3.131257    , -0.0156674944, -0.0004038488, 921.6265    , 32.59107    , 792.7083    , 3.01        , 3           , 1           , 0           , 0
-0.156307027, -0.104440548, 9.802119    , -0.000900817045, 0.000210446888, 0.000183934841, 3.131248    , -0.01566962 , -0.000405666418, 921.6265    , 32.59107    , 792.7085    , 3.02        , 3           , 2           , 0           , 0
-0.154231131, -0.106012858, 9.799436    , -4.377507E-06, 0.000260822359, -0.000823058945, 3.13124776  , -0.0156721417, -0.0003974085, 921.5902    , 32.5901871  , 792.7087    , 3.03        , 3           , 3           , 0           , 0
-0.14985919 , -0.104079723, 9.801305    , -2.90469616E-05, 2.84739072E-05, -0.0008747471, 3.13124728  , -0.0156723373, -0.000388657674, 921.5902    , 32.5901871  , 792.7089    , 3.04        , 3           , 4           , 0           , 0
-0.14938201 , -0.1033334  , 9.791439    , 0.000314665725, -6.2096864E-05, -0.000577716739, 3.13125038  , -0.0156716555, -0.000382886676, 921.5902    , 32.5901871  , 792.709167  , 3.05        , 3           , 5           , 0           , 0
-0.147680357, -0.111869052, 9.794074    , 0.000170529762, 0.000167335267, -0.0004046276, 3.131252    , -0.01567329 , -0.0003788229, 921.5902    , 32.5901871  , 792.7094    , 3.06        , 3           , 6           , 0           , 0
-0.1505368  , -0.113827862, 9.796196    , 0.000190854073, -7.032673E-05, -7.690613E-05, 3.131254    , -0.0156725757, -0.0003780611, 921.5902    , 32.5901871  , 792.709656  , 3.07        , 3           , 7           , 0           , 0
-0.156028628, -0.106799647, 9.801538    , -0.0003003035, 8.537446E-05, 0.0003184463, 3.131251    , -0.015673466, -0.0003812368, 921.5902    , 32.5901871  , 792.7099    , 3.08        , 3           , 8           , 5           , 5
-0.150041088, -0.101872228, 9.803299    , -0.0001957874, 7.348257E-05, 0.0005484592, 3.13124919  , -0.0156742558, -0.000386714062, 921.5902    , 32.5901871  , 792.710144  , 3.09        , 3           , 9           , 5           , 0.1
-0.150749713, -0.105865754, 9.801694    , -0.000105229148, 2.38328939E-05, -0.000346463348, 3.131248    , -0.0156744588, -0.0003832468, 921.5902    , 32.5901871  , 792.7104    , 3.1         , 3           , 10          , 0.1         , 0.1
-0.147566348, -0.107430324, 9.795848    , 0.000325029454, 0.0004156654, 0.000156393871, 3.13124371  , -0.01567588 , -0.0003846483, 921.5902    , 32.5901871  , 792.7128    , 3.11        , 3           , 11          , 0.00804967247, 0.008049672
-0.148382962, -0.09767737 , 9.798044    , -0.000411888934, 0.000175390887, 0.000343234366, 3.13123965  , -0.0156776663, -0.000388062646, 921.5902    , 32.5901871  , 792.7131    , 3.12        , 3           , 12          , 0.174645633 , 0
-0.152672857, -0.09915255 , 9.799372    , -0.000624467968, -2.377294E-05, 0.000295293052, 3.13123345  , -0.01567746 , -0.000391018169, 921.590637  , 32.5912743  , 792.7133    , 3.13        , 3           , 13          , 0           , 0
-0.150851339, -0.104111768, 9.798464    , -0.000183959259, 0.00012997177, -9.507491E-05, 3.13123155  , -0.01567875 , -0.000390053872, 921.590637  , 32.5912743  , 792.713562  , 3.14        , 3           , 14          , -0.000735623646, -0.000605666661
-0.154866844, -0.10840714 , 9.797518    , -0.0001116441, -0.000221591326, 0.000335563556, 3.13123059  , -0.0156765711, -0.0003934326, 921.590637  , 32.5912743  , 792.7138    , 3.15        , 3           , 15          , 0           , -0.000148290186
-0.150630325, -0.102586225, 9.79791     , 0.000394537463, 0.000134976086, 0.0006532632, 3.13123465  , -0.0156779867, -0.000399951619, 921.590637  , 32.5912743  , 792.71405   , 3.16        , 3           , 16          , 0           , 1.401298E-45
-0.1540003  , -0.0970847  , 9.796611    , 0.000144708552, -9.305822E-05, 2.85326241E-05, 3.131236    , -0.01567706 , -0.000400246528, 921.590637  , 32.5912743  , 792.7143    , 3.17        , 3           , 20          , 0           , 0
-0.142777368, -0.103146628, 9.793875    , -0.000298190047, -0.000196805864, 0.0001788501, 3.131233    , -0.0156751089, -0.000402055564, 921.590637  , 32.5912743  , 792.714539  , 3.18        , 3           , 21          , 0           , 0
-0.15359056 , -0.103290893, 9.795854    , 0.000182623335, -0.000215126842, 0.000604616536, 3.131235    , -0.015673019, -0.000408124324, 921.590637  , 32.5912743  , 792.7148    , 3.19        , 3           , 22          , 0           , 0
-0.156497344, -0.10399355 , 9.792868    , 0.000261554378, 0.0001496211, 0.000311435782, 3.13123775  , -0.0156745482, -0.000411223242, 921.590637  , 32.5912743  , 792.715     , 3.2         , 3           , 40          , 0           , 0
-0.152213261, -0.104719326, 9.803874    , -5.87009126E-05, 0.000363658764, 3.20442923E-05, 3.131235    , -0.01567397 , -0.000411474, 921.590637  , 32.5912743  , 792.715942  , 3.21        , 3           , 41          , 0           , 0
-0.151725173, -0.1029181  , 9.81365     , 9.89178661E-05, 0.000435324124, 0.000147288592, 3.131236    , -0.0156783387, -0.0004129019, 921.590637  , 32.5912743  , 792.7162    , 3.22        , 3           , 42          , 0           , 0
-0.156848729, -0.110960528, 9.799914    , -0.000213473919, 0.000475115143, -8.071649E-05, 3.131234    , -0.015683081, -0.000412045483, 921.6333    , 32.5881538  , 792.7165    , 3.23        , 3           , 255         , 0           , 0
-0.150945783, -0.110704087, 9.804249    , 5.52418642E-05, 0.0004533097, 6.18546037E-05, 3.13123441  , -0.0156876184, -0.000412617082, 921.6333    , 32.5881538  , 792.7168    , 3.24        , 3           , 255         , 0           , 0
-0.136957139, -0.107023954, 9.801638    , -0.000335060176, -6.80458E-05, 0.0002586323, 3.131231    , -0.0156869628, -0.0004152105, 921.6333    , 32.5881538  , 792.7171    , 3.25        , 3           , 255         , 0           , 0
-0.146509618, -0.108483471, 9.802069    , -0.00011729938, -0.000218378787, -0.0012127317, 3.13122964  , -0.0156846549, -0.000403105223, 921.6333    , 32.5881538  , 792.7174    , 3.26        , 3           , 255         , 0           , 0
-0.1537362  , -0.106303714, 9.796573    , 0.0001707325, 4.57117567E-05, -0.000332111376, 3.13123131  , -0.015685074, -0.000399779266, 921.6333    , 32.5881538  , 792.7177    , 3.27        , 3           , 255         , 0           , 0
-0.158009663, -0.103800789, 9.797722    , 0.000137076946, 0.000170231564, -0.000379994628, 3.13123274  , -0.0156867355, -0.000395961542, 921.6333    , 32.5881538  , 792.718     , 3.28        , 3           , 255         , 0           , 0
-0.154448286, -0.102694795, 9.794871    , -4.91247047E-05, 0.0004550526, 0.000123458027, 3.13123226  , -0.015691299, -0.000397149, 921.6333    , 32.5881538  , 792.7183    , 3.29        , 3           , 255         , 0           , 0
-0.1522496  , -0.105298616, 9.796571    , 9.849778E-05, -3.71203059E-05, 0.00034894573, 3.13123322  , -0.0156909637, -0.000400642515, 921.6333    , 32.5881538  , 792.7186    , 3.3         , 3           , 255         , 0           , 0
-0.150997832, -0.110800229, 9.805735    , 4.3398526E-05, -0.000231431855, -0.000109079934, 3.13122725  , -0.0156853329, -0.000399473385, 921.6333    , 32.5881538  , 792.6587    , 3.31        , 3           , 255         , 0           , 0
-0.152776271, -0.10283599 , 9.809546    , 0.000243077811, -1.70549029E-05, -5.057179E-05, 3.13122964  , -0.015685156, -0.000398969423, 921.6333    , 32.5881538  , 792.6586    , 3.32        , 3           , 255         , 0           , 0
-0.14904502 , -0.093936   , 9.786515    , -0.000118327793, 4.804693E-05, 0.000318800332, 3.13122845  , -0.01568567 , -0.000402152626, 921.597351  , 32.59134    , 792.658569  , 3.33        , 3           , 255         , 0           , 0
-0.145736009, -0.104558766, 9.79235649  , -7.984828E-05, -0.000170062238, -7.083232E-05, 3.13122773  , -0.015683962, -0.000401461875, 921.597351  , 32.59134    , 792.6585    , 3.34        , 3           , 255         , 0           , 0
-0.146110982, -0.110945463, 9.797473    , 0.00018031348, 0.0001581753, -0.000221942755, 3.1312294   , -0.0156855211, -0.000399225974, 921.597351  , 32.59134    , 792.658447  , 3.35        , 3           , 255         , 0           , 0
-0.153337643, -0.106981911, 9.792258    , -0.000268202566, 0.000218688569, -0.00016986893, 3.13122678  , -0.015687691, -0.0003975045, 921.597351  , 32.59134    , 792.6584    , 3.36        , 3           , 255         , 0           , 0
-0.1472285  , -0.103329107, 9.790357    , -0.000345015957, 0.000173310575, -0.0003700923, 3.1312232   , -0.0156893879, -0.000393785478, 921.597351  , 32.59134    , 792.6583    , 3.37        , 3           , 255         , 0           , 0
-0.149088487, -0.0997969061, 9.798004    , -0.00023684575, -0.0003188984, 0.0007478801, 3.131221    , -0.0156862754, -0.0004012977, 921.597351  , 32.59134    , 792.658264  , 3.38        , 3           , 255         , 0           , 0
-0.160552576, -0.08918337 , 9.801716    , 0.000217162888, -0.0002087563, 0.000112100068, 3.1312232   , -0.0156842  , -0.0004024404, 921.597351  , 32.59134    , 792.6582    , 3.39        , 3           , 255         , 0           , 0
-0.15673849 , -0.08594991 , 9.80372     , 0.000166553247, -6.373075E-05, 9.821596E-05, 3.13122487  , -0.0156835727, -0.000403429178, 921.597351  , 32.59134    , 792.658142  , 3.4         , 3           , 255         , 0           , 0
-0.156372234, -0.108334385, 9.797615    , -0.000244321069, 7.3735544E-05, -0.0005137517, 3.13122344  , -0.0156802125, -0.000398301665, 921.597351  , 32.59134    , 792.6581    , 3.41        , 3           , 255         , 0           , 0
-0.1568474  , -0.109177925, 9.800755    , -0.000167951512, 0.00036522068, -0.0009071235, 3.13122153  , -0.01568377 , -0.000389192166, 921.597351  , 32.59134    , 792.658     , 3.42        , 3           , 255         , 0           , 0
-0.149989277, -0.111958012, 9.799952    , -9.988167E-05, 0.000223668962, -0.000486269826, 3.13122058  , -0.0156859551, -0.000384306069, 921.5918    , 32.5884247  , 792.657959  , 3.43        , 3           , 255         , 0           , 0
-0.146263123, -0.109084569, 9.7964      , 0.000205568154, -0.00014932832, -5.239158E-05, 3.13122272  , -0.0156844556, -0.000383797626, 921.5918    , 32.5884247  , 792.6579    , 3.44        , 3           , 255         , 0           , 0
-0.149261743, -0.104397319, 9.802324    , 0.000673719 , -0.00028958352, -0.000252704544, 3.1312294   , -0.0156815331, -0.0003813005, 921.5918    , 32.5884247  , 792.657837  , 3.45        , 3           , 255         , 0           , 0
-0.1545895  , -0.108198643, 9.804485    , 0.000688959844, -0.0004402288, 0.000407707063, 3.13123631  , -0.0156771764, -0.000385423366, 921.5918    , 32.5884247  , 792.6578    , 3.46        , 3           , 255         , 0           , 0
-0.1560541  , -0.107831694, 9.806107    , 0.0007185506, -0.00012585998, 9.75588046E-05, 3.13124347  , -0.0156759284, -0.000386412023, 921.5918    , 32.5884247  , 792.6577    , 3.47        , 3           , 255         , 0           , 0
-0.157600448, -0.105863094, 9.797475    , -3.10144969E-05, -0.000217363762, 0.000423901249, 3.13124323  , -0.0156738  , -0.000390673755, 921.5918    , 32.5884247  , 792.657654  , 3.48        , 3           , 255         , 0           , 0
-0.1599304  , -0.107789457, 9.802047    , 0.000243909832, -0.00047047605, -5.03445772E-05, 3.13124561  , -0.0156690869, -0.000390218978, 921.5918    , 32.5884247  , 792.6576    , 3.49        , 3           , 255         , 0           , 0
-0.155728966, -0.111595094, 9.80162048  , 0.000439540541, -4.74305125E-06, -0.000148572333, 3.13125014  , -0.0156690255, -0.0003887337, 921.5918    , 32.5884247  , 792.657532  , 3.5         , 3           , 255         , 0           , 0
-0.1475992  , -0.108307347, 9.797444    , 0.000278709049, 0.000314940466, -0.0007413479, 3.13124347  , -0.0156728178, -0.000381143269, 921.5918    , 32.5884247  , 792.665161  , 3.51        , 3           , 255         , 0           , 0
-0.153435439, -0.100376561, 9.806488    , 0.000206361117, 3.07418522E-05, -0.000147702667, 3.13124561  , -0.01567311 , -0.000379663019, 921.5918    , 32.5884247  , 792.665161  , 3.52        , 3           , 255         , 0           , 0
-0.151000947, -0.09950576 , 9.791376    , 0.000343617721, 0.000327538641, 0.0007928399, 3.13124919  , -0.0156764686, -0.00038755787, 921.619568  , 32.5882874  , 792.665161  , 3.53        , 3           , 255         , 0           , 0
-0.148883343, -0.09728633 , 9.80624     , 0.0005861823, -0.0004288475, 0.0011240067, 3.13125515  , -0.0156722963, -0.0003988428, 921.619568  , 32.5882874  , 792.665161  , 3.54        , 3           , 255         , 0           , 0
-0.148240417, -0.09874962 , 9.795366    , -0.000114040682, 0.00010432722, 0.000417804054, 3.131254    , -0.0156733841, -0.0004030102, 921.619568  , 32.5882874  , 792.665161  , 3.55        , 3           , 255         , 0           , 0
-0.160333335, -0.101389848, 9.790524    , -4.81113675E-05, 0.000104442937, 1.48446125E-05, 3.13125348  , -0.015674429, -0.00040314786, 921.619568  , 32.5882874  , 792.665161  , 3.56        , 3           , 255         , 0           , 0
-0.162483856, -0.102976069, 9.792551    , 0.0005228274, 0.000151864515, 9.974936E-05, 3.13125873  , -0.0156759582, -0.000404129736, 921.619568  , 32.5882874  , 792.665161  , 3.57        , 3           , 255         , 0           , 0
-0.152622372, -0.09771725 , 9.79748     , 0.000248847355, 0.000159631512, -3.755669E-05, 3.13126135  , -0.01567755 , -0.000403737678, 921.619568  , 32.5882874  , 792.665161  , 3.58        , 3           , 255         , 0           , 0
-0.1477603  , -0.09811212 , 9.801722    , -0.0001568222, 0.000112803944, 0.0002187568, 3.13125968  , -0.0156787  , -0.0004059137, 921.619568  , 32.5882874  , 792.665161  , 3.59        , 3           , 255         , 0           , 0
-0.153648436, -0.098644   , 9.795807    , -0.0006990774, 0.0003331031, 0.000388763729, 3.13125277  , -0.0156820714, -0.000409767, 921.619568  , 32.5882874  , 792.665161  , 3.6         , 3           , 255         , 0           , 0
-0.154545143, -0.106463388, 9.792635    , -0.000351182185, -0.000175047549, -0.000547209464, 3.13125086  , -0.01567873 , -0.000404337043, 921.619568  , 32.5882874  , 792.6325    , 3.61        , 3           , 255         , 0           , 0
-0.147236392, -0.106398955, 9.809209    , -2.75010243E-05, 2.42791139E-05, -0.0004502008, 3.13125038  , -0.0156789254, -0.000399832323, 921.619568  , 32.5882874  , 792.6323    , 3.62        , 3           , 255         , 0           , 0
-0.152513131, -0.102715924, 9.78816     , -8.197472E-05, 8.340605E-05, -0.000383922365, 3.13124967  , -0.01567972 , -0.000395984331, 921.5993    , 32.5923576  , 792.632141  , 3.63        , 3           , 255         , 0           , 0
-0.155418351, -0.0994225144, 9.794026    , 0.0003333532, -0.000431936351, 0.0002833736, 3.131253    , -0.0156754311, -0.000398862816, 921.5993    , 32.5923576  , 792.631958  , 3.64        , 3           , 255         , 0           , 0
-0.1513943  , -0.107994817, 9.788685    , 0.000262408925, -0.0002783445, 0.000123706428, 3.13125563  , -0.01567266 , -0.000400128745, 921.5993    , 32.5923576  , 792.6318    , 3.65        , 3           , 255         , 0           , 0
-0.148300916, -0.107831478, 9.791873    , 9.040744E-05, -0.000302744971, 0.000370996248, 3.13125658  , -0.0156696718, -0.000403870159, 921.5993    , 32.5923576  , 792.6316    , 3.66        , 3           , 255         , 0           , 0
-0.151075438, -0.107567087, 9.797455    , -0.000132996764, -0.00037272356, 0.000248212949, 3.13125539  , -0.01566597 , -0.0004063909, 921.5993    , 32.5923576  , 792.6314    , 3.67        , 3           , 255         , 0           , 0
-0.156530529, -0.107806012, 9.793826    , -0.000747627346, -0.000183582888, 0.0003515177, 3.13124776  , -0.0156641714, -0.00040992524, 921.5993    , 32.5923576  , 792.6312    , 3.68        , 3           , 255         , 0           , 0
-0.152206749, -0.104857549, 9.798948    , -0.000704822131, -1.64886E-05, 0.0005969651, 3.13124084  , -0.0156640671, -0.0004158968, 921.5993    , 32.5923576  , 792.631042  , 3.69        , 3           , 255         , 0           , 0
-0.151126668, -0.106437609, 9.799482    , -1.42513309E-05, 0.000213203952, -4.42516757E-05, 3.13124084  , -0.0156661943, -0.00041543218, 921.5993    , 32.5923576  , 792.630859  , 3.7         , 3           , 255         , 0           , 0
-0.159829333, -0.11630626 , 9.803869    , 0.00031535342, 0.000155056216, -0.0004317374, 3.131236    , -0.0156650674, -0.0004109768, 921.5993    , 32.5923576  , 792.632     , 3.71        , 3           , 255         , 0           , 0
-0.15368259 , -0.110256888, 9.8025465   , 0.000567337964, 0.000172349246, 0.0005400804, 3.1312418   , -0.0156668462, -0.000416359981, 921.5993    , 32.5923576  , 792.6319    , 3.72        , 3           , 255         , 0           , 0
-0.147259563, -0.101845384, 9.800615    , -5.74628939E-05, 0.000204243057, 0.000301286927, 3.13124132  , -0.0156689212, -0.000419351767, 921.6205    , 32.5922241  , 792.6318    , 3.73        , 3           , 255         , 0           , 0
-0.150065362, -0.112312213, 9.791663    , 0.000337248726, 0.0001454941, -0.0006004193, 3.13124466  , -0.0156703144, -0.0004133322, 921.6205    , 32.5922241  , 792.631653  , 3.74        , 3           , 255         , 0           , 0
-0.165180534, -0.110722817, 9.798152    , 0.000323141925, 0.000302948727, 0.0003636037, 3.13124776  , -0.0156733822, -0.0004169371, 921.6205    , 32.5922241  , 792.631531  , 3.75        , 3           , 255         , 0           , 0
-0.162682012, -0.106604889, 9.794476    , -0.0002314201, 1.29871769E-05, 0.0009044869, 3.13124561  , -0.0156736076, -0.000425981, 921.6205    , 32.5922241  , 792.6314    , 3.76        , 3           , 255         , 0           , 0
-0.153197214, -0.101063453, 9.797455    , -0.000570850738, 2.69094016E-06, 0.000420568744, 3.13124013  , -0.0156736765, -0.0004301866, 921.6205    , 32.5922241  , 792.6313    , 3.77        , 3           , 255         , 0           , 0
-0.151735976, -0.102744162, 9.801777    , 8.370401E-05, 0.000141878438, 0.000384236278, 3.13124084  , -0.0156751312, -0.0004340144, 921.6205    , 32.5922241  , 792.631165  , 3.78        , 3           , 255         , 0           , 0
-0.151660442, -0.1005712  , 9.802637    , 0.000313810975, 0.00032284233, -7.497825E-05, 3.13124418  , -0.01567835 , -0.000433231267, 921.6205    , 32.5922241  , 792.631042  , 3.79        , 3           , 255         , 0           , 0
-0.14832361 , -0.09649124 , 9.799701    , 0.000592711149, -0.000177260838, -0.0001863565, 3.13125     , -0.015676558, -0.0004313859, 921.6205    , 32.5922241  , 792.6309    , 3.8         , 3           , 255         , 0           , 0
-0.155445114, -0.09777783 , 9.798526    , 1.80138159E-05, 1.049391E-05, 0.000166950078, 3.131244    , -0.0156777427, -0.000432956236, 921.6205    , 32.5922241  , 792.602051  , 3.81        , 3           , 255         , 0           , 0
-0.162863657, -0.09653547 , 9.80546     , 0.0001430058, 0.0003186545, -3.43881547E-05, 3.13124537  , -0.0156809259, -0.000432579283, 921.6205    , 32.5922241  , 792.601746  , 3.82        , 3           , 255         , 0           , 0
-0.157242581, -0.09427254 , 9.801381    , -0.000485374418, 0.000110585359, -0.0003459801, 3.13124037  , -0.0156819951, -0.000429107924, 921.609     , 32.5931053  , 792.60144   , 3.83        , 3           , 255         , 0           , 0
-0.153328881, -0.09740188 , 9.797462    , 3.43481661E-05, 6.60459045E-05, 0.000135939539, 3.13124084  , -0.01568267 , -0.000430460583, 921.609     , 32.5931053  , 792.601135  , 3.84        , 3           , 255         , 0           , 0
-0.156463683, -0.107852653, 9.798304    , 0.000320911582, 8.32784E-05 , 0.00014500691, 3.131244    , -0.0156835187, -0.000431902125, 921.609     , 32.5931053  , 792.6008    , 3.85        , 3           , 255         , 0           , 0
-0.154044911, -0.10207133 , 9.807787    , 0.000153876375, -0.000193196349, 0.000446552527, 3.13124561  , -0.0156816319, -0.000436387869, 921.609     , 32.5931053  , 792.6005    , 3.86        , 3           , 255         , 0           , 0
-0.1524089  , -0.107200883, 9.799484    , -0.0003087016, 6.859918E-05, 8.478743E-05, 3.13124251  , -0.0156823266, -0.000437228649, 921.609     , 32.5931053  , 792.6002    , 3.87        , 3           , 255         , 0           , 0
-0.15069963 , -0.112714455, 9.805731    , 0.0003834851, -0.00035246386, 0.000185585857, 3.13124633  , -0.0156788211, -0.000439121126, 921.609     , 32.5931053  , 792.5999    , 3.88        , 3           , 255         , 0           , 0
-0.154418781, -0.118457891, 9.804092    , -8.904294E-05, -0.000180195144, -0.000182094751, 3.13124561  , -0.015677   , -0.0004373188, 921.609     , 32.5931053  , 792.5996    , 3.89        , 3           , 255         , 0           , 0
-0.153648421, -0.110217109, 9.80134     , 6.6356326E-05, -0.0001225089, -1.82548683E-05, 3.131246    , -0.0156757738, -0.000437148934, 921.609     , 32.5931053  , 792.5993    , 3.9         , 3           , 255         , 0           , 0
-0.136697471, -0.106877163, 9.793909    , -4.51788073E-05, -0.000681989244, 0.000353862764, 3.131242    , -0.0156705845, -0.000440701027, 921.609     , 32.5931053  , 792.5913    , 3.91        , 3           , 255         , 0           , 0
-0.140520245, -0.102421641, 9.812304    , 0.000157711038, 0.000242933311, 0.000202700234, 3.13124371  , -0.0156730358, -0.000442703, 921.609     , 32.5931053  , 792.591     , 3.92        , 3           , 255         , 0           , 0
-0.154509187, -0.10577482 , 9.792265    , 0.000183957571, 0.000477249268, 0.0004154257, 3.13124561  , -0.0156778526, -0.000446807971, 921.6159    , 32.5924263  , 792.5907    , 3.93        , 3           , 255         , 0           , 0
-0.143964261, -0.100270092, 9.795483    , -0.000390833244, 8.759124E-05, -0.00010659582, 3.1312418   , -0.0156787168, -0.000445732847, 921.6159    , 32.5924263  , 792.5904    , 3.94        , 3           , 255         , 0           , 0
-0.146181136, -0.105358981, 9.792616    , 0.0003801685, -0.000429083942, -0.00114434923, 3.13124537  , -0.01567431 , -0.000434333255, 921.6159    , 32.5924263  , 792.5901    , 3.95        , 3           , 255         , 0           , 0
-0.150748655, -0.09548271 , 9.796382    , 9.824452E-05, -0.0002479328, -0.0006666388, 3.131246    , -0.01567176 , -0.000427692285, 921.6159    , 32.5924263  , 792.5898    , 3.96        , 3           , 255         , 0           , 0
-0.159046844, -0.104789719, 9.79906     , 0.00014997815, -0.000102391175, 9.058857E-05, 3.13124776  , -0.0156707466, -0.000428608852, 921.6159    , 32.5924263  , 792.5895    , 3.97        , 3           , 255         , 0           , 0
-0.1514504  , -0.105056286, 9.796587    , 0.000191898493, -0.000118341064, -5.528248E-05, 3.13124967  , -0.0156695563, -0.000428068219, 921.6159    , 32.5924263  , 792.5892    , 3.98        , 3           , 255         , 0           , 0
-0.145637125, -0.10350468 , 9.794942    , 0.000275195343, -6.35811E-05, 0.000156653041, 3.13125229  , -0.0156689361, -0.000429641368, 921.6159    , 32.5924263  , 792.588867  , 3.99        , 3           , 255         , 0           , 0
-0.154626817, -0.100134611, 9.805822    , 0.000132197631, 0.000325842 , -0.000353518117, 3.13125372  , -0.0156721584, -0.000426072336, 921.6159    , 32.5924263  , 792.588562  , 4           , 3           , 0           , 9.920237    , 400
-0.1475345  , -0.099935174, 9.802516    , 0.0001928237, 0.0005852016, 0.000232795792, 3.13125324  , -0.0156703219, -0.000428304018, 921.6159    , 32.5924263  , 792.572144  , 4.01        , 3           , 1           , 0           , 0
-0.150739729, -0.0972927  , 9.799686    , 0.000383348583, 0.000485417549, -0.00014695595, 3.131257    , -0.015675161, -0.000426784216, 921.6159    , 32.5924263  , 792.5717    , 4.02        , 3           , 2           , 0           , 0
-0.149086431, -0.0979432  , 9.79163551  , 7.88982143E-05, 0.000347198657, -5.53772552E-05, 3.131258    , -0.0156786256, -0.0004261946, 921.5973    , 32.5947342  , 792.5713    , 4.03        , 3           , 3           , 0           , 0
-0.158396572, -0.108711936, 9.790727    , 0.000272682868, -0.000215274922, 6.51832743E-05, 3.13126063  , -0.0156764816, -0.0004268687, 921.5973    , 32.5947342  , 792.570862  , 4.04        , 3           , 4           , 0           , 0
-0.149786457, -0.09711315 , 9.794333    , 0.0003894685, -0.00017805933, -0.000187305937, 3.13126445  , -0.01567468 , -0.000425013975, 921.5973    , 32.5947342  , 792.570435  , 4.05        , 3           , 5           , 0           , 0
-0.146685258, -0.09991082 , 9.800173    , -0.0001585292, -0.000209303631, 0.000449811 , 3.131263    , -0.0156726334, -0.000429533829, 921.5973    , 32.5947342  , 792.570068  , 4.06        , 3           , 6           , 0           , 0
-0.145621419, -0.117862366, 9.798813    , 0.0002794771, -0.0003067198, -0.000522830058, 3.13126564  , -0.0156695116, -0.00042433702, 921.5973    , 32.5947342  , 792.5697    , 4.07        , 3           , 7           , 0           , 0
-0.15347743 , -0.112579882, 9.80243     , -0.000162454438, 0.00025978114, -8.036074E-05, 3.13126421  , -0.0156721  , -0.0004235066, 921.5973    , 32.5947342  , 792.569336  , 4.08        , 3           , 8           , 5           , 5
-0.152795568, -0.111443341, 9.792712    , 0.0002504559, 3.46291345E-05, 0.000152072258, 3.13126659  , -0.0156724621, -0.000425023842, 921.5973    , 32.5947342  , 792.569     , 4.09        , 3           , 9           , 5           , 0.1
-0.1568234  , -0.105471626, 9.788537    , 0.000128840271, 0.0001011985, 0.000139375727, 3.131268    , -0.0156734884, -0.0004264072, 921.5973    , 32.5947342  , 792.5686    , 4.1         , 3           , 10          , 0.1         , 0.1
-0.157889992, -0.103603289, 9.801047    , 0.000287172617, 0.000418093259, -9.712868E-05, 3.131265    , -0.0156737268, -0.0004253026, 921.5973    , 32.5947342  , 792.581848  , 4.11        , 3           , 11          , 0.007515105 , 0.007515102
-0.152572423, -0.104602993, 9.801459    , 0.0004285766, -0.0001082361, -0.000485360855, 3.13126922  , -0.0156725924, -0.000420459954, 921.5973    , 32.5947342  , 792.581543  , 4.12        , 3           , 12          , 0.174648076 , 0
-0.153604418, -0.104648791, 9.805067    , -0.000257125415, 0.00016980822, 9.652037E-05, 3.13126659  , -0.0156743024, -0.0004214076, 921.5915    , 32.5947342  , 792.581238  , 4.13        , 3           , 13          , 0           , 0
-0.152402535, -0.101393223, 9.795538    , 2.70484015E-05, -0.000156742462, 0.000719604839, 3.131267    , -0.0156728085, -0.000428620231, 921.5915    , 32.5947342  , 792.580933  , 4.14        , 3           , 14          , -0.000735397043, -0.000605534937
-0.152539179, -0.100065924, 9.800652    , 0.000375265925, 4.780828E-06, 0.0005243465, 3.131271    , -0.015672911, -0.000433863461, 921.5915    , 32.5947342  , 792.5806    , 4.15        , 3           , 15          , 0           , -0.000148285239
-0.162560433, -0.104848266, 9.798845    , 4.83602635E-05, -0.0001265385, 9.243669E-05, 3.13127136  , -0.0156716574, -0.000434800953, 921.5915    , 32.5947342  , 792.5803    , 4.16        , 3           , 16          , 0           , 1.401298E-45
-0.163453832, -0.109363154, 9.797593    , -3.386021E-05, -0.0002070971, -0.000164025259, 3.13127112  , -0.01566957 , -0.000433182, 921.5915    , 32.5947342  , 792.58      , 4.17        , 3           , 20          , 0           , 0
-0.1507866  , -0.105770543, 9.80935     , -1.81526411E-05, -1.63575169E-05, 0.000285842019, 3.131271    , -0.0156694353, -0.0004360422, 921.5915    , 32.5947342  , 792.5797    , 4.18        , 3           , 21          , 0           , 0
-0.155936718, -0.110031709, 9.800565    , -0.000226529373, 8.886121E-05, 0.000806745258, 3.13126874  , -0.0156704038, -0.00044410082, 921.5915    , 32.5947342  , 792.5794    , 4.19        , 3           , 22          , 0           , 0
-0.156138033, -0.0993161947, 9.796165    , -0.0006110316, -0.000226901553, -0.0001528644, 3.13126254  , -0.0156681221, -0.000442595483, 921.5915    , 32.5947342  , 792.5791    , 4.2         , 3           , 40          , 0           , 0
-0.1419363  , -0.09740846 , 9.796746    , -0.0005282846, 6.95662457E-05, -0.0003330843, 3.13125324  , -0.0156714674, -0.000439195283, 921.5915    , 32.5947342  , 792.598938  , 4.21        , 3           , 41          , 0           , 0
-0.1489589  , -0.1051475  , 9.79686     , 0.000265013834, -0.000209144317, -0.000156743685, 3.13125587  , -0.0156693589, -0.000437649374, 921.5915    , 32.5947342  , 792.5988    , 4.22        , 3           , 42          , 0           , 0
-0.160226151, -0.100473   , 9.796452    , 0.0007181492, -7.15632341E-05, 0.00050399825, 3.13126326  , -0.0156686958, -0.000442697, 921.594543  , 32.59202    , 792.5987    , 4.23        , 3           , 255         , 0           , 0
-0.148190409, -0.102643952, 9.799892    , 0.000322196778, 0.000159112271, 1.03771163E-05, 3.13126636  , -0.0156702884, -0.00044278428, 921.594543  , 32.59202    , 792.5986    , 4.24        , 3           , 255         , 0           , 0
-0.155453876, -0.107594252, 9.808334    , 0.0006167891, 7.13038025E-06, -9.25457E-05, 3.13127255  , -0.0156703535, -0.00044185805, 921.594543  , 32.59202    , 792.59845   , 4.25        , 3           , 255         , 0           , 0
-0.156968817, -0.101885974, 9.798021    , 0.000665166357, -0.0007010735, 8.369128E-05, 3.13127923  , -0.0156633519, -0.00044276737, 921.594543  , 32.59202    , 792.5983    , 4.26        , 3           , 255         , 0           , 0
-0.142452732, -0.09750272 , 9.805889    , 2.74388585E-05, -0.000358734862, 0.000140880511, 3.13127947  , -0.015659783, -0.0004442132, 921.594543  , 32.59202    , 792.5982    , 4.27        , 3           , 255         , 0           , 0
-0.145049959, -0.101989985, 9.799643    , -0.000324244727, 0.000108797278, -0.000445711659, 3.13127637  , -0.01566082 , -0.000439744617, 921.594543  , 32.59202    , 792.5981    , 4.28        , 3           , 255         , 0           , 0
