Acc X       , Acc Y       , Acc Z       , Gyro X      , Gyro Y      , Gyro Z      , Euler X     , Euler Y     , Euler Z     , Pres X      , Pres Y      , Pres Z      , Time        , Status      , LowRate X   , LowRate Y   , LowRate Z    
-0.126814246, 0.133348569 , -9.786907   , 0           , 0           , 0           , -0.0136243571, -0.0129556125, 0           , 922.7648    , 32.9413376  , 782.1689    , 0           , 2           , 0           , 5.46423149  , 0
-0.1384432  , 0.129912183 , -9.807253   , 0.000366021064, 0.000219121124, 6.98246E-05 , -0.0136209326, -0.0129535086, 6.6836725E-07, 922.7648    , 32.9413376  , 782.1689    , 0.01        , 3           , 1           , 0           , 0
-0.130069986, 0.133331209 , -9.803142   , 0.0008801096, 0.0001456911, -6.1972125E-05, -0.0136121241, -0.0129520586, 2.88297617E-08, 922.7648    , 32.9413376  , 782.1689    , 0.02        , 3           , 2           , 0           , 0
-0.123495221, 0.124621905 , -9.769174   , -7.620774E-05, -3.118883E-05, -1.18683547E-05, -0.0136128841, -0.0129523724, -8.560154E-08, 922.7527    , 32.5078964  , 782.1689    , 0.03        , 3           , 3           , 0           , 0
-0.120408155, 0.130211055 , -9.78266    , -4.222634E-05, -0.00033137537, 0.000363221654, -0.0136133535, -0.0129556339, 3.59159071E-06, 922.7527    , 32.5078964  , 782.1689    , 0.04        , 3           , 4           , 0           , 0
-0.132491037, 0.127519861 , -9.798503   , -0.000579082349, 0.000106959691, 0.000390510249, -0.0136191947, -0.0129545117, 7.481993E-06, 922.7527    , 32.5078964  , 782.1689    , 0.05        , 3           , 5           , 0           , 0
-0.126768559, 0.13354744  , -9.798506   , -0.000333699747, 7.582232E-05, 0.000124356855, -0.0136225466, -0.0129537378, 8.715204E-06, 922.7527    , 32.5078964  , 782.1689    , 0.06        , 3           , 6           , 0           , 0
-0.123613879, 0.130061716 , -9.801233   , 0.0003663825, -3.876115E-05, 0.00015980193, -0.0136189042, -0.0129541019, 1.03184429E-05, 922.7527    , 32.5078964  , 782.1689    , 0.07        , 3           , 7           , 0           , 0
-0.131253019, 0.1371918   , -9.79228    , 0.000219010457, -0.000139567157, -0.00032439924, -0.0136166718, -0.0129555417, 7.09356254E-06, 922.7527    , 32.5078964  , 782.1689    , 0.08        , 3           , 8           , 5           , 5
-0.121344805, 0.13307783  , -9.785104   , 0.0006939828, 7.121256E-05, -7.23664052E-05, -0.0136097241, -0.0129548395, 6.360238E-06, 922.7527    , 32.5078964  , 782.1689    , 0.09        , 3           , 9           , 5           , 0.1
-0.124583974, 0.1408643   , -9.78573    , 0.00011897739, -9.788186E-05, 0.0003029122, -0.0136085739, -0.0129557764, 9.402571E-06, 922.7527    , 32.5078964  , 782.1689    , 0.1         , 3           , 10          , 0.1         , 0.1
-0.131658554, 0.13899079  , -9.790585   , 0.000262738729, 8.474558E-05, -0.000167332109, -0.0136004239, -0.0129564973, 7.64650849E-06, 922.7527    , 32.5078964  , 782.277344  , 0.11        , 3           , 11          , 0.0109544508, 0.0109544508
-0.1299335  , 0.126936734 , -9.794144   , -0.0006586499, 0.0007852542, 0.000180319636, -0.0136070335, -0.0129486211, 9.342829E-06, 922.7527    , 32.5078964  , 782.277344  , 0.12        , 3           , 12          , 0.174642488 , 0
-0.134660348, 0.134382784 , -9.810152   , -0.000128636661, 1.02821214E-05, 0.0008660236, -0.0136084314, -0.0129484  , 1.80013685E-05, 922.7754    , 32.547718   , 782.277344  , 0.13        , 3           , 13          , 0           , 0
-0.125297427, 0.133880928 , -9.797357   , 8.166715E-05, 0.000410789828, 0.0009855683, -0.0136077413, -0.0129441591, 2.7800821E-05, 922.7754    , 32.547718   , 782.277344  , 0.14        , 3           , 14          , -0.0006014733, -0.000321104337
-0.121840142, 0.133308142 , -9.797477   , 0.000563461334, 0.000420986034, 0.000403553277, -0.0136021581, -0.0129398955, 3.17789563E-05, 922.7754    , 32.547718   , 782.277344  , 0.15        , 3           , 15          , 0           , 2.01383536E-05
-0.130012318, 0.13433814  , -9.787142   , 6.10825955E-05, 0.0006594055, 8.80753141E-05, -0.0136015583, -0.0129332887, 3.256999E-05, 922.7754    , 32.547718   , 782.277344  , 0.16        , 3           , 16          , 0           , 1.401298E-45
-0.13008219 , 0.132582486 , -9.800692   , -0.000131060777, -0.000218877773, 0.000553725462, -0.0136029413, -0.0129354028, 3.81368227E-05, 922.7754    , 32.547718   , 782.2774    , 0.17        , 3           , 20          , 0           , 0
-0.131504014, 0.13584581  , -9.788771   , -8.471427E-06, 0.000296133716, 0.0006084563, -0.0136031033, -0.0129323592, 4.41809025E-05, 922.7754    , 32.547718   , 782.277466  , 0.18        , 3           , 21          , 0           , 0
-0.1315633  , 0.1405445   , -9.804442   , -0.0004890343, 0.000455618254, 0.00031221658, -0.0136080338, -0.0129277613, 4.724097E-05, 922.7754    , 32.547718   , 782.2775    , 0.19        , 3           , 22          , 0           , 0
-0.129923433, 0.1350106   , -9.788664   , 0.0006584992, 0.000318030128, 0.000347150664, -0.013601494, -0.0129245333, 5.06691E-05 , 922.7754    , 32.547718   , 782.2776    , 0.2         , 3           , 40          , 0           , 0
-0.125157073, 0.122755371 , -9.757485   , 0.00044531154, 0.0005749713, -0.000315887039, -0.0136011783, -0.0129279587, 4.74861845E-05, 922.7754    , 32.547718   , 782.1744    , 0.21        , 3           , 41          , 0           , 0
-0.118445456, 0.124677256 , -9.801758   , -0.0002637261, -8.84775363E-05, 0.000597308157, -0.013603894, -0.0129287625, 5.34710925E-05, 922.7754    , 32.547718   , 782.174438  , 0.22        , 3           , 42          , 0           , 0
-0.121754587, 0.1245234   , -9.809517   , -0.000198540918, -0.000570952659, -0.00020364752, -0.0136058535, -0.0129344976, 5.15123647E-05, 922.7369    , 32.569767   , 782.1745    , 0.23        , 3           , 255         , 0           , 0
-0.126728222, 0.133149415 , -9.812348   , 0.000263511669, -0.000197807065, -0.0001523303, -0.0136031993, -0.0129364962, 5.001602E-05, 922.7369    , 32.569767   , 782.174561  , 0.24        , 3           , 255         , 0           , 0
-0.126624644, 0.128205642 , -9.786308   , 0.000767226564, 0.000243856513, 0.000370395981, -0.0135955745, -0.0129340077, 5.368671E-05, 922.7369    , 32.569767   , 782.1746    , 0.25        , 3           , 255         , 0           , 0
-0.136160135, 0.126266986 , -9.77907848 , 0.000217088789, -5.859023E-05, -0.000136944072, -0.0135933869, -0.0129346121, 5.232527E-05, 922.7369    , 32.569767   , 782.1747    , 0.26        , 3           , 255         , 0           , 0
-0.131596059, 0.125686571 , -9.775116   , -0.000398792152, -0.000299331121, -0.000388259679, -0.0135973245, -0.0129376585, 4.84834927E-05, 922.7369    , 32.569767   , 782.174744  , 0.27        , 3           , 255         , 0           , 0
-0.1266224  , 0.1371518   , -9.806432   , -0.000371929782, -0.00010861078, -0.0004074634, -0.01360099 , -0.0129388  , 4.442377E-05, 922.7369    , 32.569767   , 782.1748    , 0.28        , 3           , 255         , 0           , 0
-0.127754226, 0.138404757 , -9.82798    , 0.000202205847, 0.000110412322, -0.0001824706, -0.0135989459, -0.0129377209, 4.25841063E-05, 922.7369    , 32.569767   , 782.174866  , 0.29        , 3           , 255         , 0           , 0
-0.125498414, 0.125646561 , -9.797373   , 0.0002856861, 0.00011494146, 9.208337E-05, -0.0135960989, -0.0129365576, 4.348928E-05, 922.7369    , 32.569767   , 782.1749    , 0.3         , 3           , 255         , 0           , 0
-0.112849034, 0.131786615 , -9.777342   , 0.000288859243, 0.000232076942, -0.000258597021, -0.0135784224, -0.0129339937, 4.06809741E-05, 922.7369    , 32.569767   , 782.2565    , 0.31        , 3           , 255         , 0           , 0
-0.117597237, 0.137398154 , -9.78726    , 0.000101759564, 0.000279701984, -0.000397138559, -0.0135773513, -0.012931251, 3.66717431E-05, 922.7369    , 32.569767   , 782.256531  , 0.32        , 3           , 255         , 0           , 0
-0.1238548  , 0.143996269 , -9.798528   , -0.000227295619, -0.000366708875, 0.0003130367, -0.0135796657, -0.0129348747, 3.9851795E-05, 922.7837    , 32.58605    , 782.2566    , 0.33        , 3           , 255         , 0           , 0
-0.133895367, 0.1390819   , -9.808174   , 0.000269794429, -0.000122990779, -0.000208495054, -0.0135769406, -0.012936133, 3.77836222E-05, 922.7837    , 32.58605    , 782.256653  , 0.34        , 3           , 255         , 0           , 0
-0.131294057, 0.129298359 , -9.795214   , 0.000368840527, 0.000176340283, 1.29853233E-05, -0.0135732554, -0.0129343681, 3.788953E-05, 922.7837    , 32.58605    , 782.2567    , 0.35        , 3           , 255         , 0           , 0
-0.125761867, 0.131342456 , -9.7751     , 0.000618068851, 4.59200237E-05, 0.0003229714, -0.0135671152, -0.012933868, 4.11128967E-05, 922.7837    , 32.58605    , 782.2568    , 0.36        , 3           , 255         , 0           , 0
-0.1243027  , 0.133045182 , -9.771031   , -1.225213E-06, -8.53347E-05, 0.0001385033, -0.0135671459, -0.0129347  , 4.25094622E-05, 922.7837    , 32.58605    , 782.256836  , 0.37        , 3           , 255         , 0           , 0
-0.121302262, 0.136675313 , -9.789835   , -0.000202527212, 0.000284998328, 0.0007263651, -0.0135692628, -0.012931752, 4.97341971E-05, 922.7837    , 32.58605    , 782.2569    , 0.38        , 3           , 255         , 0           , 0
-0.137561217, 0.1299961   , -9.81138    , -0.000416978437, 0.000170322368, 0.000417904259, -0.0135734873, -0.0129299928, 5.38899876E-05, 922.7837    , 32.58605    , 782.256958  , 0.39        , 3           , 255         , 0           , 0
-0.121138074, 0.1394972   , -9.805659   , -5.61262132E-05, -5.452099E-05, 2.849685E-05, -0.0135740526, -0.0129305338, 5.41823465E-05, 922.7837    , 32.58605    , 782.257     , 0.4         , 3           , 255         , 0           , 0
-0.125173733, 0.13032423  , -9.785509   , 6.62637758E-05, -3.93667724E-05, -9.98704563E-05, -0.01358224 , -0.0129242456, 5.33035636E-05, 922.7837    , 32.58605    , 782.1913    , 0.41        , 3           , 255         , 0           , 0
-0.130942672, 0.131182    , -9.78055    , -0.000266063376, 0.000368231471, -4.90283765E-06, -0.0135848988, -0.012920565, 5.32045233E-05, 922.7837    , 32.58605    , 782.191345  , 0.42        , 3           , 255         , 0           , 0
-0.1286234  , 0.131429285 , -9.782209   , -0.000509117846, -0.000122384488, -0.0005589913, -0.0135899177, -0.0129218651, 4.763142E-05, 922.7238    , 32.5986671  , 782.1914    , 0.43        , 3           , 255         , 0           , 0
-0.122006752, 0.133732185 , -9.804647   , -0.0004055578, 9.99437761E-05, 0.000275537663, -0.0135940081, -0.0129208285, 5.037312E-05, 922.7238    , 32.5986671  , 782.191467  , 0.44        , 3           , 255         , 0           , 0
-0.135153621, 0.133759215 , -9.814314   , 0.000158237817, 4.434245E-05, 0.0007685262, -0.0135925245, -0.0129202809, 5.80520973E-05, 922.7238    , 32.5986671  , 782.1915    , 0.45        , 3           , 255         , 0           , 0
-0.138591141, 0.1420842   , -9.797305   , -0.000352387142, 0.000315233978, 0.0006838059, -0.0135961352, -0.0129170371, 6.484706E-05, 922.7238    , 32.5986671  , 782.1916    , 0.46        , 3           , 255         , 0           , 0
-0.138104022, 0.142195418 , -9.788202   , 0.0004506307, 4.45873E-05 , 0.0007570781, -0.0135917272, -0.0129164876, 7.241153E-05, 922.7238    , 32.5986671  , 782.19165   , 0.47        , 3           , 255         , 0           , 0
-0.133037478, 0.132027358 , -9.785653   , -0.000276189472, -0.000147716986, -0.0004046717, -0.0135944374, -0.0129180206, 6.838504E-05, 922.7238    , 32.5986671  , 782.1917    , 0.48        , 3           , 255         , 0           , 0
-0.128595069, 0.133608282 , -9.792944   , 0.0003006333, -0.000296909973, -0.000356235134, -0.0135913845, -0.0129210372, 6.4863154E-05, 922.7238    , 32.5986671  , 782.1918    , 0.49        , 3           , 255         , 0           , 0
-0.127505586, 0.127632573 , -9.796897   , 0.000624481356, -0.000174127956, 0.000259547058, -0.0135851735, -0.0129227433, 6.74822E-05 , 922.7238    , 32.5986671  , 782.191833  , 0.5         , 3           , 255         , 0           , 0
-0.131055981, 0.124932632 , -9.804941   , 0.000432492932, 5.42113848E-05, 8.308989E-05, -0.0135832261, -0.01293702 , 6.83363251E-05, 922.7238    , 32.5986671  , 782.262939  , 0.51        , 3           , 255         , 0           , 0
-0.124702871, 0.134030327 , -9.797431   , 6.04009256E-05, -0.000176003145, 0.000109669927, -0.0135826366, -0.0129387639, 6.94568953E-05, 922.7238    , 32.5986671  , 782.263062  , 0.52        , 3           , 255         , 0           , 0
-0.125110462, 0.1324706   , -9.789629   , -0.0004109728, 0.000135839757, -2.58412365E-06, -0.0135867447, -0.012937407, 6.941259E-05, 922.750549  , 32.6078949  , 782.2632    , 0.53        , 3           , 255         , 0           , 0
-0.121532276, 0.121986464 , -9.787672   , 4.897127E-06, 0.000626675552, 0.000155454371, -0.0135867139, -0.0129311187, 7.088194E-05, 922.750549  , 32.6078949  , 782.2633    , 0.54        , 3           , 255         , 0           , 0
-0.129491419, 0.131330758 , -9.779959   , -3.5414123E-06, 0.0006335764, 6.997275E-05, -0.0135867586, -0.0129247736, 7.149557E-05, 922.750549  , 32.6078949  , 782.2634    , 0.55        , 3           , 255         , 0           , 0
-0.126353383, 0.139135182 , -9.795      , -0.0008382699, 0.000561576 , 0.00015808866, -0.013595161, -0.0129191391, 7.300008E-05, 922.750549  , 32.6078949  , 782.26355   , 0.56        , 3           , 255         , 0           , 0
-0.1255891  , 0.140336588 , -9.808973   , -0.000101028127, -9.973862E-05, 0.000379279838, -0.01359622 , -0.0129200825, 7.680631E-05, 922.750549  , 32.6078949  , 782.2637    , 0.57        , 3           , 255         , 0           , 0
-0.134804562, 0.1341744   , -9.808368   , 0.0009840227, -0.0002740681, 0.0005448407, -0.0135864494, -0.012922748, 8.229177E-05, 922.750549  , 32.6078949  , 782.2638    , 0.58        , 3           , 255         , 0           , 0
-0.131295413, 0.132588252 , -9.795187   , 0.0009827203, -0.000512032537, 0.000209696271, -0.013576651, -0.0129278377, 8.44582E-05 , 922.750549  , 32.6078949  , 782.2639    , 0.59        , 3           , 255         , 0           , 0
-0.118876681, 0.128626853 , -9.779991   , 0.0004354122, 0.000180886316, -0.000131139954, -0.0135722812, -0.0129260495, 8.31223E-05 , 922.750549  , 32.6078949  , 782.264038  , 0.6         , 3           , 255         , 0           , 0
-0.126755029, 0.128359541 , -9.771332   , -0.000397985044, 0.0004460115, -0.0003788892, -0.0135728121, -0.0129223764, 7.92290739E-05, 922.750549  , 32.6078949  , 782.2699    , 0.61        , 3           , 255         , 0           , 0
-0.1257219  , 0.134570554 , -9.780947   , -0.000628655, -1.814682E-05, 0.0004988005, -0.0135791637, -0.01292249 , 8.4219384E-05, 922.750549  , 32.6078949  , 782.27      , 0.62        , 3           , 255         , 0           , 0
-0.136252537, 0.134097129 , -9.807621   , -0.0002559881, 0.0001502815, -0.000248106284, -0.01358169 , -0.0129210223, 8.171799E-05, 922.76825   , 32.6119652  , 782.270142  , 0.63        , 3           , 255         , 0           , 0
-0.131082386, 0.135384172 , -9.798769   , -0.000194519584, 0.000195912129, 0.000155334448, -0.0135836555, -0.0129190423, 8.324467E-05, 922.76825   , 32.6119652  , 782.270264  , 0.64        , 3           , 255         , 0           , 0
-0.124740645, 0.12814334  , -9.79116249 , 0.000214530359, 0.00017888147, -0.000171304011, -0.0135814883, -0.0129172765, 8.15073945E-05, 922.76825   , 32.6119652  , 782.2704    , 0.65        , 3           , 255         , 0           , 0
-0.111589268, 0.1314172   , -9.786637   , -0.000262726157, -0.000227907, -0.000438714167, -0.0135840587, -0.012919615, 7.715136E-05, 922.76825   , 32.6119652  , 782.2705    , 0.66        , 3           , 255         , 0           , 0
-0.117036358, 0.136610344 , -9.801143   , 5.22748451E-05, -0.000319057173, -0.000117643373, -0.0135835214, -0.0129228206, 7.60183E-05 , 922.76825   , 32.6119652  , 782.2706    , 0.67        , 3           , 255         , 0           , 0
-0.134199545, 0.133701682 , -9.804319   , 0.0004015161, 6.272909E-05, -9.254672E-05, -0.0135794953, -0.012922205, 7.508436E-05, 922.76825   , 32.6119652  , 782.270752  , 0.68        , 3           , 255         , 0           , 0
-0.130127519, 0.140117168 , -9.79515648 , 0.0005403004, 0.000101890459, 0.000232334423, -0.0135741234, -0.0129211554, 7.739378E-05, 922.76825   , 32.6119652  , 782.2709    , 0.69        , 3           , 255         , 0           , 0
-0.134698525, 0.1332022   , -9.788173   , 0.00118957867, -0.00038215614, 6.844318E-05, -0.013562236, -0.0129249645, 7.8130055E-05, 922.76825   , 32.6119652  , 782.271     , 0.7         , 3           , 255         , 0           , 0
-0.128334045, 0.123114988 , -9.779384   , 0.000144588819, -6.444636E-06, -0.000470024621, -0.0135625741, -0.0129274633, 7.34546848E-05, 922.76825   , 32.6119652  , 782.2508    , 0.71        , 3           , 255         , 0           , 0
-0.124008849, 0.126572177 , -9.803709   , -6.3704676E-05, 0.000119299453, 8.837254E-05, -0.0135632223, -0.0129262591, 7.43222E-05 , 922.76825   , 32.6119652  , 782.2509    , 0.72        , 3           , 255         , 0           , 0
-0.1275303  , 0.1345338   , -9.790659   , -0.000699530356, -0.000225892436, 5.71789351E-05, -0.0135702267, -0.01292851 , 7.492461E-05, 922.7956    , 32.6176643  , 782.251038  , 0.73        , 3           , 255         , 0           , 0
-0.13085486 , 0.14362514  , -9.810588   , -0.000219217036, 6.124706E-05, -0.0003547946, -0.0135723725, -0.0129279457, 7.1368464E-05, 922.7956    , 32.6176643  , 782.25116   , 0.74        , 3           , 255         , 0           , 0
-0.129782811, 0.1285465   , -9.808114   , 0.000896384532, 0.000274938444, -0.000101122911, -0.0135633964, -0.0129252095, 7.03199548E-05, 922.7956    , 32.6176643  , 782.2513    , 0.75        , 3           , 255         , 0           , 0
-0.127551228, 0.13535589  , -9.783931   , 0.000377463264, -7.45244E-05, -0.000346189539, -0.0135595761, -0.0129260011, 6.686828E-05, 922.7956    , 32.6176643  , 782.2514    , 0.76        , 3           , 255         , 0           , 0
-0.123322032, 0.125150651 , -9.781752   , 0.0002930541, 0.000290332158, -0.000445359474, -0.0135565875, -0.0129231587, 6.2375475E-05, 922.7956    , 32.6176643  , 782.2515    , 0.77        , 3           , 255         , 0           , 0
-0.1210438  , 0.118786588 , -9.786119   , -0.000144010643, 0.000183643788, -0.000310861622, -0.0135579864, -0.012921364, 5.9242062E-05, 922.7956    , 32.6176643  , 782.251648  , 0.78        , 3           , 255         , 0           , 0
-0.132436484, 0.137817144 , -9.789675   , -0.000160200638, -0.000440921722, -0.000107550317, -0.0135595761, -0.0129257878, 5.8226382E-05, 922.7956    , 32.6176643  , 782.2518    , 0.79        , 3           , 255         , 0           , 0
-0.127014369, 0.138583541 , -9.806837   , -0.000346127956, -3.2777607E-06, -0.000399210636, -0.0135629848, -0.0129258744, 5.42348462E-05, 922.7956    , 32.6176643  , 782.2519    , 0.8         , 3           , 255         , 0           , 0
-0.128997326, 0.140976071 , -9.796496   , 3.991631E-05, -6.834499E-05, -0.000311262964, -0.0135575933, -0.01292828 , 5.10675563E-05, 922.7956    , 32.6176643  , 782.2022    , 0.81        , 3           , 255         , 0           , 0
-0.127140209, 0.136761427 , -9.797902   , -0.0001288359, -0.000150541513, -0.000419476244, -0.0135588273, -0.0129298428, 4.68933431E-05, 922.7956    , 32.6176643  , 782.202332  , 0.82        , 3           , 255         , 0           , 0
-0.125017852, 0.1384962   , -9.773656   , -4.88168444E-05, -0.000371005037, -0.0004015848, -0.0135592641, -0.0129336072, 4.292794E-05, 922.7599    , 32.6205139  , 782.202454  , 0.83        , 3           , 255         , 0           , 0
-0.129865363, 0.137814328 , -9.787247   , -0.000135732291, -1.38402684E-05, -0.000565173046, -0.0135605475, -0.0129338223, 3.7278267E-05, 922.7599    , 32.6205139  , 782.2026    , 0.84        , 3           , 255         , 0           , 0
-0.125213355, 0.134631842 , -9.80081    , -9.231502E-05, 3.684222E-05, 0.000134015092, -0.0135614872, -0.0129334358, 3.86133834E-05, 922.7599    , 32.6205139  , 782.2027    , 0.85        , 3           , 255         , 0           , 0
-0.130266041, 0.120986342 , -9.801886   , -0.0001989766, -0.000194046646, -0.000534209132, -0.0135634085, -0.0129354466, 3.32977725E-05, 922.7599    , 32.6205139  , 782.2028    , 0.86        , 3           , 255         , 0           , 0
-0.118464306, 0.1228963   , -9.794645   , 9.109505E-05, -5.04165655E-05, -0.000504550349, -0.0135624316, -0.0129360193, 2.82592755E-05, 922.7599    , 32.6205139  , 782.202942  , 0.87        , 3           , 255         , 0           , 0
-0.124816023, 0.126657724 , -9.791834   , -9.01742E-05, 0.000130645058, -0.000163393735, -0.0135633135, -0.012934735, 2.6607675E-05, 922.7599    , 32.6205139  , 782.203064  , 0.88        , 3           , 255         , 0           , 0
-0.115574181, 0.139666855 , -9.795621   , 0.000120045413, -3.73383227E-05, 0.000974046241, -0.0135622378, -0.0129349781, 3.63528925E-05, 922.7599    , 32.6205139  , 782.2032    , 0.89        , 3           , 255         , 0           , 0
-0.113081858, 0.1289257   , -9.804382   , 0.00051015307, -0.000174179848, -0.00014087178, -0.0135571193, -0.0129367383, 3.496784E-05, 922.7599    , 32.6205139  , 782.2033    , 0.9         , 3           , 255         , 0           , 0
-0.124632835, 0.118726328 , -9.794305   , 0.0007846525, 0.00012408325, 3.356731E-05, -0.0135491369, -0.0129274726, 3.52848474E-05, 922.7599    , 32.6205139  , 782.2046    , 0.91        , 3           , 255         , 0           , 0
-0.131670311, 0.134339765 , -9.788625   , 0.000415084534, 8.883279E-05, 0.00017097505, -0.0135450074, -0.0129265618, 3.698251E-05, 922.7599    , 32.6205139  , 782.2047    , 0.92        , 3           , 255         , 0           , 0
-0.125408486, 0.132266477 , -9.789907   , -0.0001557247, -9.10820963E-05, -0.000124261613, -0.0135465488, -0.0129274894, 3.57522731E-05, 922.7387    , 32.6206474  , 782.204834  , 0.93        , 3           , 255         , 0           , 0
-0.132800579, 0.129186273 , -9.795599   , 0.000260692381, -1.107392E-05, -6.84404949E-05, -0.0135439327, -0.0129276095, 3.50693954E-05, 922.7387    , 32.6206474  , 782.204956  , 0.94        , 3           , 255         , 0           , 0
-0.126228064, 0.132134557 , -9.798155   , 0.000341689127, 0.000103955914, -0.000292720535, -0.0135404784, -0.012926613, 3.212821E-05, 922.7387    , 32.6206474  , 782.2051    , 0.95        , 3           , 255         , 0           , 0
-0.127029613, 0.133526728 , -9.806363   , 0.00018476785, -3.04885325E-05, 0.000793618441, -0.0135387341, -0.0129268086, 4.00682547E-05, 922.7387    , 32.6206474  , 782.2052    , 0.96        , 3           , 255         , 0           , 0
-0.11967586 , 0.138147533 , -9.808416   , 0.000285436254, -0.000142399746, -0.0002975375, -0.0135358386, -0.0129282726, 3.71122624E-05, 922.7387    , 32.6206474  , 782.2053    , 0.97        , 3           , 255         , 0           , 0
-0.124002382, 0.131694868 , -9.800206   , 0.0003295866, 0.000444063277, -0.00013023027, -0.0135325268, -0.01292385 , 3.57499048E-05, 922.7387    , 32.6206474  , 782.205444  , 0.98        , 3           , 255         , 0           , 0
-0.130258232, 0.130126387 , -9.782077   , 0.000339209277, 0.000138718708, -0.000103544378, -0.0135291219, -0.012922476, 3.46957167E-05, 922.7387    , 32.6206474  , 782.205566  , 0.99        , 3           , 255         , 0           , 0
-0.123349287, 0.1332592   , -9.783854   , 0.000117637246, -3.44943546E-05, 1.42670306E-05, -0.0135279465, -0.0129228225, 3.48430476E-05, 922.7387    , 32.6206474  , 782.2057    , 1           , 3           , 0           , 6.46423626  , 100
-0.126186848, 0.134936765 , -9.796033   , -0.0008165444, -0.000140975491, -0.000695695751, -0.0135325165, -0.0129239745, 2.78600837E-05, 922.7387    , 32.6206474  , 782.229736  , 1.01        , 3           , 1           , 0           , 0
-0.130687475, 0.132421136 , -9.812489   , 0.0001886668, -4.67328064E-05, 1.88166086E-06, -0.01353063 , -0.0129244421, 2.7885224E-05, 922.7387    , 32.6206474  , 782.2299    , 1.02        , 3           , 2           , 0           , 0
-0.112377189, 0.139653891 , -9.788141   , 0.0002860858, 0.000189159153, 2.94830788E-05, -0.0135277705, -0.01292255 , 2.81544581E-05, 922.7523    , 32.6251945  , 782.2301    , 1.03        , 3           , 3           , 0           , 0
-0.124108076, 0.14335832  , -9.79581451 , 0.000797792862, 0.000177127047, -0.0005707356, -0.01351972 , -0.0129208537, 2.24233245E-05, 922.7523    , 32.6251945  , 782.2303    , 1.04        , 3           , 4           , 0           , 0
-0.129398808, 0.13952     , -9.793729   , 0.000454561232, 0.0005448042, 0.000318860024, -0.0135152163, -0.0129153663, 2.55381929E-05, 922.7523    , 32.6251945  , 782.230469  , 1.05        , 3           , 5           , 0           , 0
-0.132351592, 0.130405352 , -9.809275   , -4.14468232E-05, 0.000152092238, 0.000538108055, -0.0135156978, -0.01291377 , 3.08985327E-05, 922.7523    , 32.6251945  , 782.230652  , 1.06        , 3           , 6           , 0           , 0
-0.121713877, 0.132292241 , -9.791681   , -7.44288E-05, 0.000192974752, 0.000507140241, -0.013516508, -0.0129117714, 3.594368E-05, 922.7523    , 32.6251945  , 782.230835  , 1.07        , 3           , 7           , 0           , 0
-0.133653015, 0.132509172 , -9.793974   , 0.000129712484, 0.0001775006, -0.000278960535, -0.0135151744, -0.0129100345, 3.31301744E-05, 922.7523    , 32.6251945  , 782.231     , 1.08        , 3           , 8           , 5           , 5
-0.131082222, 0.1385639   , -9.790624   , 0.0003209227, 0.0001433387, -0.000137484967, -0.0135119483, -0.0129086189, 3.173599E-05, 922.7523    , 32.6251945  , 782.2312    , 1.09        , 3           , 9           , 5           , 0.1
-0.117146492, 0.137729019 , -9.785327   , -0.0007012717, 3.160548E-05, 0.000115942974, -0.0135189742, -0.0129082883, 3.289111E-05, 922.7523    , 32.6251945  , 782.2314    , 1.1         , 3           , 10          , 0.1         , 0.1
-0.119609162, 0.134817436 , -9.789508   , -0.00027009903, 3.1195872E-05, -4.439865E-05, -0.0135308439, -0.0129062952, 3.256132E-05, 922.7523    , 32.6251945  , 782.2374    , 1.11        , 3           , 11          , 0.00930896  , 0.00930896
-0.125445411, 0.127326369 , -9.783136   , -0.000316530874, -0.000444604259, 0.000306632224, -0.0135340476, -0.0129106985, 3.56876881E-05, 922.7523    , 32.6251945  , 782.2376    , 1.12        , 3           , 12          , 0.174642846 , 0
-0.125569642, 0.126007676 , -9.818628   , -0.000565657567, 0.00032373314, 0.0001710696, -0.0135397259, -0.01290744 , 3.735451E-05, 922.733765  , 32.6245155  , 782.237854  , 1.13        , 3           , 13          , 0           , 0
-0.1268055  , 0.135145113 , -9.798129   , 0.0003300463, 0.000104618637, 0.0002190998, -0.0135364532, -0.0129063642, 3.953127E-05, 922.733765  , 32.6245155  , 782.2381    , 1.14        , 3           , 14          , -0.0006014696, -0.000321105123
-0.130150229, 0.128223985 , -9.813948   , 0.000302422937, 0.0004638911, 0.0002844141, -0.0135334646, -0.0129016861, 4.23125275E-05, 922.733765  , 32.6245155  , 782.238342  , 1.15        , 3           , 15          , 0           , 2.01382954E-05
-0.126479179, 0.131072551 , -9.779596   , 0.000269056181, 0.0001672499, 0.00073160883, -0.013530869, -0.0128999185, 4.96057473E-05, 922.733765  , 32.6245155  , 782.2386    , 1.16        , 3           , 16          , 0           , 1.401298E-45
-0.118296109, 0.132767111 , -9.7775135  , -0.00015500444, 0.000396156131, -0.000200005059, -0.0135323927, -0.0128959818, 4.75521556E-05, 922.733765  , 32.6245155  , 782.238831  , 1.17        , 3           , 20          , 0           , 0
-0.128108218, 0.127925172 , -9.777422   , 0.000143616111, 0.000479996816, 0.000182123273, -0.01353098 , -0.0128911566, 4.93083753E-05, 922.733765  , 32.6245155  , 782.2391    , 1.18        , 3           , 21          , 0           , 0
-0.124031208, 0.136685818 , -9.795959   , -0.0002495562, 0.000166111233, 0.000214516491, -0.0135335028, -0.0128894672, 5.14309941E-05, 922.733765  , 32.6245155  , 782.2393    , 1.19        , 3           , 22          , 0           , 0
-0.12844047 , 0.128042623 , -9.806576   , -0.000441082928, -0.000146356877, -0.0005942206, -0.0135378381, -0.0128910113, 4.55087938E-05, 922.733765  , 32.6245155  , 782.239563  , 1.2         , 3           , 40          , 0           , 0
-0.131626055, 0.139345288 , -9.799948   , -0.000186227611, 6.694559E-05, 0.000390045869, -0.0135350283, -0.0128873428, 4.93392254E-05, 922.733765  , 32.6245155  , 782.2638    , 1.21        , 3           , 41          , 0           , 0
-0.134973288, 0.144665211 , -9.777019   , 0.00097363547, -0.000390762463, -0.0001111021, -0.0135252774, -0.0128912637, 4.828111E-05, 922.733765  , 32.6245155  , 782.2641    , 1.22        , 3           , 42          , 0           , 0
-0.131169841, 0.138301671 , -9.78098    , 0.000738213945, -0.0001673759, 0.0004210503, -0.0135179507, -0.0128928842, 5.2514104E-05, 922.7817    , 32.6267548  , 782.2644    , 1.23        , 3           , 255         , 0           , 0
-0.127222344, 0.132220984 , -9.786781   , -4.5806868E-05, -6.74816838E-05, 0.000394469942, -0.01351846 , -0.0128935045, 5.64677939E-05, 922.7817    , 32.6267548  , 782.2647    , 1.24        , 3           , 255         , 0           , 0
-0.127900213, 0.1485364   , -9.802541   , -0.0006197799, 2.05327524E-06, -0.000173452136, -0.0135246338, -0.0128935082, 5.473305E-05, 922.7817    , 32.6267548  , 782.265     , 1.25        , 3           , 255         , 0           , 0
-0.13203533 , 0.1444337   , -9.806737   , 0.000273397047, 0.000178436181, -0.000113395545, -0.0135218864, -0.0128917377, 5.35750078E-05, 922.7817    , 32.6267548  , 782.2653    , 1.26        , 3           , 255         , 0           , 0
-0.137084678, 0.137867063 , -9.797689   , 0.00052500685, 0.000216514716, -0.0006916214, -0.0135165462, -0.0128896665, 4.66297533E-05, 922.7817    , 32.6267548  , 782.2656    , 1.27        , 3           , 255         , 0           , 0
-0.130488142, 0.1401284   , -9.783115   , 0.0004945481, -0.0003870314, 0.000382496539, -0.01351165 , -0.0128934849, 5.05068929E-05, 922.7817    , 32.6267548  , 782.2659    , 1.28        , 3           , 255         , 0           , 0
-0.131048441, 0.1421952   , -9.776309   , 0.000233549712, -0.00024844252, 6.374603E-05, -0.0135093229, -0.0128959613, 5.11778962E-05, 922.7817    , 32.6267548  , 782.266235  , 1.29        , 3           , 255         , 0           , 0
-0.120883189, 0.137872115 , -9.793048   , -0.000323447923, 9.380984E-05, 2.1438791E-07, -0.0135125564, -0.0128950235, 5.1167357E-05, 922.7817    , 32.6267548  , 782.266541  , 1.3         , 3           , 255         , 0           , 0
-0.128723726, 0.13846986  , -9.806572   , 6.08993578E-05, 7.969086E-05, 0.000143249985, -0.0135391392, -0.0129081588, 5.29398E-05 , 922.7817    , 32.6267548  , 782.2386    , 1.31        , 3           , 255         , 0           , 0
-0.130628377, 0.132959753 , -9.803513   , 0.000347934081, 0.000393557973, 0.0001683616, -0.01353568 , -0.0129042007, 5.4570075E-05, 922.7817    , 32.6267548  , 782.238831  , 1.32        , 3           , 255         , 0           , 0
-0.1256637  , 0.128155619 , -9.788596   , 0.000204197131, -0.000209591934, -0.000610792, -0.0135335615, -0.0129063791, 4.84907323E-05, 922.7281    , 32.62499    , 782.2391    , 1.33        , 3           , 255         , 0           , 0
-0.12059091 , 0.129557878 , -9.78150749 , 1.5200756E-05, 7.14826747E-05, -0.000285944639, -0.0135333724, -0.0129057029, 4.562171E-05, 922.7281    , 32.62499    , 782.2393    , 1.34        , 3           , 255         , 0           , 0
-0.127753347, 0.131783634 , -9.791128   , 2.77464278E-06, 9.519365E-05, 0.0008518919, -0.0135334535, -0.0129046356, 5.4127453E-05, 922.7281    , 32.62499    , 782.239563  , 1.35        , 3           , 255         , 0           , 0
-0.12711966 , 0.132223517 , -9.805419   , -0.000189086539, -0.0001205288, 0.00110080943, -0.0135354865, -0.0129056936, 6.51515E-05 , 922.7281    , 32.62499    , 782.2398    , 1.36        , 3           , 255         , 0           , 0
-0.124434948, 0.138451263 , -9.778489   , -4.04772E-05, 0.000361773826, 0.000285297079, -0.013535928, -0.0129020372, 6.795541E-05, 922.7281    , 32.62499    , 782.240051  , 1.37        , 3           , 255         , 0           , 0
-0.12486352 , 0.129395336 , -9.80307    , 0.000229564321, 0.000426350482, 0.000272167526, -0.0135336686, -0.0128977373, 7.061929E-05, 922.7281    , 32.62499    , 782.2403    , 1.38        , 3           , 255         , 0           , 0
-0.127347082, 0.143733591 , -9.790139   , -0.000105211278, -0.000394988339, 0.000537747343, -0.01353479 , -0.0129016144, 7.605004E-05, 922.7281    , 32.62499    , 782.24054   , 1.39        , 3           , 255         , 0           , 0
-0.121899247, 0.14722006  , -9.819002   , 6.783125E-05, 9.894876E-05, 0.000101680511, -0.0135341249, -0.01290061 , 7.705342E-05, 922.7281    , 32.62499    , 782.2408    , 1.4         , 3           , 255         , 0           , 0
-0.124658622, 0.144872725 , -9.800214   , 0.000284418871, 0.000230493984, 0.0003328544, -0.0135369105, -0.0128970928, 8.042274E-05, 922.7281    , 32.62499    , 782.2707    , 1.41        , 3           , 255         , 0           , 0
-0.125882179, 0.133091331 , -9.793417   , -7.25507853E-05, -5.247898E-05, -0.00017761116, -0.0135376146, -0.0128976414, 7.86537857E-05, 922.7281    , 32.62499    , 782.271057  , 1.42        , 3           , 255         , 0           , 0
-0.118810393, 0.129897326 , -9.783036   , 0.000123032543, 0.000131164838, -0.0003539449, -0.0135363378, -0.0128963776, 7.50967E-05 , 922.757751  , 32.6297379  , 782.2714    , 1.43        , 3           , 255         , 0           , 0
-0.126793385, 0.134834841 , -9.800806   , -7.885334E-06, 0.0002431699, 0.000382375962, -0.0135364644, -0.0128938938, 7.888742E-05, 922.757751  , 32.6297379  , 782.2718    , 1.44        , 3           , 255         , 0           , 0
-0.132150412, 0.133083969 , -9.81014252 , 0.000129712978, 0.000266773539, -3.07608934E-06, -0.0135351671, -0.0128912255, 7.882055E-05, 922.757751  , 32.6297379  , 782.272156  , 1.45        , 3           , 255         , 0           , 0
-0.124116682, 0.145518482 , -9.80645752 , 0.000459374656, 0.000426033657, -0.000573679747, -0.0135304993, -0.0128870429, 7.30262836E-05, 922.757751  , 32.6297379  , 782.2725    , 1.46        , 3           , 255         , 0           , 0
-0.133351892, 0.13741146  , -9.791605   , 0.000315905752, -4.78685251E-05, -4.80341332E-05, -0.0135273347, -0.0128875272, 7.25524442E-05, 922.757751  , 32.6297379  , 782.2729    , 1.47        , 3           , 255         , 0           , 0
-0.129098967, 0.130641848 , -9.779218   , 0.0001458993, 0.00014582611, 0.000103973944, -0.0135258883, -0.0128860595, 7.357242E-05, 922.757751  , 32.6297379  , 782.273254  , 1.48        , 3           , 255         , 0           , 0
-0.117120907, 0.137255937 , -9.790104   , -0.000390989939, 4.3144275E-05, 0.000238584951, -0.01352983 , -0.0128855929, 7.59523537E-05, 922.757751  , 32.6297379  , 782.2736    , 1.49        , 3           , 255         , 0           , 0
-0.1308069  , 0.133104458 , -9.792977   , -0.000638157944, -4.39989963E-05, -0.0004662635, -0.0135361515, -0.0128860967, 7.129582E-05, 922.757751  , 32.6297379  , 782.274     , 1.5         , 3           , 255         , 0           , 0
-0.125291616, 0.137347877 , -9.80192    , 0.0004096514, 7.233012E-05, -0.000801113, -0.0135399  , -0.01288544 , 6.337757E-05, 922.757751  , 32.6297379  , 782.2696    , 1.51        , 3           , 255         , 0           , 0
-0.123927236, 0.135094479 , -9.799289   , 0.000277868181, 0.000334306329, 8.992316E-05, -0.0135371331, -0.0128820855, 6.423151E-05, 922.757751  , 32.6297379  , 782.269958  , 1.52        , 3           , 255         , 0           , 0
-0.130780429, 0.133341834 , -9.782218   , 0.0004848274, -0.0002286637, -0.0006239989, -0.0135322046, -0.0128844557, 5.80226879E-05, 922.7697    , 32.6282463  , 782.2703    , 1.53        , 3           , 255         , 0           , 0
-0.135303646, 0.1300967   , -9.770304   , -0.0002713768, 0.00046826934, -0.0004381552, -0.0135348616, -0.0128798317, 5.357792E-05, 922.7697    , 32.6282463  , 782.2707    , 1.54        , 3           , 255         , 0           , 0
-0.128868729, 0.137553528 , -9.812761   , -0.0001304379, -0.000144270132, -9.32944E-05, -0.0135361534, -0.0128812874, 5.266454E-05, 922.7697    , 32.6282463  , 782.271057  , 1.55        , 3           , 255         , 0           , 0
-0.1299106  , 0.13673839  , -9.805755   , -0.000263674767, -0.000113372633, -0.00053290237, -0.0135387229, -0.0128824944, 4.73510336E-05, 922.7697    , 32.6282463  , 782.2714    , 1.56        , 3           , 255         , 0           , 0
-0.1256897  , 0.137258708 , -9.812602   , 1.24763465E-05, 9.30079259E-05, 0.000515164633, -0.0135386651, -0.0128814941, 5.248992E-05, 922.7697    , 32.6282463  , 782.2718    , 1.57        , 3           , 255         , 0           , 0
-0.129633144, 0.1326387   , -9.791959   , 0.0005077772, 3.03458364E-05, -0.000315799, -0.0135335457, -0.0128812324, 4.93279367E-05, 922.7697    , 32.6282463  , 782.272156  , 1.58        , 3           , 255         , 0           , 0
-0.123971842, 0.120597169 , -9.782225   , -0.000398663338, 0.000663682 , -0.00034358073, -0.013537487, -0.0128746461, 4.58024151E-05, 922.7697    , 32.6282463  , 782.2725    , 1.59        , 3           , 255         , 0           , 0
-0.129106432, 0.123346105 , -9.783506   , -0.000113733, -6.12982E-05, 0.000263377733, -0.0135386577, -0.0128752217, 4.84444E-05 , 922.7697    , 32.6282463  , 782.2729    , 1.6         , 3           , 255         , 0           , 0
-0.1310329  , 0.1356869   , -9.801258   , 6.46234839E-05, 1.92787265E-05, 0.000922620529, -0.0135377077, -0.0128798345, 5.76622333E-05, 922.7697    , 32.6282463  , 782.2559    , 1.61        , 3           , 255         , 0           , 0
-0.11878816 , 0.14014037  , -9.809901   , -0.000322230626, 0.000434115442, -0.00011897894, -0.0135409134, -0.01287551 , 5.641371E-05, 922.7697    , 32.6282463  , 782.2562    , 1.62        , 3           , 255         , 0           , 0
-0.121144   , 0.131759375 , -9.794341   , 0.000170584652, -3.558176E-05, -0.000387507345, -0.0135391578, -0.0128759183, 5.25435753E-05, 922.709839  , 32.6318436  , 782.256531  , 1.63        , 3           , 255         , 0           , 0
-0.120820485, 0.1395596   , -9.782415   , 0.0005698948, -0.000407372776, 1.05473737E-05, -0.0135334609, -0.0128799891, 5.27041921E-05, 922.709839  , 32.6318436  , 782.256836  , 1.64        , 3           , 255         , 0           , 0
-0.1141275  , 0.137258023 , -9.789797   , 0.000237969944, -0.000116381329, -0.0009293173, -0.0135309622, -0.01288128 , 4.342709E-05, 922.709839  , 32.6318436  , 782.257141  , 1.65        , 3           , 255         , 0           , 0
-0.127960473, 0.136544913 , -9.783854   , 0.000584041234, -0.000244369323, -0.000167945051, -0.0135250986, -0.0128837442, 4.178075E-05, 922.709839  , 32.6318436  , 782.257446  , 1.66        , 3           , 255         , 0           , 0
-0.141427964, 0.1265607   , -9.797109   , 0.000102152291, 2.686429E-05, 0.000435373164, -0.0135241337, -0.0128834173, 4.61307E-05 , 922.709839  , 32.6318436  , 782.257751  , 1.67        , 3           , 255         , 0           , 0
-0.139362231, 0.131985992 , -9.795168   , -0.000205252378, -0.00026087038, 0.0007224248, -0.0135262785, -0.0128859272, 5.33899838E-05, 922.709839  , 32.6318436  , 782.258057  , 1.68        , 3           , 255         , 0           , 0
-0.134153992, 0.132284954 , -9.793638   , -4.067435E-05, 9.386917E-06, 0.000142135454, -0.0135267042, -0.0128858145, 5.48100252E-05, 922.709839  , 32.6318436  , 782.258362  , 1.69        , 3           , 255         , 0           , 0
-0.132037044, 0.121365882 , -9.788836   , 0.000237417757, 0.000130089538, 0.000541297661, -0.013524401, -0.01288444 , 6.020522E-05, 922.709839  , 32.6318436  , 782.258667  , 1.7         , 3           , 255         , 0           , 0
-0.131343812, 0.119705573 , -9.7944355  , -0.000629044545, -0.000178993709, 0.00010281484, -0.0135325892, -0.0128908493, 6.12818549E-05, 922.709839  , 32.6318436  , 782.308533  , 1.71        , 3           , 255         , 0           , 0
-0.1253383  , 0.135333344 , -9.798597   , -0.000125012361, -0.000368925772, -8.293704E-05, -0.0135338288, -0.01289455 , 6.05024361E-05, 922.709839  , 32.6318436  , 782.3091    , 1.72        , 3           , 255         , 0           , 0
-0.122954547, 0.137484431 , -9.803931   , -0.000192780979, 5.250756E-05, -0.000324965018, -0.0135357138, -0.01289407 , 5.72457866E-05, 922.752     , 32.6306229  , 782.309631  , 1.73        , 3           , 255         , 0           , 0
-0.119441807, 0.142581612 , -9.795662   , 0.000228325487, -0.000218295521, -0.000111901543, -0.013533419, -0.0128962677, 5.61563647E-05, 922.752     , 32.6306229  , 782.3102    , 1.74        , 3           , 255         , 0           , 0
-0.1187859  , 0.137563452 , -9.786847   , -0.0004136954, -8.46928742E-05, -0.000405641418, -0.0135375028, -0.01289717 , 5.211155E-05, 922.752     , 32.6306229  , 782.3107    , 1.75        , 3           , 255         , 0           , 0
-0.122094966, 0.127843142 , -9.788698   , -1.06956577E-05, 0.000107706961, -0.0002911578, -0.0135375727, -0.0128961327, 4.918549E-05, 922.752     , 32.6306229  , 782.31134   , 1.76        , 3           , 255         , 0           , 0
-0.133255392, 0.125631019 , -9.78468    , -0.0006369014, 0.000355723023, -0.000342390063, -0.0135438964, -0.0128926225, 4.57135357E-05, 922.752     , 32.6306229  , 782.311951  , 1.77        , 3           , 255         , 0           , 0
-0.125831872, 0.1292685   , -9.796286   , -0.0005813649, 5.51314151E-05, -0.0007379623, -0.0135496147, -0.01289217 , 3.832669E-05, 922.752     , 32.6306229  , 782.312561  , 1.78        , 3           , 255         , 0           , 0
-0.126352042, 0.137496337 , -9.802269   , -0.000319920131, -0.0002652201, -0.0002793993, -0.0135527765, -0.0128948605, 3.55687334E-05, 922.752     , 32.6306229  , 782.3132    , 1.79        , 3           , 255         , 0           , 0
-0.120234095, 0.146622866 , -9.7996645  , -9.57953744E-05, -0.000167695311, -0.000565923459, -0.0135536632, -0.0128966141, 2.993243E-05, 922.752     , 32.6306229  , 782.3138    , 1.8         , 3           , 255         , 0           , 0
-0.126286238, 0.129259169 , -9.792104   , 0.000784973148, 0.00019215059, 0.000206956276, -0.0135487784, -0.0128908157, 3.20137624E-05, 922.752     , 32.6306229  , 782.3111    , 1.81        , 3           , 255         , 0           , 0
-0.1276898  , 0.125870943 , -9.781462   , -4.99641174E-05, 7.383866E-05, 0.0006704   , -0.0135493642, -0.0128899869, 3.8707527E-05, 922.752     , 32.6306229  , 782.311646  , 1.82        , 3           , 255         , 0           , 0
-0.134843722, 0.125374049 , -9.79564    , -0.000256097, -0.000127945474, 0.0008508301, -0.0135520333, -0.012891151, 4.72328829E-05, 922.7553    , 32.63191    , 782.3122    , 1.83        , 3           , 255         , 0           , 0
-0.126564354, 0.131395072 , -9.791449   , -6.72802E-05, -0.0003850924, 0.000927717658, -0.0135528259, -0.0128948782, 5.65619339E-05, 922.7553    , 32.63191    , 782.312744  , 1.84        , 3           , 255         , 0           , 0
-0.125756875, 0.137438267 , -9.809667   , -1.02132908E-05, -6.318354E-05, 0.000102224585, -0.0135529414, -0.0128954947, 5.759271E-05, 922.7553    , 32.63191    , 782.3133    , 1.85        , 3           , 255         , 0           , 0
-0.133183628, 0.136256248 , -9.798948   , 2.12328741E-05, -0.0001162955, -0.000715923146, -0.0135526368, -0.0128967548, 5.04494819E-05, 922.7553    , 32.63191    , 782.3139    , 1.86        , 3           , 255         , 0           , 0
-0.128527328, 0.126502842 , -9.781793   , 0.000164603873, 5.8270467E-05, -0.000640987768, -0.0135509083, -0.0128962584, 4.40319272E-05, 922.7553    , 32.63191    , 782.3145    , 1.87        , 3           , 255         , 0           , 0
-0.126621634, 0.140675753 , -9.767868   , 0.000370304944, 0.00057823176, 9.787547E-06, -0.0135472082, -0.0128904749, 4.405146E-05, 922.7553    , 32.63191    , 782.3151    , 1.88        , 3           , 255         , 0           , 0
-0.124243692, 0.1380752   , -9.776372   , -0.000139064039, 0.000551331032, 0.0003634391, -0.0135486443, -0.0128849139, 4.76110363E-05, 922.7553    , 32.63191    , 782.315735  , 1.89        , 3           , 255         , 0           , 0
-0.127400875, 0.134831756 , -9.790882   , -0.000242032809, 0.00048176953, 3.08818162E-05, -0.0135510666, -0.0128800953, 4.78545735E-05, 922.7553    , 32.63191    , 782.316345  , 1.9         , 3           , 255         , 0           , 0
-0.121502519, 0.125669241 , -9.797567   , 0.000170922227, -0.000205402263, -5.03410629E-05, -0.0135489926, -0.0128885722, 4.73743821E-05, 922.7553    , 32.63191    , 782.3095    , 1.91        , 3           , 255         , 0           , 0
-0.128673   , 0.123745039 , -9.796104   , 0.0006950951, -0.0003808727, 7.133177E-05, -0.0135420514, -0.01289237 , 4.81392563E-05, 922.7553    , 32.63191    , 782.310059  , 1.92        , 3           , 255         , 0           , 0
-0.121695496, 0.1386098   , -9.790666   , 3.079034E-05, -0.0001346099, 4.70773266E-05, -0.0135417487, -0.01289371 , 4.862824E-05, 922.790161  , 32.6324539  , 782.3106    , 1.93        , 3           , 255         , 0           , 0
-0.126954123, 0.137767345 , -9.790115   , 0.0001492411, 0.000377428718, -0.000378374534, -0.0135402083, -0.0128899869, 4.479352E-05, 922.790161  , 32.6324539  , 782.311157  , 1.94        , 3           , 255         , 0           , 0
-0.134820968, 0.13920781  , -9.80661    , 0.0006954618, -1.964299E-05, -0.000174917877, -0.0135332318, -0.0128902066, 4.30470645E-05, 922.790161  , 32.6324539  , 782.3117    , 1.95        , 3           , 255         , 0           , 0
-0.134739637, 0.140836984 , -9.803505   , 0.0007292519, 0.0002994861, 1.97128247E-05, -0.0135259414, -0.0128872124, 4.32036722E-05, 922.790161  , 32.6324539  , 782.312256  , 1.96        , 3           , 255         , 0           , 0
-0.121395275, 0.13912791  , -9.789438   , 0.0004442538, 0.000393646536, 0.000189922575, -0.0135215223, -0.0128832506, 4.50496045E-05, 922.790161  , 32.6324539  , 782.3128    , 1.97        , 3           , 255         , 0           , 0
-0.117752515, 0.131922409 , -9.790875   , -1.926592E-05, -0.0001245034, -0.000242727328, -0.0135216843, -0.0128845265, 4.26392326E-05, 922.790161  , 32.6324539  , 782.313354  , 1.98        , 3           , 255         , 0           , 0
-0.114135504, 0.1252459   , -9.787591   , -0.000429626321, 0.0001317714, -0.0003884711, -0.0135259293, -0.0128832608, 3.87368345E-05, 922.790161  , 32.6324539  , 782.3139    , 1.99        , 3           , 255         , 0           , 0
-0.128351465, 0.130020767 , -9.792766   , -0.000215053791, -7.768709E-05, -9.959044E-05, -0.0135280676, -0.0128840515, 3.77514734E-05, 922.790161  , 32.6324539  , 782.314453  , 2           , 3           , 0           , 7.46423626  , 200
-0.130951658, 0.134847492 , -9.791077   , 0.000353352 , 0.0003681919, 0.0004652307, -0.0135259274, -0.0128776133, 4.23710044E-05, 922.790161  , 32.6324539  , 782.2655    , 2.01        , 3           , 1           , 0           , 0
-0.118368819, 0.131914034 , -9.822164   , 0.0003046402, -0.0002012623, -0.0001125577, -0.0135228671, -0.0128796408, 4.12726731E-05, 922.790161  , 32.6324539  , 782.265747  , 2.02        , 3           , 2           , 0           , 0
-0.116559967, 0.1444231   , -9.795051   , 0.000475800131, -0.000209766673, -0.00046820697, -0.0135180494, -0.0128818015, 3.66191234E-05, 922.7396    , 32.633606   , 782.266     , 2.03        , 3           , 3           , 0           , 0
-0.13010174 , 0.134738654 , -9.800704   , 0.0006742896, 0.000190386665, -0.00061099435, -0.0135112284, -0.0128799817, 3.04836576E-05, 922.7396    , 32.633606   , 782.266235  , 2.04        , 3           , 4           , 0           , 0
-0.130945057, 0.129211918 , -9.78938    , 0.0008126318, 3.152556E-06, -0.000275750557, -0.0135030663, -0.0128799863, 2.7725815E-05, 922.7396    , 32.633606   , 782.2665    , 2.05        , 3           , 5           , 0           , 0
-0.120926537, 0.129701942 , -9.796967   , 0.000284081529, 7.58201058E-05, 0.000176965579, -0.0135002481, -0.012879204, 2.94851761E-05, 922.7396    , 32.633606   , 782.2667    , 2.06        , 3           , 6           , 0           , 0
-0.1302003  , 0.1335248   , -9.780603   , -9.293336E-05, -0.000153959671, -0.000354517251, -0.013501131, -0.0128807919, 2.59609078E-05, 922.7396    , 32.633606   , 782.266968  , 2.07        , 3           , 7           , 0           , 0
-0.135255292, 0.126082018 , -9.796585   , -7.159385E-05, 1.85458339E-06, 0.000226488759, -0.0135018779, -0.0128807435, 2.8225475E-05, 922.7396    , 32.633606   , 782.2672    , 2.08        , 3           , 8           , 5           , 5
-0.125770882, 0.134928524 , -9.800715   , -0.000296554528, 0.000343624473, -0.000430613145, -0.0135047864, -0.0128773656, 2.38730936E-05, 922.7396    , 32.633606   , 782.267456  , 2.09        , 3           , 9           , 5           , 0.1
-0.126165479, 0.139799923 , -9.801596   , 6.479735E-06, -0.000176294183, -5.42359558E-05, -0.0135047147, -0.012879136, 2.33545525E-05, 922.7396    , 32.633606   , 782.2677    , 2.1         , 3           , 10          , 0.1         , 0.1
-0.123340905, 0.136986688 , -9.779814   , -0.000122485857, 0.00030883422, 0.000137191353, -0.0135087334, -0.0128765805, 2.47204734E-05, 922.7396    , 32.633606   , 782.2856    , 2.11        , 3           , 11          , 0.008221517 , 0.008221515
-0.121010385, 0.131199077 , -9.793024   , -0.000126190949, 0.000241745132, 0.0002847116, -0.0135100316, -0.0128741255, 2.75348357E-05, 922.7396    , 32.633606   , 782.28595   , 2.12        , 3           , 12          , 0.174643889 , 0
-0.135413915, 0.127709478 , -9.79279    , -0.0002451411, 0.0002443891, 0.000150744308, -0.0135125034, -0.0128716612, 2.9009203E-05, 922.7257    , 32.6323853  , 782.2863    , 2.13        , 3           , 13          , 0           , 0
-0.1252532  , 0.135228679 , -9.801794   , -0.000737953931, 0.000250027 , 0.000322869921, -0.0135199223, -0.0128691178, 3.22039923E-05, 922.7257    , 32.6323853  , 782.2867    , 2.14        , 3           , 14          , -0.0006013883, -0.0003210678
-0.124415562, 0.134986877 , -9.80135    , 0.00022644765, 0.000367431028, -2.82835772E-05, -0.0135176545, -0.0128654474, 3.18715E-05 , 922.7257    , 32.6323853  , 782.287048  , 2.15        , 3           , 15          , 0           , 2.013775E-05
-0.127651066, 0.133240968 , -9.79462    , 0.0005261667, 0.000149522 , -0.000442213059, -0.0135123366, -0.0128640151, 2.74293161E-05, 922.7257    , 32.6323853  , 782.2874    , 2.16        , 3           , 16          , 0           , 1.401298E-45
-0.137150913, 0.135056943 , -9.787364   , 0.000263868773, -0.000200565788, -0.00044512804, -0.01350964 , -0.0128660789, 2.3005281E-05, 922.7257    , 32.6323853  , 782.2878    , 2.17        , 3           , 20          , 0           , 0
-0.130337745, 0.132694885 , -9.783725   , -0.000123329111, -0.000413153844, -0.000350588845, -0.0135108288, -0.0128702587, 1.95553257E-05, 922.7257    , 32.6323853  , 782.2882    , 2.18        , 3           , 21          , 0           , 0
-0.124671981, 0.134001166 , -9.792452   , 6.423163E-05, 0.000101222133, -0.0003784984, -0.0135101378, -0.0128692966, 1.57567938E-05, 922.7257    , 32.6323853  , 782.288635  , 2.19        , 3           , 22          , 0           , 0
-0.1270445  , 0.13625744  , -9.796863   , 1.34175643E-05, -2.15724576E-05, -0.000295970822, -0.0135099655, -0.0128695527, 1.28001029E-05, 922.7257    , 32.6323853  , 782.289063  , 2.2         , 3           , 40          , 0           , 0
-0.121864244, 0.134743571 , -9.799461   , 8.191622E-06, 0.00022983161, 0.0004865832, -0.01351312 , -0.0128709823, 1.76755821E-05, 922.7257    , 32.6323853  , 782.3222    , 2.21        , 3           , 41          , 0           , 0
-0.129408255, 0.130906731 , -9.799042   , 0.000105951971, 0.000141982062, 0.000348206726, -0.0135121047, -0.0128695136, 2.11383431E-05, 922.7257    , 32.6323853  , 782.3228    , 2.22        , 3           , 42          , 0           , 0
-0.134788752, 0.131822243 , -9.794847   , 0.0001904573, -0.000198218069, 0.0009592029, -0.0135103241, -0.01287137 , 3.07568371E-05, 922.730347  , 32.6317749  , 782.3234    , 2.23        , 3           , 255         , 0           , 0
-0.133977324, 0.12575528  , -9.790977   , 0.000178421818, -0.0001044712, 0.000628430862, -0.01350862 , -0.012872329, 3.70550442E-05, 922.730347  , 32.6317749  , 782.324036  , 2.24        , 3           , 255         , 0           , 0
-0.124758042, 0.131412491 , -9.790115   , 0.000125694321, -4.741311E-05, 0.0004540277, -0.01350742 , -0.0128727416, 4.16015646E-05, 922.730347  , 32.6317749  , 782.324646  , 2.25        , 3           , 255         , 0           , 0
-0.134246141, 0.120727077 , -9.795317   , -0.000133367488, -0.000297858118, 0.000591729651, -0.0135088312, -0.0128756389, 4.75588968E-05, 922.730347  , 32.6317749  , 782.325256  , 2.26        , 3           , 255         , 0           , 0
-0.136566609, 0.13417466  , -9.791772   , 0.0001955553, 0.000349068781, -0.000171148349, -0.0135068521, -0.0128721725, 4.5800316E-05, 922.730347  , 32.6317749  , 782.325867  , 2.27        , 3           , 255         , 0           , 0
-0.122943446, 0.1365856   , -9.792061   , 0.00111706229, -0.000438821939, 0.000212534535, -0.0134957088, -0.0128765292, 4.79848277E-05, 922.730347  , 32.6317749  , 782.3265    , 2.28        , 3           , 255         , 0           , 0
-0.116144046, 0.139068872 , -9.7856245  , 0.000107358093, -0.000233926723, -0.0003407467, -0.0134945922, -0.0128789134, 4.46090344E-05, 922.730347  , 32.6317749  , 782.3271    , 2.29        , 3           , 255         , 0           , 0
-0.123872325, 0.132016063 , -9.785118   , -0.0003841095, -4.82933538E-05, -0.00076519826, -0.0134983342, -0.0128795  , 3.69638219E-05, 922.730347  , 32.6317749  , 782.3277    , 2.3         , 3           , 255         , 0           , 0
-0.12159121 , 0.127749115 , -9.787956   , -0.000118310563, 1.68085389E-05, -0.000364309875, -0.0134981787, -0.0128834806, 3.330195E-05, 922.730347  , 32.6317749  , 782.3508    , 2.31        , 3           , 255         , 0           , 0
-0.12334428 , 0.126842037 , -9.790463   , -0.000309663359, 0.000486923556, 0.000465469 , -0.013501334, -0.0128785484, 3.78907462E-05, 922.730347  , 32.6317749  , 782.3516    , 2.32        , 3           , 255         , 0           , 0
-0.124623738, 0.129959732 , -9.78867    , -0.0002042483, 0.000263019378, 7.283007E-05, -0.0135033866, -0.012875909, 3.858351E-05, 922.758057  , 32.6333351  , 782.3524    , 2.33        , 3           , 255         , 0           , 0
-0.128501624, 0.136604548 , -9.77716351 , 5.19573223E-05, 0.000330337265, -7.145458E-05, -0.0135028576, -0.0128726158, 3.782438E-05, 922.758057  , 32.6333351  , 782.3532    , 2.34        , 3           , 255         , 0           , 0
-0.124721311, 0.13874191  , -9.819143   , 1.12589914E-05, -0.0001701082, 0.000219234615, -0.0135027729, -0.0128742876, 4.00396275E-05, 922.758057  , 32.6333351  , 782.354     , 2.35        , 3           , 255         , 0           , 0
-0.127148867, 0.134188741 , -9.794321   , -4.12960071E-05, -0.000127868261, 0.0003446424, -0.01350323 , -0.0128755188, 4.35032E-05 , 922.758057  , 32.6333351  , 782.3548    , 2.36        , 3           , 255         , 0           , 0
-0.128200129, 0.13850221  , -9.812817   , 0.0005906318, 0.000181427313, 0.0002188735, -0.0134973517, -0.0128736757, 4.56673733E-05, 922.758057  , 32.6333351  , 782.3556    , 2.37        , 3           , 255         , 0           , 0
-0.130928755, 0.136574388 , -9.781505   , 0.0006895544, 0.0005316057, 0.000401745056, -0.0134905083, -0.0128683057, 4.961296E-05, 922.758057  , 32.6333351  , 782.3564    , 2.38        , 3           , 255         , 0           , 0
-0.125950441, 0.137009114 , -9.7827425  , 0.000866041344, -0.00022062732, 0.000375191652, -0.0134818973, -0.0128704626, 5.33945167E-05, 922.758057  , 32.6333351  , 782.3572    , 2.39        , 3           , 255         , 0           , 0
-0.131538481, 0.126295641 , -9.781803   , -9.231857E-05, 0.000144235746, 0.0004268959, -0.0134828752, -0.0128689613, 5.764388E-05, 922.758057  , 32.6333351  , 782.358     , 2.4         , 3           , 255         , 0           , 0
-0.122872673, 0.1251963   , -9.80301    , -0.000160053372, 0.0005309097, 0.0008969197, -0.0134870242, -0.0128649175, 6.65725E-05 , 922.758057  , 32.6333351  , 782.340637  , 2.41        , 3           , 255         , 0           , 0
-0.13672933 , 0.124219678 , -9.821761   , 6.87140855E-05, 0.00131189032, 0.00026367337, -0.0134863677, -0.0128517635, 6.90322049E-05, 922.758057  , 32.6333351  , 782.3413    , 2.42        , 3           , 255         , 0           , 0
-0.137487724, 0.132752    , -9.796194   , 0.000545139133, 8.409817E-05, 9.060239E-05, -0.0134809278, -0.0128509095, 6.992686E-05, 922.7376    , 32.630825   , 782.342     , 2.43        , 3           , 255         , 0           , 0
-0.131130829, 0.133952275 , -9.780989   , 0.000142845383, -4.186161E-05, -0.0006650522, -0.0134794125, -0.012851418, 6.32822E-05 , 922.7376    , 32.630825   , 782.342651  , 2.44        , 3           , 255         , 0           , 0
-0.11843735 , 0.130990237 , -9.789854   , -0.000541254354, 9.537552E-05, 5.784384E-05, -0.0134848328, -0.0128504569, 6.384776E-05, 922.7376    , 32.630825   , 782.3433    , 2.45        , 3           , 255         , 0           , 0
-0.123286322, 0.1306069   , -9.803982   , 7.539231E-06, 0.000354121119, 0.000254201936, -0.0134847891, -0.0128468815, 6.63419341E-05, 922.7376    , 32.630825   , 782.344     , 2.46        , 3           , 255         , 0           , 0
-0.127698928, 0.129106656 , -9.799664   , 0.000114608614, 0.0008104382, -0.0002725886, -0.0134836072, -0.0128388181, 6.350686E-05, 922.7376    , 32.630825   , 782.344666  , 2.47        , 3           , 255         , 0           , 0
-0.128915682, 0.128244758 , -9.788218   , -0.00026526273, 0.0007761529, -0.000731300737, -0.0134861656, -0.0128311543, 5.60894478E-05, 922.7376    , 32.630825   , 782.345337  , 2.48        , 3           , 255         , 0           , 0
-0.12898238 , 0.127239913 , -9.770232   , -0.000538202759, 0.000307836453, -0.0003196985, -0.0134915048, -0.01282812 , 5.28510427E-05, 922.7376    , 32.630825   , 782.346     , 2.49        , 3           , 255         , 0           , 0
-0.121380076, 0.134199277 , -9.814254   , -0.000152070133, 9.972468E-05, -0.0004590731, -0.013492967, -0.012827185, 4.824701E-05, 922.7376    , 32.630825   , 782.3467    , 2.5         , 3           , 255         , 0           , 0
-0.131647468, 0.141726047 , -9.800687   , 0.000457381015, -7.09363958E-05, -0.000288301031, -0.0134842526, -0.0128309159, 4.5321E-05  , 922.7376    , 32.630825   , 782.3581    , 2.51        , 3           , 255         , 0           , 0
-0.124035537, 0.144581109 , -9.811401   , 0.0009893938, 0.000422337558, 0.000758539 , -0.0134744542, -0.0128265936, 5.28492055E-05, 922.7376    , 32.630825   , 782.3589    , 2.52        , 3           , 255         , 0           , 0
-0.124428794, 0.131403968 , -9.777222   , 0.000853851554, 0.0004860554, 0.0008114418, -0.0134660192, -0.0128216213, 6.08979E-05 , 922.8095    , 32.6322479  , 782.3597    , 2.53        , 3           , 255         , 0           , 0
-0.124718741, 0.1293348   , -9.77454948 , -0.000184807926, -9.928946E-06, 0.000272279838, -0.0134679032, -0.0128216837, 6.362195E-05, 922.8095    , 32.6322479  , 782.3605    , 2.54        , 3           , 255         , 0           , 0
-0.132524759, 0.130200177 , -9.774045   , -0.000478625239, 7.84639269E-07, -0.000281943037, -0.013472653, -0.0128217144, 6.08025E-05 , 922.8095    , 32.6322479  , 782.3612    , 2.55        , 3           , 255         , 0           , 0
-0.124374606, 0.135801211 , -9.799677   , -0.000698905846, -9.893812E-05, -0.000336239, -0.0134795988, -0.01282275 , 5.74535552E-05, 922.8095    , 32.6322479  , 782.362     , 2.56        , 3           , 255         , 0           , 0
-0.128609091, 0.137870133 , -9.812947   , 5.29711251E-05, 0.000544388429, -0.000561427267, -0.0134789953, -0.0128173819, 5.17660847E-05, 922.8095    , 32.6322479  , 782.3628    , 2.57        , 3           , 255         , 0           , 0
-0.12335588 , 0.138353378 , -9.793171   , 0.000278593478, 0.000354502 , -7.69558E-05, -0.0134762013, -0.0128138484, 5.094878E-05, 922.8095    , 32.6322479  , 782.3636    , 2.58        , 3           , 255         , 0           , 0
-0.130017921, 0.137358159 , -9.773832   , 0.000640951039, 2.89301388E-05, 0.0003469421, -0.0134698357, -0.0128135141, 5.4414184E-05, 922.8095    , 32.6322479  , 782.3644    , 2.59        , 3           , 255         , 0           , 0
-0.1299167  , 0.142718315 , -9.777072   , -0.00035345013, -0.000241014466, -5.740449E-05, -0.0134733636, -0.0128159309, 5.38726235E-05, 922.8095    , 32.6322479  , 782.3652    , 2.6         , 3           , 255         , 0           , 0
-0.135179445, 0.134925112 , -9.794449   , -0.0008032515, -0.0001685982, -0.000728524756, -0.013495083, -0.0128226923, 4.67870559E-05, 922.8095    , 32.6322479  , 782.276245  , 2.61        , 3           , 255         , 0           , 0
-0.131400615, 0.12990196  , -9.808144   , -0.000387810171, 0.000415395 , -1.93709548E-05, -0.0134989591, -0.0128185423, 4.653728E-05, 922.8095    , 32.6322479  , 782.2764    , 2.62        , 3           , 255         , 0           , 0
-0.130828276, 0.13258402  , -9.801729   , 0.000119389326, 0.0004257239, -7.086803E-05, -0.0134977549, -0.0128142945, 4.577116E-05, 922.731567  , 32.6345558  , 782.2766    , 2.63        , 3           , 255         , 0           , 0
-0.1296123  , 0.133173019 , -9.798479   , -5.521928E-05, 0.0003303491, -0.0004098082, -0.0134982551, -0.0128110461, 4.16286239E-05, 922.731567  , 32.6345558  , 782.2768    , 2.64        , 3           , 255         , 0           , 0
-0.121505   , 0.1278107   , -9.79067    , 0.000856485567, -1.32642162E-05, 0.000607260037, -0.013489767, -0.0128110973, 4.770281E-05, 922.731567  , 32.6345558  , 782.277     , 2.65        , 3           , 255         , 0           , 0
-0.124691129, 0.141842633 , -9.791321   , -0.000448297127, -8.935065E-05, 0.0005746731, -0.0134943239, -0.0128119141, 5.34614046E-05, 922.731567  , 32.6345558  , 782.277161  , 2.66        , 3           , 255         , 0           , 0
-0.13117525 , 0.138205677 , -9.805768   , -0.00018197624, 0.000168483952, -0.000179073191, -0.0134961214, -0.0128102535, 5.1648E-05  , 922.731567  , 32.6345558  , 782.277344  , 2.67        , 3           , 255         , 0           , 0
-0.124095976, 0.134742528 , -9.79994    , 0.0001466249, -1.42017961E-05, -7.358719E-05, -0.0134946462, -0.0128104053, 5.09140773E-05, 922.731567  , 32.6345558  , 782.2775    , 2.68        , 3           , 255         , 0           , 0
-0.129513174, 0.131569877 , -9.796254   , 0.0005004429, -7.895101E-05, 0.000277912419, -0.0134896766, -0.0128111579, 5.37037631E-05, 922.731567  , 32.6345558  , 782.2777    , 2.69        , 3           , 255         , 0           , 0
-0.127785623, 0.135829955 , -9.788445   , -0.000317691127, 0.000250031066, 0.0009794404, -0.01349298 , -0.0128085278, 6.34641037E-05, 922.731567  , 32.6345558  , 782.277954  , 2.7         , 3           , 255         , 0           , 0
-0.127251357, 0.137804091 , -9.790041   , -0.0004940721, -0.000100452424, 0.00152395829, -0.0135009782, -0.0128140291, 7.875342E-05, 922.731567  , 32.6345558  , 782.307068  , 2.71        , 3           , 255         , 0           , 0
-0.126587942, 0.141804457 , -9.791669   , -0.0002229609, 0.0005058764, 0.000177862967, -0.01350323 , -0.0128089469, 8.046367E-05, 922.731567  , 32.6345558  , 782.3075    , 2.72        , 3           , 255         , 0           , 0
-0.13406679 , 0.13738361  , -9.787553   , -0.000448732171, 0.000538295251, 6.921723E-05, -0.0135077257, -0.0128035545, 8.108313E-05, 922.7455    , 32.6340828  , 782.3079    , 2.73        , 3           , 255         , 0           , 0
-0.128957286, 0.1288937   , -9.804956   , -0.000188440783, 0.0001237092, 4.810797E-05, -0.0135096135, -0.0128023112, 8.154747E-05, 922.7455    , 32.6340828  , 782.30835   , 2.74        , 3           , 255         , 0           , 0
-0.123749018, 0.129548222 , -9.795827   , 0.00027489636, -0.0007995746, 0.000105428815, -0.013506881, -0.0128102917, 8.270974E-05, 922.7455    , 32.6340828  , 782.3088    , 2.75        , 3           , 255         , 0           , 0
-0.130183965, 0.140842333 , -9.795303   , 0.0003605737, -0.0006854126, 0.000108352455, -0.0135032907, -0.01281713 , 8.388579E-05, 922.7455    , 32.6340828  , 782.3092    , 2.76        , 3           , 255         , 0           , 0
-0.128273308, 0.132862955 , -9.783211   , 0.0004012938, -0.0004863033, 0.000231438738, -0.0134993074, -0.0128219612, 8.626576E-05, 922.7455    , 32.6340828  , 782.309631  , 2.77        , 3           , 255         , 0           , 0
-0.126044229, 0.129354566 , -9.784413   , -3.387971E-05, -0.000260531029, 0.000487414 , -0.01349971 , -0.0128245009, 9.117491E-05, 922.7455    , 32.6340828  , 782.310059  , 2.78        , 3           , 255         , 0           , 0
-0.128988817, 0.129788414 , -9.779925   , -0.000359103957, -7.181699E-05, -0.000377583056, -0.0135032535, -0.01282527 , 8.74088946E-05, 922.7455    , 32.6340828  , 782.3105    , 2.79        , 3           , 255         , 0           , 0
-0.130949467, 0.136143714 , -9.797504   , -0.000241794856, -0.000116226496, 2.9824294E-05, -0.013505674, -0.0128264269, 8.772282E-05, 922.7455    , 32.6340828  , 782.3109    , 2.8         , 3           , 255         , 0           , 0
-0.131913692, 0.133982867 , -9.804456   , -0.00047160947, 0.000117512245, -1.36034214E-06, -0.0135153942, -0.0128323585, 8.775757E-05, 922.7455    , 32.6340828  , 782.3165    , 2.81        , 3           , 255         , 0           , 0
-0.135684043, 0.13598612  , -9.795374   , -0.000225207477, 0.0005989835, 0.000714926 , -0.0135177365, -0.0128262723, 9.482562E-05, 922.7455    , 32.6340828  , 782.316956  , 2.82        , 3           , 255         , 0           , 0
-0.1402769  , 0.133498669 , -9.781413   , 0.0005609348, 4.162712E-05, 0.000320688763, -0.013512169, -0.0128258159, 9.802677E-05, 922.7401    , 32.6329956  , 782.3174    , 2.83        , 3           , 255         , 0           , 0
-0.12459024 , 0.131377608 , -9.782387   , -0.000374571129, 0.000220393966, 0.000314833218, -0.0135159548, -0.0128235677, 0.000101145219, 922.7401    , 32.6329956  , 782.3178    , 2.84        , 3           , 255         , 0           , 0
-0.12175034 , 0.136156335 , -9.790727   , -0.0005512357, 0.000251322344, 0.0008215887, -0.0135215716, -0.0128209423, 0.000109326837, 922.7401    , 32.6329956  , 782.318237  , 2.85        , 3           , 255         , 0           , 0
-0.128668234, 0.133198425 , -9.792536   , -0.000426053826, 0.000255866151, 0.000632308365, -0.0135259125, -0.0128182983, 0.000115615105, 922.7401    , 32.6329956  , 782.318665  , 2.86        , 3           , 255         , 0           , 0
-0.130943626, 0.131528109 , -9.803459   , 5.293108E-05, 0.000129218708, 0.0005403286, -0.0135254525, -0.012816933, 0.000121000732, 922.7401    , 32.6329956  , 782.319153  , 2.87        , 3           , 255         , 0           , 0
-0.126294762, 0.140767857 , -9.793566   , 0.000231727754, 0.000374391122, 5.094409E-06, -0.0135231363, -0.0128131919, 0.000121001045, 922.7401    , 32.6329956  , 782.319641  , 2.88        , 3           , 255         , 0           , 0
-0.1329463  , 0.143694952 , -9.791872   , 0.000147967949, 3.85233434E-05, 1.78049286E-05, -0.0135216583, -0.0128128016, 0.000121173871, 922.7401    , 32.6329956  , 782.3201    , 2.89        , 3           , 255         , 0           , 0
-0.133281529, 0.134481832 , -9.786204   , 3.7544E-05  , 0.0006598864, 0.000135534719, -0.0135212988, -0.0128061855, 0.000122439946, 922.7401    , 32.6329956  , 782.3206    , 2.9         , 3           , 255         , 0           , 0
-0.131465837, 0.1242853   , -9.797899   , 0.000156924827, 4.03617159E-05, 0.000557125953, -0.0135261258, -0.0128161171, 0.000128086627, 922.7401    , 32.6329956  , 782.3323    , 2.91        , 3           , 255         , 0           , 0
-0.127783149, 0.122465827 , -9.797279   , -0.0005238889, -9.996188E-05, 0.00019059953, -0.01353139 , -0.0128170913, 0.000130006069, 922.7401    , 32.6329956  , 782.3328    , 2.92        , 3           , 255         , 0           , 0
-0.128786609, 0.128819227 , -9.796074   , -0.000178605842, 0.000233050392, 0.0005002595, -0.0135332393, -0.0128146922, 0.000134976945, 922.7592    , 32.6339455  , 782.3334    , 2.93        , 3           , 255         , 0           , 0
-0.133085415, 0.1329656   , -9.78985    , -8.633529E-05, 0.000225260388, 0.0002969515, -0.0135341389, -0.0128123993, 0.000137915878, 922.7592    , 32.6339455  , 782.3339    , 2.94        , 3           , 255         , 0           , 0
-0.12781401 , 0.122723065 , -9.787152   , -0.0005588537, 0.000119594813, 0.0003430649, -0.0135397715, -0.0128111551, 0.000141330209, 922.7592    , 32.6339455  , 782.3345    , 2.95        , 3           , 255         , 0           , 0
-0.135237366, 0.134496987 , -9.802923   , -3.0839E-05 , 6.980472E-05, 0.000384020968, -0.0135401273, -0.0128104053, 0.00014516084, 922.7592    , 32.6339455  , 782.335     , 2.96        , 3           , 255         , 0           , 0
-0.12470974 , 0.131729677 , -9.808138   , 0.000392522546, 0.000226426229, 0.0004153   , -0.0135362567, -0.0128080854, 0.000149283049, 922.7592    , 32.6339455  , 782.3356    , 2.97        , 3           , 255         , 0           , 0
-0.133857012, 0.127528965 , -9.794634   , 0.00020975378, 0.0001667727, 0.000108018809, -0.0135341734, -0.0128064035, 0.000150340638, 922.7592    , 32.6339455  , 782.3361    , 2.98        , 3           , 255         , 0           , 0
-0.128507346, 0.136269853 , -9.794592   , -0.000129193591, 0.000581888831, 0.000140341377, -0.0135354809, -0.0128005687, 0.000151665241, 922.7592    , 32.6339455  , 782.3367    , 2.99        , 3           , 255         , 0           , 0
-0.1253115  , 0.13724266  , -9.787408   , -0.000520836038, 0.000566918636, 0.000143103374, -0.0135407075, -0.01279488 , 0.000153019457, 922.7592    , 32.6339455  , 782.3372    , 3           , 3           , 0           , 8.464236    , 300
-0.122720882, 0.139261812 , -9.791795   , 0.000111532921, 0.000343874 , 7.313048E-05, -0.0135350944, -0.0127981827, 0.0001536465, 922.7592    , 32.6339455  , 782.3197    , 3.01        , 3           , 1           , 0           , 0
-0.1321477  , 0.12847881  , -9.794786   , 0.000175121764, 0.000435004069, -7.326561E-05, -0.0135333342, -0.0127938427, 0.00015285502, 922.7592    , 32.6339455  , 782.3201    , 3.02        , 3           , 2           , 0           , 0
-0.13484858 , 0.128311381 , -9.804626   , -3.86938336E-05, 0.000158561059, -0.000162257871, -0.0135337  , -0.012792279, 0.000151211 , 922.751038  , 32.6344223  , 782.320557  , 3.03        , 3           , 3           , 0           , 0
-0.136654586, 0.134040251 , -9.78978348 , -0.000687480846, 0.000347647729, 0.000369737332, -0.01354062 , -0.012788753, 0.000154861191, 922.751038  , 32.6344223  , 782.321     , 3.04        , 3           , 4           , 0           , 0
-0.126193732, 0.139975443 , -9.805479   , 9.747222E-06, -0.000122723, -0.000105145024, -0.0135405092, -0.0127899935, 0.00015382639, 922.751038  , 32.6344223  , 782.3214    , 3.05        , 3           , 5           , 0           , 0
-0.129956618, 0.137847379 , -9.794085   , 0.000147079234, -0.00027947058, -0.000166321392, -0.013539019, -0.0127928117, 0.000152201086, 922.751038  , 32.6344223  , 782.321838  , 3.06        , 3           , 6           , 0           , 0
-0.125788257, 0.132142976 , -9.793178   , 0.000225931086, -0.000155557937, -0.00030743808, -0.01353672 , -0.0127944089, 0.000149147876, 922.751038  , 32.6344223  , 782.322266  , 3.07        , 3           , 7           , 0           , 0
-0.127200291, 0.134670645 , -9.784956   , 0.000176764239, 0.000301240245, 8.53224046E-05, -0.0135349613, -0.0127913849, 0.0001499603, 922.751038  , 32.6344223  , 782.3227    , 3.08        , 3           , 8           , 5           , 5
-0.1330292  , 0.130164742 , -9.775084   , -6.88108848E-05, 0.00021412436, 0.001186436 , -0.0135358013, -0.0127890846, 0.000161795251, 922.751038  , 32.6344223  , 782.3231    , 3.09        , 3           , 9           , 5           , 0.1
-0.124668196, 0.132084116 , -9.791247   , 5.478511E-05, 0.000330473471, 0.000153994042, -0.0135352733, -0.01278576 , 0.000163290431, 922.751038  , 32.6344223  , 782.323547  , 3.1         , 3           , 10          , 0.1         , 0.1
-0.127130747, 0.131288022 , -9.802541   , -3.3057353E-05, 0.0005996759, 0.000308898772, -0.0135377776, -0.0127876466, 0.000166325408, 922.751038  , 32.6344223  , 782.3195    , 3.11        , 3           , 11          , 0.007449595 , 0.007449593
-0.127977148, 0.128044218 , -9.807135   , 9.113748E-05, -6.308546E-05, 0.0002883294, -0.0135369021, -0.012788238, 0.00016921715, 922.751038  , 32.6344223  , 782.319946  , 3.12        , 3           , 12          , 0.174645633 , 0
-0.123956934, 0.134198725 , -9.788885   , -5.78155159E-05, -0.000473424065, -0.00112544757, -0.013537338, -0.0127931274, 0.000158027178, 922.7414    , 32.6336746  , 782.3204    , 3.13        , 3           , 13          , 0           , 0
-0.13073495 , 0.1319386   , -9.786625   , 0.000678935554, 5.94176527E-05, -0.000380966958, -0.0135305  , -0.0127925854, 0.000154209571, 922.7414    , 32.6336746  , 782.3208    , 3.14        , 3           , 14          , -0.000601286243, -0.000320842635
-0.127245411, 0.134268671 , -9.788244   , 0.000288575975, -8.596497E-05, 0.000105974934, -0.013527629, -0.01279343 , 0.000155280941, 922.7414    , 32.6336746  , 782.3212    , 3.15        , 3           , 15          , 0           , 2.01394851E-05
-0.13025184 , 0.1376966   , -9.793228   , -6.72549941E-05, 0.00028936108, -0.000748886261, -0.0135282045, -0.0127906371, 0.000147753177, 922.7414    , 32.6336746  , 782.321655  , 3.16        , 3           , 16          , 0           , 1.401298E-45
-0.128016382, 0.129888028 , -9.800126   , -7.389096E-05, 4.29524225E-05, 6.54844553E-05, -0.0135289524, -0.0127901994, 0.000148402178, 922.7414    , 32.6336746  , 782.3221    , 3.17        , 3           , 20          , 0           , 0
-0.129639238, 0.131433621 , -9.802162   , 0.000221947616, -0.000142040139, 0.00021843765, -0.01352676 , -0.0127915908, 0.0001506057, 922.7414    , 32.6336746  , 782.3225    , 3.18        , 3           , 21          , 0           , 0
-0.133790359, 0.1368471   , -9.788613   , -0.000186569465, -0.0002526675, -0.0004399898, -0.0135285715, -0.0127941761, 0.000146240127, 922.7414    , 32.6336746  , 782.322937  , 3.19        , 3           , 22          , 0           , 0
-0.127044067, 0.130685508 , -9.790131   , 8.895807E-05, -0.0001256147, 0.000342742453, -0.0135277258, -0.0127953868, 0.000149684434, 922.7414    , 32.6336746  , 782.323364  , 3.2         , 3           , 40          , 0           , 0
-0.129532978, 0.130830243 , -9.789343   , -3.76387034E-05, 0.0003869728, 7.684157E-05, -0.0135282921, -0.0127968928, 0.00015040279, 922.7414    , 32.6336746  , 782.333     , 3.21        , 3           , 41          , 0           , 0
-0.124418423, 0.135363549 , -9.794921   , -8.199614E-05, 0.000261285342, 0.0006260761, -0.0135291917, -0.0127941957, 0.000156627983, 922.7414    , 32.6336746  , 782.3335    , 3.22        , 3           , 42          , 0           , 0
-0.126899719, 0.129686043 , -9.792066   , 0.0003048478, -0.000318360428, 0.000458299357, -0.0135262012, -0.0127973175, 0.000161253891, 922.7428    , 32.636116   , 782.334     , 3.23        , 3           , 255         , 0           , 0
-0.125287473, 0.136566535 , -9.792853   , -0.0002620762, 7.39322859E-05, 0.000193374755, -0.0135288471, -0.0127965519, 0.000163177552, 922.7428    , 32.636116   , 782.3345    , 3.24        , 3           , 255         , 0           , 0
-0.125038326, 0.135015532 , -9.797614   , -0.0002556644, -0.000138819538, -0.000104280414, -0.0135313887, -0.0127979536, 0.000162153563, 922.7428    , 32.636116   , 782.334961  , 3.25        , 3           , 255         , 0           , 0
-0.122413859, 0.137263119 , -9.795776   , 0.000363326573, 0.0007132379, 0.0001106214, -0.01352777 , -0.0127908057, 0.000163163262, 922.7428    , 32.636116   , 782.335449  , 3.26        , 3           , 255         , 0           , 0
-0.1249151  , 0.132627279 , -9.79329    , 0.0002615669, 0.000135774229, 0.000153612084, -0.013525174, -0.0127894273, 0.000164680954, 922.7428    , 32.636116   , 782.335938  , 3.27        , 3           , 255         , 0           , 0
-0.1257042  , 0.127468392 , -9.79759    , 0.000101895013, -0.000222484552, 9.611756E-05, -0.0135241691, -0.01279164 , 0.0001656722, 922.7428    , 32.636116   , 782.3365    , 3.28        , 3           , 255         , 0           , 0
-0.137007952, 0.138812721 , -9.796572   , -0.000124720158, 0.000168553 , 0.000428705767, -0.01352547 , -0.0127898958, 0.0001699363, 922.7428    , 32.636116   , 782.337036  , 3.29        , 3           , 255         , 0           , 0
-0.128081024, 0.130864352 , -9.796017   , -8.513016E-05, 0.000252094265, 0.0003110241, -0.0135263605, -0.0127873337, 0.000173012348, 922.7428    , 32.636116   , 782.3376    , 3.3         , 3           , 255         , 0           , 0
-0.122216605, 0.1364731   , -9.791301   , -7.27931038E-05, 0.000649696856, -0.000302375876, -0.0135285612, -0.0127834594, 0.000169920153, 922.7428    , 32.636116   , 782.34314   , 3.31        , 3           , 255         , 0           , 0
-0.128861934, 0.1334651   , -9.795657   , 9.40910541E-05, -0.0005172221, 0.000203642543, -0.0135276476, -0.0127886031, 0.000172026441, 922.7428    , 32.636116   , 782.3437    , 3.32        , 3           , 255         , 0           , 0
-0.109835863, 0.133714944 , -9.791281   , -0.0001781513, 0.000156737369, -0.0005058487, -0.013529365, -0.0127871046, 0.000166946935, 922.7504    , 32.6375427  , 782.344238  , 3.33        , 3           , 255         , 0           , 0
-0.116748571, 0.131532967 , -9.79086    , -0.000257731124, 0.000472232467, -0.000328663649, -0.0135318972, -0.0127824275, 0.000163596516, 922.7504    , 32.6375427  , 782.3448    , 3.34        , 3           , 255         , 0           , 0
-0.123512767, 0.132117227 , -9.797567   , -0.000333625241, 0.000200279057, -0.000209919352, -0.0135352053, -0.0127804531, 0.0001614703, 922.7504    , 32.6375427  , 782.345337  , 3.35        , 3           , 255         , 0           , 0
-0.12339659 , 0.130868435 , -9.795898   , -0.0001362944, -0.000324112771, 0.000396122516, -0.01353662 , -0.01278364 , 0.00016547527, 922.7504    , 32.6375427  , 782.3459    , 3.36        , 3           , 255         , 0           , 0
-0.1278901  , 0.135669976 , -9.800672   , 0.0002585085, 9.03311447E-05, -0.000135702663, -0.0135340178, -0.0127827553, 0.000164106052, 922.7504    , 32.6375427  , 782.346436  , 3.37        , 3           , 255         , 0           , 0
-0.134377986, 0.13180244  , -9.794104   , -0.000109063811, 0.000596175436, -0.00049386645, -0.0135350432, -0.01277686 , 0.000159086878, 922.7504    , 32.6375427  , 782.347     , 3.38        , 3           , 255         , 0           , 0
-0.129484341, 0.1322114   , -9.791997   , -3.49110342E-05, 0.00011326345, -0.000294642174, -0.0135353552, -0.0127757685, 0.000156125228, 922.7504    , 32.6375427  , 782.347534  , 3.39        , 3           , 255         , 0           , 0
-0.127972841, 0.130646974 , -9.78988552 , -0.0005825955, 7.55643123E-06, 0.000217684734, -0.0135412086, -0.0127756633, 0.000158300958, 922.7504    , 32.6375427  , 782.3481    , 3.4         , 3           , 255         , 0           , 0
-0.127651677, 0.1281716   , -9.78822    , -5.72602148E-05, 0.000190786086, -5.73918223E-05, -0.01354227 , -0.01277246 , 0.000157707575, 922.7504    , 32.6375427  , 782.3413    , 3.41        , 3           , 255         , 0           , 0
-0.1192204  , 0.136395916 , -9.797403   , 0.000246464915, 8.93372053E-05, 0.000448144623, -0.0135398638, -0.0127715059, 0.000162176744, 922.7504    , 32.6375427  , 782.341858  , 3.42        , 3           , 255         , 0           , 0
-0.1235865  , 0.139769211 , -9.803515   , 0.0005356017, -1.15485745E-05, 5.36435764E-05, -0.0135345142, -0.0127716139, 0.000162714758, 922.7608    , 32.6343536  , 782.3424    , 3.43        , 3           , 255         , 0           , 0
-0.130727783, 0.127027184 , -9.784572   , 0.00011969544, 7.31225E-05 , -0.000232185732, -0.0135332877, -0.0127709145, 0.00016038309, 922.7608    , 32.6343536  , 782.342957  , 3.44        , 3           , 255         , 0           , 0
-0.1324831  , 0.129968226 , -9.787331   , 0.000124621612, 0.0008533409, 0.000491043669, -0.013532103, -0.0127623156, 0.000165177873, 922.7608    , 32.6343536  , 782.3435    , 3.45        , 3           , 255         , 0           , 0
-0.132907957, 0.127329677 , -9.779177   , 0.0003582337, 0.000374811323, 0.000354551856, -0.0135285659, -0.01275852 , 0.000168672545, 922.7608    , 32.6343536  , 782.344055  , 3.46        , 3           , 255         , 0           , 0
-0.121301986, 0.133609265 , -9.79025    , 0.0007226924, 3.00497632E-05, -2.67558553E-05, -0.0135213379, -0.0127582271, 0.000168400948, 922.7608    , 32.6343536  , 782.3446    , 3.47        , 3           , 255         , 0           , 0
-0.114611425, 0.141399011 , -9.796865   , 0.00016574646, 0.000161351767, -0.000348114059, -0.0135196345, -0.0127566578, 0.000164898112, 922.7608    , 32.6343536  , 782.345154  , 3.48        , 3           , 255         , 0           , 0
-0.125869378, 0.1412      , -9.786822   , 0.000467025646, 0.000103182887, 0.0005960671, -0.01351504 , -0.0127555458, 0.000170844636, 922.7608    , 32.6343536  , 782.3457    , 3.49        , 3           , 255         , 0           , 0
-0.122435287, 0.137546822 , -9.789347   , 1.76212052E-05, -4.7774578E-05, -0.000452936569, -0.0135148074, -0.012756085, 0.000166321886, 922.7608    , 32.6343536  , 782.346252  , 3.5         , 3           , 255         , 0           , 0
-0.132882133, 0.136645764 , -9.789694   , -0.0002782538, 0.0003080867, -0.0005758896, -0.0135213006, -0.0127532575, 0.000160569791, 922.7608    , 32.6343536  , 782.325     , 3.51        , 3           , 255         , 0           , 0
-0.1358675  , 0.148804411 , -9.79217    , 5.46881929E-05, -0.00016266937, -0.000204776981, -0.0135207279, -0.0127549116, 0.000158544077, 922.7608    , 32.6343536  , 782.325439  , 3.52        , 3           , 255         , 0           , 0
-0.116950795, 0.141561761 , -9.795744   , -0.000406178762, -0.0002736117, 0.000271729048, -0.0135248248, -0.0127576115, 0.000161298274, 922.7593    , 32.6357079  , 782.325867  , 3.53        , 3           , 255         , 0           , 0
-0.125524744, 0.1361672   , -9.806212   , -1.60882482E-05, 0.000523288734, 0.000516704749, -0.0135250511, -0.0127523085, 0.000166394369, 922.7593    , 32.6357079  , 782.3263    , 3.54        , 3           , 255         , 0           , 0
-0.133167326, 0.12384899  , -9.794495   , -3.47935129E-05, 0.000277534156, 0.0004989639, -0.0135254618, -0.0127494661, 0.0001713463, 922.7593    , 32.6357079  , 782.3267    , 3.55        , 3           , 255         , 0           , 0
-0.1292098  , 0.131992355 , -9.793763   , -6.93814363E-05, 0.000258778135, 4.925301E-05, -0.0135261612, -0.0127468733, 0.000171803826, 922.7593    , 32.6357079  , 782.327148  , 3.56        , 3           , 255         , 0           , 0
-0.123306379, 0.13038519  , -9.804614   , 0.000336220342, 0.000290997123, 0.0006994237, -0.0135228876, -0.0127438679, 0.000178758448, 922.7593    , 32.6357079  , 782.3276    , 3.57        , 3           , 255         , 0           , 0
-0.120983973, 0.131898433 , -9.789733   , 4.191912E-05, -0.000200640585, -0.0001532608, -0.01352245 , -0.0127458954, 0.000177253023, 922.7593    , 32.6357079  , 782.328     , 3.58        , 3           , 255         , 0           , 0
-0.131073669, 0.137311623 , -9.7873745  , 0.0003942298, -0.000387314183, -0.000428438419, -0.0135184536, -0.0127498256, 0.000173021166, 922.7593    , 32.6357079  , 782.3284    , 3.59        , 3           , 255         , 0           , 0
-0.129001632, 0.13968429  , -9.7834     , -0.000313876546, 3.54560325E-05, -0.00055498397, -0.0135215223, -0.0127495462, 0.000167466715, 922.7593    , 32.6357079  , 782.328857  , 3.6         , 3           , 255         , 0           , 0
-0.13791053 , 0.139417961 , -9.793132   , -0.0003469977, 0.0004838863, 0.000159827512, -0.0135305626, -0.0127494857, 0.0001690703, 922.7593    , 32.6357079  , 782.312134  , 3.61        , 3           , 255         , 0           , 0
-0.128711119, 0.127292112 , -9.8034     , -0.000223291165, 0.000125784922, 0.0004767995, -0.0135328565, -0.0127481632, 0.0001738211, 922.7593    , 32.6357079  , 782.312439  , 3.62        , 3           , 255         , 0           , 0
-0.124445394, 0.134964541 , -9.790853   , 0.000254362531, 4.525634E-05, -0.00013631882, -0.0135302953, -0.0127477292, 0.000172451837, 922.811157  , 32.636116   , 782.312744  , 3.63        , 3           , 255         , 0           , 0
-0.12349198 , 0.1405509   , -9.79521    , 0.000211094128, -5.59248729E-05, -8.423328E-05, -0.0135281738, -0.0127483  , 0.000171617139, 922.811157  , 32.636116   , 782.313049  , 3.64        , 3           , 255         , 0           , 0
-0.123549029, 0.137337521 , -9.796293   , 2.45380215E-05, 0.0007536314, 0.0003880115, -0.0135279773, -0.0127407117, 0.000175395166, 922.811157  , 32.636116   , 782.313354  , 3.65        , 3           , 255         , 0           , 0
-0.122803167, 0.1320779   , -9.796251   , -0.000220023328, 2.268824E-05, 0.0008216279, -0.0135302823, -0.0127403736, 0.000183608063, 922.811157  , 32.636116   , 782.31366   , 3.66        , 3           , 255         , 0           , 0
-0.124088481, 0.1264306   , -9.79834    , 2.227549E-06, -0.00014586121, -0.00026794977, -0.0135302255, -0.0127418693, 0.0001809484, 922.811157  , 32.636116   , 782.313965  , 3.67        , 3           , 255         , 0           , 0
-0.126986861, 0.130867541 , -9.797041   , 0.000211179053, -0.000364614, -0.0008176372, -0.0135280108, -0.0127456263, 0.000172821659, 922.811157  , 32.636116   , 782.3143    , 3.68        , 3           , 255         , 0           , 0
-0.129053444, 0.13584809  , -9.797528   , 3.56634264E-05, -0.000240344671, -6.72032547E-05, -0.0135276457, -0.0127480375, 0.000172182161, 922.811157  , 32.636116   , 782.3146    , 3.69        , 3           , 255         , 0           , 0
-0.13061817 , 0.134827584 , -9.799049   , 0.000251857971, -2.09259451E-05, 0.000255978026, -0.0135251619, -0.0127482116, 0.00017474468, 922.811157  , 32.636116   , 782.3149    , 3.7         , 3           , 255         , 0           , 0
-0.143256187, 0.123838522 , -9.785197   , -0.000284626032, 0.0008087227, -0.0006522005, -0.0135298669, -0.0127433585, 0.000168138256, 922.811157  , 32.636116   , 782.2266    , 3.71        , 3           , 255         , 0           , 0
-0.1359298  , 0.13593109  , -9.804571   , -0.000305658148, -0.000141569762, -0.000340806233, -0.01353288 , -0.01274482 , 0.000164749479, 922.811157  , 32.636116   , 782.2264    , 3.72        , 3           , 255         , 0           , 0
-0.126016051, 0.135363862 , -9.78702    , 0.000114122988, -0.0005444003, 1.85524914E-05, -0.0135317426, -0.0127502605, 0.000165008678, 922.744751  , 32.6358452  , 782.226135  , 3.73        , 3           , 255         , 0           , 0
-0.128778741, 0.1328021   , -9.807253   , 0.000183967437, 9.325921E-05, 0.0008423197, -0.01353001 , -0.0127492147, 0.000173418972, 922.744751  , 32.6358452  , 782.225952  , 3.74        , 3           , 255         , 0           , 0
-0.1303344  , 0.137127563 , -9.796648   , 5.3556927E-05, 0.0004860029, -0.000267508352, -0.01352944 , -0.0127443913, 0.0001706782, 922.744751  , 32.6358452  , 782.225769  , 3.75        , 3           , 255         , 0           , 0
-0.125570983, 0.132631257 , -9.795444   , 0.000197077112, -4.62414464E-05, 0.0001869185, -0.013527493, -0.0127448281, 0.000172553584, 922.744751  , 32.6358452  , 782.2256    , 3.76        , 3           , 255         , 0           , 0
-0.129269972, 0.136866778 , -9.787176   , 0.000202111434, -4.31917724E-05, -0.0006147593, -0.0135253938, -0.0127453441, 0.000166412065, 922.744751  , 32.6358452  , 782.2254    , 3.77        , 3           , 255         , 0           , 0
-0.132410213, 0.141078144 , -9.793532   , 6.0444E-06  , 0.000294599275, -0.0007559901, -0.0135252364, -0.0127425  , 0.000158812574, 922.744751  , 32.6358452  , 782.2252    , 3.78        , 3           , 255         , 0           , 0
-0.128660887, 0.142551541 , -9.802997   , 0.000404824939, 0.000230957739, -3.620217E-05, -0.0135211842, -0.0127401976, 0.000158419338, 922.744751  , 32.6358452  , 782.225037  , 3.79        , 3           , 255         , 0           , 0
-0.127799481, 0.1318073   , -9.80227852 , 0.000154841 , 0.000282594468, -0.00019575248, -0.0135196121, -0.012737398, 0.0001564237, 922.744751  , 32.6358452  , 782.224854  , 3.8         , 3           , 255         , 0           , 0
-0.124686107, 0.1328985   , -9.798362   , 6.549293E-05, 0.0002850719, 9.890029E-06, -0.0135223474, -0.0127427289, 0.00015652724, 922.744751  , 32.6358452  , 782.2439    , 3.81        , 3           , 255         , 0           , 0
-0.114150167, 0.1351805   , -9.791806   , 0.000233943923, -0.000106341, -0.000569753931, -0.0135199372, -0.0127438679, 0.00015084428, 922.744751  , 32.6358452  , 782.243835  , 3.82        , 3           , 255         , 0           , 0
-0.114287816, 0.131099135 , -9.795568   , -0.0002950243, 4.13196976E-05, -3.382432E-05, -0.0135228829, -0.01274346 , 0.000150500477, 922.7804    , 32.6346931  , 782.2438    , 3.83        , 3           , 255         , 0           , 0
-0.1246271  , 0.134918481 , -9.80423    , -0.000220863614, -5.098406E-05, 1.63820678E-05, -0.013525092, -0.0127439676, 0.000150671185, 922.7804    , 32.6346931  , 782.2437    , 3.84        , 3           , 255         , 0           , 0
-0.133106574, 0.140397444 , -9.797136   , -0.0001242127, -0.000335119868, 9.686328E-05, -0.0135263484, -0.0127473064, 0.0001516851, 922.7804    , 32.6346931  , 782.243652  , 3.85        , 3           , 255         , 0           , 0
-0.126457423, 0.141952887 , -9.791483   , -0.0003741366, -0.000352783041, 0.000180864256, -0.0135301128, -0.0127508072, 0.00015354139, 922.7804    , 32.6346931  , 782.2436    , 3.86        , 3           , 255         , 0           , 0
-0.127876788, 0.139730245 , -9.787043   , -0.000239889545, 3.58200341E-05, 0.0006430544, -0.0135325938, -0.012750363, 0.000159966861, 922.7804    , 32.6346931  , 782.2435    , 3.87        , 3           , 255         , 0           , 0
-0.131698474, 0.129365832 , -9.800898   , -5.837885E-05, -0.000186107442, -7.87692261E-05, -0.0135331685, -0.012752234, 0.00015920437, 922.7804    , 32.6346931  , 782.243469  , 3.88        , 3           , 255         , 0           , 0
-0.126743212, 0.1295071   , -9.803994   , 1.5516649E-05, 9.800936E-05, -0.000289439573, -0.0135329757, -0.0127512934, 0.000156296825, 922.7804    , 32.6346931  , 782.2434    , 3.89        , 3           , 255         , 0           , 0
-0.129691958, 0.128049284 , -9.801518   , 0.0003125586, 3.416813E-05, -9.949992E-05, -0.0135298371, -0.0127509655, 0.000155297239, 922.7804    , 32.6346931  , 782.243347  , 3.9         , 3           , 255         , 0           , 0
-0.124967039, 0.136836559 , -9.806065   , 5.891442E-05, -4.078931E-06, -9.222345E-05, -0.0135315591, -0.0127515886, 0.0001544052, 922.7804    , 32.6346931  , 782.2089    , 3.91        , 3           , 255         , 0           , 0
-0.12240871 , 0.133951336 , -9.79426    , 0.000396821531, -4.164467E-06, 0.0009526849, -0.0135277119, -0.0127515038, 0.000163932287, 922.7804    , 32.6346931  , 782.2087    , 3.92        , 3           , 255         , 0           , 0
-0.128611952, 0.12957482  , -9.792953   , 2.05200631E-05, 0.000336045632, -0.000345474051, -0.0135274623, -0.0127481883, 0.0001604322, 922.7426    , 32.6364555  , 782.208435  , 3.93        , 3           , 255         , 0           , 0
-0.12420404 , 0.1315116   , -9.78404    , 0.0003131894, 4.180355E-05, -7.431401E-05, -0.0135243218, -0.0127477814, 0.000159683448, 922.7426    , 32.6364555  , 782.2082    , 3.94        , 3           , 255         , 0           , 0
-0.130476147, 0.130451053 , -9.794991   , 0.000329983945, -0.000124471087, 0.000265765 , -0.0135210557, -0.0127489893, 0.000162357828, 922.7426    , 32.6364555  , 782.207947  , 3.95        , 3           , 255         , 0           , 0
-0.119846165, 0.135033607 , -9.795118   , 0.000561502 , -0.000263177732, 6.805628E-05, -0.0135154491, -0.0127516119, 0.000163073943, 922.7426    , 32.6364555  , 782.2077    , 3.96        , 3           , 255         , 0           , 0
-0.119538292, 0.1433092   , -9.796979   , 0.0004064776, -0.000251921359, -0.000166000609, -0.0135113653, -0.0127541572, 0.000161448057, 922.7426    , 32.6364555  , 782.207458  , 3.97        , 3           , 255         , 0           , 0
-0.120052591, 0.135112    , -9.788373   , 0.0002421026, 0.0001514595, 0.000168285565, -0.0135089662, -0.0127526186, 0.00016311041, 922.7426    , 32.6364555  , 782.2072    , 3.98        , 3           , 255         , 0           , 0
-0.1190414  , 0.129641265 , -9.793831   , 6.897305E-05, 2.1440268E-05, 0.000177743263, -0.0135082984, -0.01275238 , 0.00016488487, 922.7426    , 32.6364555  , 782.207     , 3.99        , 3           , 255         , 0           , 0
-0.127141535, 0.13282606  , -9.791594   , 5.378417E-05, -4.05634055E-05, 0.000195864443, -0.0135077862, -0.0127527593, 0.000166848928, 922.7426    , 32.6364555  , 782.2067    , 4           , 3           , 0           , 9.464236    , 400
-0.126613989, 0.1305882   , -9.796635   , -0.000126972853, 0.000248128781, 6.74613839E-05, -0.013511233, -0.0127483122, 0.000167517632, 922.7426    , 32.6364555  , 782.2314    , 4.01        , 3           , 1           , 0           , 0
-0.123074137, 0.132344455 , -9.80808449 , 2.12955638E-05, 0.000372198585, 0.000445687881, -0.0135110756, -0.0127445292, 0.000171924083, 922.7426    , 32.6364555  , 782.231262  , 4.02        , 3           , 2           , 0           , 0
-0.12481378 , 0.133198738 , -9.78227    , 0.000120299956, 0.000255433552, 0.0005631906, -0.0135099441, -0.0127419  , 0.000177521288, 922.754333  , 32.6382866  , 782.23114   , 4.03        , 3           , 3           , 0           , 0
-0.121422961, 0.133601278 , -9.786552   , 0.0005858318, -0.0001640747, 0.0006648256, -0.0135041717, -0.0127434535, 0.000184191478, 922.754333  , 32.6382866  , 782.231     , 4.04        , 3           , 4           , 0           , 0
-0.127800748, 0.130550072 , -9.787954   , 0.000801237766, 0.000356863864, 0.0002685536, -0.0134961931, -0.0127398483, 0.000186828751, 922.754333  , 32.6382866  , 782.230957  , 4.05        , 3           , 5           , 0           , 0
-0.121302582, 0.131250054 , -9.790904   , -8.644478E-05, 0.000321541855, -0.00108321256, -0.0134969186, -0.0127367787, 0.00017595361, 922.754333  , 32.6382866  , 782.2309    , 4.06        , 3           , 6           , 0           , 0
-0.117974006, 0.132794157 , -9.790092   , 3.80039E-05 , 3.583674E-05, 1.323789E-05, -0.01349654 , -0.0127364183, 0.000176081143, 922.754333  , 32.6382866  , 782.230835  , 4.07        , 3           , 7           , 0           , 0
-0.124166533, 0.145107165 , -9.79661    , -8.270668E-06, -0.000387519976, 0.0002038579, -0.01349665 , -0.0127402646, 0.000178171947, 922.754333  , 32.6382866  , 782.2308    , 4.08        , 3           , 8           , 5           , 5
-0.128653973, 0.134300992 , -9.78657    , 0.000174201239, -6.409848E-05, 0.00044810347, -0.0134949656, -0.0127408458, 0.000182661475, 922.754333  , 32.6382866  , 782.2307    , 4.09        , 3           , 9           , 5           , 0.1
-0.125971377, 0.135076135 , -9.791554   , 0.000613578 , 0.000114523777, -0.000154227688, -0.0134888114, -0.0127397254, 0.000181103824, 922.754333  , 32.6382866  , 782.230652  , 4.1         , 3           , 10          , 0.1         , 0.1
-0.126713321, 0.132265881 , -9.798933   , 0.000333670818, -8.68892239E-05, 0.000353629963, -0.01348855 , -0.012739473, 0.000184690318, 922.754333  , 32.6382866  , 782.2353    , 4.11        , 3           , 11          , 0.006912067 , 0.00691206334
-0.1268856  , 0.136861965 , -9.792625   , -0.0003281664, -0.000418486219, -0.000446991326, -0.013491773, -0.012743718, 0.000180277013, 922.754333  , 32.6382866  , 782.2352    , 4.12        , 3           , 12          , 0.174648076 , 0
-0.128642887, 0.132837012 , -9.797386   , 0.000170578511, -0.0001033429, 0.000408842257, -0.01349012 , -0.0127446959, 0.000184379242, 922.803162  , 32.6362534  , 782.235168  , 4.13        , 3           , 13          , 0           , 0
-0.125583887, 0.124692455 , -9.794513   , -0.000343970256, 3.01215914E-05, 0.0003696941, -0.0134936068, -0.0127443457, 0.00018807195, 922.803162  , 32.6362534  , 782.2351    , 4.14        , 3           , 14          , -0.000601133, -0.00032072395
-0.118654408, 0.136352077 , -9.794022   , -0.000315003155, 0.000114795679, 0.000230943813, -0.0134967854, -0.0127431648, 0.000190365841, 922.803162  , 32.6362534  , 782.235046  , 4.15        , 3           , 15          , 0           , 2.01391231E-05
-0.121839844, 0.129854485 , -9.790422   , -0.000112972455, 0.000106244974, 0.0007120706, -0.0134980064, -0.0127420062, 0.000197471934, 922.803162  , 32.6362534  , 782.235     , 4.16        , 3           , 16          , 0           , 1.401298E-45
-0.120864369, 0.123511747 , -9.787912   , -0.000117738964, 0.000462617434, 0.00122767722, -0.0134993382, -0.0127372174, 0.000209685852, 922.803162  , 32.6362534  , 782.2349    , 4.17        , 3           , 20          , 0           , 0
-0.1380612  , 0.132897764 , -9.795058   , -0.000482519157, 0.0005130501, -0.000220048722, -0.0135041354, -0.0127321165, 0.000207416146, 922.803162  , 32.6362534  , 782.234863  , 4.18        , 3           , 21          , 0           , 0
