Acc X       , Acc Y       , Acc Z       , Gyro X      , Gyro Y      , Gyro Z      , Euler X     , Euler Y     , Euler Z     , Pres X      , Pres Y      , Pres Z      , Time        , Status      , LowRate X   , LowRate Y   , LowRate Z    
-0.09292098 , -0.08847999 , -9.786126   , 0           , 0           , 0           , 0.009041123 , -0.009494502, 0           , 919.803833  , 31.9154987  , 808.792847  , 0           , 2           , 0           , 5.04223156  , 0
-0.0813256353, -0.0995029062, -9.795478   , 2.90464959E-05, -0.0005015414, -0.000119052034, 0.009041388 , -0.0094994735, -1.23584437E-06, 919.803833  , 31.9154987  , 808.792847  , 0.01        , 3           , 1           , 0           , 0
-0.06252616 , -0.105718829, -9.80118752 , 0.0004086573, 4.58238355E-06, 0.0005689986, 0.00904542  , -0.009499479, 4.45444039E-06, 919.803833  , 31.9154987  , 808.792847  , 0.02        , 3           , 2           , 0           , 0
-0.0571873561, -0.104398213, -9.799301   , 0.000445103884, -8.077397E-05, 0.00103560754, 0.009049773 , -0.00950038 , 1.480299E-05, 919.769836  , 31.4758148  , 808.792847  , 0.03        , 3           , 3           , 0           , 0
-0.06584457 , -0.109482743, -9.798269   , -2.71326862E-05, -0.000157089424, 0.000263672584, 0.009049477 , -0.009501975, 1.742545E-05, 919.769836  , 31.4758148  , 808.792847  , 0.04        , 3           , 4           , 0           , 0
-0.06993993 , -0.09969194 , -9.806543   , -2.504926E-05, -0.0006956067, 4.48201754E-05, 0.009049222 , -0.009508935, 1.7810693E-05, 919.769836  , 31.4758148  , 808.792847  , 0.05        , 3           , 5           , 0           , 0
-0.0615205765, -0.09871204 , -9.791699   , 0.000252138678, -0.0002135051, -0.001011512, 0.009051841 , -0.009510977, 7.676467E-06, 919.769836  , 31.4758148  , 808.792847  , 0.06        , 3           , 6           , 0           , 0
-0.06475356 , -0.106092617, -9.792448   , 0.000160828582, 0.000318873266, 0.000387400418, 0.009053411 , -0.009507824, 1.15792627E-05, 919.769836  , 31.4758148  , 808.792847  , 0.07        , 3           , 7           , 0           , 0
-0.06857477 , -0.09657369 , -9.795133   , -0.000503849529, 0.000243360846, -8.742704E-05, 0.009048381 , -0.009505383, 1.072704E-05, 919.769836  , 31.4758148  , 808.792847  , 0.08        , 3           , 8           , 5           , 5
-0.0750639439, -0.0900933146, -9.794825   , 0.00048552145, 0.000406564621, -0.000774701359, 0.00905330852, -0.009501246, 3.01698128E-06, 919.769836  , 31.4758148  , 808.792847  , 0.09        , 3           , 9           , 5           , 0.1
-0.08917074 , -0.08899523 , -9.801605   , -0.000253599661, 0.000115787836, 0.00016224428, 0.009050759 , -0.009500102, 4.64986761E-06, 919.769836  , 31.4758148  , 808.792847  , 0.1         , 3           , 10          , 0.1         , 0.1
-0.0893179  , -0.0845322  , -9.78515148 , -0.000429558568, 7.711502E-05, 0.000232678532, 0.009082587 , -0.009423746, 6.64292838E-06, 919.769836  , 31.4758148  , 809.099548  , 0.11        , 3           , 11          , 0.0109544508, 0.0109544508
-0.0927637741, -0.09554751 , -9.789942   , 0.0006687575, 0.000179191222, 0.0005946157, 0.009089218 , -0.009422008, 1.26052355E-05, 919.769836  , 31.4758148  , 809.099548  , 0.12        , 3           , 12          , 0.174642488 , 0
-0.109625593, -0.08677473 , -9.797016   , 0.000561313645, -0.000178202812, -0.000177942711, 0.009094848 , -0.009423775, 1.08096392E-05, 919.769836  , 31.5170631  , 809.099548  , 0.13        , 3           , 13          , 0           , 0
-0.09717937 , -0.07800528 , -9.79859    , 0.000530087331, -0.00053759577, -0.000295309874, 0.009100176 , -0.009429124, 7.807701E-06, 919.769836  , 31.5170631  , 809.099548  , 0.14        , 3           , 14          , -0.00051845907, -0.000179582275
-0.09218241 , -0.0883633047, -9.794146   , 0.000251146965, -0.0003602064, 0.0004347841, 0.009102648 , -0.009432766, 1.21226549E-05, 919.769836  , 31.5170631  , 809.099548  , 0.15        , 3           , 15          , 0           , -2.8911867E-05
-0.09851517 , -0.0898419  , -9.79208851 , 8.30694044E-05, -0.000511717168, 0.000112774571, 0.009103468 , -0.009437891, 1.32037994E-05, 919.769836  , 31.5170631  , 809.099548  , 0.16        , 3           , 16          , 0           , 1.401298E-45
-0.101370551, -0.07292382 , -9.786268   , -0.000253028877, -1.36030576E-05, -0.0008087689, 0.009101014 , -0.009437954, 5.115048E-06, 919.769836  , 31.5170631  , 809.0996    , 0.17        , 3           , 20          , 0           , 0
-0.09369083 , -0.07957111 , -9.786227   , 0.000129345746, -0.000409881817, 0.000557853258, 0.009102255 , -0.009442104, 1.0656152E-05, 919.769836  , 31.5170631  , 809.0997    , 0.18        , 3           , 21          , 0           , 0
-0.103587009, -0.08526204 , -9.797753   , 0.000101257436, 3.84043378E-05, 0.0006905813, 0.009103202 , -0.009441783, 1.75653131E-05, 919.769836  , 31.5170631  , 809.099731  , 0.19        , 3           , 22          , 0           , 0
-0.09258692 , -0.0848026  , -9.799265   , -0.000173233973, 0.0006138791, 0.00117093662, 0.009101358 , -0.009435751, 2.93303037E-05, 919.769836  , 31.5170631  , 809.0998    , 0.2         , 3           , 40          , 0           , 0
-0.0902228057, -0.090321824, -9.798819   , -0.0005453943, 0.000383263163, 5.6773024E-07, 0.00907657947, -0.009451867, 2.95535156E-05, 919.769836  , 31.5170631  , 809.0998    , 0.21        , 3           , 41          , 0           , 0
-0.09417473 , -0.08375423 , -9.794725   , -4.57959832E-05, -1.86824618E-05, -0.0003586814, 0.009076156 , -0.009452022, 2.59650824E-05, 919.769836  , 31.5170631  , 809.099854  , 0.22        , 3           , 42          , 0           , 0
-0.09630956 , -0.0836470947, -9.793587   , -5.515304E-05, -6.96681673E-06, -0.0003410941, 0.009075636 , -0.00945206 , 2.25535841E-05, 919.7876    , 31.5418243  , 809.0999    , 0.23        , 3           , 255         , 0           , 0
-0.09853763 , -0.08261334 , -9.799933   , 0.000138187752, 0.000263674534, 0.00024566878, 0.009076995 , -0.009449446, 2.503415E-05, 919.7876    , 31.5418243  , 809.1       , 0.24        , 3           , 255         , 0           , 0
-0.100386426, -0.08167603 , -9.795728   , 0.000302804634, -4.33008245E-05, 0.000262227637, 0.009079999 , -0.009449903, 2.76524333E-05, 919.7876    , 31.5418243  , 809.100037  , 0.25        , 3           , 255         , 0           , 0
-0.09531294 , -0.084287785, -9.789057   , -0.000316002639, 4.484087E-05, 8.378786E-05, 0.009076831 , -0.009449462, 2.8494369E-05, 919.7876    , 31.5418243  , 809.1001    , 0.26        , 3           , 255         , 0           , 0
-0.09805536 , -0.09292163 , -9.794605   , -0.0007139376, -3.26640729E-05, 0.0001397963, 0.00906968  , -0.009449803, 2.9889341E-05, 919.7876    , 31.5418243  , 809.100159  , 0.27        , 3           , 255         , 0           , 0
-0.09812549 , -0.08253625 , -9.783565   , 0.0007673546, -0.0001440844, 0.000273348269, 0.009077326 , -0.009451267, 3.26096924E-05, 919.7876    , 31.5418243  , 809.1002    , 0.28        , 3           , 255         , 0           , 0
-0.09095682 , -0.0918171  , -9.795233   , 0.0004100614, 9.800093E-05, -2.17909783E-05, 0.00908143  , -0.009450286, 3.24006869E-05, 919.7876    , 31.5418243  , 809.1003    , 0.29        , 3           , 255         , 0           , 0
-0.08463921 , -0.09723488 , -9.797082   , 1.13779679E-05, -0.000229467711, -8.251143E-05, 0.009081551 , -0.009452573, 3.15547441E-05, 919.7876    , 31.5418243  , 809.100342  , 0.3         , 3           , 255         , 0           , 0
-0.09188677 , -0.09830209 , -9.796583   , 0.000454153225, -0.000226410528, 0.000165879625, 0.009079376 , -0.009462537, 3.325635E-05, 919.7876    , 31.5418243  , 809.047058  , 0.31        , 3           , 255         , 0           , 0
-0.09189714 , -0.101470456, -9.801328   , 0.000101442944, -0.000327862217, 0.000221233771, 0.00908037  , -0.009465836, 3.543887E-05, 919.7876    , 31.5418243  , 809.0471    , 0.32        , 3           , 255         , 0           , 0
-0.0830478445, -0.08427401 , -9.79022    , -0.0002519443, -6.879127E-06, -0.000138848176, 0.009077864 , -0.009465892, 3.40497936E-05, 919.759949  , 31.5595989  , 809.0472    , 0.33        , 3           , 255         , 0           , 0
-0.0816377252, -0.08800521 , -9.791905   , -0.000381434336, -0.000203195392, -0.00030282588, 0.009074078 , -0.009467896, 3.10031537E-05, 919.759949  , 31.5595989  , 809.047241  , 0.34        , 3           , 255         , 0           , 0
-0.0823834  , -0.08504972 , -9.792268   , -0.000303226, -0.0001298609, 0.0006938223, 0.00907098  , -0.009469258, 3.792945E-05, 919.759949  , 31.5595989  , 809.0473    , 0.35        , 3           , 255         , 0           , 0
-0.0939094648, -0.08468734 , -9.792852   , 0.0002876198, -2.719379E-05, 6.4912776E-05, 0.00907385  , -0.009469535, 3.85760977E-05, 919.759949  , 31.5595989  , 809.047363  , 0.36        , 3           , 255         , 0           , 0
-0.08928215 , -0.07299759 , -9.798785   , 0.000171873951, 6.57133351E-05, 5.6915218E-05, 0.00907556247, -0.009468883, 3.91512E-05 , 919.759949  , 31.5595989  , 809.0474    , 0.37        , 3           , 255         , 0           , 0
-0.100137137, -0.0827228948, -9.792813   , 0.000275545637, -0.000156120237, -9.387082E-05, 0.009078328 , -0.009470437, 3.81983336E-05, 919.759949  , 31.5595989  , 809.0475    , 0.38        , 3           , 255         , 0           , 0
-0.0999703854, -0.08287093 , -9.793056   , 0.000106780557, -0.000591475051, -4.71807653E-05, 0.00907939952, -0.009476346, 3.76728458E-05, 919.759949  , 31.5595989  , 809.047546  , 0.39        , 3           , 255         , 0           , 0
-0.09544523 , -0.08670666 , -9.805412   , 0.000397326483, 0.0002235946, -0.000155778354, 0.00908338651, -0.009474097, 3.61354E-05 , 919.759949  , 31.5595989  , 809.0476    , 0.4         , 3           , 255         , 0           , 0
-0.09832649 , -0.0960763544, -9.814622   , -1.72288273E-05, 0.000132832211, 6.127563E-05, 0.009076191 , -0.009466936, 3.68266446E-05, 919.759949  , 31.5595989  , 809.0838    , 0.41        , 3           , 255         , 0           , 0
-0.09586455 , -0.08104704 , -9.801107   , 4.90240054E-05, 2.7801434E-07, -0.000240481415, 0.009076704 , -0.009466911, 3.442191E-05, 919.759949  , 31.5595989  , 809.083862  , 0.42        , 3           , 255         , 0           , 0
-0.09448601 , -0.0829410255, -9.792679   , 0.0005881095, 0.0002506299, -0.00063908 , 0.009082644 , -0.009464347, 2.805401E-05, 919.795044  , 31.5732365  , 809.0839    , 0.43        , 3           , 255         , 0           , 0
-0.09322593 , -0.08298968 , -9.786737   , 0.000256068015, 0.00043430482, 0.000459414325, 0.009085162 , -0.009460046, 3.26875052E-05, 919.795044  , 31.5732365  , 809.084     , 0.44        , 3           , 255         , 0           , 0
-0.0902749747, -0.08584191 , -9.781529   , 0.000163363758, 0.0005361126, 0.000977845 , 0.009086701 , -0.009454774, 4.251446E-05, 919.795044  , 31.5732365  , 809.084045  , 0.45        , 3           , 255         , 0           , 0
-0.0888692141, -0.08585581 , -9.79186249 , -4.53003449E-05, -0.000220869886, 0.000266570278, 0.009086223 , -0.009457005, 4.51600354E-05, 919.795044  , 31.5732365  , 809.0841    , 0.46        , 3           , 255         , 0           , 0
-0.09583628 , -0.0834496543, -9.790075   , -0.0005819242, -0.00064033916, -0.000261958223, 0.009080429 , -0.009463384, 4.248234E-05, 919.795044  , 31.5732365  , 809.084167  , 0.47        , 3           , 255         , 0           , 0
-0.08680083 , -0.08914708 , -9.790352   , -0.000615417142, -0.0002799005, -0.000195465342, 0.009074293 , -0.009466165, 4.050233E-05, 919.795044  , 31.5732365  , 809.0842    , 0.48        , 3           , 255         , 0           , 0
-0.09087743 , -0.08097036 , -9.791309   , 0.000358433317, 0.0002460642, 0.00049721665, 0.00907783  , -0.009463749, 4.54967267E-05, 919.795044  , 31.5732365  , 809.0843    , 0.49        , 3           , 255         , 0           , 0
-0.0971990451, -0.07935816 , -9.791737   , -0.000177094014, -0.000134236863, -5.412032E-05, 0.009076064 , -0.009465086, 4.49433464E-05, 919.795044  , 31.5732365  , 809.084351  , 0.5         , 3           , 255         , 0           , 0
-0.09001467 , -0.08818546 , -9.789431   , 0.000123950362, 0.000171687556, -0.00029488877, 0.009061884 , -0.009465385, 4.215633E-05, 919.795044  , 31.5732365  , 809.040955  , 0.51        , 3           , 255         , 0           , 0
-0.0888930559, -0.0840675756, -9.793681   , -0.000254838844, -8.696824E-05, 0.0008015517, 0.00905926  , -0.009466328, 5.01638024E-05, 919.795044  , 31.5732365  , 809.041     , 0.52        , 3           , 255         , 0           , 0
-0.09336652 , -0.07818702 , -9.790145   , -0.000140454853, -7.525302E-05, 0.000288456882, 0.009057828 , -0.009467105, 5.30414945E-05, 919.7614    , 31.5775776  , 809.0411    , 0.53        , 3           , 255         , 0           , 0
-0.0970317051, -0.0883696154, -9.793279   , -0.0004899769, -9.614849E-05, -0.000241134781, 0.00905295  , -0.009468045, 5.062149E-05, 919.7614    , 31.5775776  , 809.041138  , 0.54        , 3           , 255         , 0           , 0
-0.09548446 , -0.0899327844, -9.791743   , -0.000482319563, 0.000331648771, -0.000141841025, 0.009048141 , -0.009464716, 4.923313E-05, 919.7614    , 31.5775776  , 809.0412    , 0.55        , 3           , 255         , 0           , 0
-0.07985831 , -0.08560236 , -9.793521   , 0.000111896108, 3.605595E-05, -0.000212999628, 0.00904928  , -0.009464337, 4.71064377E-05, 919.7614    , 31.5775776  , 809.04126   , 0.56        , 3           , 255         , 0           , 0
-0.0782911256, -0.09569256 , -9.785388   , 0.000373714371, -4.18285344E-05, 0.000445440935, 0.009052973 , -0.009464796, 5.15569627E-05, 919.7614    , 31.5775776  , 809.0414    , 0.57        , 3           , 255         , 0           , 0
-0.100860283, -0.08508482 , -9.792501   , 2.48114229E-05, 0.000232538718, 0.000224688 , 0.00905320048, -0.009462491, 5.382485E-05, 919.7614    , 31.5775776  , 809.0415    , 0.58        , 3           , 255         , 0           , 0
-0.09690541 , -0.0885706  , -9.794859   , 2.153404E-05, -2.92252516E-05, 3.35824661E-05, 0.009053412 , -0.009462785, 5.4158023E-05, 919.7614    , 31.5775776  , 809.0416    , 0.59        , 3           , 255         , 0           , 0
-0.0986722  , -0.097598955, -9.78928    , -9.548955E-05, -0.000273724378, 0.000147708924, 0.009052443 , -0.009465535, 5.56103078E-05, 919.7614    , 31.5775776  , 809.041748  , 0.6         , 3           , 255         , 0           , 0
-0.100674912, -0.08105223 , -9.792009   , 0.000262168061, -9.6951655E-05, -2.58807941E-05, 0.009053099 , -0.009463447, 5.53613463E-05, 919.7614    , 31.5775776  , 809.0655    , 0.61        , 3           , 255         , 0           , 0
-0.104783818, -0.08257877 , -9.792672   , -0.0002443156, -1.29674154E-05, 0.0005650195, 0.009050603 , -0.009463629, 6.10102579E-05, 919.7614    , 31.5775776  , 809.0656    , 0.62        , 3           , 255         , 0           , 0
-0.0992535353, -0.08529478 , -9.789217   , 6.374877E-05, -0.000339650316, 0.0001779323, 0.009051223 , -0.00946704 , 6.275881E-05, 919.8075    , 31.5823269  , 809.065735  , 0.63        , 3           , 255         , 0           , 0
-0.09201541 , -0.0795371458, -9.792734   , -8.860603E-06, -9.65028739E-05, -0.000392747665, 0.009051172 , -0.00946797 , 5.88226721E-05, 919.8075    , 31.5823269  , 809.065857  , 0.64        , 3           , 255         , 0           , 0
-0.0943723544, -0.090152   , -9.793066   , -0.000354606018, -0.000429143547, -0.000418394979, 0.009047666 , -0.009472222, 5.45999865E-05, 919.8075    , 31.5823269  , 809.066     , 0.65        , 3           , 255         , 0           , 0
-0.09552789 , -0.09260304 , -9.794741   , -0.000439092517, -0.0003337955, -0.000370793859, 0.00904331  , -0.009475526, 5.08619341E-05, 919.8075    , 31.5823269  , 809.0661    , 0.66        , 3           , 255         , 0           , 0
-0.0924285948, -0.08404894 , -9.795233   , -0.0005080875, 0.000449038867, 0.00061310723, 0.009038172 , -0.00947109051, 5.703347E-05, 919.8075    , 31.5823269  , 809.0662    , 0.67        , 3           , 255         , 0           , 0
-0.0909445062, -0.08902721 , -9.804815   , -0.0005877822, 0.000100526355, -9.74021241E-05, 0.00903230347, -0.009470076, 5.606856E-05, 919.8075    , 31.5823269  , 809.066345  , 0.68        , 3           , 255         , 0           , 0
-0.08997087 , -0.0878592357, -9.794225   , 0.000395779847, 3.09351E-05 , 0.0005965565, 0.009036205 , -0.009469822, 6.203679E-05, 919.8075    , 31.5823269  , 809.066467  , 0.69        , 3           , 255         , 0           , 0
-0.108665206, -0.08228805 , -9.791211   , -0.000162575045, 0.0008453438, 0.00055916456, 0.009034525 , -0.009461421, 6.770471E-05, 919.8075    , 31.5823269  , 809.0666    , 0.7         , 3           , 255         , 0           , 0
-0.0964065045, -0.08873222 , -9.788562   , -0.0002742104, 0.000339843653, -0.000273821759, 0.009021577 , -0.009471177, 6.509415E-05, 919.8075    , 31.5823269  , 809.0201    , 0.71        , 3           , 255         , 0           , 0
-0.09400482 , -0.08137803 , -9.793254   , 7.593658E-05, 9.739278E-05, -0.000252731727, 0.009022362 , -0.009470179, 6.257568E-05, 919.8075    , 31.5823269  , 809.0202    , 0.72        , 3           , 255         , 0           , 0
-0.0827765  , -0.0862368643, -9.793589   , -0.0003494274, 0.000249348726, -8.115065E-05, 0.009018874 , -0.009467678, 6.178668E-05, 919.792     , 31.5879574  , 809.0203    , 0.73        , 3           , 255         , 0           , 0
-0.0832631  , -0.09760575 , -9.7969     , -0.000686916232, 0.00026581774, 0.000214957821, 0.009011986 , -0.00946504 , 6.39601858E-05, 919.792     , 31.5879574  , 809.020447  , 0.74        , 3           , 255         , 0           , 0
-0.08758374 , -0.09288058 , -9.791899   , -8.076819E-05, -0.000328729628, -0.0003120397, 0.009011208 , -0.00946829747, 6.08102346E-05, 919.792     , 31.5879574  , 809.020569  , 0.75        , 3           , 255         , 0           , 0
-0.08796663 , -0.09084607 , -9.796057   , -0.000201593444, 0.0001285506, -0.0003958713, 0.009009229 , -0.009466976, 5.686318E-05, 919.792     , 31.5879574  , 809.0207    , 0.76        , 3           , 255         , 0           , 0
-0.09098707 , -0.09739469 , -9.785862   , 0.000154567417, 0.0001565685, 0.000206917524, 0.009010756 , -0.00946543 , 5.8946418E-05, 919.792     , 31.5879574  , 809.0208    , 0.77        , 3           , 255         , 0           , 0
-0.10493952 , -0.09654287 , -9.790396   , -0.000193823129, 0.000117845419, 0.000358939054, 0.009008784 , -0.009464284, 6.254636E-05, 919.792     , 31.5879574  , 809.020935  , 0.78        , 3           , 255         , 0           , 0
-0.09310876 , -0.09600338 , -9.794234   , -0.000296298356, 0.000128992659, 5.949076E-06, 0.00900582  , -0.009462996, 6.2617466E-05, 919.792     , 31.5879574  , 809.021057  , 0.79        , 3           , 255         , 0           , 0
-0.09363018 , -0.08546787 , -9.792799   , -0.000477709516, 0.000134085989, -0.000448851555, 0.009001086 , -0.009461613, 5.8141115E-05, 919.792     , 31.5879574  , 809.0212    , 0.8         , 3           , 255         , 0           , 0
-0.102974355, -0.08418058 , -9.79033852 , -0.0008123752, 9.105735E-05, -0.0009164044, 0.009003764 , -0.009456266, 4.88841251E-05, 919.792     , 31.5879574  , 809.0048    , 0.81        , 3           , 255         , 0           , 0
-0.09815295 , -0.08072889 , -9.794375   , -0.0004790416, 0.0006244241, 5.573048E-05, 0.008998969 , -0.009450027, 4.94976266E-05, 919.792     , 31.5879574  , 809.004944  , 0.82        , 3           , 255         , 0           , 0
-0.09983017 , -0.07734507 , -9.795534   , -0.00035554904, 0.00045581453, 0.0003271759, 0.008995381 , -0.009445498, 5.28103337E-05, 919.7816    , 31.5902634  , 809.005066  , 0.83        , 3           , 255         , 0           , 0
-0.09829316 , -0.08952751 , -9.799986   , -0.000314773119, -0.000438221672, -0.000225200827, 0.008992255 , -0.009449859, 5.051897E-05, 919.7816    , 31.5902634  , 809.0052    , 0.84        , 3           , 255         , 0           , 0
-0.09341158 , -0.0878607258, -9.795015   , 0.000224094838, 0.000133346 , 0.000293490069, 0.008994467 , -0.009448552, 5.34658E-05 , 919.7816    , 31.5902634  , 809.0053    , 0.85        , 3           , 255         , 0           , 0
-0.09251319 , -0.08258833 , -9.791606   , 1.31332781E-05, 1.31097331E-05, 0.000204617827, 0.008994579 , -0.009448439, 5.55131119E-05, 919.7816    , 31.5902634  , 809.005432  , 0.86        , 3           , 255         , 0           , 0
-0.09010114 , -0.07999966 , -9.792926   , 1.93055021E-05, 0.000182087082, 0.000125689359, 0.008994761 , -0.009446629, 5.67863644E-05, 919.7816    , 31.5902634  , 809.005554  , 0.87        , 3           , 255         , 0           , 0
-0.0877225548, -0.08044026 , -9.785742   , 7.633236E-06, -0.00038087304, -0.000432224566, 0.008994878 , -0.009450399, 5.24299467E-05, 919.7816    , 31.5902634  , 809.0057    , 0.88        , 3           , 255         , 0           , 0
-0.09217659 , -0.0774057955, -9.789886   , -0.00069227675, -4.2932923E-05, -0.000117895725, 0.008987968 , -0.00945081748, 5.12471524E-05, 919.7816    , 31.5902634  , 809.0058    , 0.89        , 3           , 255         , 0           , 0
-0.107408568, -0.0803456157, -9.7863245  , -0.000545803457, 0.000281197572, -0.000647761743, 0.008982572 , -0.009447948, 4.47949242E-05, 919.7816    , 31.5902634  , 809.0059    , 0.9         , 3           , 255         , 0           , 0
-0.0973227844, -0.0935752839, -9.784091   , -0.0002940407, 0.000464204466, -0.0008920862, 0.008958985 , -0.00945604 , 3.61119528E-05, 919.7816    , 31.5902634  , 809.004639  , 0.91        , 3           , 255         , 0           , 0
-0.102697052, -0.0892700851, -9.791837   , -0.000713286, 0.000425520935, -0.000662102946, 0.008951914 , -0.009451725, 2.95291738E-05, 919.7816    , 31.5902634  , 809.004761  , 0.92        , 3           , 255         , 0           , 0
-0.0983095  , -0.09025409 , -9.799207   , -0.000218705449, -1.10664987E-05, -0.000219699345, 0.008949748 , -0.009451816, 2.73312344E-05, 919.7705    , 31.5913486  , 809.0049    , 0.93        , 3           , 255         , 0           , 0
-0.09447918 , -0.07954924 , -9.796853   , -0.000560171669, -5.44997019E-05, 0.000351008639, 0.008944114 , -0.009452391, 3.08363742E-05, 919.7705    , 31.5913486  , 809.005     , 0.94        , 3           , 255         , 0           , 0
-0.0950125158, -0.08165425 , -9.794905   , -0.000644276734, -0.000259492721, -0.000214741623, 0.00893768948, -0.00945496652, 2.86658E-05 , 919.7705    , 31.5913486  , 809.0051    , 0.95        , 3           , 255         , 0           , 0
-0.09239526 , -0.0887279  , -9.797602   , -0.000655713, -0.0002971019, -0.0003342193, 0.00893116649, -0.0094579095, 2.52971331E-05, 919.7705    , 31.5913486  , 809.005249  , 0.96        , 3           , 255         , 0           , 0
-0.0909166858, -0.08782996 , -9.808399   , -0.0002296376, -2.7037604E-05, 0.000100618607, 0.008928859 , -0.009458186, 2.6300886E-05, 919.7705    , 31.5913486  , 809.0054    , 0.97        , 3           , 255         , 0           , 0
-0.0847505  , -0.0999479443, -9.797459   , -0.000108723063, -0.000273293525, 0.000498493435, 0.008927725 , -0.009460964, 3.12613156E-05, 919.7705    , 31.5913486  , 809.0055    , 0.98        , 3           , 255         , 0           , 0
-0.09073053 , -0.09648083 , -9.787199   , -0.000420092139, -0.000398327655, -5.874509E-05, 0.00892353151, -0.009464942, 3.06383263E-05, 919.7705    , 31.5913486  , 809.0056    , 0.99        , 3           , 255         , 0           , 0
-0.09221615 , -0.088350296, -9.800278   , -0.000220390328, -0.00017895062, 0.000243958639, 0.008921305 , -0.009466753, 3.30618968E-05, 919.7705    , 31.5913486  , 809.005737  , 1           , 3           , 0           , 6.04223633  , 100
-0.0876512155, -0.09515338 , -9.789507   , -0.0002905641, 0.000132762187, 0.000656537944, 0.008923499 , -0.009468781, 3.95901079E-05, 919.7705    , 31.5913486  , 809.0167    , 1.01        , 3           , 1           , 0           , 0
-0.08198087 , -0.09336534 , -9.78877449 , -0.000503622054, 0.0002847726, 0.0007254067, 0.008918394 , -0.009465998, 4.68694343E-05, 919.7705    , 31.5913486  , 809.016846  , 1.02        , 3           , 2           , 0           , 0
-0.07986464 , -0.08472363 , -9.795935   , 3.715395E-07, 2.63798574E-06, 0.000270795659, 0.008918373 , -0.009465995, 4.957757E-05, 919.786438  , 31.5910778  , 809.016968  , 1.03        , 3           , 3           , 0           , 0
-0.08450661 , -0.0899719149, -9.794818   , -0.0007861191, 0.000623848056, -0.000162942553, 0.008910526 , -0.009459742, 4.80038E-05 , 919.786438  , 31.5910778  , 809.0171    , 1.04        , 3           , 4           , 0           , 0
-0.0839761645, -0.0862293243, -9.797655   , -0.000237614033, 5.94069352E-05, 0.000447951228, 0.008908107 , -0.009459189, 5.248851E-05, 919.786438  , 31.5910778  , 809.0173    , 1.05        , 3           , 5           , 0           , 0
-0.0794559  , -0.0852965042, -9.788578   , -0.000329918519, 9.886702E-06, 0.00156239432, 0.00890466  , -0.009459229, 6.811301E-05, 919.786438  , 31.5910778  , 809.017456  , 1.06        , 3           , 6           , 0           , 0
-0.09108587 , -0.0879348144, -9.794129   , -0.000132227025, 0.000715344446, 0.000462992029, 0.008903292 , -0.009452117, 7.280655E-05, 919.786438  , 31.5910778  , 809.017639  , 1.07        , 3           , 7           , 0           , 0
-0.111560181, -0.08460393 , -9.804754   , -0.000159299176, 0.000661143742, 0.00019302142, 0.008901683 , -0.009445523, 7.479558E-05, 919.786438  , 31.5910778  , 809.0178    , 1.08        , 3           , 8           , 5           , 5
-0.09841941 , -0.0802035257, -9.796808   , -0.000192890526, 4.42539458E-05, 1.51379782E-05, 0.008899751 , -0.009445082, 7.495089E-05, 919.786438  , 31.5910778  , 809.018     , 1.09        , 3           , 9           , 5           , 0.1
-0.08829707 , -0.09228064 , -9.794629   , 1.42428325E-06, 0.000374759722, 0.00030036745, 0.008899737 , -0.009441362, 7.79878537E-05, 919.786438  , 31.5910778  , 809.0182    , 1.1         , 3           , 10          , 0.1         , 0.1
-0.102858782, -0.0819331259, -9.780783   , 0.000240696914, 0.0005141044, 0.000208275713, 0.00890408549, -0.009425309, 8.009784E-05, 919.786438  , 31.5910778  , 809.0107    , 1.11        , 3           , 11          , 0.009218315 , 0.009218315
-0.1001631  , -0.07628514 , -9.787152   , -0.000279236, -0.000367217668, -8.347078E-05, 0.008901302 , -0.009428973, 7.923046E-05, 919.786438  , 31.5910778  , 809.0108    , 1.12        , 3           , 12          , 0.174642846 , 0
-0.103223622, -0.0809969753, -9.792877   , -0.0004671752, 0.000209877035, -0.000211638864, 0.008896649 , -0.00942685548, 7.713279E-05, 919.787842  , 31.5935211  , 809.0109    , 1.13        , 3           , 13          , 0           , 0
-0.101661883, -0.07694785 , -9.799561   , -0.0003593237, -0.000109587505, 0.0005814667, 0.008893002 , -0.009428002, 8.293759E-05, 919.787842  , 31.5935211  , 809.011047  , 1.14        , 3           , 14          , -0.0005184323, -0.000179571769
-0.100060448, -0.08370961 , -9.792035   , -0.000236280961, -0.000329708419, -0.0005080422, 0.00889068749, -0.009431254, 7.782795E-05, 919.787842  , 31.5935211  , 809.011169  , 1.15        , 3           , 15          , 0           , -2.89122163E-05
-0.0984189957, -0.08228232 , -9.789472   , -7.711118E-06, -3.273155E-05, -0.000385085761, 0.008890646 , -0.009431547, 7.397426E-05, 919.787842  , 31.5935211  , 809.0113    , 1.16        , 3           , 16          , 0           , 1.401298E-45
-0.09738376 , -0.075919345, -9.783144   , -0.0005668586, -0.000304219342, -2.98154027E-05, 0.008884981 , -0.009434585, 7.364907E-05, 919.787842  , 31.5935211  , 809.0114    , 1.17        , 3           , 20          , 0           , 0
-0.09681741 , -0.07805226 , -9.80256748 , 0.000727142266, -0.000176170637, -7.09602537E-05, 0.008892259 , -0.009436341, 7.292381E-05, 919.787842  , 31.5935211  , 809.0116    , 1.18        , 3           , 21          , 0           , 0
-0.0981863961, -0.0861442238, -9.80886    , -2.24498217E-05, -0.0003344297, -0.000237738335, 0.008892057 , -0.009439665, 7.051675E-05, 919.787842  , 31.5935211  , 809.0118    , 1.19        , 3           , 22          , 0           , 0
-0.0928755552, -0.09636493 , -9.790184   , -0.000506186567, -0.000104848936, -0.000614145363, 0.00888705347, -0.009440658, 6.43661042E-05, 919.787842  , 31.5935211  , 809.011963  , 1.2         , 3           , 40          , 0           , 0
-0.0825919658, -0.08580303 , -9.779002   , -9.001943E-05, -6.770878E-05, -0.0006579078, 0.008870363 , -0.009462006, 5.79311272E-05, 919.787842  , 31.5935211  , 809.003845  , 1.21        , 3           , 41          , 0           , 0
-0.083620064, -0.0814883262, -9.780588   , 0.000468698971, 8.398134E-05, 0.000429625041, 0.008875008 , -0.009461205, 6.223474E-05, 919.787842  , 31.5935211  , 809.003967  , 1.22        , 3           , 42          , 0           , 0
-0.08712216 , -0.08596552 , -9.791961   , 9.10447852E-05, -6.03877561E-05, -0.0001047176, 0.008875929 , -0.0094618  , 6.11822252E-05, 919.763367  , 31.5940628  , 809.0041    , 1.23        , 3           , 255         , 0           , 0
-0.0830025151, -0.0852735043, -9.809677   , -0.00062685064, -0.000313705066, -6.19638158E-05, 0.008869668 , -0.00946493 , 6.05347632E-05, 919.763367  , 31.5940628  , 809.0042    , 1.24        , 3           , 255         , 0           , 0
-0.0869463459, -0.08729707 , -9.803801   , -0.000196874491, -2.2401E-05 , 5.95951133E-05, 0.008867692 , -0.009465159, 6.112872E-05, 919.763367  , 31.5940628  , 809.004333  , 1.25        , 3           , 255         , 0           , 0
-0.0918497  , -0.084661305, -9.786725   , -0.0004655281, 6.26384062E-05, -4.486276E-05, 0.008863042 , -0.00946452748, 6.06856556E-05, 919.763367  , 31.5940628  , 809.004456  , 1.26        , 3           , 255         , 0           , 0
-0.08679668 , -0.08227328 , -9.779951   , -0.000351738767, -6.07741822E-05, 0.000347260851, 0.008859491 , -0.009465166, 6.415282E-05, 919.763367  , 31.5940628  , 809.0046    , 1.27        , 3           , 255         , 0           , 0
-0.09685792 , -0.07310442 , -9.795533   , -0.000389528926, -6.091743E-05, 0.0002635628, 0.008855572 , -0.009465799, 6.678299E-05, 919.763367  , 31.5940628  , 809.0047    , 1.28        , 3           , 255         , 0           , 0
-0.101395682, -0.07662347 , -9.81213951 , 0.000199061062, 0.000125507882, 0.000157654882, 0.008857547 , -0.009464557, 6.837063E-05, 919.763367  , 31.5940628  , 809.0048    , 1.29        , 3           , 255         , 0           , 0
-0.08845904 , -0.07813216 , -9.805078   , 1.26457307E-05, 0.0006062011, -0.0003196034, 0.008857703 , -0.009458466, 6.522835E-05, 919.763367  , 31.5940628  , 809.004944  , 1.3         , 3           , 255         , 0           , 0
-0.09709523 , -0.0856316462, -9.795949   , 0.000278119784, -0.000166518774, 1.972361E-05, 0.00884786  , -0.009450026, 6.553011E-05, 919.763367  , 31.5940628  , 809.0227    , 1.31        , 3           , 255         , 0           , 0
-0.09449957 , -0.07976551 , -9.782564   , 0.000314723118, -0.00025828724, -0.0003891319, 0.008851046 , -0.009452573, 6.161602E-05, 919.763367  , 31.5940628  , 809.022949  , 1.32        , 3           , 255         , 0           , 0
-0.0893452838, -0.08132881 , -9.78815651 , 2.43580434E-05, 0.000116747542, 0.0002755443, 0.008851264 , -0.00945143 , 6.438173E-05, 919.802856  , 31.59793    , 809.0232    , 1.33        , 3           , 255         , 0           , 0
-0.09183931 , -0.0887630954, -9.798291   , 0.000148067978, 0.000347911962, 0.0002492386, 0.00885272  , -0.009447973, 6.690486E-05, 919.802856  , 31.59793    , 809.023438  , 1.34        , 3           , 255         , 0           , 0
-0.1048653  , -0.0851368159, -9.796003   , -0.000275080674, 0.000135223 , 0.0002911141, 0.008849941 , -0.009446646, 6.982792E-05, 919.802856  , 31.59793    , 809.0237    , 1.35        , 3           , 255         , 0           , 0
-0.107871458, -0.08886007 , -9.794591   , -0.000393332564, 0.00015810052, -2.84704729E-05, 0.008846009 , -0.009445063, 6.95572162E-05, 919.802856  , 31.59793    , 809.0239    , 1.36        , 3           , 255         , 0           , 0
-0.09787553 , -0.08308458 , -9.787822   , -0.000218934671, 0.0004169133, 2.65870185E-05, 0.008843818 , -0.009440899, 6.98599542E-05, 919.802856  , 31.59793    , 809.0242    , 1.37        , 3           , 255         , 0           , 0
-0.110680342, -0.06923977 , -9.792053   , -0.000173749751, 0.000351703435, 0.000235541986, 0.008842058 , -0.0094374  , 7.224644E-05, 919.802856  , 31.59793    , 809.0244    , 1.38        , 3           , 255         , 0           , 0
-0.113409854, -0.0714373  , -9.791252   , 0.00012331875, -0.0001431066, 0.000579738 , 0.008843236 , -0.009438883, 7.803105E-05, 919.802856  , 31.59793    , 809.024658  , 1.39        , 3           , 255         , 0           , 0
-0.105316684, -0.07970718 , -9.797197   , -6.074959E-06, 0.000273577578, -0.000119572753, 0.008843185 , -0.009436136, 7.685953E-05, 919.802856  , 31.59793    , 809.0249    , 1.4         , 3           , 255         , 0           , 0
-0.10242103 , -0.07258983 , -9.812668   , -0.000235101848, -0.000189558137, -0.000214550659, 0.008825047 , -0.009463767, 7.484693E-05, 919.802856  , 31.59793    , 808.999939  , 1.41        , 3           , 255         , 0           , 0
-0.09356501 , -0.0831930861, -9.79612    , 0.0003026296, -0.000429945329, -8.533125E-05, 0.00882808  , -0.009468059, 7.395569E-05, 919.802856  , 31.59793    , 809.000061  , 1.42        , 3           , 255         , 0           , 0
-0.1024455  , -0.07450944 , -9.79279    , -9.579875E-05, 8.041348E-05, -0.000102643331, 0.008827131 , -0.009467246, 7.29363746E-05, 919.783752  , 31.59827    , 809.0002    , 1.43        , 3           , 255         , 0           , 0
-0.0999607742, -0.07128751 , -9.794685   , 0.0002957752, -0.0001349125, 5.31084734E-05, 0.008830083 , -0.009468598, 7.345554E-05, 919.783752  , 31.59827    , 809.0003    , 1.44        , 3           , 255         , 0           , 0
-0.103827789, -0.08340237 , -9.789554   , 0.000605808047, -8.02160939E-05, 6.276506E-05, 0.008836135 , -0.009469407, 7.40761E-05 , 919.783752  , 31.59827    , 809.0004    , 1.45        , 3           , 255         , 0           , 0
-0.09657854 , -0.09008726 , -9.798244   , 0.000169581792, 0.0004709879, 0.0004355307, 0.00883779  , -0.009464736, 7.84729345E-05, 919.783752  , 31.59827    , 809.000549  , 1.46        , 3           , 255         , 0           , 0
-0.0900773555, -0.07916799 , -9.790676   , 0.0002641362, 0.000441820681, 0.000435989146, 0.00884039048, -0.009460357, 8.287179E-05, 919.783752  , 31.59827    , 809.0007    , 1.47        , 3           , 255         , 0           , 0
-0.07639406 , -0.0912536  , -9.791701   , 0.000493983 , 0.000178206028, 1.39023123E-05, 0.008845328 , -0.009458575, 8.302657E-05, 919.783752  , 31.59827    , 809.0008    , 1.48        , 3           , 255         , 0           , 0
-0.0920041054, -0.08772489 , -9.797099   , 0.0005266761, 9.476012E-05, 0.000154928028, 0.008850581 , -0.009457642, 8.45842E-05 , 919.783752  , 31.59827    , 809.0009    , 1.49        , 3           , 255         , 0           , 0
-0.09282766 , -0.08792254 , -9.791914   , 0.000145269762, 0.000242002177, -0.000175394875, 0.008852051 , -0.009455207, 8.28517E-05 , 919.783752  , 31.59827    , 809.001038  , 1.5         , 3           , 255         , 0           , 0
-0.0845421553, -0.08750471 , -9.801261   , 4.321037E-05, -0.0002879105, -2.246452E-08, 0.008842247 , -0.009463294, 8.292286E-05, 919.783752  , 31.59827    , 808.9983    , 1.51        , 3           , 255         , 0           , 0
-0.0739700943, -0.0967417  , -9.797127   , 0.000308577961, -0.000610447256, -0.000319130835, 0.008845361 , -0.00946937 , 7.967762E-05, 919.783752  , 31.59827    , 808.9984    , 1.52        , 3           , 255         , 0           , 0
-0.07086098 , -0.10272602 , -9.796161   , 9.843294E-05, -7.01056E-06, -0.0008671228, 0.008846427 , -0.009469364, 7.100594E-05, 919.7801    , 31.596777   , 808.998535  , 1.53        , 3           , 255         , 0           , 0
-0.07759    , -0.09864431 , -9.795542   , 0.000453596 , -0.000310428761, -0.000497659435, 0.00885101  , -0.009472424, 6.600197E-05, 919.7801    , 31.596777   , 808.998657  , 1.54        , 3           , 255         , 0           , 0
-0.07389959 , -0.08484421 , -9.789093   , 0.0003610214, -0.000496719847, 0.0007144699, 0.008854553 , -0.009477452, 7.310257E-05, 919.7801    , 31.596777   , 808.9988    , 1.55        , 3           , 255         , 0           , 0
-0.07538118 , -0.08572612 , -9.794573   , 0.000337139616, -0.000243863818, 0.0003762237, 0.008857887 , -0.009479924, 7.684314E-05, 919.7801    , 31.596777   , 808.9989    , 1.56        , 3           , 255         , 0           , 0
-0.0866123  , -0.09483741 , -9.797796   , 0.0003683956, -4.94520646E-05, 0.000939095858, 0.008861481 , -0.009480501, 8.622954E-05, 919.7801    , 31.596777   , 808.999     , 1.57        , 3           , 255         , 0           , 0
-0.08796488 , -0.0969074  , -9.803929   , 0.000306702248, -6.59123762E-05, 0.00092041184, 0.008864461 , -0.009481243, 9.542763E-05, 919.7801    , 31.596777   , 808.999146  , 1.58        , 3           , 255         , 0           , 0
-0.08833386 , -0.0968120843, -9.787725   , 9.39610763E-05, -0.00029654 , -0.000369593326, 0.008865437 , -0.009484176, 9.170549E-05, 919.7801    , 31.596777   , 808.999268  , 1.59        , 3           , 255         , 0           , 0
-0.09684785 , -0.09141232 , -9.787098   , -3.21739353E-05, -0.000425280159, 0.0005843725, 0.008865058 , -0.009488477, 9.75114E-05 , 919.7801    , 31.596777   , 808.9994    , 1.6         , 3           , 255         , 0           , 0
-0.0980434939, -0.0793309  , -9.787442   , -0.0003075204, -0.000674200535, 6.915837E-05, 0.00887813047, -0.009468949, 9.799026E-05, 919.7801    , 31.596777   , 809.0006    , 1.61        , 3           , 255         , 0           , 0
-0.09796126 , -0.08818452 , -9.793314   , 0.000120220269, 4.37114068E-05, -0.0006112042, 0.00887939  , -0.009468459, 9.188222E-05, 919.7801    , 31.596777   , 809.0008    , 1.62        , 3           , 255         , 0           , 0
-0.08535447 , -0.07188143 , -9.788777   , 9.67043743E-05, 0.000246460258, -0.000345745444, 0.00888039  , -0.00946596451, 8.84467154E-05, 919.7721    , 31.5994911  , 809.001     , 1.63        , 3           , 255         , 0           , 0
-0.09852038 , -0.08532236 , -9.793417   , -0.000119715114, 0.00028326828, -0.000236558059, 0.008879215 , -0.009463111, 8.610633E-05, 919.7721    , 31.5994911  , 809.00116   , 1.64        , 3           , 255         , 0           , 0
-0.10245844 , -0.0919454247, -9.801059   , -0.000340678846, 9.131218E-05, -0.0005825505, 0.008875864 , -0.009462148, 8.02890645E-05, 919.7721    , 31.5994911  , 809.001343  , 1.65        , 3           , 255         , 0           , 0
-0.109389164, -0.07630919 , -9.797311   , -9.5581694E-05, 5.74632431E-05, 0.000207701232, 0.008874887 , -0.00946159 , 8.237112E-05, 919.7721    , 31.5994911  , 809.0015    , 1.66        , 3           , 255         , 0           , 0
-0.115118265, -0.0739140958, -9.798535   , 1.2577686E-05, -5.59366163E-05, -0.000238142413, 0.008875035 , -0.009462127, 7.9984784E-05, 919.7721    , 31.5994911  , 809.0017    , 1.67        , 3           , 255         , 0           , 0
-0.117268249, -0.07312503 , -9.803415   , -9.486353E-05, 0.000104540886, -0.00136926 , 0.008874216 , -0.009460961, 6.63017345E-05, 919.7721    , 31.5994911  , 809.0019    , 1.68        , 3           , 255         , 0           , 0
-0.118096925, -0.07718563 , -9.808495   , -0.000359952915, 6.18884224E-06, -0.000793409243, 0.008870691 , -0.009460827, 5.83683468E-05, 919.7721    , 31.5994911  , 809.0021    , 1.69        , 3           , 255         , 0           , 0
-0.1157344  , -0.08154891 , -9.800966   , 7.51170446E-05, -0.000188565362, -0.000147549144, 0.008871457 , -0.0094627  , 5.68761534E-05, 919.7721    , 31.5994911  , 809.002258  , 1.7         , 3           , 255         , 0           , 0
-0.103879735, -0.08185009 , -9.802798   , 8.879928E-06, -0.000472147163, -0.000382521044, 0.00885742251, -0.009493471, 5.3143518E-05, 919.7721    , 31.5994911  , 809.012268  , 1.71        , 3           , 255         , 0           , 0
-0.098089464, -0.08324643 , -9.7992115  , -0.000711741741, -0.0004280775, -0.000193717613, 0.008850325 , -0.009497734, 5.116849E-05, 919.7721    , 31.5994911  , 809.0125    , 1.72        , 3           , 255         , 0           , 0
-0.09819344 , -0.0807075053, -9.795712   , -0.000329640519, -0.000246411219, -0.000219761365, 0.008847049 , -0.009500178, 4.8949114E-05, 919.778     , 31.60173    , 809.012756  , 1.73        , 3           , 255         , 0           , 0
-0.087653   , -0.083615914, -9.795764   , 0.0007868465, -2.31428712E-05, 0.001091495 , 0.008854812 , -0.009500506, 5.98618171E-05, 919.778     , 31.60173    , 809.013     , 1.74        , 3           , 255         , 0           , 0
-0.08660211 , -0.08165401 , -9.791377   , 0.0007993743, 0.000249615521, 0.000290607131, 0.008862778 , -0.009498036, 6.278994E-05, 919.778     , 31.60173    , 809.013245  , 1.75        , 3           , 255         , 0           , 0
-0.08850429 , -0.0895497054, -9.802797   , 0.0001805891, -0.000625157263, 0.0001529853, 0.00886456948, -0.00950430147, 6.426435E-05, 919.778     , 31.60173    , 809.0135    , 1.76        , 3           , 255         , 0           , 0
-0.0818672553, -0.100040033, -9.796611   , 0.0004181969, -0.00020256979, -0.000308389368, 0.00886878  , -0.0095063  , 6.116256E-05, 919.778     , 31.60173    , 809.013733  , 1.77        , 3           , 255         , 0           , 0
-0.07565311 , -0.0895253  , -9.799969   , 0.000444890524, -5.66912931E-05, -0.000170104191, 0.008873245 , -0.0095068505, 5.94565172E-05, 919.778     , 31.60173    , 809.014     , 1.78        , 3           , 255         , 0           , 0
-0.0683029443, -0.09194344 , -9.804693   , -0.0005068104, -0.000140870485, -0.00036705198, 0.008868212 , -0.009508226, 5.577357E-05, 919.778     , 31.60173    , 809.0142    , 1.79        , 3           , 255         , 0           , 0
-0.07877206 , -0.0865399837, -9.797911   , -0.0003112281, 0.000446001679, 9.144838E-06, 0.0088651   , -0.009503768, 5.59045548E-05, 919.778     , 31.60173    , 809.014465  , 1.8         , 3           , 255         , 0           , 0
-0.07235621 , -0.09515549 , -9.790642   , 0.000328516035, 0.000112268259, -0.0006471001, 0.008868542 , -0.009491016, 4.94427368E-05, 919.778     , 31.60173    , 809.0167    , 1.81        , 3           , 255         , 0           , 0
-0.0654722452, -0.09967236 , -9.796335   , 0.00051879586, 0.0004905466, 0.000380701327, 0.008873693 , -0.009486144, 5.329318E-05, 919.778     , 31.60173    , 809.016968  , 1.82        , 3           , 255         , 0           , 0
-0.08001438 , -0.09482296 , -9.775516   , 0.000860888569, 2.5494126E-05, 0.000187298327, 0.008882283 , -0.009485907, 5.51684E-05 , 919.790466  , 31.5983372  , 809.0172    , 1.83        , 3           , 255         , 0           , 0
-0.0991750658, -0.07946912 , -9.801599   , 7.053395E-05, -3.52021743E-05, -5.724156E-05, 0.008882993 , -0.009486253, 5.45928669E-05, 919.790466  , 31.5983372  , 809.017456  , 1.84        , 3           , 255         , 0           , 0
-0.103112921, -0.076332435, -9.792402   , 0.000120563142, 9.54027637E-05, 1.71763641E-05, 0.008884197 , -0.009485301, 5.47731033E-05, 919.790466  , 31.5983372  , 809.0177    , 1.85        , 3           , 255         , 0           , 0
-0.103954889, -0.08884661 , -9.781743   , 0.000110358407, -0.00035849947, 0.0005356638, 0.00888525  , -0.009488934, 6.00977837E-05, 919.790466  , 31.5983372  , 809.017944  , 1.86        , 3           , 255         , 0           , 0
-0.103303649, -0.0930112  , -9.789724   , -7.353013E-05, 1.25789084E-05, 0.0003405714, 0.008884484 , -0.009488838, 6.350456E-05, 919.790466  , 31.5983372  , 809.0182    , 1.87        , 3           , 255         , 0           , 0
-0.105990529, -0.08386324 , -9.792281   , -0.0005761682, 0.000383173727, 0.0008860172, 0.008878637 , -0.009485084, 7.239858E-05, 919.790466  , 31.5983372  , 809.018433  , 1.88        , 3           , 255         , 0           , 0
-0.109579608, -0.08481274 , -9.793111   , 0.00026224216, 0.000109381537, 0.0003203677, 0.00888123  , -0.009484018, 7.56119043E-05, 919.790466  , 31.5983372  , 809.0187    , 1.89        , 3           , 255         , 0           , 0
-0.0876149461, -0.07148355 , -9.793306   , -0.0001841319, -0.000223491559, -0.0002608953, 0.008879413 , -0.009486229, 7.298316E-05, 919.790466  , 31.5983372  , 809.0189    , 1.9         , 3           , 255         , 0           , 0
-0.08372275 , -0.06829043 , -9.789778   , 0.00028981443, -0.0005791051, -6.78669458E-05, 0.008881609 , -0.009492562, 7.225979E-05, 919.790466  , 31.5983372  , 809.0059    , 1.91        , 3           , 255         , 0           , 0
-0.0933472738, -0.08246108 , -9.79062    , -0.0002456357, -0.0005733862, 0.000195072367, 0.0088791335, -0.009498313, 7.415956E-05, 919.790466  , 31.5983372  , 809.0061    , 1.92        , 3           , 255         , 0           , 0
-0.10407827 , -0.0817041546, -9.792839   , -0.000385270338, 5.736362E-05, -9.41443E-05, 0.00887529  , -0.009497731, 7.322322E-05, 919.7366    , 31.5972519  , 809.0063    , 1.93        , 3           , 255         , 0           , 0
-0.101075575, -0.0865993  , -9.797148   , -0.000320363848, 0.000466024241, -0.000350968272, 0.00887212  , -0.00949304 , 6.975497E-05, 919.7366    , 31.5972519  , 809.0065    , 1.94        , 3           , 255         , 0           , 0
-0.111397885, -0.08952074 , -9.8001     , -0.000520685047, 0.000104455466, -0.000228058445, 0.008866935 , -0.009491978, 6.74837E-05 , 919.7366    , 31.5972519  , 809.006653  , 1.95        , 3           , 255         , 0           , 0
-0.106782988, -0.0905402452, -9.790676   , -0.0004916242, -9.023803E-05, -0.0001538738, 0.00886203349, -0.009492865, 6.5937E-05  , 919.7366    , 31.5972519  , 809.006836  , 1.96        , 3           , 255         , 0           , 0
-0.103438914, -0.0777708441, -9.789171   , -0.000647610461, 0.000434345362, -0.000195451008, 0.008855576 , -0.009488503, 6.402101E-05, 919.7366    , 31.5972519  , 809.007     , 1.97        , 3           , 255         , 0           , 0
-0.103299305, -0.08357858 , -9.793866   , -0.0006132839, 0.000157690229, -0.000614404737, 0.008849501 , -0.009486874, 5.789104E-05, 919.7366    , 31.5972519  , 809.0072    , 1.98        , 3           , 255         , 0           , 0
-0.1047616  , -0.07109652 , -9.781685   , -0.0008092878, 0.00054057443, -0.0007210502, 0.008841476 , -0.009481404, 5.07284931E-05, 919.7366    , 31.5972519  , 809.0074    , 1.99        , 3           , 255         , 0           , 0
-0.1086941  , -0.07616104 , -9.77927    , -0.00143272942, -2.07938574E-05, -0.0005422005, 0.008827201 , -0.009481565, 4.53047542E-05, 919.7366    , 31.5972519  , 809.007568  , 2           , 3           , 0           , 7.04223633  , 200
-0.113394663, -0.08761284 , -9.780378   , -0.0013785935, 1.84446544E-05, -0.000936916738, 0.008795407 , -0.009508515, 3.61094462E-05, 919.7366    , 31.5972519  , 809.0606    , 2.01        , 3           , 1           , 0           , 0
-0.117824659, -0.09176288 , -9.806147   , -0.00138153962, 0.000669509755, -0.000101932506, 0.008781602 , -0.00950181 , 3.51489834E-05, 919.7366    , 31.5972519  , 809.061157  , 2.02        , 3           , 2           , 0           , 0
-0.119665906, -0.0809895247, -9.812233   , -0.00141217816, 0.000258620537, -0.0002298816, 0.008767502 , -0.009499204, 3.28728966E-05, 919.8224    , 31.6021366  , 809.0617    , 2.03        , 3           , 3           , 0           , 0
-0.11949297 , -0.07202498 , -9.823458   , -0.0004101186, -6.53889438E-05, 5.97979961E-05, 0.008763395 , -0.009499863, 3.346514E-05, 919.8224    , 31.6021366  , 809.062256  , 2.04        , 3           , 4           , 0           , 0
-0.117752716, -0.0615750924, -9.82448    , -0.000170624582, 3.894698E-05, 4.96613648E-05, 0.008761684 , -0.009499478, 3.3965156E-05, 919.8224    , 31.6021366  , 809.0628    , 2.05        , 3           , 5           , 0           , 0
-0.114359811, -0.0572621  , -9.797129   , -8.03828E-05, 0.000397933356, -0.000183220458, 0.008760897 , -0.009495483, 3.21678563E-05, 919.8224    , 31.6021366  , 809.063354  , 2.06        , 3           , 6           , 0           , 0
-0.111546218, -0.06623463 , -9.780858   , 2.56755156E-05, 0.000318687933, 0.00088179094, 0.008761071 , -0.009492373, 4.101352E-05, 919.8224    , 31.6021366  , 809.0639    , 2.07        , 3           , 7           , 0           , 0
-0.104494631, -0.0859345049, -9.796581   , 0.000818209141, -0.000140078017, 0.000715419534, 0.008769184 , -0.009493837, 4.81552925E-05, 919.8224    , 31.6021366  , 809.064453  , 2.08        , 3           , 8           , 5           , 5
-0.104621872, -0.101125121, -9.820637   , 0.0008688539, -0.000162222626, 0.000300747575, 0.008777845 , -0.009495486, 5.11484832E-05, 919.8224    , 31.6021366  , 809.065     , 2.09        , 3           , 9           , 5           , 0.1
-0.09821447 , -0.0995326638, -9.81502    , 0.0005679682, -0.0001392095, 0.0002085737, 0.008783503 , -0.009496897, 5.32219528E-05, 919.8224    , 31.6021366  , 809.065552  , 2.1         , 3           , 10          , 0.1         , 0.1
-0.08883481 , -0.102127358, -9.788274   , 0.0007652337, -0.0006394225, 0.0005675159, 0.008784283 , -0.009526794, 5.89057963E-05, 919.8224    , 31.6021366  , 809.006531  , 2.11        , 3           , 11          , 0.008126049 , 0.008126048
-0.05885593 , -0.0884350762, -9.772192   , 0.000646763656, -0.000190886291, 0.0009527337, 0.008790659 , -0.009528787, 6.84162E-05 , 919.8224    , 31.6021366  , 809.0067    , 2.12        , 3           , 12          , 0.174643889 , 0
-0.05118801 , -0.0785515457, -9.766542   , 0.00104581378, 7.67201564E-05, -2.36758333E-05, 0.008801118 , -0.009528016, 6.81862E-05 , 919.7936    , 31.6012554  , 809.0069    , 2.13        , 3           , 13          , 0           , 0
-0.0597284548, -0.08421077 , -9.80113    , 0.000718741852, -0.000360993319, 0.000116295763, 0.008808293 , -0.009531636, 6.931734E-05, 919.7936    , 31.6012554  , 809.0071    , 2.14        , 3           , 14          , -0.000518273, -0.000179382158
-0.0577995367, -0.09812476 , -9.812777   , 0.00064845063, 2.938819E-05, 0.0007350654, 0.00881470647, -0.009531406, 7.667046E-05, 919.7936    , 31.6012554  , 809.007263  , 2.15        , 3           , 15          , 0           , -2.89154214E-05
-0.05011343 , -0.112615965, -9.803983   , 0.0007032812, -0.000117666787, 9.015298E-05, 0.00882173  , -0.00953259 , 7.75616E-05 , 919.7936    , 31.6012554  , 809.007446  , 2.16        , 3           , 16          , 0           , 1.401298E-45
-0.0592542067, -0.126521289, -9.789533   , 0.0009222514, 0.00020290965, 0.000370662718, 0.008830916 , -0.009530593, 8.12860744E-05, 919.7936    , 31.6012554  , 809.0076    , 2.17        , 3           , 20          , 0           , 0
-0.0813892558, -0.111695886, -9.778186   , 0.00114212674, -0.000141408178, 0.000872586446, 0.008842254 , -0.009532085, 8.999925E-05, 919.7936    , 31.6012554  , 809.0078    , 2.18        , 3           , 21          , 0           , 0
-0.08599065 , -0.0912924856, -9.786308   , 0.0006098371, -4.029616E-05, -0.000628203736, 0.008848411 , -0.009532431, 8.371377E-05, 919.7936    , 31.6012554  , 809.008     , 2.19        , 3           , 22          , 0           , 0
-0.0820042938, -0.08795942 , -9.804854   , 0.00106602791, 0.000243621122, -0.000357353681, 0.008859104 , -0.009529962, 8.016189E-05, 919.7936    , 31.6012554  , 809.0082    , 2.2         , 3           , 40          , 0           , 0
-0.08946131 , -0.08159032 , -9.805082   , 0.0008014133, 0.000152998 , 0.000131832 , 0.008902043 , -0.009452527, 8.11634745E-05, 919.7936    , 31.6012554  , 808.9914    , 2.21        , 3           , 41          , 0           , 0
-0.111076511, -0.08543736 , -9.797214   , 0.000546289 , -0.00054699264, -0.000362092251, 0.00890754  , -0.009457965, 7.749391E-05, 919.7936    , 31.6012554  , 808.9915    , 2.22        , 3           , 42          , 0           , 0
-0.110108435, -0.08675182 , -9.781778   , 0.0010599487, 8.495059E-06, 0.000403733284, 0.008918101 , -0.009457914, 8.153192E-05, 919.7944    , 31.6003723  , 808.991638  , 2.23        , 3           , 255         , 0           , 0
-0.10184069 , -0.07884675 , -9.78949451 , 0.00122549513, 7.561112E-05, 0.000167024918, 0.00893033948, -0.009457174, 8.320888E-05, 919.7944    , 31.6003723  , 808.99176   , 2.24        , 3           , 255         , 0           , 0
-0.1112818  , -0.0818508044, -9.796927   , 0.000761304167, 6.305482E-05, 0.000275275175, 0.008937925 , -0.009456566, 8.59672145E-05, 919.7944    , 31.6003723  , 808.9919    , 2.25        , 3           , 255         , 0           , 0
-0.115905061, -0.08725039 , -9.803318   , 4.797979E-05, -0.000217828623, 0.000261785375, 0.00893838052, -0.009458767, 8.85655463E-05, 919.7944    , 31.6003723  , 808.992     , 2.26        , 3           , 255         , 0           , 0
-0.110378966, -0.08773313 , -9.801179   , 0.0009815835, -0.0004818309, -4.044518E-05, 0.0089482   , -0.00946358 , 8.811802E-05, 919.7944    , 31.6003723  , 808.9921    , 2.27        , 3           , 255         , 0           , 0
-0.105712458, -0.09467362 , -9.786934   , 0.00107365439, -0.000430313579, -7.681265E-05, 0.008958943 , -0.009467876, 8.731136E-05, 919.7944    , 31.6003723  , 808.992249  , 2.28        , 3           , 255         , 0           , 0
-0.109606385, -0.0943695456, -9.783022   , 0.0006933718, -0.0003863125, 0.000721802 , 0.008965808 , -0.009471804, 9.44946E-05 , 919.7944    , 31.6003723  , 808.9924    , 2.29        , 3           , 255         , 0           , 0
-0.11597763 , -0.0840298161, -9.779454   , 0.0003828643, -0.00021038363, 0.00080543675, 0.008969558 , -0.00947397947, 0.000102529943, 919.7944    , 31.6003723  , 808.9925    , 2.3         , 3           , 255         , 0           , 0
-0.104611874, -0.0836654454, -9.806033   , 0.00106401811, -0.000247733551, -0.0008332409, 0.008977335 , -0.009513107, 9.42034458E-05, 919.7944    , 31.6003723  , 808.976563  , 2.31        , 3           , 255         , 0           , 0
-0.09407276 , -0.07978825 , -9.79791451 , 0.0008211775, -0.000137212963, -0.000707569765, 0.00898561347, -0.009514414, 8.71155644E-05, 919.7944    , 31.6003723  , 808.976563  , 2.32        , 3           , 255         , 0           , 0
-0.09636921 , -0.0823803246, -9.794941   , 0.000432035944, 2.3178538E-05, -0.000373227522, 0.008989969 , -0.009514149, 8.338544E-05, 919.815857  , 31.6030178  , 808.976563  , 2.33        , 3           , 255         , 0           , 0
-0.105123244, -0.08110705 , -9.794377   , 0.0006395174, -0.000486793346, 6.88489963E-05, 0.008996356 , -0.009519024, 8.403016E-05, 919.815857  , 31.6030178  , 808.976563  , 2.34        , 3           , 255         , 0           , 0
-0.105310142, -0.08978088 , -9.788764   , 0.00124039222, -0.00015319 , 0.000209577585, 0.009008738 , -0.009520573, 8.611209E-05, 919.815857  , 31.6030178  , 808.976563  , 2.35        , 3           , 255         , 0           , 0
-0.109503746, -0.09155613 , -9.786139   , 0.00132583571, -0.000275234226, 0.0007721405, 0.009021923 , -0.009523395, 9.380853E-05, 919.815857  , 31.6030178  , 808.976563  , 2.36        , 3           , 255         , 0           , 0
-0.120464221, -0.0920362  , -9.78364    , 0.000567548035, -0.000265548355, -0.0002512158, 0.009027622 , -0.009526029, 9.127245E-05, 919.815857  , 31.6030178  , 808.976563  , 2.37        , 3           , 255         , 0           , 0
-0.113823175, -0.07900961 , -9.779282   , 0.0005734554, -0.0004384073, 0.000429098582, 0.009033316 , -0.00953045 , 9.552377E-05, 919.815857  , 31.6030178  , 808.976563  , 2.38        , 3           , 255         , 0           , 0
-0.1098593  , -0.08733662 , -9.78637    , 0.000147957646, -0.000238228313, 0.000791620638, 0.009034719 , -0.009532904, 0.000103418286, 919.815857  , 31.6030178  , 808.976563  , 2.39        , 3           , 255         , 0           , 0
-0.107172385, -0.08210844 , -9.796362   , 0.0003273287, -0.0007350622, 0.00056382193, 0.00903794  , -0.009540304, 0.000108989967, 919.815857  , 31.6030178  , 808.976563  , 2.4         , 3           , 255         , 0           , 0
-0.103582755, -0.07488175 , -9.801764   , 0.000348253438, -0.0008110556, 0.0002399084, 0.009033123 , -0.009582214, 0.000111394969, 919.815857  , 31.6030178  , 808.9338    , 2.41        , 3           , 255         , 0           , 0
-0.102367029, -0.0818176344, -9.799922   , 0.000895282545, -0.000378817029, 0.000237304077, 0.00904205348, -0.009586023, 0.000113733717, 919.815857  , 31.6030178  , 808.933533  , 2.42        , 3           , 255         , 0           , 0
-0.103038393, -0.08311958 , -9.808563   , 0.00069386547, -0.000355593278, 0.000238129884, 0.00904896948, -0.0095896  , 0.000116082818, 919.762451  , 31.6000328  , 808.9333    , 2.43        , 3           , 255         , 0           , 0
-0.09507285 , -0.08763587 , -9.805323   , 0.00126154453, -0.0009067213, -0.000165816848, 0.009061601 , -0.00959865 , 0.000114342569, 919.762451  , 31.6000328  , 808.933044  , 2.44        , 3           , 255         , 0           , 0
-0.0803148746, -0.106491707, -9.786317   , 0.00145993859, -0.000133234425, 0.0001999834, 0.009076179 , -0.0096     , 0.00011633028, 919.762451  , 31.6000328  , 808.9328    , 2.45        , 3           , 255         , 0           , 0
-0.07299101 , -0.100558005, -9.785189   , 1.90466526E-05, -0.000284256443, 0.0006675824, 0.009076307 , -0.009602904, 0.000122980156, 919.762451  , 31.6000328  , 808.932556  , 2.46        , 3           , 255         , 0           , 0
-0.0626285747, -0.10735669 , -9.782721   , 0.0005694595, -0.0005528741, 0.00022815635, 0.009081979 , -0.009608451, 0.000125211474, 919.762451  , 31.6000328  , 808.9323    , 2.47        , 3           , 255         , 0           , 0
-0.05022932 , -0.106045648, -9.782024   , 0.000206926168, -0.0006165207, 0.000120756711, 0.00908403751, -0.009614627, 0.00012636304, 919.762451  , 31.6000328  , 808.932068  , 2.48        , 3           , 255         , 0           , 0
-0.0372958146, -0.105717316, -9.790975   , 0.0005742718, -0.000582404959, -0.0004347617, 0.009089822 , -0.009620411, 0.000121962577, 919.762451  , 31.6000328  , 808.9318    , 2.49        , 3           , 255         , 0           , 0
-0.03297129 , -0.107772812, -9.80147    , 0.0004386352, -0.000461665972, -0.00017334336, 0.009094225 , -0.009625011, 0.000120187207, 919.762451  , 31.6000328  , 808.9316    , 2.5         , 3           , 255         , 0           , 0
-0.04084468 , -0.116182663, -9.792214   , 0.000590946 , -0.0002561664, 0.000173319146, 0.009114693 , -0.00958769 , 0.00012175733, 919.762451  , 31.6000328  , 808.9659    , 2.51        , 3           , 255         , 0           , 0
-0.0598225668, -0.0944054052, -9.788313   , 0.000137300172, 0.000140882534, -0.000110465582, 0.009116077 , -0.009586271, 0.000120665543, 919.762451  , 31.6000328  , 808.9659    , 2.52        , 3           , 255         , 0           , 0
-0.0735042542, -0.08652295 , -9.794894   , 0.000757216068, -5.16811269E-07, 0.0004989262, 0.0091236   , -0.009586322, 0.000125654667, 919.7703    , 31.6007118  , 808.9659    , 2.53        , 3           , 255         , 0           , 0
-0.1016338  , -0.09542507 , -9.798912   , 0.00161146629, -0.000379274075, 0.0010762508, 0.009139611 , -0.009590211, 0.00013638231, 919.7703    , 31.6007118  , 808.9659    , 2.54        , 3           , 255         , 0           , 0
-0.106576361, -0.0927927345, -9.797724   , 0.00067768374, -0.000542587135, 0.000749219733, 0.009146316 , -0.009595705, 0.000143824727, 919.7703    , 31.6007118  , 808.9659    , 2.55        , 3           , 255         , 0           , 0
-0.105869845, -0.09715609 , -9.790878   , 8.83716E-05 , -0.000136001865, 0.000691630354, 0.009147133 , -0.009597126, 0.000150728447, 919.7703    , 31.6007118  , 808.9659    , 2.56        , 3           , 255         , 0           , 0
-0.114887156, -0.09680687 , -9.784184   , 0.000784373435, 0.0003152542, -7.88334655E-05, 0.009154984 , -0.009593966, 0.000149968982, 919.7703    , 31.6007118  , 808.9659    , 2.57        , 3           , 255         , 0           , 0
-0.112596929, -0.07908232 , -9.779526   , 0.0006980623, 5.800128E-05, 0.000103763356, 0.009161955 , -0.00959339552, 0.0001510119, 919.7703    , 31.6007118  , 808.9659    , 2.58        , 3           , 255         , 0           , 0
-0.110049129, -0.08304645 , -9.802284   , -0.000436440634, -0.000270741875, 1.57441427E-05, 0.009157589 , -0.009596104, 0.000151144544, 919.7703    , 31.6007118  , 808.9659    , 2.59        , 3           , 255         , 0           , 0
-0.123696879, -0.0800107047, -9.811013   , 0.0006362295, -0.000207825316, -2.28657882E-05, 0.009163953 , -0.00959818 , 0.000150896856, 919.7703    , 31.6007118  , 808.9659    , 2.6         , 3           , 255         , 0           , 0
-0.119978189, -0.07781315 , -9.802656   , 0.0005138619, 0.000257992535, -0.0007280015, 0.009174332 , -0.009597493, 0.000143591024, 919.7703    , 31.6007118  , 808.985657  , 2.61        , 3           , 255         , 0           , 0
-0.103914842, -0.09657853 , -9.781925   , -0.0002130433, -0.000158986179, -0.0005659062, 0.009172256 , -0.009599031, 0.000137917479, 919.7703    , 31.6007118  , 808.9858    , 2.62        , 3           , 255         , 0           , 0
-0.10628736 , -0.090009   , -9.77806    , 0.000167584163, 0.000258691784, 4.067643E-05, 0.009173929 , -0.009596447, 0.000138347968, 919.8103    , 31.5996933  , 808.9859    , 2.63        , 3           , 255         , 0           , 0
-0.0975108743, -0.09412839 , -9.777552   , 0.000631279545, -2.2722641E-05, 0.0006097242, 0.00918018352, -0.009596731, 0.000144443 , 919.8103    , 31.5996933  , 808.986     , 2.64        , 3           , 255         , 0           , 0
-0.09096813 , -0.102767333, -9.794179   , 7.089219E-05, -0.000509041, 0.0004254968, 0.009180852 , -0.00960186 , 0.000148651146, 919.8103    , 31.5996933  , 808.986145  , 2.65        , 3           , 255         , 0           , 0
-0.0829622746, -0.0949802846, -9.825175   , 0.000397874945, -0.000237569751, 0.000215123364, 0.009184809 , -0.009604257, 0.000150780528, 919.8103    , 31.5996933  , 808.986267  , 2.66        , 3           , 255         , 0           , 0
-0.0780665055, -0.0908545  , -9.814031   , -4.74788249E-06, 0.000346169283, -5.451616E-05, 0.009184767 , -0.009600789, 0.000150267151, 919.8103    , 31.5996933  , 808.9864    , 2.67        , 3           , 255         , 0           , 0
-0.07245439 , -0.09227366 , -9.799795   , 0.0005516747, 0.000414423528, -0.0001341302, 0.009190296 , -0.009596634, 0.000148963954, 919.8103    , 31.5996933  , 808.9865    , 2.68        , 3           , 255         , 0           , 0
-0.07959376 , -0.09320526 , -9.793091   , 0.0005683985, 0.0002633555, 0.000649253663, 0.009195919 , -0.009594059, 0.000155480564, 919.8103    , 31.5996933  , 808.986633  , 2.69        , 3           , 255         , 0           , 0
-0.08371515 , -0.100608528, -9.792297   , 0.00123594329, 8.304644E-05, 0.000106118423, 0.009208268 , -0.009593237, 0.000156549344, 919.8103    , 31.5996933  , 808.986755  , 2.7         , 3           , 255         , 0           , 0
-0.09218111 , -0.09743173 , -9.795187   , 0.0006034417, 6.949267E-06, 4.233977E-05, 0.009220201 , -0.009588813, 0.00015691678, 919.8103    , 31.5996933  , 808.948547  , 2.71        , 3           , 255         , 0           , 0
-0.106542327, -0.09113376 , -9.79118    , 0.000528690347, 0.0003617535, 0.000748339458, 0.009225414 , -0.009585263, 0.000164433353, 919.8103    , 31.5996933  , 808.9484    , 2.72        , 3           , 255         , 0           , 0
-0.118356965, -0.08894234 , -9.795401   , -0.000287096482, -0.000406591222, -0.000185971337, 0.00922256149, -0.009589312, 0.000162536191, 919.8417    , 31.6014576  , 808.948364  , 2.73        , 3           , 255         , 0           , 0
-0.110400364, -0.09155317 , -9.78792    , -0.000571903132, -0.0004300119, -0.0009006831, 0.009216929 , -0.009593528, 0.0001534899, 919.8417    , 31.6014576  , 808.9483    , 2.74        , 3           , 255         , 0           , 0
-0.110278383, -0.07439622 , -9.788237   , -0.0006793467, 0.0004974917, 0.000235628017, 0.009210112 , -0.009588575, 0.000155891976, 919.8417    , 31.6014576  , 808.948242  , 2.75        , 3           , 255         , 0           , 0
-0.100201845, -0.07283299 , -9.802251   , -0.0001890249, 0.0003581027, 0.000681198668, 0.009208158 , -0.009585057, 0.0001627368, 919.8417    , 31.6014576  , 808.9482    , 2.76        , 3           , 255         , 0           , 0
-0.09798151 , -0.0697140545, -9.790785   , -4.63741E-05, -0.000440889038, 0.000264641742, 0.009207668 , -0.00958949048, 0.000165342572, 919.8417    , 31.6014576  , 808.9481    , 2.77        , 3           , 255         , 0           , 0
-0.0955044553, -0.0765587538, -9.805057   , -0.000111081696, -0.000615674362, 0.000415657822, 0.009206518 , -0.009595685, 0.000169442341, 919.8417    , 31.6014576  , 808.948059  , 2.78        , 3           , 255         , 0           , 0
-0.0978752151, -0.09522052 , -9.797323   , -0.000475019857, 1.7219354E-05, 0.000128446743, 0.009201754 , -0.00959552452, 0.000170728381, 919.8417    , 31.6014576  , 808.948     , 2.79        , 3           , 255         , 0           , 0
-0.09383378 , -0.100744583, -9.802622   , 0.000430958054, 0.0001165561, -0.000576939434, 0.00920612  , -0.009594306, 0.000164969824, 919.8417    , 31.6014576  , 808.947937  , 2.8         , 3           , 255         , 0           , 0
-0.0846019238, -0.08993794 , -9.810835   , 0.00029549023, 7.206296E-05, 0.000432735163, 0.009201385 , -0.00960818 , 0.0001693772, 919.8417    , 31.6014576  , 808.871643  , 2.81        , 3           , 255         , 0           , 0
-0.08233569 , -0.09888784 , -9.805452   , -0.0001858761, 0.000144796009, -0.000436280447, 0.009199569 , -0.009606692, 0.000165027814, 919.8417    , 31.6014576  , 808.8711    , 2.82        , 3           , 255         , 0           , 0
-0.08567067 , -0.101698138, -9.778972   , 7.46321166E-06, -0.000393889175, -1.99770238E-05, 0.009199645 , -0.009610629, 0.000164791825, 919.786255  , 31.6043072  , 808.870544  , 2.83        , 3           , 255         , 0           , 0
-0.08482874 , -0.0924752951, -9.797739   , 2.16054614E-05, 3.80240381E-05, 9.04390254E-05, 0.009199852 , -0.009610257, 0.00016569969, 919.786255  , 31.6043072  , 808.87      , 2.84        , 3           , 255         , 0           , 0
-0.08142964 , -0.09475286 , -9.791603   , 0.000114227063, -0.000246351265, 0.000437368581, 0.009200951 , -0.009612761, 0.00017005064, 919.786255  , 31.6043072  , 808.869446  , 2.85        , 3           , 255         , 0           , 0
-0.0870370343, -0.09198138 , -9.803698   , 0.0006003053, -0.000246536976, 0.0008590443, 0.0092068715, -0.009615306, 0.0001786182, 919.786255  , 31.6043072  , 808.8689    , 2.86        , 3           , 255         , 0           , 0
-0.09648987 , -0.08878027 , -9.792222   , 3.59771075E-05, -0.000445132173, 0.00103694375, 0.009207132 , -0.009619851, 0.000188946447, 919.786255  , 31.6043072  , 808.868347  , 2.87        , 3           , 255         , 0           , 0
-0.10387858 , -0.085522294, -9.780379   , 0.000370151247, -0.0008632749, 3.72269424E-05, 0.00921083  , -0.009628488, 0.000189239188, 919.786255  , 31.6043072  , 808.8678    , 2.88        , 3           , 255         , 0           , 0
-0.105551824, -0.08010318 , -9.794634   , -1.78210321E-05, -0.0007599272, 0.0005917053, 0.009210593 , -0.0096361395, 0.000195086119, 919.786255  , 31.6043072  , 808.867249  , 2.89        , 3           , 255         , 0           , 0
-0.111474141, -0.0851315856, -9.792585   , -0.000432607718, -0.000238170935, -9.256838E-05, 0.009206277 , -0.009638513, 0.000194138527, 919.786255  , 31.6043072  , 808.8667    , 2.9         , 3           , 255         , 0           , 0
-0.1132545  , -0.0875547752, -9.798884   , 0.0002794453, -0.000415564835, -0.00068494014, 0.009210593 , -0.009639316, 0.000187236947, 919.786255  , 31.6043072  , 808.8785    , 2.91        , 3           , 255         , 0           , 0
-0.1087477  , -0.09001319 , -9.80338    , 0.0004961036, -0.000200556446, 0.000290585944, 0.009215527 , -0.009641349, 0.000190124279, 919.786255  , 31.6043072  , 808.878     , 2.92        , 3           , 255         , 0           , 0
-0.08658706 , -0.09582789 , -9.795271   , 0.000989128 , -0.0004811257, 0.000145180529, 0.009225404 , -0.009646173, 0.000191531668, 919.837952  , 31.6038322  , 808.8775    , 2.93        , 3           , 255         , 0           , 0
-0.09341888 , -0.08875716 , -9.775544   , 0.000133376685, -0.000379281322, 0.000316025049, 0.009226707 , -0.009649995, 0.000194656866, 919.837952  , 31.6038322  , 808.877     , 2.94        , 3           , 255         , 0           , 0
-0.09416443 , -0.0842250139, -9.78311348 , 0.000237477245, 4.282534E-05, 0.0004714249, 0.009229037 , -0.009649611, 0.000199374961, 919.837952  , 31.6038322  , 808.8765    , 2.95        , 3           , 255         , 0           , 0
-0.0912170857, -0.0985992253, -9.796418   , 8.479715E-05, -4.65724E-05, 0.000214447922, 0.009229863 , -0.009650096, 0.000201515111, 919.837952  , 31.6038322  , 808.876038  , 2.96        , 3           , 255         , 0           , 0
-0.0871862546, -0.09430621 , -9.811841   , 0.000338804559, -0.000331494521, -0.0004120537, 0.009233291 , -0.009653374, 0.000197364017, 919.837952  , 31.6038322  , 808.8756    , 2.97        , 3           , 255         , 0           , 0
-0.102272294, -0.09027581 , -9.808191   , 0.000316111662, 0.000183287877, 1.29308464E-05, 0.00923645  , -0.009651544, 0.000197510264, 919.837952  , 31.6038322  , 808.8752    , 2.98        , 3           , 255         , 0           , 0
-0.09559854 , -0.0875523761, -9.792371   , 0.0002923757, 0.0006120856, 3.925552E-06, 0.009239374 , -0.009645423, 0.000197606059, 919.837952  , 31.6038322  , 808.874756  , 2.99        , 3           , 255         , 0           , 0
-0.0848498046, -0.08438549 , -9.782283   , 5.64805523E-05, -0.000214060827, -0.0003413792, 0.009239972 , -0.009647531, 0.000194172564, 919.837952  , 31.6038322  , 808.8743    , 3           , 3           , 0           , 8.042236    , 300
-0.09061328 , -0.08896054 , -9.783579   , 0.0005677808, -0.0005123623, 0.0007101303, 0.009245153 , -0.00965486653, 0.0002012305, 919.837952  , 31.6038322  , 808.812561  , 3.01        , 3           , 1           , 0           , 0
-0.0919047147, -0.09102167 , -9.80258751 , 0.000429016247, -0.000250137062, 0.0004563432, 0.009249398 , -0.00965741 , 0.000205770717, 919.837952  , 31.6038322  , 808.8117    , 3.02        , 3           , 2           , 0           , 0
-0.0963337  , -0.090241   , -9.804507   , 0.000383512874, -5.71676355E-06, 0.0003921709, 0.009253194 , -0.009657503, 0.000209691832, 919.7772    , 31.600441   , 808.810852  , 3.03        , 3           , 3           , 0           , 0
-0.08401546 , -0.0854471549, -9.798378   , 0.0006042721, -0.000279740838, -0.00037775535, 0.009259273 , -0.00966026448, 0.000205888427, 919.7772    , 31.600441   , 808.81      , 3.04        , 3           , 4           , 0           , 0
-0.09583725 , -0.0896361545, -9.791538   , -0.0001142316, -0.0004455971, -0.000559213455, 0.009258186 , -0.009664669, 0.000200255134, 919.7772    , 31.600441   , 808.809143  , 3.05        , 3           , 5           , 0           , 0
-0.106660917, -0.09764955 , -9.795169   , 0.000102836231, -0.0006763221, 1.77586553E-05, 0.009259213 , -0.009671433, 0.000200370108, 919.7772    , 31.600441   , 808.8083    , 3.06        , 3           , 6           , 0           , 0
-0.09488317 , -0.09313881 , -9.80474    , 0.000625112036, -0.000296513957, 0.000201943927, 0.009265444 , -0.009674417, 0.000202362076, 919.7772    , 31.600441   , 808.807434  , 3.07        , 3           , 7           , 0           , 0
-0.102203213, -0.087816   , -9.802368   , 0.000218698813, 7.588336E-05, 0.0007180057, 0.009267562 , -0.009673725, 0.000209548976, 919.7772    , 31.600441   , 808.8066    , 3.08        , 3           , 8           , 5           , 5
-0.09279902 , -0.09317348 , -9.796272   , 0.0003016512, -8.756529E-05, 4.43553436E-05, 0.009270575 , -0.009674603, 0.00020998437, 919.7772    , 31.600441   , 808.8057    , 3.09        , 3           , 9           , 5           , 0.1
-0.09765239 , -0.09220751 , -9.789366   , -6.684841E-05, -0.000493856147, 0.0005298963, 0.009269855 , -0.00967959 , 0.000215237422, 919.7772    , 31.600441   , 808.804932  , 3.1         , 3           , 10          , 0.1         , 0.1
-0.100317061, -0.09184865 , -9.784452   , -0.0007013043, 4.17130941E-05, -0.000175791371, 0.0092632   , -0.009680107, 0.000213480147, 919.7772    , 31.600441   , 808.8387    , 3.11        , 3           , 11          , 0.00738526741, 0.00738526555
-0.09772573 , -0.0927312747, -9.796576   , -0.00036076596, -0.000464752666, 0.000173032313, 0.009259576 , -0.009684772, 0.000215167354, 919.7772    , 31.600441   , 808.8381    , 3.12        , 3           , 12          , 0.174645633 , 0
-0.0921821  , -0.100326873, -9.788561   , -0.00027721806, -0.000298395578, 0.000274378661, 0.009256777 , -0.00968778 , 0.0002178835, 919.7894    , 31.6038322  , 808.837463  , 3.13        , 3           , 13          , 0           , 0
-0.0932817  , -0.08544493 , -9.794695   , 0.000180299685, 4.40934527E-05, 0.00014999928, 0.009258566 , -0.009687354, 0.000219387526, 919.7894    , 31.6038322  , 808.836853  , 3.14        , 3           , 14          , -0.000518414658, -0.000179474082
-0.0991727561, -0.09070976 , -9.79508    , 0.000347231864, 0.0004171003, 0.000295921665, 0.00926200952, -0.00968320947, 0.000222385308, 919.7894    , 31.6038322  , 808.836243  , 3.15        , 3           , 15          , 0           , -2.89132568E-05
-0.100601338, -0.100263759, -9.795654   , -1.12810521E-05, 0.000368346984, 0.000389972876, 0.009261859 , -0.00967956148, 0.0002263191, 919.7894    , 31.6038322  , 808.835632  , 3.16        , 3           , 16          , 0           , 1.401298E-45
-0.102549553, -0.09458295 , -9.7932415  , 9.974916E-05, 0.000359972677, 0.000174346293, 0.009262838 , -0.00967598 , 0.000228095843, 919.7894    , 31.6038322  , 808.835     , 3.17        , 3           , 20          , 0           , 0
-0.0960453  , -0.07614379 , -9.790655   , 0.0003008608, 7.94098742E-05, 0.000231877086, 0.009265822 , -0.009675208, 0.000230421923, 919.7894    , 31.6038322  , 808.8344    , 3.18        , 3           , 21          , 0           , 0
-0.100882612, -0.0817397  , -9.800966   , 0.000146616425, 8.49441858E-05, 0.0005418292, 0.009267236 , -0.009674409, 0.000235847969, 919.7894    , 31.6038322  , 808.8338    , 3.19        , 3           , 22          , 0           , 0
-0.0981942  , -0.0821933  , -9.796274   , -0.0005602536, 0.000150750115, -0.000103247439, 0.009261646 , -0.009672891, 0.00023482948, 919.7894    , 31.6038322  , 808.8332    , 3.2         , 3           , 40          , 0           , 0
-0.09854443 , -0.0892515853, -9.781255   , -0.00033483177, 0.000260325149, -9.98954638E-05, 0.009256263 , -0.009676304, 0.000233874438, 919.7894    , 31.6038322  , 808.8462    , 3.21        , 3           , 41          , 0           , 0
-0.09641741 , -0.08834865 , -9.785383   , -0.0004356653, -0.000168627812, -0.000124717379, 0.009251918 , -0.009677978, 0.000232611681, 919.7894    , 31.6038322  , 808.8457    , 3.22        , 3           , 42          , 0           , 0
-0.08935942 , -0.08841185 , -9.787576   , -0.000921043567, 0.000213778869, 4.71114181E-05, 0.009242702 , -0.009675846, 0.000233102561, 919.8069    , 31.6034927  , 808.8452    , 3.23        , 3           , 255         , 0           , 0
-0.08451762 , -0.09726201 , -9.793013   , -0.0009913046, 0.0002949144, 0.0008471707, 0.009232709 , -0.009672973, 0.0002416013, 919.8069    , 31.6034927  , 808.8447    , 3.24        , 3           , 255         , 0           , 0
-0.09270243 , -0.08908622 , -9.786565   , -0.000401256839, 0.0005502071, 0.0001662647, 0.009228679 , -0.009667491, 0.000243314687, 919.8069    , 31.6034927  , 808.844238  , 3.25        , 3           , 255         , 0           , 0
-0.09813305 , -0.08559553 , -9.787157   , -0.0004233939, -3.81491554E-05, -0.000121114485, 0.009224457 , -0.009667859, 0.000242100068, 919.8069    , 31.6034927  , 808.84375   , 3.26        , 3           , 255         , 0           , 0
-0.0876914  , -0.08617902 , -9.796698   , -0.0006343848, -9.018286E-05, 0.000495119137, 0.009218066 , -0.009668807, 0.000247042859, 919.8069    , 31.6034927  , 808.843262  , 3.27        , 3           , 255         , 0           , 0
-0.08522208 , -0.0854098946, -9.790199   , -0.00147983048, 0.0005148015, 0.0006663489, 0.0092032   , -0.009663722, 0.00025375362, 919.8069    , 31.6034927  , 808.8428    , 3.28        , 3           , 255         , 0           , 0
-0.08296209 , -0.101138875, -9.796053   , -0.00124223216, 0.0001526643, 0.00050476403, 0.009190729 , -0.009662239, 0.0002588152, 919.8069    , 31.6034927  , 808.8423    , 3.29        , 3           , 255         , 0           , 0
-0.0734992  , -0.09966632 , -9.802651   , -0.000385948515, 1.04418141E-05, 0.0007719094, 0.009186794 , -0.009662208, 0.000266535062, 919.8069    , 31.6034927  , 808.8418    , 3.3         , 3           , 255         , 0           , 0
-0.08602502 , -0.09449593 , -9.800789   , -2.53717881E-05, 0.000461423944, 0.000411142653, 0.009188035 , -0.009644259, 0.000270673918, 919.8069    , 31.6034927  , 808.8287    , 3.31        , 3           , 255         , 0           , 0
-0.08552585 , -0.10153003 , -9.788039   , -0.0005002714, 0.000107951193, 0.00109477225, 0.009182926 , -0.009643279, 0.000281631364, 919.8069    , 31.6034927  , 808.8281    , 3.32        , 3           , 255         , 0           , 0
-0.08736493 , -0.08726798 , -9.800176   , -0.00128232408, 0.000365372922, 0.00118367537, 0.009169989 , -0.009639734, 0.000293501362, 919.8179    , 31.6006432  , 808.8276    , 3.33        , 3           , 255         , 0           , 0
-0.08478615 , -0.08954678 , -9.802565   , -0.0008240395, 0.000429988664, 0.00107254484, 0.009161645 , -0.009635533, 0.000304266025, 919.8179    , 31.6006432  , 808.827     , 3.34        , 3           , 255         , 0           , 0
-0.08580642 , -0.107344471, -9.789761   , -0.000525318261, 0.000401774538, 0.000768857135, 0.00915631652, -0.009631584, 0.000311991229, 919.8179    , 31.6006432  , 808.8265    , 3.35        , 3           , 255         , 0           , 0
-0.0829857662, -0.100534782, -9.782953   , -0.00104573159, 0.00035385543, 0.00116291014, 0.009145747 , -0.009628153, 0.000323652523, 919.8179    , 31.6006432  , 808.8259    , 3.36        , 3           , 255         , 0           , 0
-0.0823446438, -0.09143759 , -9.777677   , -0.0006357171, 0.000282849622, 0.0002728891, 0.009139364 , -0.009625349, 0.000326407229, 919.8179    , 31.6006432  , 808.8254    , 3.37        , 3           , 255         , 0           , 0
-0.08037971 , -0.09903319 , -9.788698   , -0.0008921712, 0.000109788358, 0.000530109857, 0.009130391 , -0.00962430052, 0.000331718271, 919.8179    , 31.6006432  , 808.8248    , 3.38        , 3           , 255         , 0           , 0
-0.07657629 , -0.0990658849, -9.806638   , -0.0010029918, 0.000314591569, 0.0006363854, 0.009120299 , -0.009621211, 0.000338110724, 919.8179    , 31.6006432  , 808.8243    , 3.39        , 3           , 255         , 0           , 0
-0.09281221 , -0.09855821 , -9.825139   , -0.0006211785, 0.000224576244, 0.0004385495, 0.009114045 , -0.009619004, 0.000342516636, 919.8179    , 31.6006432  , 808.8237    , 3.4         , 3           , 255         , 0           , 0
-0.0931770653, -0.105266906, -9.808447   , -0.00034568808, -0.0002833607, -0.000356217672, 0.009121499 , -0.009606744, 0.0003388242, 919.8179    , 31.6006432  , 808.797852  , 3.41        , 3           , 255         , 0           , 0
-0.09200708 , -0.101910129, -9.778176   , -0.000651052338, -0.000129460037, -0.000567744, 0.009115043 , -0.009607987, 0.000333135045, 919.8179    , 31.6006432  , 808.7971    , 3.42        , 3           , 255         , 0           , 0
-0.0934627652, -0.08883402 , -9.748156   , -0.000750814448, 0.0003872678, 0.0005014775, 0.009107487 , -0.00960416 , 0.000338185 , 919.7686    , 31.6041031  , 808.7964    , 3.43        , 3           , 255         , 0           , 0
-0.108944081, -0.0836663246, -9.74630451 , -0.0012924046, 0.000365893764, 0.000183495576, 0.009094547 , -0.00960051548, 0.00034005323, 919.7686    , 31.6041031  , 808.795654  , 3.44        , 3           , 255         , 0           , 0
-0.108760536, -0.08586954 , -9.785273   , -0.00163378974, 0.00049976  , -0.000112917696, 0.009078218 , -0.009595509, 0.0003389695, 919.7686    , 31.6041031  , 808.7949    , 3.45        , 3           , 255         , 0           , 0
-0.117245339, -0.08441227 , -9.818675   , -0.00159421831, 0.0005671559, -0.0009438623, 0.00906236749, -0.00958975 , 0.0003295825, 919.7686    , 31.6041031  , 808.7942    , 3.46        , 3           , 255         , 0           , 0
-0.119016767, -0.07514256 , -9.83439    , -0.00149450323, 0.0006230889, -0.0007407278, 0.00904749148, -0.009583455, 0.000322231761, 919.7686    , 31.6041031  , 808.7935    , 3.47        , 3           , 255         , 0           , 0
-0.12120869 , -0.07411873 , -9.81857    , -0.00101473322, 0.0006191868, -2.56667845E-05, 0.009037347 , -0.009577261, 0.0003220311, 919.7686    , 31.6041031  , 808.792847  , 3.48        , 3           , 255         , 0           , 0
-0.13481769 , -0.07888041 , -9.805428   , -0.000824612449, 0.0004089243, 0.000112743161, 0.00902908947, -0.009573182, 0.000323195447, 919.7686    , 31.6041031  , 808.7922    , 3.49        , 3           , 255         , 0           , 0
-0.125992224, -0.08014594 , -9.792112   , 0.00011215097, -0.000430205429, -0.000220980626, 0.009030231 , -0.009577462, 0.000320946856, 919.7686    , 31.6041031  , 808.7915    , 3.5         , 3           , 255         , 0           , 0
-0.1229645  , -0.08130934 , -9.785637   , 9.759952E-05, 0.0004831476, -0.000433397829, 0.009025704 , -0.009603331, 0.0003167098, 919.7686    , 31.6041031  , 808.8401    , 3.51        , 3           , 255         , 0           , 0
-0.106759347, -0.0934194  , -9.77407    , -0.0009022091, 0.000342519343, 7.705731E-05, 0.009016675 , -0.009599913, 0.000317511265, 919.7686    , 31.6041031  , 808.8397    , 3.52        , 3           , 255         , 0           , 0
