Acc X       , Acc Y       , Acc Z       , Gyro X      , Gyro Y      , Gyro Z      , Euler X     , Euler Y     , Euler Z     , Pres X      , Pres Y      , Pres Z      , Time        , Status      , LowRate X   , LowRate Y   , LowRate Z    
-0.180914447, -9.787949   , -0.06357792 , 0           , 0           , 0           , 1.56430089  , -0.0184808914, 0           , 918.1903    , 32.14677    , 823.333557  , 0           , 2           , 0           , 5.06023169  , 0
-0.17870155 , -9.795475   , -0.066719465, 0.000460786279, -0.000277705025, -0.000188157952, 1.56430554  , -0.01847937 , -2.78978769E-06, 918.1903    , 32.14677    , 823.333557  , 0.01        , 3           , 1           , 0           , 0
-0.185665876, -9.794443   , -0.05653618 , 0.000691527966, 5.60203334E-05, -0.0005963063, 1.56431246  , -0.0184734073, -2.269089E-06, 918.1903    , 32.14677    , 823.333557  , 0.02        , 3           , 2           , 0           , 0
-0.190244764, -9.785135   , -0.06499682 , 0.00031641958, -5.396706E-05, -0.000342418673, 1.56431568  , -0.0184699856, -2.83077247E-06, 918.109863  , 31.7159748  , 823.333557  , 0.03        , 3           , 3           , 0           , 0
-0.184828773, -9.796618   , -0.06417948 , 6.14553E-05 , -0.000111578382, 6.480285E-05, 1.56431639  , -0.0184706412, -3.94296148E-06, 918.109863  , 31.7159748  , 823.333557  , 0.04        , 3           , 4           , 0           , 0
-0.184165388, -9.789274   , -0.06524361 , -3.9755716E-05, -0.000111473608, 0.000213654625, 1.564316    , -0.018472787, -5.04397258E-06, 918.109863  , 31.7159748  , 823.333557  , 0.05        , 3           , 5           , 0           , 0
-0.179411739, -9.782094   , -0.0659653  , 7.23004341E-05, 0.00049132714, 0.000301259483, 1.56431663  , -0.0184757672, -1.11777794E-07, 918.109863  , 31.7159748  , 823.333557  , 0.06        , 3           , 6           , 0           , 0
-0.178350881, -9.783392   , -0.05811099 , 0.000114419381, 0.00013637438, 0.00039755585, 1.56431782  , -0.0184797347, 1.2770613E-06, 918.109863  , 31.7159748  , 823.333557  , 0.07        , 3           , 7           , 0           , 0
-0.171605036, -9.791822   , -0.06773306 , 0.000652363757, 5.789101E-05, 0.00041154123, 1.56432438  , -0.0184838455, 1.883456E-06, 918.109863  , 31.7159748  , 823.333557  , 0.08        , 3           , 8           , 5           , 5
-0.1691272  , -9.793333   , -0.073223725, 0.000184273 , -0.000329419738, -0.000177353446, 1.56432629  , -0.0184820928, -1.42237263E-06, 918.109863  , 31.7159748  , 823.333557  , 0.09        , 3           , 9           , 5           , 0.1
-0.174801379, -9.789057   , -0.0669389144, -9.98287E-05, 0.000101361948, -0.0002815217, 1.56432521  , -0.0184792727, -4.27550077E-07, 918.109863  , 31.7159748  , 823.333557  , 0.1         , 3           , 10          , 0.1         , 0.1
-0.181157574, -9.788061   , -0.06641923 , -8.133048E-05, -3.56527162E-05, 0.0005100692, 1.56431687  , -0.0184785929, -6.11052E-07, 918.109863  , 31.7159748  , 824.0576    , 0.11        , 3           , 11          , 0.0109544508, 0.0109544508
-0.178607851, -9.782076   , -0.0565654151, 5.52461133E-05, -0.00010877708, 0.000867657363, 1.56431746  , -0.0184872728, -1.64220228E-06, 918.109863  , 31.7159748  , 824.0576    , 0.12        , 3           , 12          , 0.174642488 , 0
-0.183697551, -9.79496    , -0.05743406 , -0.0005819055, -0.0008098766, 0.000233025625, 1.56431162  , -0.0184896588, -9.727464E-06, 918.1239    , 31.7543736  , 824.0576    , 0.13        , 3           , 13          , 0           , 0
-0.176643774, -9.794197   , -0.04613448 , -0.00097515434, -0.000216777436, -4.305839E-05, 1.564302    , -0.0184892435, -1.18978169E-05, 918.1239    , 31.7543736  , 824.0576    , 0.14        , 3           , 14          , -0.0008128084, -0.000843953341
-0.1701878  , -9.79899    , -0.04454408 , -0.001113859, -7.18841329E-06, -0.000284003967, 1.56429076  , -0.0184864048, -1.198817E-05, 918.1239    , 31.7543736  , 824.0576    , 0.15        , 3           , 15          , 0           , -5.80981432E-05
-0.179863259, -9.790091   , -0.04695403 , -0.0006163911, -0.000474228757, 0.000132606467, 1.56428468  , -0.01848776 , -1.67219623E-05, 918.1239    , 31.7543736  , 824.0576    , 0.16        , 3           , 16          , 0           , 1.401298E-45
-0.180157214, -9.787474   , -0.0451083742, -0.0004399959, -0.000167640159, -0.000410774985, 1.56428027  , -0.0184836686, -1.84247074E-05, 918.1239    , 31.7543736  , 824.0576    , 0.17        , 3           , 20          , 0           , 0
-0.18658331 , -9.791351   , -0.05115763 , 0.000127322273, 0.00044881567, -0.000479428185, 1.56428158  , -0.0184788462, -1.39675667E-05, 918.1239    , 31.7543736  , 824.0576    , 0.18        , 3           , 21          , 0           , 0
-0.181895   , -9.800808   , -0.051114656, 0.000239780056, 0.000132511952, 4.37172639E-05, 1.564284    , -0.0184792746, -1.26392733E-05, 918.1239    , 31.7543736  , 824.0576    , 0.19        , 3           , 22          , 0           , 0
-0.18112509 , -9.793777   , -0.06178596 , 0.0003177512, -0.000295262667, -9.60766338E-05, 1.56428719  , -0.018478334, -1.559859E-05, 918.1239    , 31.7543736  , 824.0576    , 0.2         , 3           , 40          , 0           , 0
-0.180567786, -9.797398   , -0.0550128743, -0.000242134847, -5.24463248E-05, 0.000304104266, 1.56432879  , -0.0184771  , -1.69166378E-05, 918.1239    , 31.7543736  , 823.994263  , 0.21        , 3           , 41          , 0           , 0
-0.175144762, -9.801273   , -0.0650867149, -0.0004758839, 0.000246606418, -0.0003541928, 1.564324    , -0.0184735432, -1.44733613E-05, 918.1239    , 31.7543736  , 823.9943    , 0.22        , 3           , 42          , 0           , 0
-0.1771379  , -9.80246449 , -0.07454179 , -0.0002198625, -1.12059643E-05, 6.226302E-05, 1.56432176  , -0.0184741654, -1.4581412E-05, 918.1356    , 31.7794762  , 823.9944    , 0.23        , 3           , 255         , 0           , 0
-0.184423625, -9.79303551 , -0.0801525339, 0.0004093998, -0.000186898862, -5.74437472E-05, 1.56432593  , -0.0184736028, -1.645369E-05, 918.1356    , 31.7794762  , 823.994446  , 0.24        , 3           , 255         , 0           , 0
-0.174829274, -9.806852   , -0.08132008 , 0.000376302225, -0.0005168129, -0.000446500082, 1.56432962  , -0.0184691735, -2.16494936E-05, 918.1356    , 31.7794762  , 823.9945    , 0.25        , 3           , 255         , 0           , 0
-0.177055672, -9.801044   , -0.0861706138, 0.000726546568, -0.0002278547, -0.000275079859, 1.5643369   , -0.01846644 , -2.39465226E-05, 918.1356    , 31.7794762  , 823.994568  , 0.26        , 3           , 255         , 0           , 0
-0.188694879, -9.795259   , -0.0939891  , 0.000548870652, 0.000122396916, 0.0005979232, 1.56434238  , -0.01847241 , -2.268437E-05, 918.1356    , 31.7794762  , 823.9946    , 0.27        , 3           , 255         , 0           , 0
-0.190757066, -9.797435   , -0.0939327  , -0.000317041, 0.000155085931, 0.0006832281, 1.56433916  , -0.0184792336, -2.10887429E-05, 918.1356    , 31.7794762  , 823.9947    , 0.28        , 3           , 255         , 0           , 0
-0.1787329  , -9.792442   , -0.09395252 , -0.000116944604, -0.000292788958, 0.000300848915, 1.564338    , -0.01848226 , -2.399683E-05, 918.1356    , 31.7794762  , 823.994751  , 0.29        , 3           , 255         , 0           , 0
-0.170151368, -9.802365   , -0.0830691  , -0.000331962423, -9.08642542E-05, 6.700844E-05, 1.56433463  , -0.0184829365, -2.49003679E-05, 918.1356    , 31.7794762  , 823.9948    , 0.3         , 3           , 255         , 0           , 0
-0.176211208, -9.797891   , -0.0748505145, 0.000387136155, 0.000238829292, -0.0001777164, 1.56429362  , -0.0184778459, -2.16932767E-05, 918.1356    , 31.7794762  , 823.938049  , 0.31        , 3           , 255         , 0           , 0
-0.179491922, -9.791955   , -0.07003614 , 0.00051374227, 2.32209568E-05, 0.000388826651, 1.56429875  , -0.0184817333, -2.1436188E-05, 918.1356    , 31.7794762  , 823.9381    , 0.32        , 3           , 255         , 0           , 0
-0.176940516, -9.791266   , -0.0604162738, -0.0003087265, 0.00052702683, 0.000569320866, 1.56429565  , -0.0184873883, -1.61295411E-05, 918.1768    , 31.7946033  , 823.9382    , 0.33        , 3           , 255         , 0           , 0
-0.177102953, -9.788575   , -0.050451   , -0.000732574, 8.396176E-05, -0.000184217643, 1.56428826  , -0.0184855442, -1.53014516E-05, 918.1768    , 31.7946033  , 823.938232  , 0.34        , 3           , 255         , 0           , 0
-0.177052885, -9.790628   , -0.04558722 , -0.0006422934, 0.0004672684, -0.000162348049, 1.56428182  , -0.01848389 , -1.06384523E-05, 918.1768    , 31.7946033  , 823.9383    , 0.35        , 3           , 255         , 0           , 0
-0.184400752, -9.799046   , -0.0418143347, -0.0005240939, 9.617163E-05, 6.326753E-05, 1.56427658  , -0.0184845179, -9.672505E-06, 918.1768    , 31.7946033  , 823.938354  , 0.36        , 3           , 255         , 0           , 0
-0.182690591, -9.79717    , -0.04898691 , -8.023984E-05, 7.460266E-05, 0.000267718453, 1.56427574  , -0.01848719 , -8.909622E-06, 918.1768    , 31.7946033  , 823.9384    , 0.37        , 3           , 255         , 0           , 0
-0.1795018  , -9.799297   , -0.0527154729, 0.0003028107, -0.0003510029, -0.000209710313, 1.56427884  , -0.0184851158, -1.24334183E-05, 918.1768    , 31.7946033  , 823.9385    , 0.38        , 3           , 255         , 0           , 0
-0.178210407, -9.790215   , -0.0400463827, 6.768678E-05, -0.000419530668, -0.00055676105, 1.56427956  , -0.0184795763, -1.66651389E-05, 918.1768    , 31.7946033  , 823.938538  , 0.39        , 3           , 255         , 0           , 0
-0.181816667, -9.797926   , -0.03394025 , 0.0001424143, -0.000214229687, 0.000250263372, 1.56428087  , -0.0184820928, -1.879078E-05, 918.1768    , 31.7946033  , 823.9386    , 0.4         , 3           , 255         , 0           , 0
-0.181113973, -9.796492   , -0.03516537 , 0.0006147819, -0.000134092581, 0.000366922381, 1.56432581  , -0.01848014 , -2.08260644E-05, 918.1768    , 31.7946033  , 823.8161    , 0.41        , 3           , 255         , 0           , 0
-0.175517544, -9.806615   , -0.0363152251, 0.000611337367, 0.000240499328, 0.0009452002, 1.56433189  , -0.0184895769, -1.83585744E-05, 918.1768    , 31.7946033  , 823.816162  , 0.42        , 3           , 255         , 0           , 0
-0.179564714, -9.786038   , -0.03826916 , 0.000209668244, 0.000361177052, -0.000446212973, 1.56433392  , -0.01848509 , -1.47742321E-05, 918.2096    , 31.8079014  , 823.8162    , 0.43        , 3           , 255         , 0           , 0
-0.178982064, -9.78519249 , -0.0505693443, 0.000446628925, 0.000129846856, 0.000102042752, 1.56433833  , -0.018486103, -1.34701577E-05, 918.2096    , 31.8079014  , 823.8163    , 0.44        , 3           , 255         , 0           , 0
-0.192693681, -9.787611   , -0.0560027137, -3.14887729E-05, -0.000104146136, -4.19258868E-06, 1.564338    , -0.0184860658, -1.45106214E-05, 918.2096    , 31.8079014  , 823.816345  , 0.45        , 3           , 255         , 0           , 0
-0.1810041  , -9.795962   , -0.06585999 , -0.00016169576, 0.0001509331, -0.0003593021, 1.5643363   , -0.0184824634, -1.30239778E-05, 918.2096    , 31.8079014  , 823.8164    , 0.46        , 3           , 255         , 0           , 0
-0.171808645, -9.794648   , -0.0678684562, -0.000265553885, -9.78283351E-05, -0.000381636171, 1.56433368  , -0.0184786525, -1.40262509E-05, 918.2096    , 31.8079014  , 823.816467  , 0.47        , 3           , 255         , 0           , 0
-0.177169159, -9.797566   , -0.07882373 , -0.00056806457, 6.015692E-05, -0.000156896887, 1.56432784  , -0.0184770785, -1.34347592E-05, 918.2096    , 31.8079014  , 823.8165    , 0.48        , 3           , 255         , 0           , 0
-0.185453266, -9.80003    , -0.069257535, 5.323504E-05, -0.000111897651, -0.000172942353, 1.56432843  , -0.0184753574, -1.45655795E-05, 918.2096    , 31.8079014  , 823.8166    , 0.49        , 3           , 255         , 0           , 0
-0.181750208, -9.796109   , -0.0669361  , 0.0004943088, 8.427666E-05, -0.000329040951, 1.56433332  , -0.0184720661, -1.3743077E-05, 918.2096    , 31.8079014  , 823.81665   , 0.5         , 3           , 255         , 0           , 0
-0.190311685, -9.801071   , -0.07980138 , 0.000774147164, -3.49921174E-05, -0.000458859839, 1.564362    , -0.01846567 , -1.45096856E-05, 918.2096    , 31.8079014  , 823.6817    , 0.51        , 3           , 255         , 0           , 0
-0.190251336, -9.804049   , -0.0859951  , -0.000111510744, 0.000527981436, -0.0001751853, 1.56436074  , -0.0184638817, -9.24122651E-06, 918.2096    , 31.8079014  , 823.681763  , 0.52        , 3           , 255         , 0           , 0
-0.1939654  , -9.802292   , -0.08427271 , 0.0004750586, -0.000134514528, 0.000139865617, 1.56436551  , -0.01846529 , -1.057697E-05, 918.214233  , 31.8129215  , 823.6818    , 0.53        , 3           , 255         , 0           , 0
-0.179810315, -9.798775   , -0.07971148 , 0.000566163741, -0.00102154317, -1.02598024E-05, 1.56437147  , -0.0184652563, -2.079439E-05, 918.214233  , 31.8129215  , 823.6819    , 0.54        , 3           , 255         , 0           , 0
-0.18518059 , -9.803127   , -0.0722933  , 0.000420181575, -0.000320210471, -6.032551E-06, 1.56437576  , -0.0184652153, -2.39977544E-05, 918.214233  , 31.8129215  , 823.681946  , 0.55        , 3           , 255         , 0           , 0
-0.181129411, -9.798437   , -0.06434117 , 0.000188843289, 0.0001641342, 0.00010176732, 1.56437755  , -0.0184662212, -2.23499646E-05, 918.214233  , 31.8129215  , 823.682     , 0.56        , 3           , 255         , 0           , 0
-0.184803665, -9.785978   , -0.0596981123, 0.0002972501, -0.000340853352, 0.000843194 , 1.56438053  , -0.0184746739, -2.57042338E-05, 918.214233  , 31.8129215  , 823.682068  , 0.57        , 3           , 255         , 0           , 0
-0.175036922, -9.792519   , -0.06506884 , -5.90480049E-05, -0.000967512955, 0.00146499067, 1.56438029  , -0.0184893869, -3.52873321E-05, 918.214233  , 31.8129215  , 823.6821    , 0.58        , 3           , 255         , 0           , 0
-0.172665   , -9.787825   , -0.05969522 , 0.0001921815, -0.000417002128, 0.0008426642, 1.5643822   , -0.01849784 , -3.94026247E-05, 918.214233  , 31.8129215  , 823.6822    , 0.59        , 3           , 255         , 0           , 0
-0.175592914, -9.790662   , -0.0565535948, 0.000678296143, 0.000125557883, 0.0006903027, 1.56438887  , -0.0185047369, -3.81022764E-05, 918.214233  , 31.8129215  , 823.682251  , 0.6         , 3           , 255         , 0           , 0
-0.186826512, -9.790587   , -0.0516571179, 0.0008114342, -0.0004004886, 0.0005234366, 1.56437588  , -0.01851527 , -4.16828952E-05, 918.214233  , 31.8129215  , 823.5838    , 0.61        , 3           , 255         , 0           , 0
-0.183394223, -9.799253   , -0.0482462421, 0.0002930073, 0.000117510615, -0.0002790154, 1.56437874  , -0.0185124725, -4.05259925E-05, 918.214233  , 31.8129215  , 823.583862  , 0.62        , 3           , 255         , 0           , 0
-0.1880844  , -9.798361   , -0.05053664 , -0.0001443841, 0.00011398067, 0.000449353829, 1.56437731  , -0.01851696 , -3.93560549E-05, 918.2326    , 31.820385   , 823.5839    , 0.63        , 3           , 255         , 0           , 0
-0.1719189  , -9.802318   , -0.05363263 , 0.0002937332, -0.000118221855, 0.000195127039, 1.56438017  , -0.0185189173, -4.0526E-05 , 918.2326    , 31.820385   , 823.584     , 0.64        , 3           , 255         , 0           , 0
-0.176759839, -9.795067   , -0.04812413 , 0.0008165419, 0.000215884531, -0.000120233715, 1.56438828  , -0.0185177  , -3.83742772E-05, 918.2326    , 31.820385   , 823.584045  , 0.65        , 3           , 255         , 0           , 0
-0.18103829 , -9.797281   , -0.05735264 , 0.0007093674, -7.139472E-05, -6.822447E-05, 1.56439543  , -0.0185170211, -3.909152E-05, 918.2326    , 31.820385   , 823.5841    , 0.66        , 3           , 255         , 0           , 0
-0.1825696  , -9.793317   , -0.0520079024, 0.0008963297, -0.0003037639, -0.0007256471, 1.56440437  , -0.0185097847, -4.21756558E-05, 918.2326    , 31.820385   , 823.584167  , 0.67        , 3           , 255         , 0           , 0
-0.179158255, -9.806349   , -0.0578406565, 0.000244868977, -0.000324963, -0.000835622952, 1.56440675  , -0.018501455, -4.547868E-05, 918.2326    , 31.820385   , 823.5842    , 0.68        , 3           , 255         , 0           , 0
-0.191215321, -9.803581   , -0.06228266 , -0.000416857423, 4.1108462E-05, -0.000509016565, 1.56440258  , -0.01849636 , -4.509863E-05, 918.2326    , 31.820385   , 823.5843    , 0.69        , 3           , 255         , 0           , 0
-0.180805251, -9.799282   , -0.06871022 , -0.000392913236, -7.656246E-05, -0.0005858482, 1.56439877  , -0.0184905082, -4.59034272E-05, 918.2326    , 31.820385   , 823.584351  , 0.7         , 3           , 255         , 0           , 0
-0.183123082, -9.800257   , -0.0665882155, -0.0008431809, 0.000321604952, -0.0004644052, 1.56440878  , -0.0184875112, -4.30586842E-05, 918.2326    , 31.820385   , 823.4873    , 0.71        , 3           , 255         , 0           , 0
-0.183515459, -9.79719    , -0.06687816 , -0.000758651644, 0.000467408652, 2.39998117E-05, 1.56440115  , -0.0184877273, -3.8383565E-05, 918.2326    , 31.820385   , 823.4873    , 0.72        , 3           , 255         , 0           , 0
-0.1751821  , -9.792374   , -0.063618876, -0.000232153689, 1.57440081E-05, 0.000546582451, 1.56439888  , -0.01849319 , -3.8189828E-05, 918.159668  , 31.82398    , 823.4873    , 0.73        , 3           , 255         , 0           , 0
-0.175095424, -9.794283   , -0.06648449 , -0.0006392066, -0.000181896263, 0.000453766115, 1.56439245  , -0.018497739, -3.998014E-05, 918.159668  , 31.82398    , 823.4873    , 0.74        , 3           , 255         , 0           , 0
-0.184121057, -9.796473   , -0.07113017 , 0.00019206031, -7.450458E-05, -0.000304820278, 1.56439424  , -0.0184946954, -4.074395E-05, 918.159668  , 31.82398    , 823.4873    , 0.75        , 3           , 255         , 0           , 0
-0.178206265, -9.802439   , -0.07812515 , -0.0004831598, 0.000373210118, 0.000277768762, 1.56438935  , -0.0184974484, -3.69938025E-05, 918.159668  , 31.82398    , 823.4873    , 0.76        , 3           , 255         , 0           , 0
-0.176166132, -9.796856   , -0.07146678 , -0.000100266654, 0.000180430419, -0.000213530628, 1.56438839  , -0.0184953026, -3.52034949E-05, 918.159668  , 31.82398    , 823.4873    , 0.77        , 3           , 255         , 0           , 0
-0.1774318  , -9.800291   , -0.06522758 , -0.000438762247, 0.0004705507, -2.7296559E-05, 1.564384    , -0.018495   , -3.05004432E-05, 918.159668  , 31.82398    , 823.4873    , 0.78        , 3           , 255         , 0           , 0
-0.18716836 , -9.791591   , -0.0698303357, -0.0007983431, -0.0002203862, 0.000208548227, 1.56437588  , -0.0184970982, -3.26912923E-05, 918.159668  , 31.82398    , 823.4873    , 0.79        , 3           , 255         , 0           , 0
-0.186722487, -9.780498   , -0.06800613 , -0.000630551, 0.000409914937, -0.000185242738, 1.56436956  , -0.0184952244, -2.86030136E-05, 918.159668  , 31.82398    , 823.4873    , 0.8         , 3           , 255         , 0           , 0
-0.194114327, -9.792603   , -0.06009726 , 0.000145623228, -7.89670157E-05, -0.0005536502, 1.56435454  , -0.0184882488, -2.91227789E-05, 918.159668  , 31.82398    , 823.50415   , 0.81        , 3           , 255         , 0           , 0
-0.183122247, -9.800644   , -0.0587851  , 0.000136533519, -8.670153E-05, -0.000199363523, 1.56435585  , -0.0184862614, -3.00030279E-05, 918.159668  , 31.82398    , 823.5042    , 0.82        , 3           , 255         , 0           , 0
-0.181054547, -9.798138   , -0.0565553978, 0.0003056039, -0.000137149415, 0.0004761829, 1.564359    , -0.0184910335, -3.13434321E-05, 918.1235    , 31.82744    , 823.5043    , 0.83        , 3           , 255         , 0           , 0
-0.182838827, -9.79033852 , -0.0626664162, 0.000531140249, 0.000107691856, 0.0005493264, 1.56436419  , -0.0184965171, -3.02321787E-05, 918.1235    , 31.82744    , 823.504333  , 0.84        , 3           , 255         , 0           , 0
-0.1816396  , -9.788636   , -0.0584852174, -0.0005759505, -0.00020914193, 0.000155607617, 1.56435847  , -0.0184980854, -3.231311E-05, 918.1235    , 31.82744    , 823.5044    , 0.85        , 3           , 255         , 0           , 0
-0.187265188, -9.801503   , -0.0505452044, -0.0001216114, -0.000237183121, 0.0003249065, 1.56435728  , -0.01850135 , -3.46641718E-05, 918.1235    , 31.82744    , 823.504456  , 0.86        , 3           , 255         , 0           , 0
-0.178282171, -9.809767   , -0.04991595 , -0.000306776026, -1.917337E-05, 0.000291318051, 1.5643543   , -0.0185042638, -3.48374269E-05, 918.1235    , 31.82744    , 823.5045    , 0.87        , 3           , 255         , 0           , 0
-0.1737898  , -9.804627   , -0.0438778177, 0.000388472457, 0.000353357638, 0.0006088219, 1.56435823  , -0.0185103249, -3.12652E-05, 918.1235    , 31.82744    , 823.5046    , 0.88        , 3           , 255         , 0           , 0
-0.180961818, -9.791614   , -0.0479763746, 0.000251076 , -0.000317731232, -0.0002318794, 1.56436074  , -0.01850803 , -3.44573855E-05, 918.1235    , 31.82744    , 823.504639  , 0.89        , 3           , 255         , 0           , 0
-0.179949   , -9.791551   , -0.0593502149, -0.000303689041, -0.00064149074, -0.000481570954, 1.56435776  , -0.018503258, -4.090417E-05, 918.1235    , 31.82744    , 823.5047    , 0.9         , 3           , 255         , 0           , 0
-0.1818402  , -9.803671   , -0.05951924 , 0.000143174024, -8.1872975E-05, 0.0008025825, 1.56437945  , -0.0185138844, -4.20452452E-05, 918.1235    , 31.82744    , 823.5602    , 0.91        , 3           , 255         , 0           , 0
-0.190503374, -9.79946    , -0.0592843965, 0.000161037082, 0.000332227035, -0.00018266117, 1.564381    , -0.0185120367, -3.873569E-05, 918.1235    , 31.82744    , 823.5603    , 0.92        , 3           , 255         , 0           , 0
-0.182782233, -9.798886   , -0.0638176948, -2.88127922E-06, 8.783711E-06, 0.000883626344, 1.564381    , -0.018520873, -3.859038E-05, 918.182251  , 31.82805    , 823.5604    , 0.93        , 3           , 255         , 0           , 0
-0.177296773, -9.798288   , -0.0628825948, 0.0005384155, -5.2536896E-05, 0.0005989699, 1.56438649  , -0.0185268652, -3.90775531E-05, 918.182251  , 31.82805    , 823.560547  , 0.94        , 3           , 255         , 0           , 0
-0.183064073, -9.792401   , -0.07144025 , -0.0001079418, -0.0003725831, 0.000119830358, 1.56438541  , -0.0185280871, -4.279696E-05, 918.182251  , 31.82805    , 823.5607    , 0.95        , 3           , 255         , 0           , 0
-0.175063252, -9.794202   , -0.0609659068, -3.62616265E-05, -0.000112670066, 0.000191398431, 1.56438518  , -0.0185300056, -4.391195E-05, 918.182251  , 31.82805    , 823.5609    , 0.96        , 3           , 255         , 0           , 0
-0.164198086, -9.790523   , -0.06386555 , 0.000612987729, 2.73940968E-05, 0.00038111076, 1.56439126  , -0.0185338166, -4.361388E-05, 918.182251  , 31.82805    , 823.5611    , 0.97        , 3           , 255         , 0           , 0
-0.177372888, -9.798864   , -0.07122637 , 0.000517989043, -0.000123298378, 0.0006340721, 1.5643965   , -0.0185401645, -4.480618E-05, 918.182251  , 31.82805    , 823.5613    , 0.98        , 3           , 255         , 0           , 0
-0.177848816, -9.798574   , -0.06819591 , 0.000802877068, 3.68797919E-06, 0.000466379279, 1.56440449  , -0.0185448267, -4.47391176E-05, 918.182251  , 31.82805    , 823.561462  , 0.99        , 3           , 255         , 0           , 0
-0.18412599 , -9.790842   , -0.07968421 , 0.00015074882, -0.0003171459, 0.0007297753, 1.564406    , -0.0185521431, -4.786425E-05, 918.182251  , 31.82805    , 823.561646  , 1           , 3           , 0           , 6.06023645  , 100
-0.1902504  , -9.795443   , -0.0690687746, 7.785857E-06, 0.000266000163, 0.0002777245, 1.564398    , -0.01854972 , -4.50362641E-05, 918.182251  , 31.82805    , 823.542969  , 1.01        , 3           , 1           , 0           , 0
-0.186963722, -9.795158   , -0.07037708 , -0.000446756138, 0.000328154478, -0.000199568371, 1.56439364  , -0.0185477082, -4.17667543E-05, 918.182251  , 31.82805    , 823.5431    , 1.02        , 3           , 2           , 0           , 0
-0.180721015, -9.798997   , -0.07218445 , 0.000112820824, -0.000483858574, 0.000325621717, 1.56439483  , -0.01855099 , -4.65853227E-05, 918.1696    , 31.82961    , 823.5432    , 1.03        , 3           , 3           , 0           , 0
-0.191215634, -9.80598    , -0.07035168 , -0.000374102732, 0.00024155603, 0.000187359168, 1.56439114  , -0.0185528472, -4.415788E-05, 918.1696    , 31.82961    , 823.543335  , 1.04        , 3           , 4           , 0           , 0
-0.168345124, -9.790395   , -0.06463529 , -0.000119997945, 9.272876E-05, -0.0006059288, 1.56438982  , -0.018546788, -4.32692359E-05, 918.1696    , 31.82961    , 823.543457  , 1.05        , 3           , 5           , 0           , 0
-0.173209712, -9.791351   , -0.06259976 , -0.00015527301, 0.0002685403, -0.000352190284, 1.56438839  , -0.018543249, -4.06061263E-05, 918.1696    , 31.82961    , 823.5436    , 1.06        , 3           , 6           , 0           , 0
-0.180692881, -9.790697   , -0.05934658 , 0.0003863705, -1.76375033E-06, 0.000159978023, 1.56439221  , -0.0185448471, -4.06135769E-05, 918.1696    , 31.82961    , 823.5437    , 1.07        , 3           , 7           , 0           , 0
-0.187658384, -9.792287   , -0.0576229766, 0.0007524077, 0.000177466427, 0.000518098066, 1.56439972  , -0.0185500141, -3.88055778E-05, 918.1696    , 31.82961    , 823.5438    , 1.08        , 3           , 8           , 5           , 5
-0.178680614, -9.79722    , -0.0585475937, 0.000217136927, 0.000228560646, -0.000308712682, 1.56440187  , -0.0185469128, -3.654021E-05, 918.1696    , 31.82961    , 823.543945  , 1.09        , 3           , 9           , 5           , 0.1
-0.1757591  , -9.798759   , -0.0499737933, 1.59315532E-05, 0.000101249956, 0.0004474071, 1.564402    , -0.0185513813, -3.549881E-05, 918.1696    , 31.82961    , 823.544067  , 1.1         , 3           , 10          , 0.1         , 0.1
-0.17516996 , -9.794948   , -0.0591462739, 0.000390417583, 1.98887428E-05, 0.0006085525, 1.56440413  , -0.0185565222, -3.52286843E-05, 918.1696    , 31.82961    , 823.5414    , 1.11        , 3           , 11          , 0.009413161 , 0.009413161
-0.182081267, -9.79273    , -0.06492154 , 1.78216724E-05, -0.000185147626, 0.000205328819, 1.56440437  , -0.0185585879, -3.70674352E-05, 918.1696    , 31.82961    , 823.5415    , 1.12        , 3           , 12          , 0.174642846 , 0
-0.179509789, -9.792415   , -0.0547636636, 0.000192384061, -7.22697E-05, 6.117001E-05, 1.56440628  , -0.0185592026, -3.778561E-05, 918.195068  , 31.8309     , 823.5416    , 1.13        , 3           , 13          , 0           , 0
-0.180246636, -9.793187   , -0.0597244725, -2.82428227E-05, 9.08859656E-05, 0.000158164228, 1.56440592  , -0.01856078 , -3.68662331E-05, 918.195068  , 31.8309     , 823.541748  , 1.14        , 3           , 14          , -0.0008128234, -0.0008439532
-0.180223152, -9.796184   , -0.0657880753, 0.0005720603, 4.29776264E-05, 0.000693281356, 1.56441164  , -0.0185677111, -3.63921135E-05, 918.195068  , 31.8309     , 823.5419    , 1.15        , 3           , 15          , 0           , -5.809234E-05
-0.185491458, -9.8018465  , -0.0624606423, 0.0002667833, -0.000260699424, 0.0004204926, 1.56441438  , -0.01857193 , -3.89723318E-05, 918.195068  , 31.8309     , 823.542     , 1.16        , 3           , 16          , 0           , 1.401298E-45
-0.177405208, -9.786512   , -0.06711292 , 0.000262474234, -0.000222547562, -0.0008215119, 1.56441712  , -0.0185637325, -4.12507252E-05, 918.195068  , 31.8309     , 823.5421    , 1.17        , 3           , 20          , 0           , 0
-0.187987417, -9.785942   , -0.06933347 , 0.000112860871, -8.62102E-05, 0.000191833489, 1.5644182   , -0.0185656566, -4.21011719E-05, 918.195068  , 31.8309     , 823.542236  , 1.18        , 3           , 21          , 0           , 0
-0.179732725, -9.789392   , -0.06924984 , 0.000147585059, -0.000411784858, 0.0003894685, 1.56441987  , -0.0185695756, -4.61950476E-05, 918.195068  , 31.8309     , 823.5424    , 1.19        , 3           , 22          , 0           , 0
-0.179731518, -9.793962   , -0.0620313957, 0.00035621383, -0.000171605847, 4.15867034E-05, 1.56442332  , -0.01857    , -4.790898E-05, 918.195068  , 31.8309     , 823.5426    , 1.2         , 3           , 40          , 0           , 0
-0.185473189, -9.795787   , -0.05401246 , 0.000281290733, 0.000222568924, -1.36556664E-05, 1.56442368  , -0.01856671 , -4.56370835E-05, 918.195068  , 31.8309     , 823.514038  , 1.21        , 3           , 41          , 0           , 0
-0.188026592, -9.793296   , -0.06388587 , 0.000273381884, 0.0003140155, 0.000129895 , 1.56442642  , -0.0185679886, -4.248868E-05, 918.195068  , 31.8309     , 823.5141    , 1.22        , 3           , 42          , 0           , 0
-0.185201555, -9.795819   , -0.064455606, 0.000391684385, 0.000515544147, -0.000185710189, 1.56443024  , -0.0185661037, -3.734409E-05, 918.125732  , 31.8307648  , 823.51416   , 1.23        , 3           , 255         , 0           , 0
-0.187424377, -9.79895    , -0.0618737824, 0.0005407798, -0.000331435178, -0.0006181229, 1.5644356   , -0.01855994 , -4.069743E-05, 918.125732  , 31.8307648  , 823.5142    , 1.24        , 3           , 255         , 0           , 0
-0.185338959, -9.795832   , -0.06740963 , -9.015406E-05, -0.0005304721, 0.000161251737, 1.56443489  , -0.0185615867, -4.599291E-05, 918.125732  , 31.8307648  , 823.5143    , 1.25        , 3           , 255         , 0           , 0
-0.183978587, -9.795555   , -0.065963164, -2.27929559E-06, 0.00047862748, -0.000410757959, 1.56443477  , -0.0185574479, -4.12320951E-05, 918.125732  , 31.8307648  , 823.514343  , 1.26        , 3           , 255         , 0           , 0
-0.182818159, -9.795449   , -0.06271423 , 3.08236922E-05, 0.000237977772, -0.000139269789, 1.56443512  , -0.01855604 , -3.8862403E-05, 918.125732  , 31.8307648  , 823.5144    , 1.27        , 3           , 255         , 0           , 0
-0.187996626, -9.795647   , -0.05969156 , 0.000382865022, -6.347819E-05, 0.0003906506, 1.564439    , -0.0185599513, -3.947253E-05, 918.125732  , 31.8307648  , 823.514465  , 1.28        , 3           , 255         , 0           , 0
-0.1874417  , -9.79033    , -0.05986774 , 0.00105221407, -0.000245768751, 0.0005666181, 1.56444955  , -0.0185656361, -4.18943855E-05, 918.125732  , 31.8307648  , 823.5145    , 1.29        , 3           , 255         , 0           , 0
-0.188387737, -9.799789   , -0.0607211068, 0.000703764963, -3.02687986E-05, 0.000514468644, 1.56445658  , -0.0185707826, -4.21654477E-05, 918.125732  , 31.8307648  , 823.5146    , 1.3         , 3           , 255         , 0           , 0
-0.186275318, -9.792053   , -0.0620481856, 1.325144E-05, -0.000229280384, 1.38223695E-05, 1.56445754  , -0.0185812861, -4.446902E-05, 918.125732  , 31.8307648  , 823.5605    , 1.31        , 3           , 255         , 0           , 0
-0.179193661, -9.794997   , -0.0551600046, -0.000135720125, -0.000447292754, 0.0002720604, 1.56445622  , -0.0185840353, -4.89252343E-05, 918.125732  , 31.8307648  , 823.5607    , 1.32        , 3           , 255         , 0           , 0
-0.173461154, -9.801967   , -0.0533493236, 0.0002793885, -0.0001616453, 0.00055174093, 1.56445909  , -0.0185895618, -5.05069074E-05, 918.192566  , 31.8360558  , 823.561     , 1.33        , 3           , 255         , 0           , 0
-0.177847356, -9.78763    , -0.05817678 , -4.64443E-05, 3.29662E-05 , 0.000616082747, 1.56445861  , -0.0185957178, -5.01380418E-05, 918.192566  , 31.8360558  , 823.5612    , 1.34        , 3           , 255         , 0           , 0
-0.176124543, -9.788645   , -0.060728766, 0.000321199943, 0.000207128585, 0.00067730213, 1.56446171  , -0.01860248 , -4.80226445E-05, 918.192566  , 31.8360558  , 823.561462  , 1.35        , 3           , 255         , 0           , 0
-0.17944403 , -9.789248   , -0.057693027, 0.00011954346, -0.000169740466, 0.0007328584, 1.5644629   , -0.0186098162, -4.96741777E-05, 918.192566  , 31.8360558  , 823.5617    , 1.36        , 3           , 255         , 0           , 0
-0.171315014, -9.797183   , -0.06412164 , -4.05160245E-06, -0.0004963172, -0.000619979051, 1.5644629   , -0.01860365 , -5.46771662E-05, 918.192566  , 31.8360558  , 823.561951  , 1.37        , 3           , 255         , 0           , 0
-0.18555215 , -9.798535   , -0.06388435 , 6.96815E-05 , 0.000137690164, -0.000353701966, 1.56446362  , -0.0186001062, -5.33227867E-05, 918.192566  , 31.8360558  , 823.5622    , 1.38        , 3           , 255         , 0           , 0
-0.185939774, -9.80736351 , -0.06431045 , 0.00029108068, -5.315058E-05, -0.000148553692, 1.56446648  , -0.0185986236, -5.386398E-05, 918.192566  , 31.8360558  , 823.562439  , 1.39        , 3           , 255         , 0           , 0
-0.186080962, -9.795293   , -0.0591753647, -0.00019813102, -0.000235316751, 1.52216162E-05, 1.56446445  , -0.0185987912, -5.62150453E-05, 918.192566  , 31.8360558  , 823.5627    , 1.4         , 3           , 255         , 0           , 0
-0.18419604 , -9.786325   , -0.0620972738, 0.00012623868, 0.000248407072, -0.0007278785, 1.564471    , -0.0185865145, -5.387607E-05, 918.192566  , 31.8360558  , 823.534546  , 1.41        , 3           , 255         , 0           , 0
-0.192058176, -9.800287   , -0.0642990246, 9.65661E-05 , -6.9515896E-05, -0.0004511115, 1.564472    , -0.0185820051, -5.459983E-05, 918.192566  , 31.8360558  , 823.5347    , 1.42        , 3           , 255         , 0           , 0
-0.187229976, -9.800539   , -0.06622547 , 0.000589697855, -0.000473812281, -0.000813869061, 1.56447792  , -0.018573897, -5.93895129E-05, 918.170044  , 31.8367348  , 823.5349    , 1.43        , 3           , 255         , 0           , 0
-0.179738179, -9.804286   , -0.06651215 , 0.0004754269, -0.000271843222, 0.000257462758, 1.56448269  , -0.0185764916, -6.209175E-05, 918.170044  , 31.8367348  , 823.5351    , 1.44        , 3           , 255         , 0           , 0
-0.179822817, -9.78828    , -0.067909494, -0.000211799226, -0.000496944354, 0.0008284084, 1.56448054  , -0.0185848065, -6.700812E-05, 918.170044  , 31.8367348  , 823.5353    , 1.45        , 3           , 255         , 0           , 0
-0.188080341, -9.794767   , -0.0708565637, -2.85912538E-05, 9.772257E-05, 1.82168333E-05, 1.56448019  , -0.0185849816, -6.602913E-05, 918.170044  , 31.8367348  , 823.535461  , 1.46        , 3           , 255         , 0           , 0
-0.170722187, -9.798205   , -0.07263523 , 0.000478758273, 7.945561E-05, 2.05714859E-05, 1.564485    , -0.0185851827, -6.52336457E-05, 918.170044  , 31.8367348  , 823.535645  , 1.47        , 3           , 255         , 0           , 0
-0.184246138, -9.795084   , -0.06884154 , 0.000104930252, 0.0001301181, -0.00035199846, 1.56448591  , -0.0185816567, -6.395472E-05, 918.170044  , 31.8367348  , 823.5358    , 1.48        , 3           , 255         , 0           , 0
-0.177456811, -9.803926   , -0.0684495345, -0.000573277532, 6.372313E-05, 0.0003361806, 1.56448019  , -0.0185850132, -6.329523E-05, 918.170044  , 31.8367348  , 823.536     , 1.49        , 3           , 255         , 0           , 0
-0.191248745, -9.795448   , -0.06687375 , -0.000505083532, -0.000415421848, 0.000735686743, 1.56447518  , -0.018592393, -6.740308E-05, 918.170044  , 31.8367348  , 823.5362    , 1.5         , 3           , 255         , 0           , 0
-0.1812864  , -9.7992115  , -0.06783557 , 0.0004939911, 0.000319450453, 0.00100278622, 1.564468    , -0.01860543 , -6.392215E-05, 918.170044  , 31.8367348  , 823.534241  , 1.51        , 3           , 255         , 0           , 0
-0.178602964, -9.795331   , -0.0644154  , 0.0008136789, 0.000411379966, -4.68732542E-05, 1.56447613  , -0.0186049342, -5.98105835E-05, 918.170044  , 31.8367348  , 823.5344    , 1.52        , 3           , 255         , 0           , 0
-0.172292382, -9.792173   , -0.0600953624, 0.0008070887, -0.000330444484, -0.0004889866, 1.56448424  , -0.018600069, -6.31462E-05, 918.149     , 31.8386345  , 823.5346    , 1.53        , 3           , 255         , 0           , 0
-0.195453987, -9.799253   , -0.05425474 , 0.000183364842, -7.9152E-05 , -0.0007205812, 1.564486    , -0.0185928661, -6.39836144E-05, 918.149     , 31.8386345  , 823.5348    , 1.54        , 3           , 255         , 0           , 0
-0.195016146, -9.797496   , -0.04977423 , 3.93966329E-05, -3.80651327E-05, -0.000520118047, 1.56448638  , -0.0185876675, -6.43953244E-05, 918.149     , 31.8386345  , 823.535     , 1.55        , 3           , 255         , 0           , 0
-0.189761728, -9.79171    , -0.05871277 , -0.000385021965, -7.891678E-06, 0.000471193925, 1.56448257  , -0.0185923781, -6.444563E-05, 918.149     , 31.8386345  , 823.535156  , 1.56        , 3           , 255         , 0           , 0
-0.183062181, -9.79918    , -0.05679407 , -0.000257245323, 0.00032797514, -1.88220074E-05, 1.56448     , -0.01859217 , -6.116773E-05, 918.149     , 31.8386345  , 823.535339  , 1.57        , 3           , 255         , 0           , 0
-0.1765157  , -9.79142952 , -0.05400731 , -0.000252300932, -0.000176330388, -2.62520844E-05, 1.56447744  , -0.01859192 , -6.293197E-05, 918.149     , 31.8386345  , 823.5355    , 1.58        , 3           , 255         , 0           , 0
-0.17272602 , -9.796366   , -0.05577364 , -9.73067363E-05, 0.0002111941, 4.5324814E-05, 1.56447649  , -0.01859236 , -6.08175033E-05, 918.149     , 31.8386345  , 823.5357    , 1.59        , 3           , 255         , 0           , 0
-0.179357141, -9.79816    , -0.05416278 , -8.00075941E-05, 0.0001703588, -0.000323649, 1.56447554  , -0.0185891129, -5.913337E-05, 918.149     , 31.8386345  , 823.5359    , 1.6         , 3           , 255         , 0           , 0
-0.184246853, -9.801118   , -0.0551228449, -0.000346067944, 2.14686734E-05, 8.117161E-05, 1.56448138  , -0.01859053 , -5.90858654E-05, 918.149     , 31.8386345  , 823.556641  , 1.61        , 3           , 255         , 0           , 0
-0.186189562, -9.805051   , -0.0596784167, -0.000207809848, 0.00023351534, -0.0007040916, 1.56447935  , -0.0185834765, -5.6795343E-05, 918.149     , 31.8386345  , 823.556946  , 1.62        , 3           , 255         , 0           , 0
-0.1757231  , -9.801883   , -0.05852751 , -0.0006141985, 0.00012366689, -0.001216123, 1.56447315  , -0.0185713079, -5.56356354E-05, 918.154053  , 31.8387012  , 823.557251  , 1.63        , 3           , 255         , 0           , 0
-0.172997832, -9.805816   , -0.06963522 , -0.0010822179, 0.000406221428, -0.000465242076, 1.5644623   , -0.0185666326, -5.16032378E-05, 918.154053  , 31.8387012  , 823.557556  , 1.64        , 3           , 255         , 0           , 0
-0.171026349, -9.800838   , -0.07581724 , -0.00131452538, 0.0003753935, -0.0006178498, 1.56444919  , -0.01856043 , -4.788848E-05, 918.154053  , 31.8387012  , 823.557861  , 1.65        , 3           , 255         , 0           , 0
-0.1712531  , -9.801763   , -0.0699470639, -0.00137885252, 4.36964328E-05, -0.000113846196, 1.56443536  , -0.018559292, -4.74590634E-05, 918.154053  , 31.8387012  , 823.558167  , 1.66        , 3           , 255         , 0           , 0
-0.173473492, -9.791424   , -0.06404854 , -3.626477E-05, 0.0001664433, -0.000215950218, 1.564435    , -0.0185571238, -4.58084651E-05, 918.154053  , 31.8387012  , 823.5585    , 1.67        , 3           , 255         , 0           , 0
-0.1753026  , -9.787461   , -0.0663955063, 0.000283176778, -0.000253967068, 0.000635987555, 1.56443787  , -0.0185634978, -4.83076437E-05, 918.154053  , 31.8387012  , 823.5588    , 1.68        , 3           , 255         , 0           , 0
-0.190664411, -9.785627   , -0.06941901 , -0.000105732121, -0.000146149832, 0.000583797751, 1.56443691  , -0.0185693447, -4.97328147E-05, 918.154053  , 31.8387012  , 823.5591    , 1.69        , 3           , 255         , 0           , 0
-0.177207053, -9.790556   , -0.06284822 , -2.92381737E-05, -7.259939E-05, -3.98834054E-05, 1.56443655  , -0.0185689535, -5.04603049E-05, 918.154053  , 31.8387012  , 823.5594    , 1.7         , 3           , 255         , 0           , 0
-0.179208547, -9.789952   , -0.0678401738, -0.0001328165, 0.000424917846, 0.000211238163, 1.564429    , -0.0185628068, -4.60832671E-05, 918.154053  , 31.8387012  , 823.5725    , 1.71        , 3           , 255         , 0           , 0
-0.173464119, -9.796209   , -0.06861077 , 0.0002546294, 5.213305E-05, -0.000141422977, 1.56443155  , -0.01856139 , -4.557095E-05, 918.154053  , 31.8387012  , 823.5729    , 1.72        , 3           , 255         , 0           , 0
-0.18407321 , -9.796687   , -0.06683858 , -1.949945E-05, 0.000274617749, 0.000175273744, 1.56443131  , -0.018563129, -4.28137537E-05, 918.17334   , 31.8363266  , 823.573242  , 1.73        , 3           , 255         , 0           , 0
-0.189346775, -9.785344   , -0.06269549 , 0.0005848348, 0.000166645972, -3.62900173E-05, 1.56443727  , -0.0185627546, -4.11510555E-05, 918.17334   , 31.8363266  , 823.5736    , 1.74        , 3           , 255         , 0           , 0
-0.190591022, -9.783247   , -0.0618704669, -0.000382098369, 0.000590421841, -0.000112774389, 1.56443334  , -0.0185615867, -3.52529132E-05, 918.17334   , 31.8363266  , 823.574     , 1.75        , 3           , 255         , 0           , 0
-0.179102123, -9.783628   , -0.0612868965, -4.9739494E-05, 0.000148035062, 3.17374252E-05, 1.56443274  , -0.0185618978, -3.37699821E-05, 918.17334   , 31.8363266  , 823.574341  , 1.76        , 3           , 255         , 0           , 0
-0.178309411, -9.8019     , -0.0520549528, 0.0002793831, 2.26362026E-05, -0.000345259265, 1.5644356   , -0.0185584445, -3.356692E-05, 918.17334   , 31.8363266  , 823.5747    , 1.77        , 3           , 255         , 0           , 0
-0.173287   , -9.791476   , -0.0562823638, 0.00119816512, 5.52695128E-05, -0.000173496315, 1.56444764  , -0.0185567085, -3.30238654E-05, 918.17334   , 31.8363266  , 823.5751    , 1.78        , 3           , 255         , 0           , 0
-0.188025951, -9.79968548 , -0.05721003 , 0.000544901355, 0.000280692766, -0.000482376752, 1.564453    , -0.0185518656, -3.02480457E-05, 918.17334   , 31.8363266  , 823.575439  , 1.79        , 3           , 255         , 0           , 0
-0.1786167  , -9.800219   , -0.05576685 , 7.89401238E-05, 0.000161317817, -0.000634211348, 1.56445384  , -0.0185455177, -2.86747654E-05, 918.17334   , 31.8363266  , 823.575867  , 1.8         , 3           , 255         , 0           , 0
-0.171382114, -9.786724   , -0.04431127 , 2.097513E-05, 1.27668027E-05, 0.000334886834, 1.56445718  , -0.0185478516, -2.858441E-05, 918.17334   , 31.8363266  , 823.565552  , 1.81        , 3           , 255         , 0           , 0
-0.172128081, -9.785852   , -0.05268752 , 0.000119357894, -0.0004390559, 0.000134150047, 1.56445837  , -0.01854922 , -3.29679679E-05, 918.17334   , 31.8363266  , 823.5659    , 1.82        , 3           , 255         , 0           , 0
-0.182649985, -9.802136   , -0.05598368 , 0.000224562653, 0.000328530325, -0.000368383771, 1.56446064  , -0.0185455177, -2.97040551E-05, 918.1368    , 31.8361244  , 823.5663    , 1.83        , 3           , 255         , 0           , 0
-0.18303296 , -9.795568   , -0.05938797 , 0.000273666461, -0.000148197461, -0.0007904395, 1.56446326  , -0.0185376219, -3.123727E-05, 918.1368    , 31.8361244  , 823.56665   , 1.84        , 3           , 255         , 0           , 0
-0.182456344, -9.793657   , -0.06642757 , 0.0006874915, -0.000281915476, -0.00087649707, 1.56447017  , -0.0185288787, -3.41118139E-05, 918.1368    , 31.8361244  , 823.567     , 1.85        , 3           , 255         , 0           , 0
-0.1776897  , -9.792362   , -0.0704317  , 0.000453427318, 0.000231546524, 2.36338819E-05, 1.5644747   , -0.0185290966, -3.1794294E-05, 918.1368    , 31.8361244  , 823.5674    , 1.86        , 3           , 255         , 0           , 0
-0.178877741, -9.800186   , -0.071151   , -6.688136E-05, 4.4962042E-05, -3.8012724E-05, 1.56447411  , -0.0185287129, -3.13471828E-05, 918.1368    , 31.8361244  , 823.567749  , 1.87        , 3           , 255         , 0           , 0
-0.180951536, -9.791965   , -0.066465   , -3.98608972E-05, 3.969588E-05, -0.0005035918, 1.56447375  , -0.0185236763, -3.09839E-05, 918.1368    , 31.8361244  , 823.5681    , 1.88        , 3           , 255         , 0           , 0
-0.17746006 , -9.797345   , -0.06109648 , 0.0002909404, 0.000456760172, -0.000331463583, 1.56447661  , -0.0185203366, -2.64363989E-05, 918.1368    , 31.8361244  , 823.5685    , 1.89        , 3           , 255         , 0           , 0
-0.175959557, -9.805442   , -0.0720982552, 0.0006753837, -0.000171457243, -6.183908E-05, 1.56448328  , -0.01851973 , -2.81559151E-05, 918.1368    , 31.8361244  , 823.568848  , 1.9         , 3           , 255         , 0           , 0
-0.183259159, -9.797224   , -0.07600205 , 0.000459872885, -2.44352268E-05, 0.000666972133, 1.56448781  , -0.0185192749, -2.83571153E-05, 918.1368    , 31.8361244  , 823.6019    , 1.91        , 3           , 255         , 0           , 0
-0.1839558  , -9.79125    , -0.071045436, 0.0006249698, 0.000149843225, 0.0005076468, 1.564494    , -0.0185243431, -2.68266922E-05, 918.1368    , 31.8361244  , 823.6025    , 1.92        , 3           , 255         , 0           , 0
-0.180445939, -9.801092   , -0.07406614 , 0.000334529934, -0.000735672831, 0.00087794807, 1.56449747  , -0.0185331665, -3.41295236E-05, 918.2253    , 31.8402615  , 823.603     , 1.93        , 3           , 255         , 0           , 0
-0.181447357, -9.807596   , -0.0667191148, 0.000484971533, -0.000195119123, -0.000131351087, 1.56450248  , -0.0185318645, -3.608936E-05, 918.2253    , 31.8402615  , 823.6036    , 1.94        , 3           , 255         , 0           , 0
-0.185956672, -9.806457   , -0.07099761 , 0.000193773361, 0.0006256779, 6.05195346E-05, 1.56450427  , -0.0185324326, -2.98279374E-05, 918.2253    , 31.8402615  , 823.6041    , 1.95        , 3           , 255         , 0           , 0
-0.179250091, -9.800146   , -0.06384774 , -1.871161E-05, 0.0005377219, -0.0003949058, 1.564504    , -0.0185284484, -2.44747025E-05, 918.2253    , 31.8402615  , 823.6047    , 1.96        , 3           , 255         , 0           , 0
-0.180165663, -9.800236   , -0.06579662 , 0.0003993887, 5.15560969E-05, 0.0002132654, 1.56450808  , -0.0185305774, -2.39456222E-05, 918.2253    , 31.8402615  , 823.6052    , 1.97        , 3           , 255         , 0           , 0
-0.17407009 , -9.800782   , -0.051338613, 0.00111626659, 5.30133839E-05, -5.396729E-05, 1.56451929  , -0.0185300354, -2.34193358E-05, 918.2253    , 31.8402615  , 823.6058    , 1.98        , 3           , 255         , 0           , 0
-0.175767273, -9.80172348 , -0.0462823361, 0.000343638938, 4.391669E-05, 0.000225032592, 1.56452262  , -0.0185322836, -2.29657035E-05, 918.2253    , 31.8402615  , 823.6063    , 1.99        , 3           , 255         , 0           , 0
-0.1805827  , -9.801969   , -0.046791032, 0.001051075 , 0.000154494192, 0.000196232082, 1.56453311  , -0.01853424 , -2.14082647E-05, 918.2253    , 31.8402615  , 823.6069    , 2           , 3           , 0           , 7.06023645  , 200
-0.182895511, -9.801107   , -0.04984928 , 0.00095035194, -4.90684179E-05, 0.0007337505, 1.56454015  , -0.0185397342, -2.180601E-05, 918.2253    , 31.8402615  , 823.5296    , 2.01        , 3           , 1           , 0           , 0
-0.181504339, -9.808461   , -0.0447768681, 0.0008258813, 0.0003976113, 0.0005989681, 1.56454837  , -0.0185457  , -1.77922539E-05, 918.2253    , 31.8402615  , 823.5297    , 2.02        , 3           , 2           , 0           , 0
-0.169733733, -9.798235   , -0.0411805324, 0.00228014588, -0.000116178475, 0.0004072294, 1.56457126  , -0.01854978 , -1.89295934E-05, 918.182434  , 31.8445358  , 823.529846  , 2.03        , 3           , 3           , 0           , 0
-0.173047557, -9.7790575  , -0.0399618931, 0.0015739291, -7.60006951E-05, 0.00118804676, 1.564587    , -0.018561665, -1.96161018E-05, 918.182434  , 31.8445358  , 823.529968  , 2.04        , 3           , 4           , 0           , 0
-0.180770129, -9.770418   , -0.04194992 , 0.000695802155, -0.000136643008, 0.00059751916, 1.56459391  , -0.01856765 , -2.094533E-05, 918.182434  , 31.8445358  , 823.5301    , 2.05        , 3           , 5           , 0           , 0
-0.18030034 , -9.770257   , -0.047394935, 0.00114983658, -0.000116886105, 0.000187120531, 1.56460536  , -0.0185695291, -2.21013E-05, 918.182434  , 31.8445358  , 823.5302    , 2.06        , 3           , 6           , 0           , 0
-0.188708529, -9.791197   , -0.0461165868, 0.000178592512, -0.000158728159, 0.000167076229, 1.56460726  , -0.01857121 , -2.36783035E-05, 918.182434  , 31.8445358  , 823.530334  , 2.07        , 3           , 7           , 0           , 0
-0.183426276, -9.800803   , -0.05397225 , 0.0005056537, -0.000299165433, 0.0003698055, 1.56461239  , -0.0185749251, -2.6647871E-05, 918.182434  , 31.8445358  , 823.530457  , 2.08        , 3           , 8           , 5           , 5
-0.177725956, -9.808615   , -0.0578117855, 0.00130859693, -0.000321142434, 0.000465526071, 1.5646255   , -0.0185795985, -2.98307568E-05, 918.182434  , 31.8445358  , 823.5306    , 2.09        , 3           , 9           , 5           , 0.1
-0.17473644 , -9.798427   , -0.0573150739, 0.0007439997, -0.0002840446, 0.000585638 , 1.56463289  , -0.0185854733, -3.26345253E-05, 918.182434  , 31.8445358  , 823.5307    , 2.1         , 3           , 10          , 0.1         , 0.1
-0.179117113, -9.781701   , -0.06702433 , 0.0007040856, -0.000255138846, 0.0007965   , 1.56467128  , -0.018587213, -3.57196E-05, 918.182434  , 31.8445358  , 823.5137    , 2.11        , 3           , 11          , 0.008423881 , 0.008423878
-0.181067079, -9.785181   , -0.074440375, 0.000868772739, 0.0002554129, 0.0005443312, 1.56468     , -0.018592637, -3.31319425E-05, 918.182434  , 31.8445358  , 823.5137    , 2.12        , 3           , 12          , 0.174643889 , 0
-0.175147444, -9.791037   , -0.0719217956, 0.0002720827, 0.000175770314, -0.000449993939, 1.5646826   , -0.0185881313, -3.14012359E-05, 918.132     , 31.8405342  , 823.5137    , 2.13        , 3           , 13          , 0           , 0
-0.175465778, -9.809359   , -0.08359052 , 0.000679978053, 0.000121910067, -0.0003081871, 1.56468928  , -0.0185850412, -3.020056E-05, 918.132     , 31.8405342  , 823.5137    , 2.14        , 3           , 14          , -0.0008129018, -0.000843951944
-0.187692463, -9.804711   , -0.08864136 , 0.0005023349, -0.000388951274, 0.000163006931, 1.5646944   , -0.0185866971, -3.40811166E-05, 918.132     , 31.8405342  , 823.5137    , 2.15        , 3           , 15          , 0           , -5.804183E-05
-0.183347136, -9.785693   , -0.07952686 , 0.000133074063, -0.000142897014, -0.000220540212, 1.56469584  , -0.0185844973, -3.55249176E-05, 918.132     , 31.8405342  , 823.5137    , 2.16        , 3           , 16          , 0           , 1.401298E-45
-0.182491258, -9.791918   , -0.08026655 , 0.000463719422, -0.000414104667, -0.000255082559, 1.56470048  , -0.0185819715, -3.968026E-05, 918.132     , 31.8405342  , 823.5137    , 2.17        , 3           , 20          , 0           , 0
-0.188797653, -9.790894   , -0.07463722 , 0.00036275445, -0.000351561583, -0.000229156, 1.56470418  , -0.0185797028, -4.321058E-05, 918.132     , 31.8405342  , 823.5137    , 2.18        , 3           , 21          , 0           , 0
-0.195058614, -9.796345   , -0.06677315 , -0.000123403908, -5.23544149E-05, -0.000151672139, 1.564703    , -0.01857819 , -4.374525E-05, 918.132     , 31.8405342  , 823.5137    , 2.19        , 3           , 22          , 0           , 0
-0.187294692, -9.806738   , -0.0709205046, -0.000815374835, 0.000478560163, 9.077242E-05, 1.56469476  , -0.01857907 , -3.895277E-05, 918.132     , 31.8405342  , 823.5137    , 2.2         , 3           , 40          , 0           , 0
-0.185033888, -9.7954855  , -0.06425094 , -0.00130706793, 0.0002793785, -0.000229737721, 1.56464779  , -0.01857989 , -3.55454067E-05, 918.132     , 31.8405342  , 823.562439  , 2.21        , 3           , 41          , 0           , 0
-0.171405777, -9.79064    , -0.0470507033, -0.000424571335, -0.000531253638, -0.000655317155, 1.56464362  , -0.01857337 , -4.089957E-05, 918.132     , 31.8405342  , 823.5628    , 2.22        , 3           , 42          , 0           , 0
-0.1742585  , -9.794258   , -0.0512317233, -0.000289985444, 9.043509E-05, -9.068015E-06, 1.56464076  , -0.0185732748, -3.99951E-05, 918.1729    , 31.84257    , 823.5632    , 2.23        , 3           , 255         , 0           , 0
-0.18458429 , -9.806765   , -0.05725191 , -9.94571E-05, -0.0003036724, 1.91053878E-05, 1.56463981  , -0.0185734835, -4.30308028E-05, 918.1729    , 31.84257    , 823.563538  , 2.24        , 3           , 255         , 0           , 0
-0.180076867, -9.8012495  , -0.05258801 , 0.000887686969, -0.000522483257, 0.0002368566, 1.56464875  , -0.0185758881, -4.824152E-05, 918.1729    , 31.84257    , 823.5639    , 2.25        , 3           , 255         , 0           , 0
-0.183281571, -9.775605   , -0.0512261763, 0.0007596905, 9.741017E-05, 0.000137350158, 1.56465626  , -0.0185772553, -4.72597349E-05, 918.1729    , 31.84257    , 823.5643    , 2.26        , 3           , 255         , 0           , 0
-0.168782189, -9.76323    , -0.03367807 , 0.0003880585, -0.000220036251, 0.000563234265, 1.56466019  , -0.018582901, -4.942637E-05, 918.1729    , 31.84257    , 823.564636  , 2.27        , 3           , 255         , 0           , 0
-0.161835179, -9.811325   , -0.04397742 , 0.00024725555, -0.0005645276, -0.0001624299, 1.56466269  , -0.0185813121, -5.508234E-05, 918.1729    , 31.84257    , 823.565     , 2.28        , 3           , 255         , 0           , 0
-0.1949965  , -9.830549   , -0.0475387573, 0.00137764192, -0.0001186952, 0.0008842992, 1.56467652  , -0.0185901616, -5.62141E-05, 918.1729    , 31.84257    , 823.565369  , 2.29        , 3           , 255         , 0           , 0
-0.204750091, -9.808101   , -0.0491400473, 0.00128923508, 0.0002900497, -9.73179558E-05, 1.5646894   , -0.01858917 , -5.33199782E-05, 918.1729    , 31.84257    , 823.565735  , 2.3         , 3           , 255         , 0           , 0
-0.194478557, -9.787577   , -0.0637091845, 0.00138542685, -0.0002887395, -0.000753162953, 1.56472135  , -0.0185797215, -5.65913469E-05, 918.1729    , 31.84257    , 823.5556    , 2.31        , 3           , 255         , 0           , 0
-0.172950089, -9.780965   , -0.0610366836, 0.0006788153, -0.000361126324, -0.000153381625, 1.56472814  , -0.018578209, -6.02110922E-05, 918.1729    , 31.84257    , 823.5559    , 2.32        , 3           , 255         , 0           , 0
-0.165731445, -9.770022   , -0.06402362 , 0.000662732 , 0.000267575437, 0.000589661533, 1.5647347   , -0.0185840875, -5.74995465E-05, 918.193054  , 31.8414822  , 823.5562    , 2.33        , 3           , 255         , 0           , 0
-0.179223314, -9.807251   , -0.06176291 , 0.00032699795, -0.000191471947, 8.079065E-05, 1.56473792  , -0.0185849089, -5.940909E-05, 918.193054  , 31.8414822  , 823.5565    , 2.34        , 3           , 255         , 0           , 0
-0.180712566, -9.830533   , -0.06669416 , 0.000730743166, -0.000314688135, 0.0004263332, 1.56474519  , -0.018589193, -6.252863E-05, 918.193054  , 31.8414822  , 823.5568    , 2.35        , 3           , 255         , 0           , 0
-0.18535392 , -9.8199     , -0.0776417255, 0.00203470816, 6.90908055E-05, 0.0004316407, 1.56476557  , -0.018593505, -6.18123158E-05, 918.193054  , 31.8414822  , 823.5571    , 2.36        , 3           , 255         , 0           , 0
-0.180311292, -9.768396   , -0.07409162 , 0.00133571855, 0.000250651385, 0.0006117449, 1.5647788   , -0.01859961 , -5.92684446E-05, 918.193054  , 31.8414822  , 823.557434  , 2.37        , 3           , 255         , 0           , 0
-0.180978939, -9.763903   , -0.0727056637, -0.000275792729, 9.043992E-05, -0.000460580748, 1.56477606  , -0.018594997, -5.839098E-05, 918.193054  , 31.8414822  , 823.557739  , 2.38        , 3           , 255         , 0           , 0
-0.175084084, -9.799314   , -0.07781063 , -0.00047881197, 5.55041479E-05, -0.000642503554, 1.56477129  , -0.01858857 , -5.7874935E-05, 918.193054  , 31.8414822  , 823.558044  , 2.39        , 3           , 255         , 0           , 0
-0.181379244, -9.805418   , -0.0763953552, -0.0003245648, 0.0006138218, -0.000598899554, 1.56476808  , -0.0185825452, -5.17737135E-05, 918.193054  , 31.8414822  , 823.55835   , 2.4         , 3           , 255         , 0           , 0
-0.170989662, -9.816295   , -0.0711670145, 0.0001639974, 0.000408903172, -0.000604302157, 1.5647471   , -0.0185711309, -4.72988577E-05, 918.193054  , 31.8414822  , 823.5222    , 2.41        , 3           , 255         , 0           , 0
-0.1776936  , -9.786859   , -0.07105204 , 0.0006138247, 0.0002223673, -0.000394131785, 1.56475317  , -0.0185671765, -4.510055E-05, 918.193054  , 31.8414822  , 823.5223    , 2.42        , 3           , 255         , 0           , 0
-0.174622923, -9.767365   , -0.0586631224, 0.000150396663, -0.000293365272, -0.000321414467, 1.56475472  , -0.0185639784, -4.80533527E-05, 918.1653    , 31.8437214  , 823.522339  , 2.43        , 3           , 255         , 0           , 0
-0.183314383, -9.772247   , -0.05640317 , -4.69016377E-05, 6.493367E-05, 0.0004555795, 1.56475425  , -0.0185685325, -4.737617E-05, 918.1653    , 31.8437214  , 823.5224    , 2.44        , 3           , 255         , 0           , 0
-0.172642946, -9.808562   , -0.05434982 , 0.000512366532, 0.0004704945, 0.0001765416, 1.56475925  , -0.0185702685, -4.26591359E-05, 918.1653    , 31.8437214  , 823.522461  , 2.45        , 3           , 255         , 0           , 0
-0.1868087  , -9.819499   , -0.0569754243, 6.562006E-05, 0.00036977767, -3.620093E-05, 1.56475985  , -0.0185698848, -3.896301E-05, 918.1653    , 31.8437214  , 823.5225    , 2.46        , 3           , 255         , 0           , 0
-0.184575513, -9.806233   , -0.0536089949, 8.253887E-05, -0.000281616056, -0.000684982748, 1.5647608   , -0.01856305 , -4.18208E-05, 918.1653    , 31.8437214  , 823.5226    , 2.47        , 3           , 255         , 0           , 0
-0.182852149, -9.768451   , -0.0416804925, 0.000548806856, -8.86243652E-05, -0.000161239965, 1.56476629  , -0.0185614452, -4.271688E-05, 918.1653    , 31.8437214  , 823.522644  , 2.48        , 3           , 255         , 0           , 0
-0.164976686, -9.771082   , -0.0370670073, -0.0006702997, 9.45788343E-05, -0.0001609237, 1.56475949  , -0.0185598284, -4.17816736E-05, 918.1653    , 31.8437214  , 823.5227    , 2.49        , 3           , 255         , 0           , 0
-0.173889935, -9.791301   , -0.05200691 , -0.00159309944, 0.000216203684, -2.9224364E-05, 1.56474352  , -0.0185595248, -3.96206342E-05, 918.1653    , 31.8437214  , 823.522766  , 2.5         , 3           , 255         , 0           , 0
-0.1716636  , -9.80740452 , -0.05650525 , -0.000987809, 0.000208168523, -0.00032097887, 1.56474364  , -0.0185443182, -3.77418219E-05, 918.1653    , 31.8437214  , 823.528259  , 2.51        , 3           , 255         , 0           , 0
-0.1791724  , -9.80287552 , -0.0479112975, 0.00054036174, -0.000214277941, -5.71369346E-05, 1.564749    , -0.0185437631, -3.98888842E-05, 918.1653    , 31.8437214  , 823.5284    , 2.52        , 3           , 255         , 0           , 0
-0.177195638, -9.797249   , -0.04431851 , 0.000373430084, -0.000358166231, 7.937639E-05, 1.56475282  , -0.0185445789, -4.34648464E-05, 918.1773    , 31.8414154  , 823.5285    , 2.53        , 3           , 255         , 0           , 0
-0.172303855, -9.777056   , -0.0546012521, -0.0006730363, -0.000142035831, 8.889784E-05, 1.564746    , -0.0185454767, -4.487977E-05, 918.1773    , 31.8414154  , 823.5286    , 2.54        , 3           , 255         , 0           , 0
-0.181789234, -9.797981   , -0.0604737774, -0.00116246659, 0.000317365164, 0.000534263032, 1.56473434  , -0.0185507964, -4.167361E-05, 918.1773    , 31.8414154  , 823.528748  , 2.55        , 3           , 255         , 0           , 0
-0.194410831, -9.815065   , -0.05609246 , -0.0008976386, 0.000283604662, -0.000407686282, 1.5647254   , -0.0185467042, -3.88633271E-05, 918.1773    , 31.8414154  , 823.5289    , 2.56        , 3           , 255         , 0           , 0
-0.217869237, -9.810034   , -0.055428613, -0.00135215931, 0.000545600546, -0.00106869743, 1.56471193  , -0.0185359865, -3.34709621E-05, 918.1773    , 31.8414154  , 823.529     , 2.57        , 3           , 255         , 0           , 0
-0.37561354 , -9.849981   , 0.175415874 , -0.0235271826, -0.0001362082, -0.02193695 , 1.56447661  , -0.0183166321, -3.61916827E-05, 918.1773    , 31.8414154  , 823.5291    , 2.58        , 3           , 255         , 0           , 0
-0.22459285 , -9.801921   , 0.008299952 , -0.0674640462, 9.951432E-05, -0.0533475019, 1.563802    , -0.017783178, -3.87444852E-05, 918.1773    , 31.8414154  , 823.529236  , 2.59        , 3           , 255         , 0           , 0
-0.0629116148, -9.756373   , -0.223081633, -0.06156734 , 8.953328E-05, -0.04487054 , 1.56318641  , -0.0173344836, -4.1125E-05 , 918.1773    , 31.8414154  , 823.529358  , 2.6         , 3           , 255         , 0           , 0
-0.02800889 , -9.751081   , -0.28453052 , -0.02244286 , -4.89581143E-05, -0.0150180729, 1.56298614  , -0.0172030777, -4.31880944E-05, 918.1773    , 31.8414154  , 823.5177    , 2.61        , 3           , 255         , 0           , 0
-0.101141229, -9.765537   , -0.169696525, 0.008133065 , -0.00018040603, 0.00635911757, 1.56306756  , -0.0172666814, -4.449871E-05, 918.1773    , 31.8414154  , 823.517761  , 2.62        , 3           , 255         , 0           , 0
-0.1498001  , -9.7829     , -0.110802315, 0.0169340745, 0.00019507471, 0.012360814 , 1.56323671  , -0.01739027 , -4.160288E-05, 918.132141  , 31.840601   , 823.5178    , 2.63        , 3           , 255         , 0           , 0
-0.16469571 , -9.762632   , -0.0949664637, 0.0241498221, -0.0002994811, 0.01847659  , 1.56347823  , -0.0175750442, -4.32228444E-05, 918.132141  , 31.840601   , 823.5179    , 2.64        , 3           , 255         , 0           , 0
-0.263621181, -9.811353   , 0.0468033329, 0.01521745  , -1.55314337E-05, 0.0117441546, 1.56363034  , -0.0176924821, -4.25280523E-05, 918.132141  , 31.840601   , 823.517944  , 2.65        , 3           , 255         , 0           , 0
-0.228939444, -9.846827   , -0.0208611153, -0.007570409, 1.23445643E-05, -0.004214436, 1.56355464  , -0.01765034 , -4.270779E-05, 918.132141  , 31.840601   , 823.518     , 2.66        , 3           , 255         , 0           , 0
-0.1603951  , -9.819902   , -0.109644674, -0.00373964268, -0.000134264585, -0.00216803025, 1.56351721  , -0.01762867 , -4.420837E-05, 918.132141  , 31.840601   , 823.518066  , 2.67        , 3           , 255         , 0           , 0
-0.216997951, -9.809455   , -0.0035892427, -0.006299351, -0.000444039, -0.005565984, 1.56345427  , -0.0175730474, -4.90556777E-05, 918.132141  , 31.840601   , 823.5181    , 2.68        , 3           , 255         , 0           , 0
-0.171573967, -9.77347851 , -0.06702621 , -0.0155263254, -0.000531249447, -0.0118416259, 1.56329906  , -0.0174546763, -5.52470228E-05, 918.132141  , 31.840601   , 823.5182    , 2.69        , 3           , 255         , 0           , 0
-0.131177485, -9.76724148 , -0.1241204  , -0.008637719, -0.000207445933, -0.005583717, 1.56321275  , -0.0173988584, -5.774143E-05, 918.132141  , 31.840601   , 823.51825   , 2.7         , 3           , 255         , 0           , 0
-0.11058861 , -9.773985   , -0.142971188, 0.00576639455, -0.000510617159, 0.0046420414, 1.5632031   , -0.0174128525, -6.13238444E-05, 918.132141  , 31.840601   , 823.570251  , 2.71        , 3           , 255         , 0           , 0
-0.112109557, -9.799225   , -0.153554961, 0.0225990918, 2.71243043E-05, 0.015623671 , 1.563429    , -0.0175690781, -5.98848965E-05, 918.132141  , 31.840601   , 823.5707    , 2.72        , 3           , 255         , 0           , 0
-0.103582881, -9.810382   , -0.165100977, 0.04037462  , -0.000365857035, 0.0291438214, 1.56383288  , -0.0178605262, -6.14566E-05, 918.1666    , 31.8414154  , 823.5711    , 2.73        , 3           , 255         , 0           , 0
-0.198676229, -9.799393   , -0.0418721549, 0.04990724  , -0.000566018862, 0.0373531133, 1.56433189  , -0.0182340778, -6.461007E-05, 918.1666    , 31.8414154  , 823.571533  , 2.74        , 3           , 255         , 0           , 0
-0.332318157, -9.812865   , 0.108289026 , 0.0218250509, -0.000131935754, 0.0153087638, 1.56455     , -0.0183871649, -6.49549038E-05, 918.1666    , 31.8414154  , 823.57196   , 2.75        , 3           , 255         , 0           , 0
-0.131565928, -9.789128   , -0.1196125  , 0.007978393 , -0.000249856617, 0.006588073 , 1.56462991  , -0.0184530579, -6.70443E-05, 918.1666    , 31.8414154  , 823.5724    , 2.76        , 3           , 255         , 0           , 0
-0.22606346 , -9.832899   , -0.0129983816, 0.009177446 , -0.0003491342, 0.00680392748, 1.5647217   , -0.01852112 , -7.011918E-05, 918.1666    , 31.8414154  , 823.5728    , 2.77        , 3           , 255         , 0           , 0
-0.183683485, -9.809168   , -0.0541933253, 0.00312827  , -0.000216149492, 0.0007750065, 1.564753    , -0.01852888 , -7.22346E-05, 918.1666    , 31.8414154  , 823.573242  , 2.78        , 3           , 255         , 0           , 0
-0.185879439, -9.776468   , -0.0571115538, 0.001982037 , -0.000214010361, 5.95070524E-05, 1.56477284  , -0.01852949 , -7.437142E-05, 918.1666    , 31.8414154  , 823.573669  , 2.79        , 3           , 255         , 0           , 0
-0.1788799  , -9.766031   , -0.05857537 , 0.0008167416, -0.0002629141, -0.000306999165, 1.56478107  , -0.018526433, -7.70187E-05, 918.1666    , 31.8414154  , 823.5741    , 2.8         , 3           , 255         , 0           , 0
-0.183037609, -9.768588   , -0.06412588 , 0.000478622445, -0.000281523156, 0.000453434419, 1.5647732   , -0.0185256973, -7.957282E-05, 918.1666    , 31.8414154  , 823.5711    , 2.81        , 3           , 255         , 0           , 0
-0.180560544, -9.785592   , -0.06509637 , 0.0003165857, 0.000101929123, 0.0003110309, 1.56477642  , -0.0185288  , -7.853515E-05, 918.1666    , 31.8414154  , 823.571533  , 2.82        , 3           , 255         , 0           , 0
-0.1833129  , -9.820673   , -0.07172118 , 0.000461419346, -0.0005587058, 0.00055981247, 1.56478107  , -0.01853443 , -8.408867E-05, 918.165955  , 31.8436546  , 823.57196   , 2.83        , 3           , 255         , 0           , 0
-0.203210562, -9.83361    , -0.06240771 , 0.00136338361, -0.0004627761, 0.0008288522, 1.56479466  , -0.0185427479, -8.8666915E-05, 918.165955  , 31.8436546  , 823.5724    , 2.84        , 3           , 255         , 0           , 0
-0.193342149, -9.763976   , -0.04352157 , 0.00117511663, 0.000116766256, 0.000336448429, 1.56480646  , -0.0185461063, -8.747927E-05, 918.165955  , 31.8436546  , 823.5728    , 2.85        , 3           , 255         , 0           , 0
-0.1832996  , -9.768045   , -0.0572120547, 0.000176793314, 5.93426521E-05, 5.1734336E-05, 1.56480825  , -0.01854662 , -8.68831339E-05, 918.165955  , 31.8436546  , 823.573242  , 2.86        , 3           , 255         , 0           , 0
-0.1769337  , -9.808956   , -0.0456626564, 0.000640844053, 0.000214056985, 0.000385717751, 1.56481457  , -0.018550463, -8.47193E-05, 918.165955  , 31.8436546  , 823.573669  , 2.87        , 3           , 255         , 0           , 0
-0.180870786, -9.802595   , -0.0581816249, 0.000123086676, 0.000112155685, 0.000656751043, 1.56481576  , -0.018557027, -8.355681E-05, 918.165955  , 31.8436546  , 823.5741    , 2.88        , 3           , 255         , 0           , 0
-0.187120229, -9.805458   , -0.06027151 , 0.0004385488, -0.0001151606, 0.0001965351, 1.56482017  , -0.0185589977, -8.469789E-05, 918.165955  , 31.8436546  , 823.5745    , 2.89        , 3           , 255         , 0           , 0
-0.175838128, -9.811447   , -0.05406908 , 0.0006425533, 0.0002588415, 0.00107674906, 1.56482661  , -0.01856975 , -8.204411E-05, 918.165955  , 31.8436546  , 823.574951  , 2.9         , 3           , 255         , 0           , 0
-0.189759076, -9.771421   , -0.054118447, -0.000453561021, -0.000218979141, 0.00104422227, 1.56482291  , -0.0185850933, -8.418655E-05, 918.165955  , 31.8436546  , 823.572632  , 2.91        , 3           , 255         , 0           , 0
-0.18314293 , -9.774145   , -0.05505114 , -0.00067764736, -0.0003999456, 0.00015774116, 1.56481612  , -0.0185866971, -8.817516E-05, 918.165955  , 31.8436546  , 823.573059  , 2.92        , 3           , 255         , 0           , 0
-0.180984423, -9.798986   , -0.0508901961, -0.000441660231, -0.0002815596, 0.000156988914, 1.56481183  , -0.018588284, -9.09817245E-05, 918.144     , 31.84033    , 823.5735    , 2.93        , 3           , 255         , 0           , 0
-0.18769069 , -9.80381    , -0.0576467738, 0.00012606266, 0.000338926446, 0.0004847838, 1.564813    , -0.01859311 , -8.756225E-05, 918.144     , 31.84033    , 823.5739    , 2.94        , 3           , 255         , 0           , 0
-0.18047303 , -9.789077   , -0.0603657179, 0.000273432815, 0.00027205894, 0.000698895252, 1.56481564  , -0.018600082, -8.479949E-05, 918.144     , 31.84033    , 823.574341  , 2.95        , 3           , 255         , 0           , 0
-0.171428367, -9.785365   , -0.0628147945, -0.0003179813, 0.0005599477, 0.000246525946, 1.56481242  , -0.0186025128, -7.918451E-05, 918.144     , 31.84033    , 823.574768  , 2.96        , 3           , 255         , 0           , 0
-0.183541492, -9.795041   , -0.0544616953, -0.000198064314, -0.000127176114, 0.000388150831, 1.5648104   , -0.018606402, -8.04327E-05, 918.144     , 31.84033    , 823.5752    , 2.97        , 3           , 255         , 0           , 0
-0.186324671, -9.780151   , -0.064922   , -0.000394441, 0.000287670351, -0.000328655238, 1.56480646  , -0.0186030976, -7.757583E-05, 918.144     , 31.84033    , 823.5756    , 2.98        , 3           , 255         , 0           , 0
-0.1844022  , -9.80197    , -0.06549229 , -2.40115332E-05, 0.0003304227, 0.00034732846, 1.56480634  , -0.018606551, -7.42513657E-05, 918.144     , 31.84033    , 823.57605   , 2.99        , 3           , 255         , 0           , 0
-0.193770483, -9.795623   , -0.0643965453, 0.00033940727, 0.000300566084, 8.57307459E-05, 1.56480956  , -0.01860739 , -7.12408146E-05, 918.144     , 31.84033    , 823.5765    , 3           , 3           , 0           , 8.060237    , 300
-0.1997408  , -9.786001   , -0.0641944  , 0.000472958433, 4.50635562E-05, -0.000330948969, 1.56481314  , -0.0186094549, -7.078812E-05, 918.144     , 31.84033    , 823.604858  , 3.01        , 3           , 1           , 0           , 0
-0.180197686, -9.788257   , -0.0616282  , 0.000123210775, 7.79447146E-05, -2.60655E-06, 1.56481433  , -0.0186094251, -7.000847E-05, 918.144     , 31.84033    , 823.605469  , 3.02        , 3           , 2           , 0           , 0
-0.178662166, -9.793098   , -0.06541399 , -3.30959447E-05, 8.131459E-05, 0.000889423944, 1.564814    , -0.0186183117, -6.91412642E-05, 918.169739  , 31.8426361  , 823.6061    , 3.03        , 3           , 3           , 0           , 0
-0.167743757, -9.801585   , -0.06391675 , 0.000307902 , -0.0003067864, 4.139162E-05, 1.56481707  , -0.018618742, -7.22058539E-05, 918.169739  , 31.8426361  , 823.6067    , 3.04        , 3           , 4           , 0           , 0
-0.180782691, -9.800438   , -0.06730053 , 0.0007165634, -0.0003693588, -0.000215596883, 1.56482422  , -0.0186166074, -7.591222E-05, 918.169739  , 31.8426361  , 823.6073    , 3.05        , 3           , 5           , 0           , 0
-0.18010053 , -9.793202   , -0.0607839748, 0.0008660538, -2.52295868E-05, 0.000227802375, 1.56483293  , -0.01861889 , -7.615161E-05, 918.169739  , 31.8426361  , 823.6079    , 3.06        , 3           , 6           , 0           , 0
-0.18937169 , -9.797228   , -0.0597842857, 0.0006408137, 0.000494322041, -3.505607E-05, 1.56483924  , -0.0186185073, -7.121009E-05, 918.169739  , 31.8426361  , 823.6085    , 3.07        , 3           , 7           , 0           , 0
-0.179782733, -9.795656   , -0.06047399 , -0.000219493, -9.1033E-05 , 0.000750708336, 1.5648371   , -0.01862602 , -7.20754542E-05, 918.169739  , 31.8426361  , 823.609131  , 3.08        , 3           , 8           , 5           , 5
-0.186328247, -9.794657   , -0.0613473766, 0.000506149256, 0.000321216532, 0.000552304031, 1.5648421   , -0.0186315235, -6.883017E-05, 918.169739  , 31.8426361  , 823.609741  , 3.09        , 3           , 9           , 5           , 0.1
-0.18085286 , -9.803823   , -0.06619252 , 0.0005436905, -0.000294732046, -0.000294988073, 1.56484759  , -0.01862859 , -7.179416E-05, 918.169739  , 31.8426361  , 823.610352  , 3.1         , 3           , 10          , 0.1         , 0.1
-0.183025852, -9.807283   , -0.06606417 , 0.000626940862, 0.000449912244, -0.0008789132, 1.564846    , -0.0186197236, -6.72037859E-05, 918.169739  , 31.8426361  , 823.597534  , 3.11        , 3           , 11          , 0.00761357974, 0.007613572
-0.182068229, -9.798932   , -0.0682418048, 0.0007739348, 0.0006748606, -0.000753581349, 1.56485379  , -0.0186121482, -6.05008245E-05, 918.169739  , 31.8426361  , 823.5981    , 3.12        , 3           , 12          , 0.174645633 , 0
-0.181291416, -9.785845   , -0.06002251 , 0.000677221862, 0.00010312919, -0.0008042863, 1.56486046  , -0.0186041035, -5.95152924E-05, 918.1816    , 31.8436546  , 823.598633  , 3.13        , 3           , 13          , 0           , 0
-0.172998875, -9.7973     , -0.05352662 , 0.00120664667, -0.000512977829, -0.000319900049, 1.56487262  , -0.0186009333, -6.46645349E-05, 918.1816    , 31.8436546  , 823.5992    , 3.14        , 3           , 14          , -0.000812554033, -0.000843958929
-0.183392912, -9.79796    , -0.06255075 , 0.001003811 , -0.0004866789, -0.000649929338, 1.56488264  , -0.0185944643, -6.956972E-05, 918.1816    , 31.8436546  , 823.599731  , 3.15        , 3           , 15          , 0           , -5.79506268E-05
-0.17597276 , -9.803198   , -0.06952943 , 0.000966613938, -7.42268749E-05, -0.000176405432, 1.56489241  , -0.018592706, -7.032236E-05, 918.1816    , 31.8436546  , 823.6003    , 3.16        , 3           , 16          , 0           , 1.401298E-45
-0.183366656, -9.808409   , -0.06125324 , 0.000629154034, 8.036336E-05, 0.000160217649, 1.56489861  , -0.0185943041, -6.950917E-05, 918.1816    , 31.8436546  , 823.6008    , 3.17        , 3           , 20          , 0           , 0
-0.187332839, -9.793375   , -0.0614722669, 0.000517744 , -0.000128904067, -0.0005237953, 1.56490386  , -0.01858908 , -7.083001E-05, 918.1816    , 31.8436546  , 823.6014    , 3.18        , 3           , 21          , 0           , 0
-0.1789448  , -9.799466   , -0.06053973 , 0.000173600973, -4.93704574E-05, -0.000760518, 1.56490552  , -0.0185814761, -7.13684E-05, 918.1816    , 31.8436546  , 823.6019    , 3.19        , 3           , 22          , 0           , 0
-0.181252271, -9.8003     , -0.0541996248, 7.724378E-05, 9.67551E-06 , 0.000165454709, 1.56490636  , -0.01858313 , -7.12622059E-05, 918.1816    , 31.8436546  , 823.6025    , 3.2         , 3           , 40          , 0           , 0
-0.192075819, -9.799986   , -0.04880198 , 0.0005714897, 0.0002578561, -7.44097051E-05, 1.56490707  , -0.0185806155, -6.859351E-05, 918.1816    , 31.8436546  , 823.574036  , 3.21        , 3           , 41          , 0           , 0
-0.178367928, -9.788556   , -0.0508565679, 0.000298863044, 0.0003499862, -0.000122640864, 1.56491     , -0.01857937 , -6.51013761E-05, 918.1816    , 31.8436546  , 823.5744    , 3.22        , 3           , 42          , 0           , 0
-0.177370831, -9.780191   , -0.059630435, 0.000555742066, 1.3007666E-05, 0.000150867287, 1.56491554  , -0.0185808763, -6.49616559E-05, 918.1487    , 31.8458252  , 823.574768  , 3.23        , 3           , 255         , 0           , 0
-0.184696347, -9.798403   , -0.05602655 , 0.000744721 , -0.00030636345, 0.000513474 , 1.564923    , -0.0185860321, -6.7996436E-05, 918.1487    , 31.8458252  , 823.575134  , 3.24        , 3           , 255         , 0           , 0
-0.192041337, -9.797536   , -0.06453491 , 0.000798943744, 0.000201989547, -2.09099017E-06, 1.564931    , -0.0185859986, -6.597511E-05, 918.1487    , 31.8458252  , 823.5755    , 3.25        , 3           , 255         , 0           , 0
-0.186894029, -9.797865   , -0.0651988238, -0.000144666759, 0.0002459077, -0.000224127172, 1.56492949  , -0.0185837448, -6.35290344E-05, 918.1487    , 31.8458252  , 823.5759    , 3.26        , 3           , 255         , 0           , 0
-0.189635679, -9.799491   , -0.06170214 , 6.909686E-05, -0.000268247677, 0.000146496968, 1.5649302   , -0.0185852237, -6.62023958E-05, 918.1487    , 31.8458252  , 823.576355  , 3.27        , 3           , 255         , 0           , 0
-0.172260731, -9.795832   , -0.07048968 , 0.000177794835, -6.9734524E-05, 0.000215047912, 1.564932    , -0.01858738 , -6.688796E-05, 918.1487    , 31.8458252  , 823.5768    , 3.28        , 3           , 255         , 0           , 0
-0.165954322, -9.791852   , -0.0602034926, 0.000590897747, 0.000171587162, 0.000153881541, 1.564938    , -0.01858891 , -6.516193E-05, 918.1487    , 31.8458252  , 823.5772    , 3.29        , 3           , 255         , 0           , 0
-0.1655665  , -9.78943348 , -0.0608126223, 0.000257883861, 0.000542879454, 0.0006698615, 1.56494045  , -0.0185955726, -5.969413E-05, 918.1487    , 31.8458252  , 823.577637  , 3.3         , 3           , 255         , 0           , 0
-0.176239341, -9.798616   , -0.05625259 , 0.000363687053, 0.000214718457, 0.00018460209, 1.56493986  , -0.0185945947, -5.7458572E-05, 918.1487    , 31.8458252  , 823.599365  , 3.31        , 3           , 255         , 0           , 0
-0.183705717, -9.798427   , -0.0613431856, 0.000395683339, 0.000420857861, -0.000125634047, 1.56494379  , -0.018593315, -5.32575723E-05, 918.1487    , 31.8458252  , 823.5999    , 3.32        , 3           , 255         , 0           , 0
-0.188462034, -9.789625   , -0.05893468 , 0.0007224151, 1.51546556E-05, -0.00010991728, 1.56495106  , -0.0185922142, -5.31131955E-05, 918.114     , 31.843586   , 823.600464  , 3.33        , 3           , 255         , 0           , 0
-0.192542821, -9.811303   , -0.0592294931, 0.000304978515, -0.000343019841, 7.179359E-05, 1.56495416  , -0.0185929518, -5.65382652E-05, 918.114     , 31.843586   , 823.601     , 3.34        , 3           , 255         , 0           , 0
-0.226559371, -9.835267   , -0.07123418 , 0.0007712287, -0.000138026546, 0.000825097668, 1.56496191  , -0.0186012127, -5.78712243E-05, 918.114     , 31.843586   , 823.601563  , 3.35        , 3           , 255         , 0           , 0
-0.193068117, -9.740491   , -0.05644297 , 0.000936819 , 3.469811E-05, -7.441697E-05, 1.56497121  , -0.0186004676, -5.752843E-05, 918.114     , 31.843586   , 823.6021    , 3.36        , 3           , 255         , 0           , 0
-0.140287876, -9.735327   , -0.0668398142, -0.00151722133, -0.000293609337, -0.00161383441, 1.56495607  , -0.0185843445, -6.0557606E-05, 918.114     , 31.843586   , 823.602661  , 3.37        , 3           , 255         , 0           , 0
-0.158670545, -9.875196   , -0.07572361 , -0.000487982, -8.079596E-05, 0.0002608487, 1.56495118  , -0.0185869578, -6.13503E-05, 918.114     , 31.843586   , 823.6032    , 3.38        , 3           , 255         , 0           , 0
-0.183604   , -9.78889751 , -0.0410706475, 0.00120224478, -0.000214880216, 0.000815778447, 1.56496322  , -0.0185951255, -6.34517346E-05, 918.114     , 31.843586   , 823.60376   , 3.39        , 3           , 255         , 0           , 0
-0.19437924 , -9.737763   , -0.037425898, -0.0006959121, -8.11283244E-05, -0.00163799524, 1.56495643  , -0.0185787529, -6.435898E-05, 918.114     , 31.843586   , 823.6043    , 3.4         , 3           , 255         , 0           , 0
-0.182121471, -9.8842535  , -0.07447581 , 0.0005058317, 7.55706E-05 , -0.000289388932, 1.56495881  , -0.0185793545, -6.357002E-05, 918.114     , 31.843586   , 823.671448  , 3.41        , 3           , 255         , 0           , 0
-0.17925714 , -9.768347   , -0.0536738932, 0.00170898577, -0.0003817337, 0.00172101741, 1.56497586  , -0.0185965877, -6.728665E-05, 918.114     , 31.843586   , 823.6724    , 3.42        , 3           , 255         , 0           , 0
-0.208195955, -9.68623352 , -0.04596168 , -0.001352862, 0.0001452202, 0.000101546306, 1.56496239  , -0.0185975973, -6.582981E-05, 918.177551  , 31.845417   , 823.6734    , 3.43        , 3           , 255         , 0           , 0
-0.161797   , -9.860295   , -0.08216958 , -0.0003687176, 0.000432818226, -0.000302198, 1.56495869  , -0.01859455 , -6.15189E-05, 918.177551  , 31.845417   , 823.6744    , 3.44        , 3           , 255         , 0           , 0
-0.159422144, -9.844104   , -0.0736134052, 0.00153403485, -0.0002482264, 0.0005911238, 1.56497407  , -0.018600475, -6.396685E-05, 918.177551  , 31.845417   , 823.675354  , 3.45        , 3           , 255         , 0           , 0
-0.17415373 , -9.747371   , -0.03831409 , 0.00169011275, 0.000238706649, 0.000179079361, 1.56499088  , -0.01860225 , -6.156922E-05, 918.177551  , 31.845417   , 823.676331  , 3.46        , 3           , 255         , 0           , 0
-0.15760693 , -9.771232   , -0.0334625468, -0.000479389681, 0.000184700242, -0.00116836128, 1.56498611  , -0.0185905565, -5.97891449E-05, 918.177551  , 31.845417   , 823.6773    , 3.47        , 3           , 255         , 0           , 0
-0.178345516, -9.812097   , -0.038326215, -0.0008219789, -9.103009E-05, -0.0006259436, 1.56497788  , -0.0185843036, -6.07364527E-05, 918.177551  , 31.845417   , 823.6783    , 3.48        , 3           , 255         , 0           , 0
-0.19747588 , -9.778721   , -0.03395408 , -0.0007133777, -0.000120430079, 0.000526943 , 1.56497073  , -0.0185895823, -6.191013E-05, 918.177551  , 31.845417   , 823.67926   , 3.49        , 3           , 255         , 0           , 0
-0.186361879, -9.776873   , -0.0417820476, -0.000906012, 0.000480905146, -0.0002974691, 1.56496167  , -0.0185865816, -5.71195E-05, 918.177551  , 31.845417   , 823.680237  , 3.5         , 3           , 255         , 0           , 0
-0.176501125, -9.851683   , -0.06607965 , 0.000167938531, 0.000150288688, -0.000633323449, 1.56497347  , -0.0185734238, -5.58414868E-05, 918.177551  , 31.845417   , 823.645935  , 3.51        , 3           , 255         , 0           , 0
-0.184521347, -9.802963   , -0.0612204745, 0.00160348439, 0.00045086263, 7.682557E-05, 1.56498945  , -0.0185741689, -5.132939E-05, 918.177551  , 31.845417   , 823.6467    , 3.52        , 3           , 255         , 0           , 0
-0.189658061, -9.753743   , -0.0553083941, 0.001005114 , 0.0003613981, 0.00051777903, 1.56499946  , -0.0185793228, -4.76854329E-05, 918.1052    , 31.8437214  , 823.6475    , 3.53        , 3           , 255         , 0           , 0
-0.187807173, -9.79996    , -0.0589949  , 0.0007596274, 0.000249693345, 0.00071237766, 1.56500709  , -0.0185864363, -4.514621E-05, 918.1052    , 31.8437214  , 823.6483    , 3.54        , 3           , 255         , 0           , 0
-0.182270721, -9.816938   , -0.07056405 , 0.00105751469, -0.000139716489, 0.000234485589, 1.5650177   , -0.0185887888, -4.65313278E-05, 918.1052    , 31.8437214  , 823.6491    , 3.55        , 3           , 255         , 0           , 0
-0.188610643, -9.788496   , -0.0662342161, 0.0009020087, 2.3467117E-05, 0.000308570045, 1.56502664  , -0.0185918733, -4.62788958E-05, 918.1052    , 31.8437214  , 823.6499    , 3.56        , 3           , 255         , 0           , 0
-0.172727555, -9.773887   , -0.06756301 , -0.000444844656, -0.000104994979, -0.0008231668, 1.56502235  , -0.0185836479, -4.73761756E-05, 918.1052    , 31.8437214  , 823.6507    , 3.57        , 3           , 255         , 0           , 0
-0.175975889, -9.792811   , -0.07653143 , -0.000578525534, 7.821375E-05, 0.0002311894, 1.56501663  , -0.0185859539, -4.65816229E-05, 918.1052    , 31.8437214  , 823.6515    , 3.58        , 3           , 255         , 0           , 0
-0.176210552, -9.793747   , -0.07385714 , -8.572417E-06, 0.0004189444, 0.0009212423, 1.56501639  , -0.0185951423, -4.233873E-05, 918.1052    , 31.8437214  , 823.6523    , 3.59        , 3           , 255         , 0           , 0
-0.198619   , -9.778113   , -0.07523643 , -6.176141E-05, -0.000383306935, 0.0003825101, 1.56501567  , -0.0185989924, -4.61494274E-05, 918.1052    , 31.8437214  , 823.6531    , 3.6         , 3           , 255         , 0           , 0
-0.188448161, -9.824113   , -0.08187912 , -0.000152803434, -0.000788891339, 0.000324327761, 1.56499791  , -0.018604137, -5.371495E-05, 918.1052    , 31.8437214  , 823.725647  , 3.61        , 3           , 255         , 0           , 0
-0.196951658, -9.825988   , -0.0782569945, 0.0009811018, -0.000465728, 0.000172836357, 1.56500781  , -0.0186058935, -5.83621259E-05, 918.1052    , 31.8437214  , 823.726868  , 3.62        , 3           , 255         , 0           , 0
-0.194838718, -9.760445   , -0.06183114 , 0.0003879818, -0.0006032486, -0.000346623827, 1.56501162  , -0.0186024681, -6.44149E-05, 918.169861  , 31.8452816  , 823.7281    , 3.63        , 3           , 255         , 0           , 0
-0.178326637, -9.784047   , -0.0559384525, -0.000678618439, -0.000456584734, -0.0006533542, 1.565005    , -0.0185959619, -6.902014E-05, 918.169861  , 31.8452816  , 823.7293    , 3.64        , 3           , 255         , 0           , 0
-0.148392469, -9.825876   , -0.07510834 , 6.02295622E-05, -0.000310965115, 0.000143522033, 1.56500566  , -0.0185974166, -7.212106E-05, 918.169861  , 31.8452816  , 823.7306    , 3.65        , 3           , 255         , 0           , 0
-0.18793875 , -9.823209   , -0.07866405 , 0.00148780656, -0.000237379572, -3.01564687E-05, 1.56502068  , -0.01859713 , -7.44981953E-05, 918.169861  , 31.8452816  , 823.7319    , 3.66        , 3           , 255         , 0           , 0
-0.202619582, -9.774916   , -0.06884656 , 0.00195606612, -0.00021193875, 0.0003160178, 1.56504023  , -0.0186003037, -7.65987E-05, 918.169861  , 31.8452816  , 823.733154  , 3.67        , 3           , 255         , 0           , 0
-0.183912069, -9.78345    , -0.0595093  , 0.000628659269, 0.000276784471, 4.38086354E-05, 1.56504643  , -0.0186007246, -7.382754E-05, 918.169861  , 31.8452816  , 823.734436  , 3.68        , 3           , 255         , 0           , 0
-0.1748695  , -9.783763   , -0.048439905, 0.0005254031, 7.431867E-05, 0.000973682 , 1.56505167  , -0.018610457, -7.302834E-05, 918.169861  , 31.8452816  , 823.7357    , 3.69        , 3           , 255         , 0           , 0
-0.163339242, -9.775282   , -0.0370983966, 0.000749227358, -0.0002124809, 0.0007208194, 1.56505919  , -0.0186176784, -7.51111438E-05, 918.169861  , 31.8452816  , 823.737     , 3.7         , 3           , 255         , 0           , 0
-0.156202555, -9.817434   , -0.0448217578, 0.0006262242, 0.000316510967, -0.000891349, 1.56505382  , -0.0186084  , -7.17848E-05, 918.169861  , 31.8452816  , 823.7056    , 3.71        , 3           , 255         , 0           , 0
