Acc X       , Acc Y       , Acc Z       , Gyro X      , Gyro Y      , Gyro Z      , Euler X     , Euler Y     , Euler Z     , Pres X      , Pres Y      , Pres Z      , Time        , Status      , LowRate X   , LowRate Y   , LowRate Z    
-0.188429862, -0.04603487 , -9.786847   , 0           , 0           , 0           , 0.004703714 , -0.0192507859, 1.84071958  , 918.7254    , 31.3117046  , 818.508667  , 0           , 2           , 0           , 5.05423164  , 0
-0.184536621, -0.04586934 , -9.783197   , 0.000134199392, -0.000280662731, -8.269314E-05, 0.004705013 , -0.0192540232, 1.84071851  , 918.7254    , 31.3117046  , 818.508667  , 0.01        , 7           , 1           , 0           , 0
-0.186330244, -0.0461232066, -9.786964   , -6.45659748E-06, -3.550609E-05, -0.0008600079, 0.00470511336, -0.019254338, 1.84070992  , 918.7254    , 31.3117046  , 818.508667  , 0.02        , 7           , 2           , 0           , 0
-0.191965327, -0.043784678, -9.787764   , 0.000422283745, -1.1278491E-05, 0.000819595356, 0.00470917951, -0.01925449 , 1.84071815  , 918.6587    , 30.87955    , 818.508667  , 0.03        , 7           , 3           , 0           , 0
-0.193437278, -0.04272392 , -9.789002   , 0.000152949011, 0.0003159831, 0.000728798 , 0.00471056765, -0.0192513689, 1.84072542  , 918.6587    , 30.87955    , 818.508667  , 0.04        , 7           , 4           , 0           , 0
-0.200223133, -0.0423786  , -9.796993   , -0.000136544957, 0.000188427133, 0.0004649156, 0.00470911153, -0.0192495026, 1.84073019  , 918.6587    , 30.87955    , 818.508667  , 0.05        , 7           , 5           , 0           , 0
-0.189998433, -0.0449505039, -9.78935051 , 0.000396480231, -0.000118960044, 0.00081016944, 0.004712922 , -0.01925073 , 1.8407383   , 918.6587    , 30.87955    , 818.508667  , 0.06        , 7           , 6           , 0           , 0
-0.188571051, -0.0442609526, -9.798327   , 0.000470478 , -0.000330201321, -0.0001662564, 0.004717659 , -0.0192540251, 1.84073651  , 918.6587    , 30.87955    , 818.508667  , 0.07        , 7           , 7           , 0           , 0
-0.199457213, -0.03132834 , -9.801061   , 0.000368961861, -0.000150850508, 0.0006011191, 0.00472123362, -0.0192555618, 1.84074247  , 918.6587    , 30.87955    , 818.508667  , 0.08        , 7           , 8           , 5           , 5
-0.191449016, -0.0418719947, -9.804169   , 0.0001391321, -0.0005810481, -0.000286134949, 0.0047226795, -0.0192613564, 1.84073961  , 918.6587    , 30.87955    , 818.508667  , 0.09        , 7           , 9           , 5           , 0.1
-0.185016066, -0.03915467 , -9.803064   , -0.000109004177, 0.000310392381, -0.000234798179, 0.00472163549, -0.0192582421, 1.84073722  , 918.6587    , 30.87955    , 818.508667  , 0.1         , 7           , 10          , 0.1         , 0.1
-0.184796184, -0.04661852 , -9.798119   , -0.000115351548, 0.000371334085, 0.000291116332, 0.004706068 , -0.0192639269, 1.84074044  , 918.6587    , 30.87955    , 819.111267  , 0.11        , 7           , 11          , 0.0109544508, 0.0109544508
-0.189762264, -0.0482157655, -9.792127   , -0.000396298623, 0.000848770665, 0.000518425251, 0.00470200367, -0.0192554649, 1.84074593  , 918.6587    , 30.87955    , 819.111267  , 0.12        , 7           , 12          , 0.0346410163, 0
-0.184139162, -0.0486327447, -9.803382   , 0.000191426516, 0.000254397921, 0.000137261668, 0.0047038896, -0.019252928, 1.84074724  , 918.6686    , 30.9151688  , 819.111267  , 0.13        , 7           , 13          , 0           , 0
-0.182966679, -0.0454902351, -9.794721   , 6.561895E-06, -0.000260100467, 6.971693E-05, 0.004703942 , -0.01925553 , 1.840748    , 918.6686    , 30.9151688  , 819.111267  , 0.14        , 7           , 14          , -0.0003628316, 0.000383950362
-0.183179632, -0.04473991 , -9.798025   , 8.188735E-05, -0.000205246062, -8.726081E-05, 0.00470477948, -0.0192575771, 1.84074688  , 918.6686    , 30.9151688  , 819.111267  , 0.15        , 7           , 15          , 0           , 0.000125965074
-0.1855652  , -0.0439351  , -9.792926   , -0.000139572861, 0.000128936314, -0.000286439434, 0.004703437 , -0.0192562751, 1.84074414  , 918.6686    , 30.9151688  , 819.111267  , 0.16        , 7           , 16          , 0           , 1.401298E-45
-0.18520987 , -0.0406876132, -9.799016   , 0.000206882425, -1.70487911E-05, -0.0003127021, 0.00470556645, -0.01925643 , 1.84074092  , 918.6686    , 30.9151688  , 819.1113    , 0.17        , 7           , 20          , 0           , 0
-0.188030615, -0.04571094 , -9.798017   , 0.000440963049, -0.000182810647, 0.000271327735, 0.00470992364, -0.01925827 , 1.84074366  , 918.6686    , 30.9151688  , 819.1114    , 0.18        , 7           , 21          , 0           , 0
-0.1840066  , -0.0530171581, -9.795626   , 5.33355051E-05, 1.54628651E-05, 4.7044683E-05, 0.004710449 , -0.0192581173, 1.840744    , 918.6686    , 30.9151688  , 819.11145   , 0.19        , 7           , 22          , 0           , 0
-0.179426372, -0.0437849835, -9.79093552 , -0.000612135162, 0.000373502146, 5.04023628E-05, 0.00470431661, -0.0192543846, 1.84074473  , 918.6686    , 30.9151688  , 819.1115    , 0.2         , 7           , 40          , 0           , 0
-0.1814688  , -0.0462068431, -9.79797649 , -9.17204E-05, 0.00026024488, 0.000324966852, 0.00470332336, -0.0192393437, 1.84074807  , 918.6686    , 30.9151688  , 819.0666    , 0.21        , 7           , 41          , 0           , 0
-0.180558354, -0.0478221849, -9.79841    , -0.000428830652, -1.13397837E-05, 9.491385E-06, 0.00469903229, -0.0192394573, 1.84074819  , 918.6686    , 30.9151688  , 819.06665   , 0.22        , 7           , 42          , 1           , 0
-0.178098843, -0.0502590723, -9.796434   , -2.75333587E-05, 0.000125773717, -9.859112E-05, 0.00469877664, -0.0192381945, 1.84074712  , 918.6487    , 30.94468    , 819.0667    , 0.23        , 7           , 255         , 0           , 0
-0.18152687 , -0.053560216, -9.792661   , -0.000176506612, -0.000254616665, 0.000359204249, 0.004696943 , -0.0192407575, 1.84075081  , 918.6487    , 30.94468    , 819.0668    , 0.24        , 7           , 255         , 0           , 0
-0.183120474, -0.049738355, -9.78999    , -0.0003866804, -0.000141310855, -0.0005370126, 0.00469317939, -0.0192421488, 1.84074545  , 918.6487    , 30.94468    , 819.066833  , 0.25        , 7           , 255         , 0           , 0
-0.197182357, -0.0522886626, -9.794271   , 4.64346376E-05, 0.000401457131, -4.80945819E-05, 0.00469365343, -0.01923813 , 1.840745    , 918.6487    , 30.94468    , 819.0669    , 0.26        , 7           , 255         , 0           , 0
-0.192427829, -0.0423402973, -9.794151   , 0.000266948249, -0.000255050079, 0.0001742546, 0.004696289 , -0.0192406867, 1.84074676  , 918.6487    , 30.94468    , 819.066956  , 0.27        , 7           , 255         , 0           , 0
-0.1874936  , -0.0476198979, -9.791648   , -0.000190970808, 0.000235877291, 0.00054816663, 0.00469427276, -0.0192383546, 1.84075236  , 918.6487    , 30.94468    , 819.067     , 0.28        , 7           , 255         , 0           , 0
-0.179687455, -0.044010032, -9.79885    , -0.000185898069, 0.000615784666, -0.0006274034, 0.00469253259, -0.0192321669, 1.84074616  , 918.6487    , 30.94468    , 819.0671    , 0.29        , 7           , 255         , 0           , 0
-0.186506838, -0.0528255  , -9.799428   , -0.000563037, 0.000221557275, -0.000305809983, 0.00468695862, -0.01922994 , 1.84074318  , 918.6487    , 30.94468    , 819.067139  , 0.3         , 7           , 255         , 0           , 0
-0.19474645 , -0.0487383381, -9.793286   , -9.269666E-05, 0.00028868852, -0.000293392281, 0.004694684 , -0.0192151889, 1.84074008  , 918.6487    , 30.94468    , 819.1123    , 0.31        , 7           , 255         , 0           , 0
-0.194291934, -0.04036789 , -9.795963   , -0.000220239686, -9.53204E-05, 0.0005139736, 0.004692382 , -0.0192161668, 1.84074521  , 918.6487    , 30.94468    , 819.112366  , 0.32        , 7           , 255         , 0           , 0
-0.195081323, -0.04346151 , -9.792494   , 0.000241548216, -0.0001164297, 0.000610656047, 0.00469467975, -0.019217357, 1.84075141  , 918.70636   , 30.96069    , 819.1124    , 0.33        , 7           , 255         , 0           , 0
-0.1977656  , -0.040354453, -9.795044   , 0.000672738242, -0.000216072673, -0.000271209865, 0.00470146  , -0.0192195084, 1.84074879  , 918.70636   , 30.96069    , 819.1125    , 0.34        , 7           , 255         , 0           , 0
-0.189516738, -0.04489554 , -9.797509   , -0.00013402896, 3.36935045E-05, -0.000203952572, 0.00470015733, -0.0192191582, 1.84074664  , 918.70636   , 30.96069    , 819.112549  , 0.35        , 7           , 255         , 0           , 0
-0.195863545, -0.04056234 , -9.792616   , -0.0002450578, 0.0005459228, 0.000118062206, 0.004697683 , -0.0192137044, 1.84074783  , 918.70636   , 30.96069    , 819.1126    , 0.36        , 7           , 255         , 0           , 0
-0.188911036, -0.0416156128, -9.792523   , 0.0004802878, 0.000256672734, -0.000112515983, 0.00470250659, -0.01921113 , 1.84074676  , 918.70636   , 30.96069    , 819.1127    , 0.37        , 7           , 255         , 0           , 0
-0.187114954, -0.0365912244, -9.794469   , 0.0002693627, -3.439287E-05, 0.000245867763, 0.004705153 , -0.0192114841, 1.84074914  , 918.70636   , 30.96069    , 819.112732  , 0.38        , 7           , 255         , 0           , 0
-0.18528831 , -0.0383404568, -9.79273    , -0.000200994778, 0.000155619811, -0.000422793149, 0.004703225 , -0.0192099083, 1.84074509  , 918.70636   , 30.96069    , 819.1128    , 0.39        , 7           , 255         , 0           , 0
-0.179139823, -0.0502599962, -9.79645    , -0.0001455766, 0.000167238992, 0.000370628841, 0.00470169634, -0.0192082524, 1.84074879  , 918.70636   , 30.96069    , 819.112854  , 0.4         , 7           , 255         , 0           , 0
-0.190904185, -0.0550289154, -9.796578   , -0.000152272289, -0.0005102701, -9.83694044E-05, 0.00468858844, -0.01922161 , 1.84074819  , 918.70636   , 30.96069    , 819.003357  , 0.41        , 7           , 255         , 0           , 0
-0.190824613, -0.0551288351, -9.802004   , 0.000387825159, 1.97494519E-05, -3.530293E-05, 0.00469247531, -0.019221412, 1.84074771  , 918.70636   , 30.96069    , 819.0034    , 0.42        , 7           , 255         , 0           , 0
-0.1842328  , -0.0538162068, -9.80456352 , 0.000506823533, 0.000307109323, 0.000412768568, 0.004697463 , -0.01921836 , 1.84075189  , 918.646362  , 30.9705276  , 819.0035    , 0.43        , 7           , 255         , 0           , 0
-0.183072656, -0.0446801335, -9.799866   , -0.0002479796, 0.0005930774, 0.000837792351, 0.00469482038, -0.01921247 , 1.84076047  , 918.646362  , 30.9705276  , 819.00354   , 0.44        , 7           , 255         , 0           , 0
-0.184895366, -0.0545631424, -9.794493   , -0.000408019463, 0.00041194103, 0.000670932757, 0.004690611 , -0.019208381, 1.84076726  , 918.646362  , 30.9705276  , 819.0036    , 0.45        , 7           , 255         , 0           , 0
-0.184902385, -0.051191438, -9.78922749 , 0.000134844478, -3.130702E-05, 0.000462101016, 0.00469187042, -0.0192087181, 1.84077191  , 918.646362  , 30.9705276  , 819.003662  , 0.46        , 7           , 255         , 0           , 0
-0.171106666, -0.05597816 , -9.796147   , 4.56579437E-05, 0.000159979332, 6.06356043E-05, 0.00469231466, -0.01920712 , 1.84077239  , 918.646362  , 30.9705276  , 819.0037    , 0.47        , 7           , 255         , 0           , 0
-0.168334037, -0.0424541719, -9.800103   , -0.0003552207, 0.0003405115, -0.000300089217, 0.00468882  , -0.0192037  , 1.84076953  , 918.646362  , 30.9705276  , 819.0038    , 0.48        , 7           , 255         , 0           , 0
-0.172544733, -0.0394529477, -9.788509   , 3.27165471E-05, -0.000171571737, -0.0002523163, 0.004689195 , -0.0192054  , 1.840767    , 918.646362  , 30.9705276  , 819.003845  , 0.49        , 7           , 255         , 0           , 0
-0.182376266, -0.04583635 , -9.789037   , 7.256141E-05, -0.000334208249, 0.0006165265, 0.004689803 , -0.0192087721, 1.84077311  , 918.646362  , 30.9705276  , 819.0039    , 0.5         , 7           , 255         , 0           , 0
-0.189814329, -0.04424275 , -9.789944   , 0.000115996663, 0.000107901316, -2.14116881E-06, 0.004702158 , -0.0191876646, 1.84077287  , 918.646362  , 30.9705276  , 819.0491    , 0.51        , 7           , 255         , 0           , 0
-0.1969545  , -0.0484835878, -9.791662   , 0.0001119661, 0.000112621317, 3.06599977E-05, 0.00470327167, -0.0191865414, 1.84077311  , 918.646362  , 30.9705276  , 819.0492    , 0.52        , 7           , 255         , 0           , 0
-0.181792751, -0.0438751355, -9.793271   , 0.000246767158, 0.0002817301, -3.494117E-05, 0.004705744 , -0.0191837214, 1.84077287  , 918.6773    , 30.9768372  , 819.0493    , 0.53        , 7           , 255         , 0           , 0
-0.1926736  , -0.05017538 , -9.789652   , 3.586017E-05, 0.000376318436, 0.000411584973, 0.00470602373, -0.0191799775, 1.840777    , 918.6773    , 30.9768372  , 819.049438  , 0.54        , 7           , 255         , 0           , 0
-0.190510347, -0.0427895747, -9.800568   , 0.0001664315, -0.000278345164, -0.0005769645, 0.00470779836, -0.01918273 , 1.8407712   , 918.6773    , 30.9768372  , 819.049561  , 0.55        , 7           , 255         , 0           , 0
-0.186905175, -0.0479669  , -9.794289   , 0.000464110053, -0.000198758877, 0.0001307481, 0.00471241446, -0.0191847254, 1.84077251  , 918.6773    , 30.9768372  , 819.0497    , 0.56        , 7           , 255         , 0           , 0
-0.199365228, -0.0486419275, -9.796916   , 4.20336146E-05, -0.000205538789, -0.0002927592, 0.0047128913, -0.0191867687, 1.84076953  , 918.6773    , 30.9768372  , 819.0498    , 0.57        , 7           , 255         , 0           , 0
-0.186691254, -0.04688117 , -9.797799   , 0.000113466755, -3.673893E-05, -0.000104730541, 0.004714046 , -0.01918713 , 1.84076846  , 918.6773    , 30.9768372  , 819.0499    , 0.58        , 7           , 255         , 0           , 0
-0.1906167  , -0.04778972 , -9.791807   , 0.000263969385, -9.50587855E-05, -0.000513098261, 0.00471678376, -0.019188052, 1.84076333  , 918.6773    , 30.9768372  , 819.050049  , 0.59        , 7           , 255         , 0           , 0
-0.196243852, -0.0472046  , -9.789693   , 0.000125609775, 0.0001761849, -0.000135026727, 0.00471806526, -0.0191862881, 1.8407619   , 918.6773    , 30.9768372  , 819.0502    , 0.6         , 7           , 255         , 0           , 0
-0.189027935, -0.0451573841, -9.787792   , 0.000114849361, 3.62063874E-05, -0.00024111697, 0.004721548 , -0.0191965383, 1.84075963  , 918.6773    , 30.9768372  , 819.0316    , 0.61        , 7           , 255         , 0           , 0
-0.183642834, -0.05094751 , -9.798502   , 0.000181990457, 8.731164E-05, 0.0003180874, 0.004723307 , -0.0191956814, 1.84076273  , 918.6773    , 30.9768372  , 819.031738  , 0.62        , 7           , 255         , 0           , 0
-0.1814356  , -0.0562342927, -9.793799   , 0.0003693388, -7.315498E-05, 6.360868E-05, 0.00472699059, -0.0191964172, 1.84076333  , 918.6855    , 30.9840965  , 819.03186   , 0.63        , 7           , 255         , 0           , 0
-0.187165722, -0.05259599 , -9.802752   , 0.000200381881, 3.56225355E-05, 0.000148205392, 0.00472896546, -0.0191960689, 1.84076476  , 918.6855    , 30.9840965  , 819.032     , 0.64        , 7           , 255         , 0           , 0
-0.17565152 , -0.0466628037, -9.790822   , -0.000221679162, 0.000332566968, -0.000205377233, 0.004726786 , -0.0191927329, 1.84076285  , 918.6855    , 30.9840965  , 819.0321    , 0.65        , 7           , 255         , 0           , 0
-0.182752177, -0.05393166 , -9.784594   , -0.000163933728, 0.000152204244, 7.08152656E-05, 0.004725134 , -0.019191213, 1.84076357  , 918.6855    , 30.9840965  , 819.0322    , 0.66        , 7           , 255         , 0           , 0
-0.1879708  , -0.05996306 , -9.791319   , -0.0002484814, -0.000169167586, -0.000461645832, 0.004722739 , -0.0191928837, 1.84075892  , 918.6855    , 30.9840965  , 819.032349  , 0.67        , 7           , 255         , 0           , 0
-0.185171962, -0.0455749035, -9.799564   , -0.000252535625, -0.000109701941, 0.000275662751, 0.00472016027, -0.0191939957, 1.84076166  , 918.6855    , 30.9840965  , 819.0325    , 0.68        , 7           , 255         , 0           , 0
-0.184581071, -0.054341007, -9.802669   , -2.6207359E-05, -0.00034110315, 0.000330276438, 0.004719834 , -0.0191974174, 1.840765    , 918.6855    , 30.9840965  , 819.0326    , 0.69        , 7           , 255         , 0           , 0
-0.181972712, -0.05547465 , -9.792886   , 5.9010752E-05, -0.000458890951, 0.000569595839, 0.00472031534, -0.0192020368, 1.84077072  , 918.6855    , 30.9840965  , 819.0327    , 0.7         , 7           , 255         , 0           , 0
-0.177713469, -0.04339822 , -9.797256   , 0.0005739717, 7.320149E-05, 0.0004388613, 0.00474329852, -0.019189097, 1.84077477  , 918.6855    , 30.9840965  , 819.0078    , 0.71        , 7           , 255         , 0           , 0
-0.191960365, -0.03671233 , -9.792059   , 0.0008496372, 0.0007129012, 0.000447260129, 0.0047517065, -0.0191819929, 1.84077942  , 918.6855    , 30.9840965  , 819.007935  , 0.72        , 7           , 255         , 0           , 0
-0.1906002  , -0.03455854 , -9.790369   , 0.00036508328, 0.000418639334, 0.000338056678, 0.004755292 , -0.01917782 , 1.84078288  , 918.688965  , 30.9910831  , 819.008057  , 0.73        , 7           , 255         , 0           , 0
-0.1868489  , -0.0427833237, -9.793181   , 0.0009463602, -0.0003562809, -0.000310856616, 0.00476481533, -0.0191813689, 1.84077978  , 918.688965  , 30.9910831  , 819.0082    , 0.74        , 7           , 255         , 0           , 0
-0.195442945, -0.0377291851, -9.78739    , 0.0003620482, 0.000354463642, -0.000417401141, 0.0047685164, -0.0191778038, 1.84077561  , 918.688965  , 30.9910831  , 819.0083    , 0.75        , 7           , 255         , 0           , 0
-0.195365772, -0.0482666977, -9.788081   , -0.0005113216, 7.94541E-05 , 0.000142582256, 0.00476337643, -0.0191770159, 1.84077716  , 918.688965  , 30.9910831  , 819.0084    , 0.76        , 7           , 255         , 0           , 0
-0.1935963  , -0.0490511581, -9.794273   , -7.52817141E-06, -0.000458488066, 2.21429509E-05, 0.00476329867, -0.0191816036, 1.84077728  , 918.688965  , 30.9910831  , 819.008545  , 0.77        , 7           , 255         , 0           , 0
-0.199967772, -0.04926499 , -9.79262352 , -0.000240984111, -0.000313773431, -0.00055136357, 0.004760996 , -0.0191847179, 1.84077179  , 918.688965  , 30.9910831  , 819.008667  , 0.78        , 7           , 255         , 0           , 0
-0.1942782  , -0.0480932072, -9.799269   , -2.03467789E-05, -0.000278792577, 9.959658E-05, 0.004760774 , -0.01918751 , 1.84077287  , 918.688965  , 30.9910831  , 819.0088    , 0.79        , 7           , 255         , 0           , 0
-0.188451648, -0.04148312 , -9.802187   , 0.000131014735, 0.0002625782, 0.000159586663, 0.004762053 , -0.019184893, 1.84077442  , 918.688965  , 30.9910831  , 819.0089    , 0.8         , 7           , 255         , 0           , 0
-0.178158373, -0.04908532 , -9.79775    , 6.750401E-05, 3.48272151E-05, 7.808037E-05, 0.00475190533, -0.01919538 , 1.84077561  , 918.688965  , 30.9910831  , 818.985657  , 0.81        , 7           , 255         , 0           , 0
-0.187062487, -0.0436303541, -9.7970295  , -0.000472334883, 0.000102985272, -0.000224606585, 0.004747224 , -0.01919434 , 1.84077334  , 918.688965  , 30.9910831  , 818.9858    , 0.82        , 7           , 255         , 0           , 0
-0.191281721, -0.0438919775, -9.789456   , -0.000143750425, 0.0002447671, -0.0002921996, 0.004745844 , -0.0191918779, 1.84077036  , 918.6945    , 30.9888439  , 818.9859    , 0.83        , 7           , 255         , 0           , 0
-0.196461841, -0.0439043753, -9.794609   , 0.000122118232, 0.000204306853, 0.0003498674, 0.00474699726, -0.0191898532, 1.84077382  , 918.6945    , 30.9888439  , 818.986     , 0.84        , 7           , 255         , 0           , 0
-0.188083529, -0.0539977849, -9.790768   , 0.00114493258, 0.000559219334, 0.000393525173, 0.004758371 , -0.0191842783, 1.84077787  , 918.6945    , 30.9888439  , 818.986145  , 0.85        , 7           , 255         , 0           , 0
-0.190821856, -0.05635494 , -9.793571   , 0.0005104068, 0.000178091519, 0.0001713997, 0.004763442 , -0.0191825051, 1.84077954  , 918.6945    , 30.9888439  , 818.986267  , 0.86        , 7           , 255         , 0           , 0
-0.186944157, -0.050155323, -9.787865   , -0.000181987445, -1.36245217E-05, 0.000328363763, 0.004761557 , -0.019182656, 1.84078288  , 918.6945    , 30.9888439  , 818.9864    , 0.87        , 7           , 255         , 0           , 0
-0.1837332  , -0.04838053 , -9.78196    , -0.000447071536, 0.00018937391, 0.000501564762, 0.00475699035, -0.019180784, 1.84078789  , 918.6945    , 30.9888439  , 818.9865    , 0.88        , 7           , 255         , 0           , 0
-0.179470941, -0.04624987 , -9.794359   , -0.0005178667, 0.000143435318, -0.0005770495, 0.00475192256, -0.0191793237, 1.840782    , 918.6945    , 30.9888439  , 818.986633  , 0.89        , 7           , 255         , 0           , 0
-0.1847985  , -0.0445727035, -9.798691   , -0.00016024764, -0.0002301207, 0.000288349023, 0.00475026527, -0.0191816371, 1.84078491  , 918.6945    , 30.9888439  , 818.986755  , 0.9         , 7           , 255         , 0           , 0
-0.179525644, -0.0481857844, -9.801796   , 0.000623995438, 0.000147649756, 0.00096940907, 0.004760982 , -0.0191763062, 1.8407948   , 918.6945    , 30.9888439  , 818.9616    , 0.91        , 7           , 255         , 0           , 0
-0.178798288, -0.049522426, -9.793513   , 0.000857210951, 0.000149051222, 0.0005410873, 0.00476945  , -0.0191748384, 1.84080017  , 918.6945    , 30.9888439  , 818.9617    , 0.92        , 7           , 255         , 0           , 0
-0.18312031 , -0.0492394  , -9.797366   , 4.709157E-05, -0.000229290177, 0.000778845337, 0.00476977229, -0.0191771686, 1.84080791  , 918.7261    , 30.9924412  , 818.9618    , 0.93        , 7           , 255         , 0           , 0
-0.189702988, -0.0424959138, -9.789717   , -0.00055221247, 0.000242517533, 0.00049762323, 0.004764155 , -0.0191747677, 1.84081292  , 918.7261    , 30.9924412  , 818.9619    , 0.94        , 7           , 255         , 0           , 0
-0.1881397  , -0.0466793142, -9.797199   , -0.000331472547, -2.29887955E-05, 0.0004239721, 0.00476076  , -0.0191750228, 1.84081721  , 918.7261    , 30.9924412  , 818.962036  , 0.95        , 7           , 255         , 0           , 0
-0.187930182, -0.04757793 , -9.802833   , -0.000572493242, -0.000269740878, -0.000204294542, 0.0047550723, -0.019177705, 1.84081507  , 918.7261    , 30.9924412  , 818.962158  , 0.96        , 7           , 255         , 0           , 0
-0.196049377, -0.0453403331, -9.800949   , -0.000267105468, 9.74445138E-05, -0.000576776452, 0.00475251256, -0.0191767048, 1.84080935  , 918.7261    , 30.9924412  , 818.9623    , 0.97        , 7           , 255         , 0           , 0
-0.189802855, -0.0473767221, -9.793369   , -0.0005530424, 5.38534368E-06, 0.000351039867, 0.004746915 , -0.0191766676, 1.84081292  , 918.7261    , 30.9924412  , 818.9624    , 0.98        , 7           , 255         , 0           , 0
-0.183884591, -0.03244141 , -9.79534149 , -4.410307E-06, -8.004997E-05, 0.000410098233, 0.00474679237, -0.0191774871, 1.840817    , 918.7261    , 30.9924412  , 818.9625    , 0.99        , 7           , 255         , 0           , 0
-0.185828283, -0.0397894271, -9.793364   , 0.000255977124, 0.0004279041, -0.0005501552, 0.004749458 , -0.0191731844, 1.84081137  , 918.7261    , 30.9924412  , 818.962646  , 1           , 7           , 0           , 6.05423641  , 100
-0.187511355, -0.04693317 , -9.791182   , -8.595787E-06, 0.0004319606, 0.0004895611, 0.00474493  , -0.0191650055, 1.8408165   , 918.7261    , 30.9924412  , 818.9071    , 1.01        , 7           , 1           , 0           , 0
-0.192747027, -0.051145006, -9.796975   , -0.000233144208, 0.000129367429, 9.60536854E-05, 0.00474257953, -0.0191637166, 1.84081733  , 918.7261    , 30.9924412  , 818.9071    , 1.02        , 7           , 2           , 0           , 0
-0.19062075 , -0.0406698771, -9.79222    , 3.57526E-06 , 3.65737069E-05, 0.000108602791, 0.00474259537, -0.019163359, 1.84081841  , 918.691162  , 30.9939327  , 818.9071    , 1.03        , 7           , 3           , 0           , 0
-0.190995589, -0.0397173874, -9.785769   , 0.000243321731, 1.73607259E-06, -0.000298673549, 0.004745086 , -0.0191633273, 1.84081554  , 918.691162  , 30.9939327  , 818.9071    , 1.04        , 7           , 4           , 0           , 0
-0.193091422, -0.0525649972, -9.793669   , 0.0002335047, 0.000308763323, 6.581603E-05, 0.00474740844, -0.019160239, 1.84081626  , 918.691162  , 30.9939327  , 818.9071    , 1.05        , 7           , 5           , 0           , 0
-0.19060044 , -0.0440158471, -9.792097   , 0.0003294228, -4.450261E-05, 7.36301445E-05, 0.004750688 , -0.0191606861, 1.84081686  , 918.691162  , 30.9939327  , 818.9071    , 1.06        , 7           , 6           , 0           , 0
-0.1881406  , -0.0483667962, -9.790329   , 7.04769045E-05, -0.0006553957, -0.000286118157, 0.004751449 , -0.0191672277, 1.840814    , 918.691162  , 30.9939327  , 818.9071    , 1.07        , 7           , 7           , 0           , 0
-0.181159213, -0.04398737 , -9.792659   , -0.000112614129, -5.18265879E-05, 0.000588258961, 0.00475020939, -0.0191677734, 1.84082     , 918.691162  , 30.9939327  , 818.9071    , 1.08        , 7           , 8           , 5           , 5
-0.189695209, -0.0472432338, -9.794912   , -0.000165704521, -2.86214927E-05, 2.7926566E-05, 0.00474854652, -0.01916806 , 1.84082007  , 918.691162  , 30.9939327  , 818.9071    , 1.09        , 7           , 9           , 5           , 0.1
-0.195480436, -0.04809946 , -9.79685    , -0.000452620559, -0.000517706154, -0.000220432892, 0.0047440636, -0.01917323 , 1.84081781  , 918.691162  , 30.9939327  , 818.9071    , 1.1         , 7           , 10          , 0.1         , 0.1
-0.1884065  , -0.0503714457, -9.800496   , 0.00042974166, 6.755287E-05, -0.000641396851, 0.0047478606, -0.0191795174, 1.84081149  , 918.691162  , 30.9939327  , 818.896667  , 1.11        , 7           , 11          , 0.009389935 , 0.009389936
-0.187412739, -0.0474210456, -9.788973   , 0.000289617135, 7.43129058E-05, 0.000148137551, 0.00475072954, -0.0191787817, 1.840813    , 918.691162  , 30.9939327  , 818.896667  , 1.12        , 7           , 12          , 0.0346428268, 0
-0.187251925, -0.0446999855, -9.783597   , -0.000361111452, -9.25227359E-05, 6.61548E-05 , 0.00474710576, -0.01917971 , 1.84081364  , 918.650452  , 30.9954262  , 818.896667  , 1.13        , 7           , 13          , 0           , 0
-0.187217161, -0.04863953 , -9.792784   , 0.0002432592, -0.000192226609, 0.000806766737, 0.00474938331, -0.0191816688, 1.84082174  , 918.650452  , 30.9954262  , 818.896667  , 1.14        , 7           , 14          , -0.000362838764, 0.000383946084
-0.191520467, -0.0461640954, -9.79620552 , 0.0006717661, -0.0002132948, 0.0005105554, 0.004756002 , -0.0191838257, 1.84082687  , 918.650452  , 30.9954262  , 818.896667  , 1.15        , 7           , 15          , 0           , 0.000125965264
-0.191268325, -0.0511153154, -9.792817   , 0.000225880489, 7.904912E-05, -0.000212511659, 0.004758301 , -0.0191830229, 1.84082472  , 918.650452  , 30.9954262  , 818.896667  , 1.16        , 7           , 16          , 0           , 1.401298E-45
-0.191274643, -0.0529122055, -9.795681   , -0.000130255445, 7.21405959E-05, -0.000332170632, 0.00475706253, -0.0191822872, 1.84082139  , 918.650452  , 30.9954262  , 818.896667  , 1.17        , 7           , 20          , 0           , 0
-0.1986476  , -0.0425751433, -9.791293   , 0.000625703949, 7.998917E-05, 0.000233853483, 0.004763275 , -0.0191814955, 1.84082377  , 918.650452  , 30.9954262  , 818.896667  , 1.18        , 7           , 21          , 0           , 0
-0.2016116  , -0.0485694781, -9.788251   , 7.939074E-05, -6.805395E-05, 0.000582178764, 0.00476395665, -0.0191822071, 1.84082961  , 918.650452  , 30.9954262  , 818.896667  , 1.19        , 7           , 22          , 0           , 0
-0.196833134, -0.0461348034, -9.794798   , -8.485475E-05, 8.242292E-06, 0.000431337743, 0.004763026 , -0.0191821456, 1.8408339   , 918.650452  , 30.9954262  , 818.896667  , 1.2         , 7           , 40          , 0           , 0
-0.197538882, -0.052023422, -9.788045   , 6.7212095E-05, -0.0006397418, 0.0005208403, 0.00476744166, -0.019201085, 1.840839    , 918.650452  , 30.9954262  , 818.9298    , 1.21        , 7           , 41          , 0           , 0
-0.192211986, -0.0458084568, -9.797671   , 0.000423087273, -0.000170414889, -6.887055E-05, 0.00477168476, -0.0192027837, 1.84083831  , 918.650452  , 30.9954262  , 818.929932  , 1.22        , 7           , 42          , 1           , 0
-0.1922727  , -0.03944713 , -9.791044   , -0.000525068, -0.000238192079, -0.000252340164, 0.00476648239, -0.019205153, 1.84083581  , 918.69635   , 30.9962387  , 818.930054  , 1.23        , 7           , 255         , 0           , 0
-0.18750298 , -0.0468686335, -9.795306   , 0.0006337156, -0.000152762979, -0.0001346747, 0.004772845 , -0.01920668 , 1.8408345   , 918.69635   , 30.9962387  , 818.9302    , 1.24        , 7           , 255         , 0           , 0
-0.190354913, -0.0440587  , -9.798062   , -9.118751E-05, -0.0001386021, 0.000448796665, 0.00477184728, -0.0192080848, 1.840839    , 918.69635   , 30.9962387  , 818.9303    , 1.25        , 7           , 255         , 0           , 0
-0.181805536, -0.0472297855, -9.806563   , 0.000132136891, -0.000103805593, 6.384577E-05, 0.00477315858, -0.019209126, 1.84083951  , 918.69635   , 30.9962387  , 818.9304    , 1.26        , 7           , 255         , 0           , 0
-0.183983341, -0.0466134623, -9.800146   , 0.00022674544, 0.0005537686, -4.25412145E-06, 0.00477542635, -0.0192035884, 1.84083951  , 918.69635   , 30.9962387  , 818.930542  , 1.27        , 7           , 255         , 0           , 0
-0.181797579, -0.0481816642, -9.795975   , -4.250658E-05, 0.000194359949, 2.79666419E-05, 0.00477499561, -0.0192016456, 1.84084     , 918.69635   , 30.9962387  , 818.930664  , 1.28        , 7           , 255         , 0           , 0
-0.1774209  , -0.050637614, -9.792943   , -0.000272884354, -4.09186468E-05, -0.00033444498, 0.0047723297, -0.01920204 , 1.84083664  , 918.69635   , 30.9962387  , 818.9308    , 1.29        , 7           , 255         , 0           , 0
-0.183916554, -0.04073543 , -9.8021965  , -0.000492200954, 0.000100379082, 4.654123E-05, 0.004767399 , -0.0192010365, 1.84083712  , 918.69635   , 30.9962387  , 818.9309    , 1.3         , 7           , 255         , 0           , 0
-0.1809679  , -0.0407986119, -9.797429   , 0.000108174485, -0.000140044736, 0.000101906859, 0.00476714969, -0.0191995259, 1.84083819  , 918.69635   , 30.9962387  , 818.912842  , 1.31        , 7           , 255         , 0           , 0
-0.183118284, -0.0530687459, -9.797208   , 0.000186981 , 1.547308E-05, 0.000417575415, 0.004768939 , -0.0191993956, 1.84084225  , 918.69635   , 30.9962387  , 818.9129    , 1.32        , 7           , 255         , 0           , 0
-0.190526158, -0.0490324572, -9.792999   , 0.0009101662, 0.000305078836, 0.000383628474, 0.00477796653, -0.01919636 , 1.8408463   , 918.6673    , 30.9982071  , 818.912964  , 1.33        , 7           , 255         , 0           , 0
-0.182275191, -0.0535779372, -9.80213451 , 0.000589898031, 0.000371626782, -0.0004035842, 0.00478394143, -0.019192623, 1.84084225  , 918.6673    , 30.9982071  , 818.913     , 1.34        , 7           , 255         , 0           , 0
-0.187277585, -0.04882398 , -9.802222   , 0.000370806345, 0.000299138977, -0.000211912207, 0.00478768861, -0.01918962 , 1.8408401   , 918.6673    , 30.9982071  , 818.9131    , 1.35        , 7           , 255         , 0           , 0
-0.1952868  , -0.0393916667, -9.792206   , 0.000134260219, 0.000431845343, 0.0003213395, 0.00478896871, -0.01918532 , 1.84084344  , 918.6673    , 30.9982071  , 818.913147  , 1.36        , 7           , 255         , 0           , 0
-0.193572864, -0.04576656 , -9.791739   , 0.0003023724, 0.000156151975, 9.89984546E-05, 0.00479197362, -0.0191837624, 1.84084439  , 918.6673    , 30.9982071  , 818.9132    , 1.37        , 7           , 255         , 0           , 0
-0.198034108, -0.04692509 , -9.799536   , -9.99580952E-05, 0.0003321915, 0.000329131639, 0.00479091052, -0.0191804543, 1.84084773  , 918.6673    , 30.9982071  , 818.913269  , 1.38        , 7           , 255         , 0           , 0
-0.192637578, -0.0473341122, -9.79715252 , 5.800862E-05, 0.000214434956, 0.0005431905, 0.004791388 , -0.0191783383, 1.8408531   , 918.6673    , 30.9982071  , 818.9133    , 1.39        , 7           , 255         , 0           , 0
-0.191417009, -0.0503934138, -9.80021    , -0.000358220161, -0.000320199761, -7.850904E-07, 0.004787806 , -0.01918154 , 1.8408531   , 918.6673    , 30.9982071  , 818.9134    , 1.4         , 7           , 255         , 0           , 0
-0.189980611, -0.04497099 , -9.797193   , 0.000151077562, 0.000354497461, 0.000219953028, 0.004790574 , -0.0191810988, 1.84085536  , 918.6673    , 30.9982071  , 818.9275    , 1.41        , 7           , 255         , 0           , 0
-0.197886139, -0.03977082 , -9.798592   , -7.16804061E-05, 0.000450132648, -0.000312612741, 0.00478991866, -0.0191765837, 1.84085226  , 918.6673    , 30.9982071  , 818.9276    , 1.42        , 7           , 255         , 0           , 0
-0.200271174, -0.0404529162, -9.793533   , 0.000121129269, 6.59684E-05 , 0.00015885722, 0.004791099 , -0.0191759337, 1.84085381  , 918.680969  , 30.9984779  , 818.927734  , 1.43        , 7           , 255         , 0           , 0
-0.191945419, -0.043005418, -9.787092   , -1.7497543E-05, 0.000129912863, 0.000386854634, 0.00479085  , -0.0191746522, 1.84085774  , 918.680969  , 30.9984779  , 818.927856  , 1.44        , 7           , 255         , 0           , 0
-0.192341059, -0.0471075326, -9.789944   , -0.000294761237, -8.838985E-05, 6.374261E-05, 0.004787891 , -0.01917554 , 1.84085846  , 918.680969  , 30.9984779  , 818.928     , 1.45        , 7           , 255         , 0           , 0
-0.19285652 , -0.0556247719, -9.7969265  , -4.21028526E-05, 0.000189304061, 0.0001878281, 0.004787432 , -0.0191736557, 1.84086037  , 918.680969  , 30.9984779  , 818.928162  , 1.46        , 7           , 255         , 0           , 0
-0.189360544, -0.05261276 , -9.795815   , -0.000278325373, -6.38001948E-05, 6.66718261E-05, 0.00478463853, -0.0191742983, 1.840861    , 918.680969  , 30.9984779  , 818.928345  , 1.47        , 7           , 255         , 0           , 0
-0.19348672 , -0.05345297 , -9.795825   , -0.000261371053, -0.00021859401, 0.000238694469, 0.00478197727, -0.0191764943, 1.84086347  , 918.680969  , 30.9984779  , 818.9285    , 1.48        , 7           , 255         , 0           , 0
-0.189163744, -0.04775388 , -9.790548   , -0.000410781737, 0.000337350182, 1.6187696E-05, 0.00477786828, -0.0191731229, 1.84086359  , 918.680969  , 30.9984779  , 818.9287    , 1.49        , 7           , 255         , 0           , 0
-0.185414627, -0.0546018258, -9.794009   , -0.000402370322, -0.000301605178, -0.0005101847, 0.00477394136, -0.0191761162, 1.84085846  , 918.680969  , 30.9984779  , 818.9289    , 1.5         , 7           , 255         , 0           , 0
-0.19108668 , -0.0524281561, -9.787227   , -0.000315611658, -0.000237505577, 0.000145630576, 0.004773325 , -0.0191895515, 1.84086     , 918.680969  , 30.9984779  , 818.9271    , 1.51        , 7           , 255         , 0           , 0
-0.179983124, -0.04778365 , -9.798802   , -2.8343231E-05, -0.000471260544, 0.000148643376, 0.004773013 , -0.019194277, 1.84086156  , 918.680969  , 30.9984779  , 818.9273    , 1.52        , 7           , 255         , 0           , 0
-0.194660038, -0.0546944067, -9.78943348 , -5.21310139E-05, -0.0001674147, 0.000326928333, 0.00477243  , -0.0191959627, 1.84086478  , 918.6948    , 30.998003   , 818.9275    , 1.53        , 7           , 255         , 0           , 0
-0.182452291, -0.0451475047, -9.789593   , 0.000234124745, 0.0001220793, 0.000504274853, 0.004774672 , -0.019194765, 1.8408699   , 918.6948    , 30.998003   , 818.9277    , 1.54        , 7           , 255         , 0           , 0
-0.183378935, -0.0465468541, -9.796246   , 2.63602124E-05, 0.000154997251, 0.000317726517, 0.004774876 , -0.01919323 , 1.840873    , 918.6948    , 30.998003   , 818.927856  , 1.55        , 7           , 255         , 0           , 0
-0.185348421, -0.0483145081, -9.796225   , -0.000240773486, -0.000225040145, -0.000214579632, 0.004772508 , -0.0191954728, 1.840871    , 918.6948    , 30.998003   , 818.92804   , 1.56        , 7           , 255         , 0           , 0
-0.189467534, -0.0562982969, -9.802141   , -0.0003375925, 0.000225203315, -0.000327136862, 0.004769196 , -0.0191932023, 1.84086776  , 918.6948    , 30.998003   , 818.9282    , 1.57        , 7           , 255         , 0           , 0
-0.193670467, -0.05479277 , -9.795196   , -6.0905586E-05, -0.000189364233, 0.000101468715, 0.004768567 , -0.0191951  , 1.84086871  , 918.6948    , 30.998003   , 818.9284    , 1.58        , 7           , 255         , 0           , 0
-0.19206658 , -0.0501693264, -9.792236   , -5.22959162E-05, 2.4164794E-05, 0.0005355495, 0.004767942 , -0.0191948861, 1.8408742   , 918.6948    , 30.998003   , 818.9286    , 1.59        , 7           , 255         , 0           , 0
-0.193664849, -0.0484616458, -9.79182    , -0.000207486737, 0.000537154032, 0.0005747737, 0.00476575643, -0.0191895422, 1.84087992  , 918.6948    , 30.998003   , 818.9288    , 1.6         , 7           , 255         , 0           , 0
-0.195589855, -0.04700512 , -9.795807   , -0.00041082286, 0.000124617422, 0.000648456451, 0.00477058  , -0.0191897266, 1.84088635  , 918.6948    , 30.998003   , 818.9121    , 1.61        , 7           , 255         , 0           , 0
-0.186245531, -0.04879164 , -9.790761   , -4.45969054E-05, 9.879179E-05, 0.000335913472, 0.00477007031, -0.0191887543, 1.84088969  , 918.6948    , 30.998003   , 818.9122    , 1.62        , 7           , 255         , 0           , 0
-0.188175231, -0.0537387952, -9.790228   , 0.0002473212, 2.17918423E-05, -0.0005838445, 0.004772656 , -0.0191885084, 1.84088373  , 918.6263    , 31.0003777  , 818.912231  , 1.63        , 7           , 255         , 0           , 0
-0.187394559, -0.0419791564, -9.795725   , 0.000394829083, -0.000362151681, 8.677604E-05, 0.004776587 , -0.0191921331, 1.84088457  , 918.6263    , 31.0003777  , 818.9123    , 1.64        , 7           , 255         , 0           , 0
-0.183364525, -0.045778852, -9.790279   , 0.000257615175, -0.0003730149, -7.411855E-05, 0.004779178 , -0.01919586 , 1.84088373  , 918.6263    , 31.0003777  , 818.9124    , 1.65        , 7           , 255         , 0           , 0
-0.184153885, -0.0442671  , -9.793526   , 0.00056772877, -0.0001277526, 0.0007098376, 0.00478471862, -0.0191971716, 1.84089077  , 918.6263    , 31.0003777  , 818.912537  , 1.66        , 7           , 255         , 0           , 0
-0.182638973, -0.04860039 , -9.782984   , 2.30265723E-05, -0.000119097473, 9.44043E-05 , 0.00478493143, -0.0191983655, 1.84089172  , 918.6263    , 31.0003777  , 818.912659  , 1.67        , 7           , 255         , 0           , 0
-0.195281357, -0.0521797761, -9.792213   , 8.660267E-05, -0.000226020187, 0.000603712862, 0.00478568161, -0.0192006528, 1.8408978   , 918.6263    , 31.0003777  , 818.9128    , 1.68        , 7           , 255         , 0           , 0
-0.188586876, -0.052454792, -9.791097   , -2.60619854E-05, 0.000193783548, 0.00048822118, 0.00478532631, -0.01919874 , 1.84090269  , 918.6263    , 31.0003777  , 818.9129    , 1.69        , 7           , 255         , 0           , 0
-0.181401968, -0.0523107238, -9.794553   , -3.1557458E-05, -0.000342064479, 0.0005258681, 0.004784909 , -0.0192021839, 1.84090793  , 918.6263    , 31.0003777  , 818.913     , 1.7         , 7           , 255         , 0           , 0
-0.186937258, -0.05176174 , -9.792885   , 0.000623323256, -8.48062045E-05, 0.000404717866, 0.00479640858, -0.0192011353, 1.84091187  , 918.6263    , 31.0003777  , 818.973145  , 1.71        , 7           , 255         , 0           , 0
-0.1753777  , -0.0625817552, -9.79561    , 0.00066005683, -6.791041E-05, 0.0007730265, 0.00480285846, -0.01920185 , 1.84091973  , 918.6263    , 31.0003777  , 818.9736    , 1.72        , 7           , 255         , 0           , 0
-0.184375972, -0.05632174 , -9.780172   , 0.000376511482, -0.0005158296, 0.000238342458, 0.00480657862, -0.0192070231, 1.84092212  , 918.667358  , 30.9999714  , 818.974     , 1.73        , 7           , 255         , 0           , 0
-0.181687087, -0.0489796326, -9.796534   , 0.000179703711, 5.35615545E-05, -0.0008519452, 0.00480853952, -0.0192064457, 1.84091353  , 918.667358  , 30.9999714  , 818.9744    , 1.74        , 7           , 255         , 0           , 0
-0.171283   , -0.0571597  , -9.800014   , -3.04398127E-05, -0.000168041617, -0.00016733419, 0.00480826851, -0.0192081183, 1.84091175  , 918.667358  , 30.9999714  , 818.974854  , 1.75        , 7           , 255         , 0           , 0
-0.172730088, -0.0551938638, -9.798556   , -3.764723E-05, 0.000555227161, 0.0008568544, 0.004807727 , -0.01920261 , 1.84092045  , 918.667358  , 30.9999714  , 818.9753    , 1.76        , 7           , 255         , 0           , 0
-0.169452474, -0.0516658351, -9.795454   , 0.0005339719, 0.000622536638, 4.582187E-05, 0.00481305458, -0.0191963818, 1.840921    , 918.667358  , 30.9999714  , 818.9757    , 1.77        , 7           , 255         , 0           , 0
-0.187421948, -0.0444030836, -9.79218    , -0.000124538725, 0.0001431503, 0.000307342329, 0.00481175  , -0.0191949662, 1.84092414  , 918.667358  , 30.9999714  , 818.976135  , 1.78        , 7           , 255         , 0           , 0
-0.184128478, -0.04811911 , -9.791434   , 1.796434E-05, 0.00065260753, 0.0005746158, 0.004811818 , -0.0191884674, 1.84093     , 918.667358  , 30.9999714  , 818.976563  , 1.79        , 7           , 255         , 0           , 0
-0.183334514, -0.0476864465, -9.793517   , 0.000534377 , -0.000172532891, 4.050994E-05, 0.00481715472, -0.0191901941, 1.84093022  , 918.667358  , 30.9999714  , 818.977     , 1.8         , 7           , 255         , 0           , 0
-0.18412365 , -0.0404149145, -9.795672   , 0.000237437431, -3.481444E-05, 0.0008320763, 0.004832035 , -0.0191703476, 1.84093845  , 918.667358  , 30.9999714  , 818.9849    , 1.81        , 7           , 255         , 0           , 0
-0.194016263, -0.0488748178, -9.798714   , -0.000113139162, 0.0003408086, 0.000199736358, 0.004830865 , -0.01916695 , 1.84094036  , 918.667358  , 30.9999714  , 818.9854    , 1.82        , 7           , 255         , 0           , 0
-0.181744784, -0.049609758, -9.797426   , 5.95714664E-06, -0.0003239231, 1.8719511E-05, 0.00483092153, -0.0191701911, 1.84094048  , 918.7265    , 31.0012589  , 818.9859    , 1.83        , 7           , 255         , 0           , 0
-0.1877776  , -0.04787584 , -9.793784   , -7.3854404E-05, -9.309538E-05, 0.000319982442, 0.004830122 , -0.0191711374, 1.84094369  , 918.7265    , 31.0012589  , 818.9864    , 1.84        , 7           , 255         , 0           , 0
-0.185202986, -0.042886056, -9.796605   , 9.666596E-05, 0.000444053148, -0.000176361966, 0.00483112223, -0.01916669 , 1.84094191  , 918.7265    , 31.0012589  , 818.9869    , 1.85        , 7           , 255         , 0           , 0
-0.2055048  , -0.03273782 , -9.796421   , 9.111376E-05, -0.000115232164, -0.000166256068, 0.00483206566, -0.0191678312, 1.84094024  , 918.7265    , 31.0012589  , 818.987366  , 1.86        , 7           , 255         , 0           , 0
-0.219041109, -0.0380208343, -9.791567   , 0.0002616343, 2.66646384E-06, -4.80619E-05, 0.00483468967, -0.0191678032, 1.84093976  , 918.7265    , 31.0012589  , 818.987854  , 1.87        , 7           , 255         , 0           , 0
-0.231534451, -0.0195080973, -9.79683    , 0.000338849262, 0.000704538252, 0.000215921667, 0.0048380373, -0.019160768, 1.84094191  , 918.7265    , 31.0012589  , 818.988342  , 1.88        , 7           , 255         , 0           , 0
-0.225545168, -0.0159385726, -9.79459    , -1.37858442E-05, 0.000220129325, 0.0004554344, 0.004837812 , -0.0191585887, 1.84094644  , 918.7265    , 31.0012589  , 818.988831  , 1.89        , 7           , 255         , 0           , 0
-0.205940485, -0.0197222326, -9.789946   , 0.000229112149, -0.000358575024, -0.0006825044, 0.00484023569, -0.0191621426, 1.84093952  , 918.7265    , 31.0012589  , 818.9893    , 1.9         , 7           , 255         , 0           , 0
-0.201135784, -0.04230097 , -9.79019    , -0.000330457668, 0.000187500293, -6.48301357E-05, 0.004812438 , -0.0191899762, 1.8409394   , 918.7265    , 31.0012589  , 818.926941  , 1.91        , 7           , 255         , 0           , 0
-0.181005   , -0.0463542752, -9.798369   , -0.0003916388, -0.0002988829, 0.0002563426, 0.004808473 , -0.0191929787, 1.840942    , 918.7265    , 31.0012589  , 818.927063  , 1.92        , 7           , 255         , 0           , 0
-0.180405125, -0.05330978 , -9.805056   , -0.000373012823, 0.000145490427, 4.99592279E-05, 0.004804733 , -0.0191915222, 1.8409425   , 918.693054  , 31.0005131  , 818.9272    , 1.93        , 7           , 255         , 0           , 0
-0.181836575, -0.0501682535, -9.797056   , 0.000356417062, -9.04881163E-05, 0.0002884758, 0.004808241 , -0.0191924442, 1.84094536  , 918.693054  , 31.0005131  , 818.9273    , 1.94        , 7           , 255         , 0           , 0
-0.178936988, -0.0361717567, -9.787148   , 0.0005110165, -0.000405099, 0.000289228628, 0.00481329625, -0.0191965066, 1.84094822  , 918.693054  , 31.0005131  , 818.9274    , 1.95        , 7           , 255         , 0           , 0
-0.19566229 , -0.04536917 , -9.787219   , -0.000113385991, -0.0002474279, 0.000938873971, 0.00481198076, -0.019199023, 1.84095764  , 918.693054  , 31.0005131  , 818.927551  , 1.96        , 7           , 255         , 0           , 0
-0.176288486, -0.04998503 , -9.793408   , -0.000257852749, -0.0005457657, 0.000166991 , 0.00480937026, -0.01920449 , 1.84095931  , 918.693054  , 31.0005131  , 818.9277    , 1.97        , 7           , 255         , 0           , 0
-0.172387525, -0.060702838, -9.803808   , -0.0006591758, -0.00014130761, 0.00014432834, 0.00480275275, -0.0192059129, 1.84096074  , 918.693054  , 31.0005131  , 818.9278    , 1.98        , 7           , 255         , 0           , 0
-0.171538353, -0.0619579032, -9.798871   , -0.000174646353, 0.000276360515, -0.000666917767, 0.00480113458, -0.0192031153, 1.84095407  , 918.693054  , 31.0005131  , 818.9279    , 1.99        , 7           , 255         , 0           , 0
-0.168172061, -0.0601887032, -9.790274   , -0.0003964063, 0.000158364564, -0.000378070836, 0.00479724165, -0.0192015115, 1.84095037  , 918.693054  , 31.0005131  , 818.92804   , 2           , 7           , 0           , 7.05423641  , 200
-0.170982435, -0.0594449639, -9.791602   , 3.93503E-05 , 0.0005637973, 0.000190961189, 0.00480494741, -0.0191806369, 1.84095216  , 918.693054  , 31.0005131  , 818.91156   , 2.01        , 7           , 1           , 0           , 0
-0.17013675 , -0.058931876, -9.787776   , 6.502814E-05, 0.000178121525, 0.00051504554, 0.00480549876, -0.01917888 , 1.84095728  , 918.693054  , 31.0005131  , 818.9116    , 2.02        , 7           , 2           , 0           , 0
-0.173844486, -0.05168391 , -9.7976     , -0.00013165077, 0.000352044619, 0.00032976747, 0.004804118 , -0.0191753749, 1.84096062  , 918.70105   , 31.0025482  , 818.9117    , 2.03        , 7           , 3           , 0           , 0
-0.170286864, -0.053454686, -9.802462   , 1.49896368E-05, -0.000180686082, 0.0008573878, 0.004804105 , -0.0191772226, 1.8409692   , 918.70105   , 31.0025482  , 818.911743  , 2.04        , 7           , 4           , 0           , 0
-0.176197127, -0.0573972054, -9.795338   , -0.000166577753, 0.000106054911, -0.000302824832, 0.00480249664, -0.01917615 , 1.84096622  , 918.70105   , 31.0025482  , 818.9118    , 2.05        , 7           , 5           , 0           , 0
-0.175453886, -0.0647913441, -9.796731   , 8.961954E-05, -5.117123E-06, -0.00048824097, 0.00480348663, -0.0191761758, 1.84096122  , 918.70105   , 31.0025482  , 818.911865  , 2.06        , 7           , 6           , 0           , 0
-0.184659988, -0.0597229227, -9.797923   , 0.000144847756, 0.000178757386, 0.0004997328, 0.00480483938, -0.0191744138, 1.84096634  , 918.70105   , 31.0025482  , 818.9119    , 2.07        , 7           , 7           , 0           , 0
-0.184838265, -0.04683472 , -9.792619   , 0.00023448882, 0.000100038305, 0.0006377711, 0.004807062 , -0.0191734452, 1.84097266  , 918.70105   , 31.0025482  , 818.912     , 2.08        , 7           , 8           , 5           , 5
-0.194777474, -0.0389357  , -9.796628   , 0.000172321859, -0.000247862423, 0.00082905317, 0.004808626 , -0.0191759616, 1.84098089  , 918.70105   , 31.0025482  , 818.912048  , 2.09        , 7           , 9           , 5           , 0.1
-0.196653008, -0.03083787 , -9.794489   , 0.000154486872, -0.0005306711, 0.000213980748, 0.00481013069, -0.0191812776, 1.840983    , 918.70105   , 31.0025482  , 818.9121    , 2.1         , 7           , 10          , 0.1         , 0.1
-0.197601423, -0.0268807169, -9.793976   , -0.000183795171, -8.480222E-05, -0.000430030021, 0.004818826 , -0.019165732, 1.8409785   , 918.70105   , 31.0025482  , 818.887     , 2.11        , 7           , 11          , 0.008333059 , 0.008333061
-0.205459908, -0.0290680621, -9.800186   , 0.00012836259, -0.000110364635, -5.85446469E-05, 0.00482012052, -0.01916683 , 1.84097791  , 918.70105   , 31.0025482  , 818.886963  , 2.12        , 7           , 12          , 0.0346481539, 0
-0.20979099 , -0.0346832648, -9.8012085  , 0.0001395636, 0.000185471232, -0.000212919462, 0.004821558 , -0.0191649683, 1.84097576  , 918.682     , 31.0028877  , 818.8869    , 2.13        , 7           , 13          , 0           , 0
-0.215863273, -0.0293241851, -9.797874   , 0.0004068287, 0.000561788 , 0.0006051514, 0.00482551055, -0.0191593766, 1.84098172  , 918.682     , 31.0028877  , 818.886841  , 2.14        , 7           , 14          , -0.000362896419, 0.000383923383
-0.207818508, -0.0349780247, -9.792852   , 0.000218275847, -0.000114928145, -3.05390131E-05, 0.00482769869, -0.019160524, 1.84098136  , 918.682     , 31.0028877  , 818.8868    , 2.15        , 7           , 15          , 0           , 0.0001259665
-0.206098124, -0.0331298523, -9.795881   , -0.000540990441, -0.0004392298, -0.000108427215, 0.004822311 , -0.0191649124, 1.84098029  , 918.682     , 31.0028877  , 818.8867    , 2.16        , 7           , 16          , 0           , 1.401298E-45
-0.201399058, -0.0274553057, -9.796384   , -0.0008867231, 8.36649E-05 , -0.000417411036, 0.004813523 , -0.01916406 , 1.84097624  , 918.682     , 31.0028877  , 818.886658  , 2.17        , 7           , 20          , 0           , 0
-0.197853521, -0.0264817718, -9.798136   , -3.2571028E-05, -0.000165538338, -8.710476E-05, 0.004813214 , -0.01916571 , 1.84097528  , 918.682     , 31.0028877  , 818.8866    , 2.18        , 7           , 21          , 0           , 0
-0.196651578, -0.03613458 , -9.794815   , -2.18084315E-05, 0.0003814236, -0.0001294335, 0.00481301965, -0.0191618875, 1.840974    , 918.682     , 31.0028877  , 818.886536  , 2.19        , 7           , 22          , 0           , 0
-0.192017376, -0.0512944758, -9.787557   , 0.000151218323, 5.3794327E-05, 0.000192191888, 0.00481449347, -0.0191613566, 1.840976    , 918.682     , 31.0028877  , 818.8865    , 2.2         , 7           , 40          , 0           , 0
-0.189272434, -0.0551329032, -9.790674   , 0.000405866274, -6.639774E-05, -0.000112102411, 0.00479154848, -0.0191909112, 1.8409754   , 918.682     , 31.0028877  , 818.8882    , 2.21        , 7           , 41          , 0           , 0
-0.183685839, -0.072174944, -9.789479   , 0.0004888731, 0.0003571909, 0.0002957105, 0.004796381 , -0.0191873554, 1.84097826  , 918.682     , 31.0028877  , 818.8881    , 2.22        , 7           , 42          , 1           , 0
-0.173102587, -0.06516874 , -9.793058   , 8.706862E-05, 0.0004167165, 8.675459E-06, 0.00479724864, -0.0191831943, 1.8409785   , 918.6959    , 31.0020065  , 818.888062  , 2.23        , 7           , 255         , 0           , 0
-0.169543326, -0.06703383 , -9.79727    , -0.000224129617, -7.656615E-05, 0.000145071826, 0.00479498  , -0.0191839673, 1.84097993  , 918.6959    , 31.0020065  , 818.888     , 2.24        , 7           , 255         , 0           , 0
-0.167192072, -0.06533274 , -9.800784   , 5.65957162E-05, -7.06899154E-05, 0.0008673847, 0.004795379 , -0.019184716, 1.84098864  , 918.6959    , 31.0020065  , 818.887939  , 2.25        , 7           , 255         , 0           , 0
-0.163611442, -0.06305417 , -9.795624   , 0.00029262068, -0.000377779244, -0.000144430553, 0.004798334 , -0.0191884823, 1.84098709  , 918.6959    , 31.0020065  , 818.8879    , 2.26        , 7           , 255         , 0           , 0
-0.167298436, -0.06195564 , -9.798101   , 0.000283755275, 1.16166193E-05, -0.000319790648, 0.00480123144, -0.01918835 , 1.840984    , 918.6959    , 31.0020065  , 818.8878    , 2.27        , 7           , 255         , 0           , 0
-0.155093774, -0.06648754 , -9.794424   , 0.000834013568, 3.67426837E-05, 0.000176788482, 0.00480953651, -0.0191879962, 1.84098577  , 918.6959    , 31.0020065  , 818.887756  , 2.28        , 7           , 255         , 0           , 0
-0.1632693  , -0.0565546043, -9.783904   , -2.42751848E-05, -4.40937874E-05, 0.000235058047, 0.004809248 , -0.0191884469, 1.84098816  , 918.6959    , 31.0020065  , 818.8877    , 2.29        , 7           , 255         , 0           , 0
-0.16395016 , -0.0619706735, -9.789581   , -0.000321117317, 0.0002893209, -5.24621646E-05, 0.00480604637, -0.0191855468, 1.84098768  , 918.6959    , 31.0020065  , 818.887634  , 2.3         , 7           , 255         , 0           , 0
-0.1801085  , -0.0607544854, -9.7916     , 0.0003051155, -7.21129763E-05, 0.000406248 , 0.004845939 , -0.01914541 , 1.8409909   , 918.6959    , 31.0020065  , 818.87146   , 2.31        , 7           , 255         , 0           , 0
-0.199183062, -0.0571855977, -9.799907   , 0.000477927271, 4.4223445E-05, -0.0006695787, 0.00485084672, -0.0191449355, 1.84098411  , 918.6959    , 31.0020065  , 818.871338  , 2.32        , 7           , 255         , 0           , 0
-0.2013853  , -0.047833994, -9.801869   , -0.000331209769, 1.28040556E-05, -0.000435647467, 0.004847617 , -0.0191447865, 1.84097981  , 918.6711    , 31.0027523  , 818.8712    , 2.33        , 7           , 255         , 0           , 0
-0.206088379, -0.0267625153, -9.783308   , -0.0004721456, 0.000431981258, -0.000117186632, 0.00484291837, -0.01914046 , 1.84097874  , 918.6711    , 31.0027523  , 818.8711    , 2.34        , 7           , 255         , 0           , 0
-0.206362411, -0.0168077163, -9.779645   , -0.000892008655, 0.0002548401, -0.000630425755, 0.004834118 , -0.0191378836, 1.84097242  , 918.6711    , 31.0027523  , 818.871     , 2.35        , 7           , 255         , 0           , 0
-0.196777508, -0.02561084 , -9.813894   , -0.000496053952, -0.0004460542, -0.000469206221, 0.00482924562, -0.0191423185, 1.84096789  , 918.6711    , 31.0027523  , 818.87085   , 2.36        , 7           , 255         , 0           , 0
-0.203522488, -0.030041296, -9.813683   , -0.000149469328, -0.0006308728, -0.000217930152, 0.004827796 , -0.019148618, 1.84096551  , 918.6711    , 31.0027523  , 818.8707    , 2.37        , 7           , 255         , 0           , 0
-0.195049   , -0.0315920636, -9.814989   , 0.0005857707, 2.34830659E-05, -5.13313062E-05, 0.00483366335, -0.0191483814, 1.840965    , 918.6711    , 31.0027523  , 818.8706    , 2.38        , 7           , 255         , 0           , 0
-0.205634147, -0.029059669, -9.795465   , 0.000166211437, 0.000351246941, -0.0001033138, 0.00483534439, -0.0191448629, 1.84096408  , 918.6711    , 31.0027523  , 818.8705    , 2.39        , 7           , 255         , 0           , 0
-0.206284374, -0.01792565 , -9.778347   , -0.000461277639, 0.000311011361, -2.35996413E-05, 0.004830735 , -0.0191417523, 1.84096384  , 918.6711    , 31.0027523  , 818.870361  , 2.4         , 7           , 255         , 0           , 0
-0.216066331, -0.0321606733, -9.775212   , -4.52661479E-05, -0.000406263425, -0.00026764127, 0.004808321 , -0.0191669185, 1.84096146  , 918.6711    , 31.0027523  , 818.888733  , 2.41        , 7           , 255         , 0           , 0
-0.2225132  , -0.03933055 , -9.797768   , -6.624777E-05, -0.000329788978, 0.000513618637, 0.0048075607, -0.01917024 , 1.84096658  , 918.6711    , 31.0027523  , 818.888733  , 2.42        , 7           , 255         , 0           , 0
-0.209106833, -0.0319347829, -9.81724    , 2.4306064E-06, 0.000380074285, 0.000185001176, 0.00480754953, -0.0191664472, 1.84096849  , 918.6764    , 31.005127   , 818.888733  , 2.43        , 7           , 255         , 0           , 0
-0.1992486  , -0.0544273481, -9.803375   , 0.000122630358, 0.000577050843, 0.0008590377, 0.004808609 , -0.0191607177, 1.84097707  , 918.6764    , 31.005127   , 818.888733  , 2.44        , 7           , 255         , 0           , 0
-0.1857576  , -0.0378858335, -9.779462   , 0.000293776451, -5.47231175E-05, -0.000101430218, 0.004811566 , -0.01916126 , 1.840976    , 918.6764    , 31.005127   , 818.888733  , 2.45        , 7           , 255         , 0           , 0
-0.177091569, -0.0457435437, -9.78669    , 5.175895E-05, -0.000167287886, 0.0007742041, 0.004811936 , -0.0191629715, 1.84098387  , 918.6764    , 31.005127   , 818.888733  , 2.46        , 7           , 255         , 0           , 0
-0.187933519, -0.0440581776, -9.788518   , -0.000274512422, 0.00024303174, 0.000709301 , 0.00480905548, -0.0191605743, 1.8409909   , 918.6764    , 31.005127   , 818.888733  , 2.47        , 7           , 255         , 0           , 0
-0.194572955, -0.03984601 , -9.79676    , -0.000455954723, -0.000167101738, -7.902606E-05, 0.00480451062, -0.0191622432, 1.84099019  , 918.6764    , 31.005127   , 818.888733  , 2.48        , 7           , 255         , 0           , 0
-0.1957868  , -0.0574008822, -9.80209    , -0.0003081476, 0.000205769931, 0.0008697601, 0.00480126357, -0.0191602279, 1.84099889  , 918.6764    , 31.005127   , 818.888733  , 2.49        , 7           , 255         , 0           , 0
-0.171956554, -0.05622493 , -9.794102   , -2.76959036E-05, 0.000106667256, 5.59891341E-05, 0.004800976 , -0.0191591643, 1.8409996   , 918.6764    , 31.005127   , 818.888733  , 2.5         , 7           , 255         , 0           , 0
-0.169400215, -0.05894378 , -9.790602   , 4.721392E-05, 2.43781833E-05, 0.0006502159, 0.00479492173, -0.0191755015, 1.841006    , 918.6764    , 31.005127   , 818.8979    , 2.51        , 7           , 255         , 0           , 0
-0.1777041  , -0.0464534871, -9.793993   , 0.000375461153, -2.1029351E-05, -0.000293566263, 0.004798732 , -0.0191756971, 1.84100306  , 918.6764    , 31.005127   , 818.897949  , 2.52        , 7           , 255         , 0           , 0
-0.176257774, -0.0527267754, -9.788974   , 0.00021102649, -0.000124794315, -0.0007918036, 0.004800996 , -0.0191769078, 1.84099507  , 918.655945  , 31.0034313  , 818.898     , 2.53        , 7           , 255         , 0           , 0
-0.180710778, -0.0476307459, -9.792353   , -0.000281794055, -0.000106257095, -0.000151196713, 0.004798206 , -0.0191779621, 1.84099352  , 918.655945  , 31.0034313  , 818.8981    , 2.54        , 7           , 255         , 0           , 0
-0.182807565, -0.0454458781, -9.798029   , 1.7389917E-05, 0.000134125934, 0.000488127029, 0.00479828659, -0.0191766452, 1.84099841  , 918.655945  , 31.0034313  , 818.898132  , 2.55        , 7           , 255         , 0           , 0
-0.173432752, -0.051646214, -9.788923   , 0.0001357297, 0.000537288433, 0.000463719625, 0.00479955366, -0.0191712938, 1.84100306  , 918.655945  , 31.0034313  , 818.8982    , 2.56        , 7           , 255         , 0           , 0
-0.1733797  , -0.0544123128, -9.790507   , -2.88577285E-05, 4.863413E-05, -0.000878655468, 0.00479943352, -0.019170763, 1.84099436  , 918.655945  , 31.0034313  , 818.898254  , 2.57        , 7           , 255         , 0           , 0
-0.178634167, -0.0588232577, -9.781343   , -3.63830477E-05, -0.00013445373, -0.0004056352, 0.004799147 , -0.01917209 , 1.84099019  , 918.655945  , 31.0034313  , 818.8983    , 2.58        , 7           , 255         , 0           , 0
-0.176430643, -0.05783435 , -9.799649   , -2.95407372E-05, 0.000318358827, -0.000860288856, 0.004799015 , -0.0191688631, 1.84098172  , 918.655945  , 31.0034313  , 818.8984    , 2.59        , 7           , 255         , 0           , 0
-0.186126545, -0.04675925 , -9.802444   , 0.0003136865, 0.00011492573, -7.847968E-05, 0.004802166 , -0.0191677138, 1.840981    , 918.655945  , 31.0034313  , 818.898438  , 2.6         , 7           , 255         , 0           , 0
-0.187160924, -0.050758075, -9.792956   , -0.000269706768, 0.000117262854, 0.000250093755, 0.00481056  , -0.019143898, 1.84098339  , 918.655945  , 31.0034313  , 818.9344    , 2.61        , 7           , 255         , 0           , 0
-0.201391265, -0.03918375 , -9.78773    , -0.000366611173, 1.65140955E-05, 0.0002220128, 0.00480685  , -0.0191437472, 1.84098566  , 918.655945  , 31.0034313  , 818.9347    , 2.62        , 7           , 255         , 0           , 0
-0.189387113, -0.0410276577, -9.789511   , -0.000131012639, -0.000259112538, 0.0004516727, 0.004805453 , -0.0191463567, 1.84099019  , 918.691956  , 31.004652   , 818.935     , 2.63        , 7           , 255         , 0           , 0
-0.196960434, -0.04017297 , -9.792631   , 7.913652E-05, 0.000205906836, -0.000647929439, 0.00480636861, -0.0191442668, 1.84098375  , 918.691956  , 31.004652   , 818.9353    , 2.64        , 7           , 255         , 0           , 0
-0.205084279, -0.0316351727, -9.799059   , 0.000484454184, 0.000249066943, -0.0005774856, 0.00481132325, -0.0191417485, 1.84097791  , 918.691956  , 31.004652   , 818.9356    , 2.65        , 7           , 255         , 0           , 0
-0.200995833, -0.0326685831, -9.792066   , 0.0005866665, -0.00016655997, 5.39253233E-05, 0.00481718034, -0.0191434175, 1.84097838  , 918.691956  , 31.004652   , 818.9359    , 2.66        , 7           , 255         , 0           , 0
-0.208857447, -0.035500966, -9.792127   , -0.000392984482, 5.733542E-06, 0.00094230863, 0.00481306948, -0.0191434063, 1.84098792  , 918.691956  , 31.004652   , 818.9362    , 2.67        , 7           , 255         , 0           , 0
-0.201386571, -0.0373323038, -9.79304    , -6.499296E-05, 0.000242006878, 0.0006581226, 0.004812292 , -0.0191410147, 1.8409946   , 918.691956  , 31.004652   , 818.9365    , 2.68        , 7           , 255         , 0           , 0
-0.206676319, -0.03431525 , -9.789362   , -0.00063565583, 0.000336904865, 0.000245399773, 0.004805887 , -0.0191376563, 1.84099722  , 918.691956  , 31.004652   , 818.9369    , 2.69        , 7           , 255         , 0           , 0
-0.201366588, -0.0249614157, -9.797865   , -0.000669021741, 6.24725653E-05, 0.00022940927, 0.00479915366, -0.0191370435, 1.84099936  , 918.691956  , 31.004652   , 818.937256  , 2.7         , 7           , 255         , 0           , 0
-0.199161515, -0.0307851788, -9.794129   , -0.0006547414, 0.0002874901, -0.000316782, 0.004770919 , -0.0191603117, 1.84099674  , 918.691956  , 31.004652   , 818.91864   , 2.71        , 7           , 255         , 0           , 0
-0.205457538, -0.0421270356, -9.786444   , -0.0003344513, 0.000206602068, 0.000242039372, 0.00476752874, -0.0191582572, 1.84099913  , 918.691956  , 31.004652   , 818.9189    , 2.72        , 7           , 255         , 0           , 0
-0.190679491, -0.0434358828, -9.793898   , 0.000154617417, 0.000212520041, -0.000484625751, 0.004769167 , -0.0191561114, 1.84099436  , 918.7137    , 31.0035667  , 818.9191    , 2.73        , 7           , 255         , 0           , 0
-0.193694443, -0.0449936278, -9.788153   , 0.000221824565, -0.0004072248, 0.000662567269, 0.00477125868, -0.0191602129, 1.84100091  , 918.7137    , 31.0035667  , 818.9194    , 2.74        , 7           , 255         , 0           , 0
-0.185970783, -0.05046013 , -9.792698   , 0.000105034269, -0.000507393735, 0.0001976588, 0.004772271 , -0.0191652942, 1.841003    , 918.7137    , 31.0035667  , 818.9196    , 2.75        , 7           , 255         , 0           , 0
-0.180721849, -0.0520062223, -9.797602   , -7.443351E-05, -5.31079131E-05, -0.00079260295, 0.00477167964, -0.0191657878, 1.840995    , 918.7137    , 31.0035667  , 818.919861  , 2.76        , 7           , 255         , 0           , 0
-0.176109359, -0.0529705063, -9.796667   , -0.000392016518, -0.000270116318, -0.0001002573, 0.0047677774, -0.019168485, 1.840994    , 918.7137    , 31.0035667  , 818.9201    , 2.77        , 7           , 255         , 0           , 0
-0.176945   , -0.0499990843, -9.795823   , 0.00023984311, -0.000422827, 0.000351586961, 0.0047701085, -0.0191727281, 1.84099746  , 918.7137    , 31.0035667  , 818.920349  , 2.78        , 7           , 255         , 0           , 0
-0.169693321, -0.05159501 , -9.802645   , 0.000181430922, -0.000118138239, 0.0003038732, 0.0047718673, -0.0191739239, 1.84100044  , 918.7137    , 31.0035667  , 818.9206    , 2.79        , 7           , 255         , 0           , 0
-0.1714619  , -0.050774157, -9.79608    , -1.34739385E-05, -0.0002540828, -0.00017561714, 0.00477176672, -0.0191764571, 1.84099865  , 918.7137    , 31.0035667  , 818.920837  , 2.8         , 7           , 255         , 0           , 0
-0.162507579, -0.0509871244, -9.80569    , -0.000355390715, -0.000289566815, -0.00025139525, 0.00476858951, -0.01917424 , 1.840996    , 918.7137    , 31.0035667  , 818.874146  , 2.81        , 7           , 255         , 0           , 0
-0.166534737, -0.0627924353, -9.797604   , 4.484519E-05, -4.61964519E-05, -0.000526285847, 0.004769138 , -0.019174682, 1.8409909   , 918.7137    , 31.0035667  , 818.8741    , 2.82        , 7           , 255         , 0           , 0
-0.179283366, -0.0600033328, -9.803585   , 0.000342148531, -0.0003179242, -4.195935E-05, 0.00477256952, -0.0191778522, 1.84099042  , 918.680054  , 31.0044479  , 818.874     , 2.83        , 7           , 255         , 0           , 0
-0.162916511, -0.0486411974, -9.790225   , 0.00019001613, -0.0003338285, 0.0008717154, 0.00477430364, -0.0191812329, 1.840999    , 918.680054  , 31.0044479  , 818.873962  , 2.84        , 7           , 255         , 0           , 0
-0.168114945, -0.0511410944, -9.788154   , -0.000515499152, -0.000495874265, 1.74041488E-05, 0.004769147 , -0.019186195, 1.84099913  , 918.680054  , 31.0044479  , 818.8739    , 2.85        , 7           , 255         , 0           , 0
-0.1733856  , -0.0477394164, -9.799264   , -0.000153306872, -0.0003935054, -0.00023764564, 0.00476765959, -0.0191901177, 1.84099674  , 918.680054  , 31.0044479  , 818.87384   , 2.86        , 7           , 255         , 0           , 0
-0.180036709, -0.06781539 , -9.801389   , -0.000325618254, -0.000353974581, 0.000133839145, 0.00476437854, -0.0191936642, 1.84099817  , 918.680054  , 31.0044479  , 818.8738    , 2.87        , 7           , 255         , 0           , 0
-0.198331267, -0.06076809 , -9.801829   , 0.000419724471, 5.115976E-05, 0.0002961313, 0.00476851733, -0.0191931669, 1.841001    , 918.680054  , 31.0044479  , 818.8737    , 2.88        , 7           , 255         , 0           , 0
-0.188297153, -0.0556623451, -9.79476452 , 0.000227245648, 0.0005192088, 0.00044252415, 0.004770706 , -0.0191879962, 1.84100556  , 918.680054  , 31.0044479  , 818.873657  , 2.89        , 7           , 255         , 0           , 0
-0.178906366, -0.04859907 , -9.799475   , 0.000178550341, 0.000203738047, -7.53321E-05, 0.00477250526, -0.0191859584, 1.84100485  , 918.680054  , 31.0044479  , 818.8736    , 2.9         , 7           , 255         , 0           , 0
-0.184867889, -0.0400273427, -9.803437   , -0.000404512335, 0.000159669085, -0.000332971, 0.00478149857, -0.01916613 , 1.84100127  , 918.680054  , 31.0044479  , 818.880432  , 2.91        , 7           , 255         , 0           , 0
-0.181399062, -0.0424495265, -9.799196   , 0.000113955466, -0.0001848132, 0.000287496863, 0.00478258356, -0.0191679914, 1.84100413  , 918.680054  , 31.0044479  , 818.880432  , 2.92        , 7           , 255         , 0           , 0
-0.19258827 , -0.0308449715, -9.789389   , -0.000156497641, -9.831763E-05, 0.000402638572, 0.004780941 , -0.019168999, 1.84100819  , 918.6709    , 31.0043812  , 818.880432  , 2.93        , 7           , 255         , 0           , 0
-0.179091454, -0.0463305041, -9.791239   , -8.174352E-05, 9.637821E-05, -0.000186979043, 0.004780157 , -0.019168023, 1.8410064   , 918.6709    , 31.0043812  , 818.880432  , 2.94        , 7           , 255         , 0           , 0
-0.1945069  , -0.0418083444, -9.800463   , 6.20978244E-05, -0.000222130067, -2.81082321E-05, 0.00478078425, -0.0191702414, 1.841006    , 918.6709    , 31.0043812  , 818.880432  , 2.95        , 7           , 255         , 0           , 0
-0.203433841, -0.0500993542, -9.803839   , 9.898876E-05, 0.0001298589, 0.0002391575, 0.00478173  , -0.0191689543, 1.84100842  , 918.6709    , 31.0043812  , 818.880432  , 2.96        , 7           , 255         , 0           , 0
-0.1950802  , -0.0619686954, -9.795244   , 5.60310436E-05, -2.6168098E-05, 0.0004036324, 0.004782213 , -0.0191692356, 1.84101248  , 918.6709    , 31.0043812  , 818.880432  , 2.97        , 7           , 255         , 0           , 0
-0.19122912 , -0.04541281 , -9.791002   , -0.000142812787, -0.000426813436, 0.000171056628, 0.004780753 , -0.0191735178, 1.841014    , 918.6709    , 31.0043812  , 818.880432  , 2.98        , 7           , 255         , 0           , 0
-0.191859469, -0.0453590527, -9.790331   , 6.64430554E-05, 6.003288E-05, -0.000343523367, 0.00478148134, -0.0191728976, 1.84101069  , 918.6709    , 31.0043812  , 818.880432  , 2.99        , 7           , 255         , 0           , 0
-0.191884026, -0.03862778 , -9.79158    , -0.0001502108, -3.46726156E-05, -0.000589307, 0.00478009135, -0.0191732142, 1.84100485  , 918.6709    , 31.0043812  , 818.880432  , 3           , 7           , 0           , 8.054236    , 300
-0.201161623, -0.0332485959, -9.79909    , -0.0003358072, -2.95760983E-05, -0.000129410255, 0.004772498 , -0.0191781968, 1.84100366  , 918.6709    , 31.0043812  , 818.8992    , 3.01        , 7           , 1           , 0           , 0
-0.19627139 , -0.03404188 , -9.79104    , -0.000297078863, 7.46379956E-05, 0.0003502271, 0.00476945937, -0.0191774666, 1.84100711  , 918.6709    , 31.0043812  , 818.8993    , 3.02        , 7           , 2           , 0           , 0
-0.201998517, -0.0354414843, -9.79965    , 5.03988122E-05, 0.00040517372, -0.000339134043, 0.0047700284, -0.0191734  , 1.84100366  , 918.67804   , 31.0038376  , 818.8994    , 3.03        , 7           , 3           , 0           , 0
-0.190546528, -0.0449618138, -9.79301    , 8.99214647E-05, -0.000322959153, -0.00018574149, 0.004770964 , -0.01917662 , 1.84100187  , 918.67804   , 31.0038376  , 818.899536  , 3.04        , 7           , 4           , 0           , 0
-0.197408676, -0.0504440144, -9.78774452 , 0.000111862842, -0.0001425868, -6.206409E-05, 0.004772094 , -0.0191780422, 1.84100127  , 918.67804   , 31.0038376  , 818.899658  , 3.05        , 7           , 5           , 0           , 0
-0.196230143, -0.05654896 , -9.800823   , -0.00042648433, -0.0002758475, -4.635074E-05, 0.00476783933, -0.0191807989, 1.84100068  , 918.67804   , 31.0038376  , 818.8998    , 3.06        , 7           , 6           , 0           , 0
-0.19064267 , -0.0572062954, -9.803961   , -8.802413E-05, -0.0005943549, -1.88663835E-05, 0.004766963 , -0.0191867426, 1.84100056  , 918.67804   , 31.0038376  , 818.899963  , 3.07        , 7           , 7           , 0           , 0
