Acc X       , Acc Y       , Acc Z       , Gyro X      , Gyro Y      , Gyro Z      , Euler X     , Euler Y     , Euler Z     , Pres X      , Pres Y      , Pres Z      , Time        , Status      , LowRate X   , LowRate Y   , LowRate Z    
-0.124133542, 0.128966689 , -9.785171   , 0           , 0           , 0           , -0.013179047, -0.0126841031, 0           , 922.9753    , 31.9315777  , 780.277     , 0           , 2           , 0           , 5.45823145  , 0
-0.121838942, 0.1361711   , -9.788961   , 0.000256984844, 0.0002739408, -1.00308825E-05, -0.0131763434, -0.0126810735, -1.36413334E-07, 922.9753    , 31.9315777  , 780.277     , 0.01        , 3           , 1           , 0           , 0
-0.133060575, 0.141300321 , -9.7934     , 0.000298398721, -0.000134355447, -0.000440222444, -0.0131733045, -0.0126824751, -4.52079939E-06, 922.9753    , 31.9315777  , 780.277     , 0.02        , 3           , 2           , 0           , 0
-0.125527978, 0.135171786 , -9.792631   , 0.000258240063, 0.000371405156, -0.000191488827, -0.0131706977, -0.0126787862, -6.484549E-06, 922.9101    , 31.4930458  , 780.277     , 0.03        , 3           , 3           , 0           , 0
-0.133506447, 0.138494059 , -9.793795   , 0.000189204351, 0.000334608339, -9.833272E-05, -0.0131687932, -0.012675452, -7.511924E-06, 922.9101    , 31.4930458  , 780.277     , 0.04        , 3           , 4           , 0           , 0
-0.135011271, 0.134648383 , -9.786608   , -7.27287261E-06, -0.000137084367, 0.000363543484, -0.0131689124, -0.0126767755, -3.858554E-06, 922.9101    , 31.4930458  , 780.277     , 0.05        , 3           , 5           , 0           , 0
-0.131830588, 0.128979832 , -9.794246   , -0.000329139759, 4.56941925E-05, -0.0005688049, -0.013172131, -0.0126763945, -9.552434E-06, 922.9101    , 31.4930458  , 780.277     , 0.06        , 3           , 6           , 0           , 0
-0.1178844  , 0.133519143 , -9.798842   , -0.000330610317, -0.000100760954, -0.000717658957, -0.013175346, -0.0126774972, -1.671552E-05, 922.9101    , 31.4930458  , 780.277     , 0.07        , 3           , 7           , 0           , 0
-0.124910042, 0.127903447 , -9.792055   , -0.000312507967, -0.000154606969, -0.000300780259, -0.0131784324, -0.0126790823, -1.9702853E-05, 922.9101    , 31.4930458  , 780.277     , 0.08        , 3           , 8           , 5           , 5
-0.1256607  , 0.131906316 , -9.78673    , 0.000765711 , -0.00034580077, -5.32424456E-05, -0.01317077 , -0.0126825469, -2.01896983E-05, 922.9101    , 31.4930458  , 780.277     , 0.09        , 3           , 9           , 5           , 0.1
-0.120033428, 0.137657061 , -9.787699   , 0.00066121167, -0.0003429568, -4.43412318E-05, -0.0131641524, -0.0126859816, -2.0587946E-05, 922.9101    , 31.4930458  , 780.277     , 0.1         , 3           , 10          , 0.1         , 0.1
-0.128817111, 0.1266395   , -9.793739   , 0.00016346651, -0.000180028408, 6.75978954E-05, -0.0131875034, -0.0127001544, -1.95710818E-05, 922.9101    , 31.4930458  , 780.8636    , 0.11        , 3           , 11          , 0.0109544508, 0.0109544508
-0.124303475, 0.133128449 , -9.801448   , -0.0002877972, -4.19237767E-06, -0.00071762997, -0.0131902909, -0.0127002923, -2.6746613E-05, 922.9101    , 31.4930458  , 780.8636    , 0.12        , 3           , 12          , 0.174642488 , 0
-0.122178987, 0.1327195   , -9.791773   , -0.000538167136, 0.00014416335, 0.000159978736, -0.0131956907, -0.0126988292, -2.51658912E-05, 922.993835  , 31.5344982  , 780.8636    , 0.13        , 3           , 13          , 0           , 0
-0.12800464 , 0.129339084 , -9.795463   , -0.0003101463, 0.000348699075, 0.000278763764, -0.0131988274, -0.012695306, -2.24243577E-05, 922.993835  , 31.5344982  , 780.8636    , 0.14        , 3           , 14          , -0.0004015516, -0.000149440079
-0.1324464  , 0.139553636 , -9.793386   , -0.000147780287, 0.0006181337, -0.000481300347, -0.0132002439, -0.0126891881, -2.731879E-05, 922.993835  , 31.5344982  , 780.8636    , 0.15        , 3           , 15          , 0           , 9.53875E-05
-0.116462395, 0.131635815 , -9.795394   , -0.000153946748, -3.972865E-05, 0.000199816292, -0.0132018086, -0.0126895588, -2.53154576E-05, 922.993835  , 31.5344982  , 780.8636    , 0.16        , 3           , 16          , 0           , 1.401298E-45
-0.120156825, 0.125905678 , -9.794542   , -0.0001643051, 7.473529E-05, -0.000394457369, -0.0132034011, -0.012688864, -2.92697714E-05, 922.993835  , 31.5344982  , 780.8636    , 0.17        , 3           , 20          , 0           , 0
-0.132177979, 0.130498126 , -9.791641   , 0.0005406216, 0.0003780916, 0.000255597173, -0.0131980283, -0.0126850484, -2.67638025E-05, 922.993835  , 31.5344982  , 780.8636    , 0.18        , 3           , 21          , 0           , 0
-0.125993356, 0.132350281 , -9.785874   , 0.000390686182, 0.000185601966, -9.925771E-05, -0.0131941084, -0.0126832044, -2.778084E-05, 922.993835  , 31.5344982  , 780.863647  , 0.19        , 3           , 22          , 0           , 0
-0.12346907 , 0.136406317 , -9.786652   , -0.0003083424, 6.545941E-05, -0.0002320972, -0.0131971613, -0.0126825813, -3.01103737E-05, 922.993835  , 31.5344982  , 780.8637    , 0.2         , 3           , 40          , 0           , 0
-0.131818682, 0.136940628 , -9.788043   , 0.000354602525, 0.000309271534, 0.0009924219, -0.0132035306, -0.0126835685, -2.01031089E-05, 922.993835  , 31.5344982  , 780.4866    , 0.21        , 3           , 41          , 0           , 0
-0.125389069, 0.12810117  , -9.797832   , 0.000708196254, 0.000555058941, -8.526207E-05, -0.0131964367, -0.0126780309, -2.10289763E-05, 922.993835  , 31.5344982  , 780.486633  , 0.22        , 3           , 42          , 0           , 0
-0.11249423 , 0.127321079 , -9.792514   , 0.000690071436, 9.74320355E-05, -0.000618491, -0.01318946 , -0.0126771405, -2.722654E-05, 922.9693    , 31.5560036  , 780.4867    , 0.23        , 3           , 255         , 0           , 0
-0.116972946, 0.130883589 , -9.791511   , 3.97255935E-05, -0.000202043855, -0.0005764336, -0.013188988, -0.0126792341, -3.29640461E-05, 922.9693    , 31.5560036  , 780.486755  , 0.24        , 3           , 255         , 0           , 0
-0.124699354, 0.125873014 , -9.78988552 , -0.000161887147, 0.000505477947, -0.000275830971, -0.0131905731, -0.0126742162, -3.57889439E-05, 922.9693    , 31.5560036  , 780.4868    , 0.25        , 3           , 255         , 0           , 0
-0.128535271, 0.129925936 , -9.791948   , 0.000220539659, 0.000138985983, -0.000287081872, -0.0131883286, -0.0126728648, -3.86780157E-05, 922.9693    , 31.5560036  , 780.4869    , 0.26        , 3           , 255         , 0           , 0
-0.126912549, 0.136778817 , -9.788501   , -0.000241682865, 0.00011480727, -0.00056709 , -0.0131906737, -0.012671791, -4.43638746E-05, 922.9693    , 31.5560036  , 780.486938  , 0.27        , 3           , 255         , 0           , 0
-0.131648049, 0.138626173 , -9.793929   , 0.0004472036, -0.000213403429, -0.000592116849, -0.0131861288, -0.012674002, -5.025671E-05, 922.9693    , 31.5560036  , 780.487     , 0.28        , 3           , 255         , 0           , 0
-0.125670776, 0.127545983 , -9.799096   , 0.000218859088, -4.38609568E-05, -0.0005273166, -0.0131838741, -0.01267451 , -5.55239276E-05, 922.9693    , 31.5560036  , 780.487061  , 0.29        , 3           , 255         , 0           , 0
-0.123232558, 0.130425453 , -9.797293   , 5.59157634E-05, -0.0002316705, 1.96572073E-05, -0.0131833162, -0.0126768239, -5.52968268E-05, 922.9693    , 31.5560036  , 780.4871    , 0.3         , 3           , 255         , 0           , 0
-0.125612259, 0.128525838 , -9.805337   , -0.000232939463, -0.000296860759, 2.40232039E-05, -0.0131932758, -0.0126819368, -5.49207471E-05, 922.9693    , 31.5560036  , 780.4346    , 0.31        , 3           , 255         , 0           , 0
-0.128651291, 0.131657675 , -9.793468   , 0.000132119429, -6.34128955E-05, 0.00023754593, -0.013191984, -0.0126825394, -5.25369942E-05, 922.9693    , 31.5560036  , 780.434631  , 0.32        , 3           , 255         , 0           , 0
-0.118514836, 0.136659935 , -9.790139   , 0.0007176188, 8.954445E-05, -0.000405372266, -0.0131847579, -0.0126816966, -5.660241E-05, 922.9625    , 31.5734386  , 780.4347    , 0.33        , 3           , 255         , 0           , 0
-0.116879724, 0.134859666 , -9.790704   , -0.000155826943, 0.000546267664, 4.27562263E-05, -0.0131863207, -0.0126762306, -5.6246874E-05, 922.9625    , 31.5734386  , 780.434753  , 0.34        , 3           , 255         , 0           , 0
-0.124483787, 0.125027552 , -9.78554    , 0.0004598504, -2.097516E-05, -0.000190848979, -0.0131816985, -0.0126764653, -5.81525419E-05, 922.9625    , 31.5734386  , 780.4348    , 0.35        , 3           , 255         , 0           , 0
-0.1284746  , 0.132708818 , -9.789472   , -8.98659346E-06, 7.037756E-05, 0.000193887536, -0.0131818121, -0.0126757352, -5.62229943E-05, 922.9625    , 31.5734386  , 780.4349    , 0.36        , 3           , 255         , 0           , 0
-0.120789386, 0.131147876 , -9.786336   , -0.000255582068, 0.000165530117, -0.0002443738, -0.0131843369, -0.0126741128, -5.868848E-05, 922.9625    , 31.5734386  , 780.434937  , 0.37        , 3           , 255         , 0           , 0
-0.130613208, 0.123436034 , -9.791493   , 0.0003445806, 0.000524816 , -0.000148129184, -0.0131808706, -0.0126688872, -6.02389046E-05, 922.9625    , 31.5734386  , 780.435     , 0.38        , 3           , 255         , 0           , 0
-0.119956896, 0.123494305 , -9.796796   , 0.000344416621, 1.97060581E-05, -0.000319519837, -0.0131773865, -0.0126687307, -6.34366E-05, 922.9625    , 31.5734386  , 780.435059  , 0.39        , 3           , 255         , 0           , 0
-0.123767972, 0.126092553 , -9.796576   , -0.000414017035, 0.000104556086, -0.000682855258, -0.0131814405, -0.0126677761, -7.02787147E-05, 922.9625    , 31.5734386  , 780.4351    , 0.4         , 3           , 255         , 0           , 0
-0.12303786 , 0.122914076 , -9.787498   , 1.3407087E-05, 0.0001535096, -0.0002247695, -0.01318221 , -0.0126648778, -7.25347854E-05, 922.9625    , 31.5734386  , 780.424     , 0.41        , 3           , 255         , 0           , 0
-0.119175315, 0.130719513 , -9.80271    , 0.0003173715, 8.462138E-05, -0.00031943887, -0.0131789949, -0.0126640722, -7.574022E-05, 922.9625    , 31.5734386  , 780.4241    , 0.42        , 3           , 255         , 0           , 0
-0.117069244, 0.125853628 , -9.786207   , 0.000247865275, 0.0006675794, -0.0005180038, -0.01317645 , -0.0126574654, -8.100807E-05, 922.998962  , 31.5830059  , 780.424133  , 0.43        , 3           , 255         , 0           , 0
-0.118496753, 0.118735313 , -9.778396   , 0.00027275912, 0.0004602566, -0.00070324156, -0.0131736333, -0.01265296 , -8.810091E-05, 922.998962  , 31.5830059  , 780.4242    , 0.44        , 3           , 255         , 0           , 0
-0.127235889, 0.119765088 , -9.794425   , 0.0005725033, -0.000130908986, 0.0002194398, -0.0131679354, -0.0126542393, -8.588935E-05, 922.998962  , 31.5830059  , 780.424255  , 0.45        , 3           , 255         , 0           , 0
-0.119294688, 0.12235149  , -9.792285   , 0.000299272215, 0.0002894496, -0.0007034054, -0.0131648537, -0.012651437, -9.296127E-05, 922.998962  , 31.5830059  , 780.4243    , 0.46        , 3           , 255         , 0           , 0
-0.1212039  , 0.12015263  , -9.790501   , 0.0003039437, -0.00017810303, -0.000343640422, -0.0131617719, -0.0126532633, -9.63741259E-05, 922.998962  , 31.5830059  , 780.4244    , 0.47        , 3           , 255         , 0           , 0
-0.129716486, 0.136365056 , -9.787436   , -0.0002402344, 0.00038620556, -0.000165747508, -0.0131641533, -0.0126494234, -9.808238E-05, 922.998962  , 31.5830059  , 780.424438  , 0.48        , 3           , 255         , 0           , 0
-0.127122819, 0.134314984 , -9.783748   , -0.000155020709, 0.000723669247, -0.000300846936, -0.0131656639, -0.0126422262, -0.000101186022, 922.998962  , 31.5830059  , 780.4245    , 0.49        , 3           , 255         , 0           , 0
-0.133665174, 0.131781548 , -9.78396    , -0.000108170818, 0.000468557 , 0.000532196835, -0.0131668122, -0.0126374718, -9.592591E-05, 922.998962  , 31.5830059  , 780.424561  , 0.5         , 3           , 255         , 0           , 0
-0.126196653, 0.1295832   , -9.778354   , 0.000119912875, 3.52305578E-05, 7.13291447E-05, -0.0131527446, -0.0126357451, -9.538E-05  , 922.998962  , 31.5830059  , 780.350952  , 0.51        , 3           , 255         , 0           , 0
-0.129000887, 0.133196458 , -9.791754   , -0.000295611942, 0.000227192271, -3.99097626E-05, -0.0131556951, -0.01263348 , -9.58089659E-05, 922.998962  , 31.5830059  , 780.351     , 0.52        , 3           , 255         , 0           , 0
-0.123498484, 0.136545688 , -9.79101849 , -0.0004992633, -0.00013837521, 0.000159127463, -0.0131607065, -0.0126348427, -9.419953E-05, 922.98645   , 31.591486   , 780.3511    , 0.53        , 3           , 255         , 0           , 0
-0.1192788  , 0.131978542 , -9.791708   , -0.000635651639, 1.86730176E-06, 0.000124838378, -0.0131670786, -0.0126348073, -9.29514354E-05, 922.98645   , 31.591486   , 780.351135  , 0.54        , 3           , 255         , 0           , 0
-0.121286832, 0.1347085   , -9.791456   , -0.000233479281, 5.837545E-05, 0.00011507047, -0.0131694274, -0.0126342084, -9.18084552E-05, 922.98645   , 31.591486   , 780.3512    , 0.55        , 3           , 255         , 0           , 0
-0.125782326, 0.139084414 , -9.797102   , 0.000281341141, -0.0005451378, 0.0003980394, -0.013166666, -0.0126396054, -8.77564E-05, 922.98645   , 31.591486   , 780.351257  , 0.56        , 3           , 255         , 0           , 0
-0.131375358, 0.13831839  , -9.788933   , 0.000230226738, 0.000151491986, 0.0007669819, -0.0131644607, -0.0126379887, -8.01067654E-05, 922.98645   , 31.591486   , 780.3513    , 0.57        , 3           , 255         , 0           , 0
-0.133340478, 0.144218132 , -9.793337   , -0.000439123745, 0.0005777229, -0.0007632663, -0.0131687541, -0.012632315, -8.781524E-05, 922.98645   , 31.591486   , 780.3514    , 0.58        , 3           , 255         , 0           , 0
-0.118828878, 0.133831143 , -9.797372   , -2.31384474E-05, 6.210379E-06, -0.000548091833, -0.0131689161, -0.0126323253, -9.3296796E-05, 922.98645   , 31.591486   , 780.35144   , 0.59        , 3           , 255         , 0           , 0
-0.1185046  , 0.131576061 , -9.794405   , -0.000182337273, -2.40621739E-05, 0.0001202194, -0.0131707545, -0.01263255 , -9.20914754E-05, 922.98645   , 31.591486   , 780.3515    , 0.6         , 3           , 255         , 0           , 0
-0.122118354, 0.12388961  , -9.79132652 , 0.000136062677, 9.130548E-05, 0.0004408638, -0.0131925764, -0.0126351435, -8.74027755E-05, 922.98645   , 31.591486   , 780.321167  , 0.61        , 3           , 255         , 0           , 0
-0.117103279, 0.125755429 , -9.792488   , 0.000144685822, 0.000482405536, 0.000215124339, -0.013191158, -0.0126302913, -8.531525E-05, 922.98645   , 31.591486   , 780.3212    , 0.62        , 3           , 255         , 0           , 0
-0.115125343, 0.128981128 , -9.79637    , 0.000224199408, 7.20739044E-05, -8.397066E-06, -0.0131889153, -0.0126295714, -8.540872E-05, 922.9786    , 31.6006432  , 780.3213    , 0.63        , 3           , 255         , 0           , 0
-0.122174978, 0.132363036 , -9.790213   , -0.0004433735, -0.000120123179, 0.000211198058, -0.0131933745, -0.0126307458, -8.328097E-05, 922.9786    , 31.6006432  , 780.32135   , 0.64        , 3           , 255         , 0           , 0
-0.119667053, 0.1297467   , -9.791246   , -1.31305133E-05, 0.000474144967, 0.000268580567, -0.0131935393, -0.0126259681, -8.06578E-05, 922.9786    , 31.6006432  , 780.3214    , 0.65        , 3           , 255         , 0           , 0
-0.117312595, 0.124609992 , -9.787119   , 0.000489267462, -7.62024138E-05, 5.79515035E-05, -0.0131886555, -0.0126267215, -8.00682537E-05, 922.9786    , 31.6006432  , 780.3215    , 0.66        , 3           , 255         , 0           , 0
-0.117273249, 0.127095371 , -9.793339   , 0.000597422943, -6.052587E-05, 0.000340099825, -0.0131827239, -0.0126272868, -7.665937E-05, 922.9786    , 31.6006432  , 780.321533  , 0.67        , 3           , 255         , 0           , 0
-0.131079078, 0.124495722 , -9.791786   , 0.000400639838, 0.000236290289, 0.00107546768, -0.0131788524, -0.01262478 , -6.593619E-05, 922.9786    , 31.6006432  , 780.3216    , 0.68        , 3           , 255         , 0           , 0
-0.122518383, 0.131722569 , -9.786367   , 0.00103292649, 0.000199002374, 0.0003175721, -0.013168565, -0.01262275 , -6.27867557E-05, 922.9786    , 31.6006432  , 780.321655  , 0.69        , 3           , 255         , 0           , 0
-0.120938465, 0.13651526  , -9.793088   , 0.0001702279, 0.0003371173, -0.000401060475, -0.0131668113, -0.0126194311, -6.684162E-05, 922.9786    , 31.6006432  , 780.3217    , 0.7         , 3           , 255         , 0           , 0
-0.126159042, 0.130859748 , -9.793012   , 4.44043253E-05, 0.000271998928, -1.27259991E-05, -0.01316394 , -0.0126054175, -6.703527E-05, 922.9786    , 31.6006432  , 780.3106    , 0.71        , 3           , 255         , 0           , 0
-0.136725157, 0.124598026 , -9.789895   , 0.0004244652, -7.98170659E-05, 0.0009088843, -0.0131598115, -0.0126060974, -5.793619E-05, 922.9786    , 31.6006432  , 780.310669  , 0.72        , 3           , 255         , 0           , 0
-0.125720114, 0.128676385 , -9.788763   , -0.000120207987, -9.279983E-05, 0.000299873616, -0.013161052, -0.0126069849, -5.492533E-05, 923.0074    , 31.6015263  , 780.3107    , 0.73        , 3           , 255         , 0           , 0
-0.117259815, 0.130481467 , -9.794837   , 0.0002731244, 0.0001398274, 0.000314263423, -0.01315836 , -0.0126055451, -5.18011875E-05, 923.0074    , 31.6015263  , 780.3108    , 0.74        , 3           , 255         , 0           , 0
-0.126089692, 0.1285947   , -9.802958   , -4.87684447E-05, 0.000354250136, 0.000314787059, -0.0131588867, -0.0126019614, -4.87000361E-05, 923.0074    , 31.6015263  , 780.310852  , 0.75        , 3           , 255         , 0           , 0
-0.117525615, 0.125843465 , -9.790369   , 8.23338341E-05, 0.000278373773, 0.000362015737, -0.01315811 , -0.0125991339, -4.51166234E-05, 923.0074    , 31.6015263  , 780.3109    , 0.76        , 3           , 255         , 0           , 0
-0.116529748, 0.127950758 , -9.79319    , -0.000168784725, 9.327584E-05, -0.0005338084, -0.01315973 , -0.01259827 , -5.04668023E-05, 923.0074    , 31.6015263  , 780.311     , 0.77        , 3           , 255         , 0           , 0
-0.124793611, 0.1265084   , -9.782785   , -0.000584095, 0.000441904354, -0.000292397919, -0.0131655326, -0.01259389 , -5.34488536E-05, 923.0074    , 31.6015263  , 780.311035  , 0.78        , 3           , 255         , 0           , 0
-0.120684542, 0.120992757 , -9.783274   , 7.273318E-05, 0.0002571339, -0.0006610186, -0.0131647224, -0.0125914048, -6.00926833E-05, 923.0074    , 31.6015263  , 780.3111    , 0.79        , 3           , 255         , 0           , 0
-0.121685565, 0.1259665   , -9.788834   , 0.0003005566, 2.67940341E-05, -0.000243924485, -0.0131616862, -0.0125911692, -6.253537E-05, 923.0074    , 31.6015263  , 780.3112    , 0.8         , 3           , 255         , 0           , 0
-0.129487634, 0.127922133 , -9.794069   , -0.000217707944, 3.72605355E-05, -0.000387986423, -0.0131572941, -0.0125904968, -6.65021144E-05, 923.0074    , 31.6015263  , 780.2668    , 0.81        , 3           , 255         , 0           , 0
-0.125058368, 0.1270483   , -9.792056   , 4.645434E-05, -4.06525069E-05, -0.000199778442, -0.0131568033, -0.01259093 , -6.84945044E-05, 923.0074    , 31.6015263  , 780.266846  , 0.82        , 3           , 255         , 0           , 0
-0.119455889, 0.1310232   , -9.788308   , -3.38335522E-05, 6.145303E-06, -0.000595512858, -0.0131570669, -0.0125909466, -7.445025E-05, 922.9471    , 31.6017971  , 780.2669    , 0.83        , 3           , 255         , 0           , 0
-0.12483345 , 0.1308585   , -9.783112   , -5.77639439E-05, 2.26134E-05 , -6.609889E-05, -0.0131576359, -0.01259073 , -7.51141852E-05, 922.9471    , 31.6017971  , 780.266968  , 0.84        , 3           , 255         , 0           , 0
-0.130838484, 0.133508414 , -9.790652   , 0.0006623077, -0.000160350071, 0.0009015318, -0.0131511269, -0.012592216, -6.60780352E-05, 922.9471    , 31.6017971  , 780.267     , 0.85        , 3           , 255         , 0           , 0
-0.122839428, 0.128491014 , -9.796499   , 0.000168091879, -0.000226562392, 0.00026490062, -0.0131494794, -0.0125944475, -6.339933E-05, 922.9471    , 31.6017971  , 780.2671    , 0.86        , 3           , 255         , 0           , 0
-0.126851439, 0.117838144 , -9.797144   , 0.000231276616, 7.441346E-05, -0.000466921018, -0.0131471073, -0.0125937639, -6.807818E-05, 922.9471    , 31.6017971  , 780.267151  , 0.87        , 3           , 255         , 0           , 0
-0.125327036, 0.123323217 , -9.788589   , -0.000290001219, 8.48682539E-05, -0.00017120046, -0.0131499851, -0.0125929378, -6.980129E-05, 922.9471    , 31.6017971  , 780.2672    , 0.88        , 3           , 255         , 0           , 0
-0.1208327  , 0.129608363 , -9.796614   , 3.15744546E-06, -0.000212629282, 0.000294372847, -0.0131499907, -0.0125950258, -6.68296852E-05, 922.9471    , 31.6017971  , 780.2673    , 0.89        , 3           , 255         , 0           , 0
-0.123891294, 0.130397275 , -9.793074   , 0.000575258746, -0.00033670367, -0.000129737818, -0.013144224, -0.0125984093, -6.808274E-05, 922.9471    , 31.6017971  , 780.267334  , 0.9         , 3           , 255         , 0           , 0
-0.119756177, 0.129870847 , -9.797211   , 0.0005551343, -0.000265139737, -0.0004136712, -0.0131360469, -0.0126063023, -7.221695E-05, 922.9471    , 31.6017971  , 780.3013    , 0.91        , 3           , 255         , 0           , 0
-0.12624225 , 0.124329507 , -9.790201   , -0.000127922714, 0.0001666333, -0.000383884355, -0.0131372772, -0.0126046864, -7.607756E-05, 922.9471    , 31.6017971  , 780.3014    , 0.92        , 3           , 255         , 0           , 0
-0.118638396, 0.126376554 , -9.796793   , -0.00010142292, -2.67248543E-05, -0.0006282575, -0.0131382113, -0.0126050357, -8.2356426E-05, 922.959534  , 31.605732   , 780.3015    , 0.93        , 3           , 255         , 0           , 0
-0.126175374, 0.128997132 , -9.799947   , 0.0001478726, 5.38673266E-05, -1.30120607E-05, -0.0131367315, -0.0126044992, -8.249361E-05, 922.959534  , 31.605732   , 780.301636  , 0.94        , 3           , 255         , 0           , 0
-0.128719255, 0.1253879   , -9.799501   , -0.0004061756, -0.000349410169, -0.000227631681, -0.013140765, -0.0126080224, -8.472395E-05, 922.959534  , 31.605732   , 780.301758  , 0.95        , 3           , 255         , 0           , 0
-0.123245075, 0.135920033 , -9.793881   , -3.23839777E-05, -0.000112175694, 0.000190841354, -0.0131411133, -0.0126091195, -8.2800856E-05, 922.959534  , 31.605732   , 780.3019    , 0.96        , 3           , 255         , 0           , 0
-0.1198925  , 0.141602963 , -9.790163   , 0.000186669262, 0.00051650696, -0.000133321955, -0.0131392293, -0.0126039721, -8.420189E-05, 922.959534  , 31.605732   , 780.302     , 0.97        , 3           , 255         , 0           , 0
-0.1229229  , 0.1421555   , -9.797827   , -0.0001190723, 0.0002983323, -0.000339285267, -0.0131403767, -0.0126010338, -8.76338454E-05, 922.959534  , 31.605732   , 780.3021    , 0.98        , 3           , 255         , 0           , 0
-0.126865223, 0.128703579 , -9.793311   , 9.900011E-05, -5.8661506E-05, -0.00102729129, -0.0131392581, -0.0126017574, -9.78987155E-05, 922.959534  , 31.605732   , 780.302246  , 0.99        , 3           , 255         , 0           , 0
-0.134687379, 0.133912086 , -9.798595   , -0.00022139182, -0.000277333544, 0.000183306693, -0.0131414933, -0.0126045058, -9.602925E-05, 922.959534  , 31.605732   , 780.302368  , 1           , 3           , 0           , 6.458236    , 100
-0.126284346, 0.13143149  , -9.790966   , 1.44645164E-05, -4.83844633E-05, 0.000625349 , -0.0131487278, -0.01260783 , -8.967755E-05, 922.959534  , 31.605732   , 780.3169    , 1.01        , 3           , 1           , 0           , 0
-0.12838462 , 0.129868641 , -9.791168   , 0.0005095424, 0.0002861846, -0.0002111572, -0.0131436074, -0.0126049947, -9.182667E-05, 922.959534  , 31.605732   , 780.3171    , 1.02        , 3           , 2           , 0           , 0
-0.1308591  , 0.126430944 , -9.792692   , 0.000187438316, -0.0001186407, -0.000424862374, -0.01314168 , -0.012606238, -9.605957E-05, 922.983948  , 31.60987    , 780.317261  , 1.03        , 3           , 3           , 0           , 0
-0.128803819, 0.132794231 , -9.794822   , 4.843544E-05, 0.000178292859, -0.000532224, -0.0131411282, -0.0126045244, -0.000101405058, 922.983948  , 31.60987    , 780.317444  , 1.04        , 3           , 4           , 0           , 0
-0.131063551, 0.123996675 , -9.793106   , 3.28602327E-05, 0.000381237944, 0.000324087741, -0.0131408414, -0.01260067 , -9.82143756E-05, 922.983948  , 31.60987    , 780.3176    , 1.05        , 3           , 5           , 0           , 0
-0.118746519, 0.126819462 , -9.795343   , 2.97078223E-05, 0.000168053855, -0.0007436099, -0.01314045 , -0.0125990864, -0.000105672327, 922.983948  , 31.60987    , 780.3178    , 1.06        , 3           , 6           , 0           , 0
-0.1236738  , 0.13172406  , -9.787572   , -6.531412E-05, -8.034964E-05, -5.21176E-05, -0.0131410966, -0.0125998966, -0.000106182932, 922.983948  , 31.60987    , 780.318     , 1.07        , 3           , 7           , 0           , 0
-0.12189009 , 0.1346063   , -9.787366   , -0.000150669308, 0.000182216361, -8.16817337E-05, -0.0131425913, -0.0125980852, -0.000107023683, 922.983948  , 31.60987    , 780.3182    , 1.08        , 3           , 8           , 5           , 5
-0.126442268, 0.129562631 , -9.79502    , 0.000187117272, -2.48989672E-05, -0.0007673591, -0.0131406244, -0.0125984345, -0.000114693765, 922.983948  , 31.60987    , 780.318359  , 1.09        , 3           , 9           , 5           , 0.1
-0.1310581  , 0.126014709 , -9.798082   , 4.75888955E-05, 0.000303695328, -0.0003751857, -0.0131401  , -0.0125954514, -0.000118485405, 922.983948  , 31.60987    , 780.318542  , 1.1         , 3           , 10          , 0.1         , 0.1
-0.12178316 , 0.126156226 , -9.79069    , -2.08460551E-05, -0.000166121346, 0.000101776219, -0.0131421518, -0.0126066124, -0.000117422809, 922.983948  , 31.60987    , 780.304749  , 1.11        , 3           , 11          , 0.009112629 , 0.009112629
-0.115036085, 0.132389739 , -9.782205   , 0.000194486085, -9.493029E-05, -0.000184173521, -0.0131401839, -0.0126075847, -0.000119252014, 922.983948  , 31.60987    , 780.3049    , 1.12        , 3           , 12          , 0.174642846 , 0
-0.114532188, 0.1312339   , -9.789119   , 0.0002610613, -0.000138337637, 0.0001295959, -0.01313759 , -0.01260895 , -0.000117937925, 922.998962  , 31.6104126  , 780.305     , 1.13        , 3           , 13          , 0           , 0
-0.1245798  , 0.131995231 , -9.793106   , 0.000179803988, -0.000228897727, 0.0007234037, -0.013135884, -0.0126111442, -0.000110674038, 922.998962  , 31.6104126  , 780.3051    , 1.14        , 3           , 14          , -0.000401539, -0.000149425439
-0.126510933, 0.122513071 , -9.801463   , -4.18997079E-05, -0.0003334328, 0.000568969466, -0.0131363748, -0.0126144029, -0.000104940736, 922.998962  , 31.6104126  , 780.305237  , 1.15        , 3           , 15          , 0           , 9.538752E-05
-0.115812041, 0.128217772 , -9.796071   , -0.000362369319, -0.0001826942, 0.000187050115, -0.0131400228, -0.012616206, -0.000103046288, 922.998962  , 31.6104126  , 780.305359  , 1.16        , 3           , 16          , 0           , 1.401298E-45
-0.123411559, 0.12937884  , -9.794694   , 7.777428E-05, -2.09196587E-05, 0.00012110659, -0.0131392591, -0.0126163987, -0.000101832506, 922.998962  , 31.6104126  , 780.3055    , 1.17        , 3           , 20          , 0           , 0
-0.125963509, 0.131592259 , -9.796504   , -0.000238684268, 0.000156997 , -6.05234782E-05, -0.0131416395, -0.0126148378, -0.000102458347, 922.998962  , 31.6104126  , 780.305664  , 1.18        , 3           , 21          , 0           , 0
-0.120525837, 0.135137513 , -9.791827   , -0.0006886269, -9.6873E-05 , -0.000175003865, -0.0131485024, -0.0126158288, -0.000104195613, 922.998962  , 31.6104126  , 780.305847  , 1.19        , 3           , 22          , 0           , 0
-0.12004067 , 0.13491337  , -9.791104   , -0.000342402753, 0.000130626024, -0.000917150232, -0.0131518105, -0.0126146413, -0.000113383969, 922.998962  , 31.6104126  , 780.306     , 1.2         , 3           , 40          , 0           , 0
-0.1311896  , 0.125219375 , -9.791245   , -0.000194357563, -0.0001559072, -0.000477174239, -0.0131584872, -0.0126086427, -0.000118074626, 922.998962  , 31.6104126  , 780.278748  , 1.21        , 3           , 41          , 0           , 0
-0.119774438, 0.1272507   , -9.797532   , -4.64888E-05, -0.0001209966, -0.0002770374, -0.0131589165, -0.01260989 , -0.000120828983, 922.998962  , 31.6104126  , 780.2788    , 1.22        , 3           , 42          , 0           , 0
-0.1150643  , 0.130906418 , -9.801419   , -0.0001390849, 0.00019739056, 0.000329988252, -0.0131603489, -0.0126078725, -0.00011755521, 922.973267  , 31.61116    , 780.2789    , 1.23        , 3           , 255         , 0           , 0
-0.124838427, 0.130727559 , -9.800206   , -0.000421872042, -0.000153239744, 0.000820163463, -0.0131646721, -0.0126092965, -0.000109333654, 922.973267  , 31.61116    , 780.278931  , 1.24        , 3           , 255         , 0           , 0
-0.134573862, 0.127240062 , -9.798944   , -0.000564514543, -0.00015247929, 0.000604237954, -0.0131703932, -0.012610741, -0.000103271384, 922.973267  , 31.61116    , 780.279     , 1.25        , 3           , 255         , 0           , 0
-0.13543646 , 0.132673889 , -9.793543   , 0.000203288975, 0.000312971359, -9.777947E-05, -0.0131683471, -0.0126076248, -0.000104290375, 922.973267  , 31.61116    , 780.279053  , 1.26        , 3           , 255         , 0           , 0
-0.122992314, 0.126434624 , -9.791022   , 0.000701459241, 5.248087E-05, -0.0009968309, -0.0131612085, -0.0126072327, -0.000114265262, 922.973267  , 31.61116    , 780.2791    , 1.27        , 3           , 255         , 0           , 0
-0.1281699  , 0.126234218 , -9.795172   , 0.000402126258, -0.000171509673, -0.00028752652, -0.0131571516, -0.0126089836, -0.000117117866, 922.973267  , 31.61116    , 780.2792    , 1.28        , 3           , 255         , 0           , 0
-0.121123947, 0.12579377  , -9.794782   , 2.88126175E-05, -5.5870667E-05, 0.000261089532, -0.0131568965, -0.0126095079, -0.000114499686, 922.973267  , 31.61116    , 780.279236  , 1.29        , 3           , 255         , 0           , 0
-0.116009913, 0.130980417 , -9.792925   , -0.000110716239, 1.77802576E-06, 0.000596247 , -0.0131580792, -0.012609412, -0.000108537643, 922.973267  , 31.61116    , 780.279358  , 1.3         , 3           , 255         , 0           , 0
-0.1255314  , 0.136791244 , -9.793744   , 0.000619127066, 0.000292323035, -6.077605E-05, -0.0131504089, -0.0126096  , -0.000109202396, 922.973267  , 31.61116    , 780.281433  , 1.31        , 3           , 255         , 0           , 0
-0.131920025, 0.131559417 , -9.792383   , -2.90259777E-05, 0.000359963917, -0.000238028588, -0.01315067 , -0.0126060341, -0.000111629925, 922.973267  , 31.61116    , 780.281555  , 1.32        , 3           , 255         , 0           , 0
-0.122278228, 0.132109091 , -9.801956   , -0.000103873754, 0.0003091205, -0.000592268945, -0.0131516336, -0.01260302 , -0.000117593081, 922.9735    , 31.6125851  , 780.2817    , 1.33        , 3           , 255         , 0           , 0
-0.129110366, 0.127564684 , -9.791896   , -0.000457188959, -0.000156640221, -0.0008545919, -0.0131560974, -0.0126046976, -0.000126118117, 922.9735    , 31.6125851  , 780.2818    , 1.34        , 3           , 255         , 0           , 0
-0.127742067, 0.130746856 , -9.801797   , 0.000466708152, -0.0003007915, -0.000319321523, -0.0131513886, -0.0126077486, -0.000129271662, 922.9735    , 31.6125851  , 780.2819    , 1.35        , 3           , 255         , 0           , 0
-0.122832879, 0.125939876 , -9.794293   , 0.000546938449, 2.71555909E-05, -0.0005703702, -0.0131458491, -0.0126075549, -0.000134978764, 922.9735    , 31.6125851  , 780.282043  , 1.36        , 3           , 255         , 0           , 0
-0.132285744, 0.121464632 , -9.791677   , 0.0001992991, 0.000550642668, 0.000467507867, -0.0131439148, -0.0126019875, -0.000130376211, 922.9735    , 31.6125851  , 780.282166  , 1.37        , 3           , 255         , 0           , 0
-0.127047062, 0.126879051 , -9.791996   , 0.0003399655, -4.30066575E-05, 0.000941799546, -0.0131406346, -0.0126022911, -0.000120952864, 922.9735    , 31.6125851  , 780.2823    , 1.38        , 3           , 255         , 0           , 0
-0.1122814  , 0.124211095 , -9.7896595  , 0.0005448101, 0.000381062418, 0.000294244033, -0.0131352246, -0.0125984456, -0.000118060569, 922.9735    , 31.6125851  , 780.2824    , 1.39        , 3           , 255         , 0           , 0
-0.115726672, 0.132110283 , -9.79093552 , 0.000381671 , 0.0003417618, 0.000326014822, -0.0131314481, -0.0125949867, -0.00011484541, 922.9735    , 31.6125851  , 780.282532  , 1.4         , 3           , 255         , 0           , 0
-0.118605793, 0.131675959 , -9.79773    , 6.16532634E-06, -0.000171666892, -0.000131323235, -0.0131316306, -0.01259962 , -0.000116132775, 922.9735    , 31.6125851  , 780.283936  , 1.41        , 3           , 255         , 0           , 0
-0.122807279, 0.129963249 , -9.798281   , -1.56314927E-05, -0.0005031943, 0.0004733554, -0.0131318476, -0.0126045877, -0.000111333284, 922.9735    , 31.6125851  , 780.284058  , 1.42        , 3           , 255         , 0           , 0
-0.12063764 , 0.129619226 , -9.792898   , 6.363826E-05, 0.000407997461, 0.00019583042, -0.0131312367, -0.0126004843, -0.000109428634, 922.9794    , 31.6143475  , 780.2842    , 1.43        , 3           , 255         , 0           , 0
-0.122659743, 0.117945358 , -9.793308   , 0.00017312626, 0.000544586743, 0.000332260272, -0.0131295444, -0.0125949951, -0.000106177635, 922.9794    , 31.6143475  , 780.2843    , 1.44        , 3           , 255         , 0           , 0
-0.132524669, 0.129618928 , -9.78917    , -0.000204218144, 0.0005610587, 0.000657692144, -0.0131316688, -0.0125892982, -9.967461E-05, 922.9794    , 31.6143475  , 780.2844    , 1.45        , 3           , 255         , 0           , 0
-0.1326699  , 0.131208584 , -9.802546   , 0.000369304384, 0.000196013643, 0.000281408516, -0.0131280115, -0.0125873052, -9.688633E-05, 922.9794    , 31.6143475  , 780.284546  , 1.46        , 3           , 255         , 0           , 0
-0.129242226, 0.138470262 , -9.798246   , 0.0004639834, -0.000127163847, 3.568663E-05, -0.0131233754, -0.01258857 , -9.65128E-05, 922.9794    , 31.6143475  , 780.284668  , 1.47        , 3           , 255         , 0           , 0
-0.123572335, 0.130708322 , -9.799355   , 0.0005488077, 0.0001141813, 0.00066178065, -0.0131179718, -0.0125873415, -8.991018E-05, 922.9794    , 31.6143475  , 780.2848    , 1.48        , 3           , 255         , 0           , 0
-0.114965118, 0.128206968 , -9.799363   , 0.0003183495, -0.0002525304, 5.2974865E-06, -0.0131147886, -0.0125898654, -8.982409E-05, 922.9794    , 31.6143475  , 780.2849    , 1.49        , 3           , 255         , 0           , 0
-0.123704277, 0.131811157 , -9.784841   , -0.000313681085, 2.59354274E-05, -2.07239136E-05, -0.0131179234, -0.0125896093, -9.003471E-05, 922.9794    , 31.6143475  , 780.285034  , 1.5         , 3           , 255         , 0           , 0
-0.127030283, 0.128202409 , -9.78497    , -0.000300477, 8.606461E-05, -0.0001260975, -0.0131237144, -0.0125904586, -9.127166E-05, 922.9794    , 31.6143475  , 780.2801    , 1.51        , 3           , 255         , 0           , 0
-0.130206153, 0.139268652 , -9.789509   , -0.000469958264, 0.000633992255, -0.00109521835, -0.0131282751, -0.0125842653, -0.0001023067, 922.9794    , 31.6143475  , 780.2802    , 1.52        , 3           , 255         , 0           , 0
-0.131893829, 0.12568143  , -9.790315   , -0.0007775347, -0.000100586607, -0.000268017815, -0.0131360162, -0.0125853047, -0.000104973587, 923.0199    , 31.6136017  , 780.280334  , 1.53        , 3           , 255         , 0           , 0
-0.127925083, 0.137082756 , -9.792009   , -9.442857E-05, 0.000233381114, -0.00035166106, -0.0131369149, -0.0125830173, -0.00010852074, 923.0199    , 31.6136017  , 780.280457  , 1.54        , 3           , 255         , 0           , 0
-0.11513909 , 0.129683    , -9.794287   , -0.000133044465, 2.53961334E-05, -0.000105834108, -0.0131382318, -0.012582778, -0.00010958239, 923.0199    , 31.6136017  , 780.2806    , 1.55        , 3           , 255         , 0           , 0
-0.119786285, 0.132874757 , -9.793822   , -9.75574658E-05, -0.000115499381, -0.000501844, -0.0131391427, -0.012583998, -0.000114585491, 923.0199    , 31.6136017  , 780.2807    , 1.56        , 3           , 255         , 0           , 0
-0.127159864, 0.138288513 , -9.790541   , -0.000115038623, 0.000392812333, -0.000107321044, -0.0131402807, -0.0125800837, -0.000115710282, 923.0199    , 31.6136017  , 780.2808    , 1.57        , 3           , 255         , 0           , 0
-0.1259469  , 0.134808391 , -9.796739   , 0.000468035461, 0.000169196486, -0.000157329341, -0.0131355813, -0.012578412, -0.000117305761, 923.0199    , 31.6136017  , 780.280945  , 1.58        , 3           , 255         , 0           , 0
-0.123429395, 0.130957529 , -9.794115   , 0.0004158334, 0.000203985444, -0.000361030252, -0.0131313773, -0.0125764189, -0.000120942728, 923.0199    , 31.6136017  , 780.281067  , 1.59        , 3           , 255         , 0           , 0
-0.1247525  , 0.132708356 , -9.787642   , -0.000116955693, -0.000102011036, 0.000429278269, -0.013132601, -0.0125773828, -0.000116636707, 923.0199    , 31.6136017  , 780.2812    , 1.6         , 3           , 255         , 0           , 0
-0.136210769, 0.128001377 , -9.799292   , -1.15441508E-05, 0.000268057833, 0.000170037 , -0.0131447893, -0.0125805642, -0.000114819966, 923.0199    , 31.6136017  , 780.233032  , 1.61        , 3           , 255         , 0           , 0
-0.120036349, 0.121454753 , -9.799215   , -0.000284018577, 2.78763182E-05, 0.000112759946, -0.0131476447, -0.0125802709, -0.000113696056, 923.0199    , 31.6136017  , 780.2329    , 1.62        , 3           , 255         , 0           , 0
-0.11962378 , 0.129125774 , -9.796413   , 0.000465986843, -3.42956337E-05, -7.02342659E-05, -0.013142975, -0.0125806229, -0.000114393857, 923.0106    , 31.6130581  , 780.2328    , 1.63        , 3           , 255         , 0           , 0
-0.114441112, 0.132719442 , -9.797144   , 0.000586810755, 0.000207704055, -0.0003085123, -0.0131370686, -0.01257859 , -0.000117506177, 923.0106    , 31.6130581  , 780.232666  , 1.64        , 3           , 255         , 0           , 0
-0.1290421  , 0.1274931   , -9.801912   , 0.0002201063, 9.224603E-05, -0.000216847067, -0.0131348409, -0.0125776939, -0.000119686694, 923.0106    , 31.6130581  , 780.232544  , 1.65        , 3           , 255         , 0           , 0
-0.12533    , 0.132409051 , -9.795742   , 0.000305781839, -0.000184781835, -6.256369E-05, -0.013131774, -0.0125795491, -0.000120288045, 923.0106    , 31.6130581  , 780.2324    , 1.66        , 3           , 255         , 0           , 0
-0.131386787, 0.127238229 , -9.787951   , -0.000160075142, -0.0002458896, -0.0003947146, -0.0131333265, -0.01258206 , -0.000124202765, 923.0106    , 31.6130581  , 780.2323    , 1.67        , 3           , 255         , 0           , 0
-0.133368045, 0.12795186  , -9.792256   , -2.60547386E-05, 0.0003243406, 0.0007176254, -0.0131336777, -0.012578723, -0.000117069329, 923.0106    , 31.6130581  , 780.2322    , 1.68        , 3           , 255         , 0           , 0
-0.12436153 , 0.141807482 , -9.800872   , -0.000343408785, 9.974086E-06, 0.000778043 , -0.0131372074, -0.0125785219, -0.000109290442, 923.0106    , 31.6130581  , 780.232056  , 1.69        , 3           , 255         , 0           , 0
-0.132559389, 0.132924139 , -9.787602   , 0.000121660676, -7.014141E-05, -0.000404255843, -0.0131359426, -0.0125792762, -0.000113323666, 923.0106    , 31.6130581  , 780.231934  , 1.7         , 3           , 255         , 0           , 0
-0.127980545, 0.127516031 , -9.78601    , -0.0005839218, -0.0003269805, -0.00036678894, -0.0131446412, -0.0125895208, -0.00011691187, 923.0106    , 31.6130581  , 780.1984    , 1.71        , 3           , 255         , 0           , 0
-0.118988656, 0.134050086 , -9.786761   , -0.000589638948, -7.847475E-05, -1.87453843E-05, -0.0131505355, -0.0125903077, -0.000117088995, 923.0106    , 31.6130581  , 780.1982    , 1.72        , 3           , 255         , 0           , 0
-0.124670506, 0.131175667 , -9.792345   , -0.000440427073, 0.000268963166, -0.000622380641, -0.0131548615, -0.012587701, -0.000123347971, 922.9877    , 31.6122456  , 780.197937  , 1.73        , 3           , 255         , 0           , 0
-0.133427829, 0.123702921 , -9.7871     , 0.000405025552, 3.00651882E-05, -1.15573348E-05, -0.0131508084, -0.0125874011, -0.000123467515, 922.9877    , 31.6122456  , 780.1977    , 1.74        , 3           , 255         , 0           , 0
-0.12897861 , 0.126950234 , -9.791341   , -4.535183E-05, -0.00015380884, -0.000284677342, -0.0131512266, -0.012588976, -0.000126293977, 922.9877    , 31.6122456  , 780.197449  , 1.75        , 3           , 255         , 0           , 0
-0.1217185  , 0.130658537 , -9.801366   , 0.000407436659, 0.000422431331, -0.0006067971, -0.0131470766, -0.0125848316, -0.000132417292, 922.9877    , 31.6122456  , 780.1972    , 1.76        , 3           , 255         , 0           , 0
-0.122095011, 0.129419968 , -9.7959795  , 0.000805449556, -0.000241131274, -8.482555E-05, -0.0131390113, -0.012587253, -0.000133233829, 922.9877    , 31.6122456  , 780.19696   , 1.77        , 3           , 255         , 0           , 0
-0.119564876, 0.12299414  , -9.788677   , 0.00011894849, 0.000170254891, 0.000908832357, -0.0131379366, -0.0125854313, -0.00012416816, 922.9877    , 31.6122456  , 780.1967    , 1.78        , 3           , 255         , 0           , 0
-0.1272105  , 0.133100078 , -9.789362   , 0.000323213637, 0.000374572119, -1.58803887E-05, -0.013134703, -0.01258169 , -0.00012437618, 922.9877    , 31.6122456  , 780.1965    , 1.79        , 3           , 255         , 0           , 0
-0.1272447  , 0.135080442 , -9.802866   , -0.000191499217, -0.000337628415, 0.000170343323, -0.01313664 , -0.012585043, -0.000122628451, 922.9877    , 31.6122456  , 780.1962    , 1.8         , 3           , 255         , 0           , 0
-0.124135375, 0.130566388 , -9.794039   , -0.0007171566, -5.496219E-05, -0.000285030575, -0.0131454933, -0.01259044 , -0.000125449791, 922.9877    , 31.6122456  , 780.191833  , 1.81        , 3           , 255         , 0           , 0
-0.125654548, 0.1243919   , -9.793063   , -0.0002148269, 0.0005360937, -4.912467E-05, -0.0131476354, -0.0125850867, -0.00012601151, 922.9877    , 31.6122456  , 780.1915    , 1.82        , 3           , 255         , 0           , 0
-0.111499451, 0.132885277 , -9.79518    , 0.000142407342, 0.00018159108, -0.000269394484, -0.0131461769, -0.0125833061, -0.000128729254, 922.989563  , 31.6149578  , 780.1912    , 1.83        , 3           , 255         , 0           , 0
-0.119688317, 0.135230273 , -9.791384   , 0.0002337448, -1.419941E-05, -0.000181810756, -0.013143817, -0.0125834718, -0.000130545421, 922.989563  , 31.6149578  , 780.1909    , 1.84        , 3           , 255         , 0           , 0
-0.1217338  , 0.132736713 , -9.799671   , 7.668906E-05, 0.000277865067, 0.0004721125, -0.01314311 , -0.0125806294, -0.00012586097, 922.989563  , 31.6149578  , 780.1907    , 1.85        , 3           , 255         , 0           , 0
-0.128359526, 0.134672835 , -9.795228   , 8.287246E-05, -0.000193356318, 0.0002632637, -0.0131423129, -0.0125825284, -0.000123203019, 922.989563  , 31.6149578  , 780.1904    , 1.86        , 3           , 255         , 0           , 0
-0.128227144, 0.13062045  , -9.795013   , -0.0002173009, -6.75754563E-06, -0.0004471665, -0.0131444307, -0.012582656, -0.000127673644, 922.989563  , 31.6149578  , 780.1902    , 1.87        , 3           , 255         , 0           , 0
-0.124383666, 0.12888363  , -9.78949    , 5.67750831E-05, 0.000194747612, 6.523769E-06, -0.0131438635, -0.0125807067, -0.000127634, 922.989563  , 31.6149578  , 780.189941  , 1.88        , 3           , 255         , 0           , 0
-0.116726875, 0.118969873 , -9.791778   , -0.0004816046, 0.0002692134, 5.22661139E-05, -0.013148685, -0.0125780087, -0.000127146763, 922.989563  , 31.6149578  , 780.1897    , 1.89        , 3           , 255         , 0           , 0
-0.121123031, 0.130047947 , -9.793676   , 3.30638431E-05, 0.000674470153, 1.80543211E-05, -0.0131483562, -0.0125712622, -0.000127054911, 922.989563  , 31.6149578  , 780.189453  , 1.9         , 3           , 255         , 0           , 0
-0.127855256, 0.135321572 , -9.794149   , -0.000191348372, 0.000588202034, -3.91543072E-05, -0.0131528424, -0.0125629874, -0.00012749141, 922.989563  , 31.6149578  , 780.1837    , 1.91        , 3           , 255         , 0           , 0
-0.12638703 , 0.130731136 , -9.802562   , 0.000478009548, -7.427999E-05, -0.000662897539, -0.0131479772, -0.0125638172, -0.0001341104, 922.989563  , 31.6149578  , 780.1834    , 1.92        , 3           , 255         , 0           , 0
-0.121806   , 0.127309263 , -9.799738   , -4.854446E-05, -0.000113873946, -0.0006084743, -0.013148386, -0.0125650363, -0.000140179982, 922.992554  , 31.61523    , 780.1831    , 1.93        , 3           , 255         , 0           , 0
-0.126423746, 0.128503591 , -9.795227   , 0.000296691083, 4.64807235E-05, -0.000353995943, -0.0131453769, -0.0125646172, -0.000143725934, 922.992554  , 31.61523    , 780.1828    , 1.94        , 3           , 255         , 0           , 0
-0.122461818, 0.1275413   , -9.786766   , 0.000180232892, -0.000271178636, -0.000263937, -0.01314354 , -0.0125673627, -0.000146329563, 922.992554  , 31.61523    , 780.1825    , 1.95        , 3           , 255         , 0           , 0
-0.119208992, 0.135029718 , -9.79302    , -5.715294E-06, -0.000165323523, -0.000165269332, -0.0131435758, -0.0125690382, -0.0001479605, 922.992554  , 31.61523    , 780.1822    , 1.96        , 3           , 255         , 0           , 0
-0.127198845, 0.133214951 , -9.799675   , -9.32580442E-05, -0.00039390428, 0.0004688424, -0.0131445685, -0.0125729162, -0.000143220444, 922.992554  , 31.61523    , 780.1819    , 1.97        , 3           , 255         , 0           , 0
-0.117625728, 0.120700166 , -9.801695   , 0.000273142825, -0.000114778813, -0.000177834125, -0.0131418146, -0.0125740869, -0.000144983642, 922.992554  , 31.61523    , 780.1816    , 1.98        , 3           , 255         , 0           , 0
-0.117054865, 0.127935722 , -9.795084   , 6.345642E-05, -0.000158300769, -0.000210430531, -0.0131411534, -0.0125756962, -0.000147067054, 922.992554  , 31.61523    , 780.1813    , 1.99        , 3           , 255         , 0           , 0
-0.122840784, 0.127119809 , -9.789759   , 0.000272435427, 3.64448279E-05, 4.01258949E-05, -0.0131384348, -0.0125753265, -0.0001466706, 922.992554  , 31.61523    , 780.180969  , 2           , 3           , 0           , 7.458236    , 200
-0.132650122, 0.123499252 , -9.795873   , 0.0002953851, -0.0003037835, 0.000223708048, -0.013136615, -0.0125778969, -0.000144379781, 922.992554  , 31.61523    , 780.172363  , 2.01        , 3           , 1           , 0           , 0
-0.12298958 , 0.121874891 , -9.805766   , 0.0005833863, -0.000562346, 4.57528149E-05, -0.0131307887, -0.0125835147, -0.0001438484, 922.992554  , 31.61523    , 780.172058  , 2.02        , 3           , 2           , 0           , 0
-0.123757124, 0.138051674 , -9.782579   , 0.000194496126, -0.000176857662, -0.000174868415, -0.0131288217, -0.0125853056, -0.000145573809, 922.966553  , 31.6166553  , 780.171753  , 2.03        , 3           , 3           , 0           , 0
-0.122772157, 0.135594949 , -9.798139   , -2.3786386E-05, 0.0001826455, 0.000195749191, -0.0131290844, -0.0125834541, -0.000143640384, 922.966553  , 31.6166553  , 780.171448  , 2.04        , 3           , 4           , 0           , 0
-0.117213227, 0.126775891 , -9.791667   , -0.000485475874, 4.90069724E-05, -0.000128850719, -0.0131339226, -0.012582981, -0.000144935271, 922.966553  , 31.6166553  , 780.171143  , 2.05        , 3           , 5           , 0           , 0
-0.123854473, 0.130283549 , -9.800767   , -0.0007948183, 0.000105552288, -7.40053656E-05, -0.01314186 , -0.0125819342, -0.000145689177, 922.966553  , 31.6166553  , 780.170837  , 2.06        , 3           , 6           , 0           , 0
-0.123895846, 0.129472166 , -9.795083   , -0.000323951652, 0.000340909319, 0.000185078388, -0.0131451227, -0.0125785023, -0.000143883255, 922.966553  , 31.6166553  , 780.170532  , 2.07        , 3           , 7           , 0           , 0
-0.118906125, 0.131978109 , -9.791336   , 0.000366295339, 0.000113729708, 2.13445383E-05, -0.0131414616, -0.0125773614, -0.0001436848, 922.966553  , 31.6166553  , 780.1702    , 2.08        , 3           , 8           , 5           , 5
-0.1128607  , 0.135136008 , -9.796548   , 4.23037563E-05, 0.000257779175, 0.000340962317, -0.0131410817, -0.01257474 , -0.00014030913, 922.966553  , 31.6166553  , 780.1699    , 2.09        , 3           , 9           , 5           , 0.1
-0.125758961, 0.130703077 , -9.789093   , -0.000145618222, 0.000274236838, -0.0003662121, -0.0131424917, -0.0125720454, -0.000144007179, 922.966553  , 31.6166553  , 780.1696    , 2.1         , 3           , 10          , 0.1         , 0.1
-0.126491964, 0.130486369 , -9.792398   , 0.000285293034, 0.000297435327, 7.603872E-05, -0.0131430821, -0.0125674512, -0.000143242753, 922.966553  , 31.6166553  , 780.1946    , 2.11        , 3           , 11          , 0.00810670853, 0.008106707
-0.133724451, 0.1289391   , -9.793406   , 0.000529819 , 0.000288143783, 0.000409549131, -0.013137836, -0.0125645157, -0.000139185257, 922.966553  , 31.6166553  , 780.194458  , 2.12        , 3           , 12          , 0.174643889 , 0
-0.133865416, 0.124173105 , -9.798617   , 0.000237923421, 0.000231338083, -0.000329190458, -0.0131354164, -0.0125622489, -0.000142507444, 922.994568  , 31.61713    , 780.194336  , 2.13        , 3           , 13          , 0           , 0
-0.1239676  , 0.133185953 , -9.793384   , -0.000155486428, 0.000144105754, -0.00010981458, -0.013136955, -0.0125608211, -0.000143624478, 922.994568  , 31.61713    , 780.1942    , 2.14        , 3           , 14          , -0.0004014723, -0.000149395579
-0.115226485, 0.135531008 , -9.791022   , -5.169306E-05, -2.441126E-05, -0.000200828479, -0.0131374467, -0.0125610912, -0.0001456295, 922.994568  , 31.61713    , 780.1941    , 2.15        , 3           , 15          , 0           , 9.538708E-05
-0.117220446, 0.128547236 , -9.794284   , -0.000417710544, -1.31074485E-05, 0.000191344327, -0.0131416479, -0.0125611965, -0.000143714409, 922.994568  , 31.61713    , 780.194     , 2.16        , 3           , 16          , 0           , 1.401298E-45
-0.116604075, 0.123064019 , -9.794037   , -0.000150240987, -0.000176319329, -0.0004268779, -0.0131430971, -0.0125630163, -0.000147959872, 922.994568  , 31.61713    , 780.193848  , 2.17        , 3           , 20          , 0           , 0
-0.130545542, 0.123962119 , -9.794111   , -0.000208638812, 0.000123695529, -0.000469910825, -0.0131451236, -0.0125618409, -0.000152675071, 922.994568  , 31.61713    , 780.1937    , 2.18        , 3           , 21          , 0           , 0
-0.127379492, 0.123959742 , -9.791629   , -0.000199361733, 0.000578646257, -0.000187307392, -0.0131470934, -0.0125560788, -0.000154624169, 922.994568  , 31.61713    , 780.1936    , 2.19        , 3           , 22          , 0           , 0
-0.127444625, 0.12801832  , -9.794724   , -0.000119116827, -0.000131508365, -0.0001820997, -0.01314826 , -0.0125574181, -0.0001564278, 922.994568  , 31.61713    , 780.1935    , 2.2         , 3           , 40          , 0           , 0
-0.12178655 , 0.126772285 , -9.791953   , -0.000369935937, 0.000393098046, -0.0005772698, -0.0131504545, -0.0125581892, -0.000162270007, 922.994568  , 31.61713    , 780.1807    , 2.21        , 3           , 41          , 0           , 0
-0.113947652, 0.140010715 , -9.799285   , 4.103029E-06, 0.0002741061, 0.000333404518, -0.0131504554, -0.0125554036, -0.0001589721, 922.994568  , 31.61713    , 780.180542  , 2.22        , 3           , 42          , 0           , 0
-0.128939092, 0.1314102   , -9.782096   , 0.000335720251, 0.0002605867, 0.0005063636, -0.0131471623, -0.0125527317, -0.000153942921, 922.993042  , 31.6184864  , 780.180359  , 2.23        , 3           , 255         , 0           , 0
-0.136431873, 0.114010915 , -9.793393   , 0.0006928278, 0.000447324128, 0.000349178881, -0.013140277, -0.0125482157, -0.000150510037, 922.993042  , 31.6184864  , 780.1802    , 2.24        , 3           , 255         , 0           , 0
-0.125008315, 0.124563456 , -9.794793   , 0.000288457872, 0.000220016285, 0.0003834094, -0.01313744 , -0.0125459647, -0.000146704959, 922.993042  , 31.6184864  , 780.18      , 2.25        , 3           , 255         , 0           , 0
-0.119814262, 0.127980143 , -9.790953   , 0.000212687373, 0.000249781937, 0.0003805884, -0.0131353624, -0.0125434175, -0.000142932011, 922.993042  , 31.6184864  , 780.1798    , 2.26        , 3           , 255         , 0           , 0
-0.124013387, 0.12825349  , -9.790197   , 0.000123059988, 0.000316497433, 1.12316193E-05, -0.0131341331, -0.012540251, -0.000142861274, 922.993042  , 31.6184864  , 780.1796    , 2.27        , 3           , 255         , 0           , 0
-0.125076383, 0.124112047 , -9.792322   , -0.000160490745, -0.000152156819, 0.000172212167, -0.0131357592, -0.01254175 , -0.000141119221, 922.993042  , 31.6184864  , 780.179443  , 2.28        , 3           , 255         , 0           , 0
-0.120845512, 0.123976067 , -9.78772449 , -0.00025201455, -0.000201410541, -0.000743590761, -0.0131381871, -0.0125438627, -0.000148528416, 922.993042  , 31.6184864  , 780.17926   , 2.29        , 3           , 255         , 0           , 0
-0.134061769, 0.124447249 , -9.7877655  , -0.000109718065, -9.055136E-05, -0.0001738797, -0.0131392619, -0.0125447894, -0.000150255262, 922.993042  , 31.6184864  , 780.1791    , 2.3         , 3           , 255         , 0           , 0
-0.125723958, 0.123901919 , -9.798676   , 0.000144512684, -0.000188120815, -0.0006790169, -0.0131324977, -0.0125520788, -0.000157086179, 922.993042  , 31.6184864  , 780.169861  , 2.31        , 3           , 255         , 0           , 0
-0.117759272, 0.130014449 , -9.793945   , 0.000285916583, 0.000328704249, -0.000145877086, -0.0131296208, -0.0125488108, -0.000158588067, 922.993042  , 31.6184864  , 780.1696    , 2.32        , 3           , 255         , 0           , 0
-0.126471192, 0.132693022 , -9.79865551 , 0.0004301453, -1.24234648E-05, 0.000162887358, -0.0131253414, -0.0125489132, -0.000156957627, 922.9523    , 31.6169262  , 780.1694    , 2.33        , 3           , 255         , 0           , 0
-0.126434326, 0.12715891  , -9.792219   , 3.52743373E-05, -2.141927E-05, -0.000183940429, -0.0131249661, -0.0125491517, -0.000158794166, 922.9523    , 31.6169262  , 780.1691    , 2.34        , 3           , 255         , 0           , 0
-0.1283902  , 0.129613325 , -9.793474   , -1.557445E-05, 0.000124708327, 0.000643671432, -0.0131252017, -0.0125478208, -0.000152374, 922.9523    , 31.6169262  , 780.1689    , 2.35        , 3           , 255         , 0           , 0
-0.126257434, 0.127687067 , -9.795769   , 7.26079452E-05, 0.000302462 , 0.0009564202, -0.0131245963, -0.012544672, -0.000142849836, 922.9523    , 31.6169262  , 780.16864   , 2.36        , 3           , 255         , 0           , 0
-0.123271942, 0.130875811 , -9.790585   , -0.000165493053, 0.000558387255, 0.000426924 , -0.0131263016, -0.0125390338, -0.000138654024, 922.9523    , 31.6169262  , 780.1684    , 2.37        , 3           , 255         , 0           , 0
-0.119187854, 0.130958408 , -9.792694   , 4.367763E-05, 0.000294410915, 0.000189321057, -0.01312589 , -0.0125360657, -0.000136799514, 922.9523    , 31.6169262  , 780.168152  , 2.38        , 3           , 255         , 0           , 0
-0.126290768, 0.1356362   , -9.792834   , -0.0001179098, 0.000290977361, -8.924522E-05, -0.0131270569, -0.0125331664, -0.000137730123, 922.9523    , 31.6169262  , 780.1679    , 2.39        , 3           , 255         , 0           , 0
-0.1275664  , 0.12694934  , -9.799055   , 9.868786E-05, 4.1586718E-05, 0.000530460849, -0.0131261358, -0.0125326812, -0.000132431145, 922.9523    , 31.6169262  , 780.167664  , 2.4         , 3           , 255         , 0           , 0
-0.1263145  , 0.124364793 , -9.789347   , 0.00010986859, 6.876936E-05, -0.000154086432, -0.013126866, -0.0125354109, -0.000133957845, 922.9523    , 31.6169262  , 780.2134    , 2.41        , 3           , 255         , 0           , 0
-0.10994935 , 0.130000427 , -9.792719   , -8.823493E-05, 0.00010211303, -0.000468890066, -0.0131276883, -0.0125344507, -0.00013866 , 922.9523    , 31.6169262  , 780.21344   , 2.42        , 3           , 255         , 0           , 0
-0.117170155, 0.129539341 , -9.7888     , 0.000276462873, -0.000166447862, -0.000738875533, -0.0131248338, -0.0125362128, -0.000146026665, 922.9987    , 31.61713    , 780.2135    , 2.43        , 3           , 255         , 0           , 0
-0.12941961 , 0.1289893   , -9.788919   , -5.88239636E-05, -8.972146E-05, 0.000447962375, -0.0131254783, -0.012537051, -0.00014153542, 922.9987    , 31.61713    , 780.213562  , 2.44        , 3           , 255         , 0           , 0
-0.131460875, 0.131527454 , -9.794632   , -0.000363308267, 0.000216148808, -0.000317414524, -0.01312907 , -0.0125349313, -0.000144737816, 922.9987    , 31.61713    , 780.2136    , 2.45        , 3           , 255         , 0           , 0
-0.129444927, 0.134067565 , -9.790767   , -0.000449401123, 4.34851972E-06, -0.000272396137, -0.0131335305, -0.0125349239, -0.000147462255, 922.9987    , 31.61713    , 780.2137    , 2.46        , 3           , 255         , 0           , 0
-0.128414363, 0.129562348 , -9.79574    , -0.000216881133, -0.000398342178, -0.000125986291, -0.0131356837, -0.012538923, -0.000148669758, 922.9987    , 31.61713    , 780.213745  , 2.47        , 3           , 255         , 0           , 0
-0.123777948, 0.126106292 , -9.785559   , -0.000449809566, 0.0001542803, 0.0002986741, -0.0131402183, -0.0125373406, -0.0001457034, 922.9987    , 31.61713    , 780.2138    , 2.48        , 3           , 255         , 0           , 0
-0.130992383, 0.128495976 , -9.793617   , -0.000223814248, 0.000201565155, 0.0005133745, -0.0131425215, -0.0125352573, -0.000140596283, 922.9987    , 31.61713    , 780.213867  , 2.49        , 3           , 255         , 0           , 0
-0.120857254, 0.135041565 , -9.790564   , -0.000174970744, -7.42414559E-05, 0.0007321144, -0.0131443636, -0.0125359045, -0.000133265625, 922.9987    , 31.61713    , 780.2139    , 2.5         , 3           , 255         , 0           , 0
-0.117566131, 0.119229056 , -9.800397   , -1.603784E-05, 0.000175913665, 8.345472E-06, -0.0131474566, -0.012538977, -0.00013316852, 922.9987    , 31.61713    , 780.191956  , 2.51        , 3           , 255         , 0           , 0
-0.116236463, 0.13131766  , -9.794281   , -6.818032E-05, 1.90961728E-05, 2.23335082E-05, -0.01314814 , -0.0125387823, -0.000132947724, 922.9987    , 31.61713    , 780.1919    , 2.52        , 3           , 255         , 0           , 0
-0.124936089, 0.126479179 , -9.795328   , -9.388907E-05, 0.00041030068, -0.0005471103, -0.0131490119, -0.0125347506, -0.000138472591, 922.9713    , 31.6182823  , 780.191833  , 2.53        , 3           , 255         , 0           , 0
-0.126666278, 0.124103144 , -9.788825   , 5.2221003E-06, -9.901785E-05, 0.000467209 , -0.0131490175, -0.01253568 , -0.000133787631, 922.9713    , 31.6182823  , 780.1918    , 2.54        , 3           , 255         , 0           , 0
-0.124827065, 0.122043237 , -9.789577   , 0.000322386855, 0.00015614499, 0.000318906154, -0.0131458342, -0.0125340754, -0.0001306192, 922.9713    , 31.6182823  , 780.1917    , 2.55        , 3           , 255         , 0           , 0
-0.125271872, 0.127225667 , -9.788154   , 3.44034634E-05, 0.000134714719, 0.0006793452, -0.0131455753, -0.0125326393, -0.000123843711, 922.9713    , 31.6182823  , 780.19165   , 2.56        , 3           , 255         , 0           , 0
-0.128075451, 0.129189923 , -9.786526   , 0.000378447061, 0.000413490285, -0.0002191113, -0.0131417634, -0.0125285331, -0.000126089071, 922.9713    , 31.6182823  , 780.1916    , 2.57        , 3           , 255         , 0           , 0
-0.120354354, 0.135524228 , -9.790062   , 2.84857233E-05, -0.0001430328, -9.970381E-05, -0.0131414654, -0.0125299767, -0.00012706728, 922.9713    , 31.6182823  , 780.1915    , 2.58        , 3           , 255         , 0           , 0
-0.115067445, 0.133345738 , -9.79474449 , -0.000730332453, -0.000170127678, -0.000171502543, -0.0131487465, -0.0125317015, -0.0001287599, 922.9713    , 31.6182823  , 780.191467  , 2.59        , 3           , 255         , 0           , 0
-0.118188992, 0.119539067 , -9.789116   , -0.00015260576, -0.00014476564, 3.986508E-05, -0.0131502775, -0.0125331432, -0.000128342232, 922.9713    , 31.6182823  , 780.1914    , 2.6         , 3           , 255         , 0           , 0
-0.119869247, 0.119803987 , -9.7920475  , -7.79097E-05, 0.000454605557, 0.000207734323, -0.013146745, -0.0125262588, -0.000126379076, 922.9713    , 31.6182823  , 780.2098    , 2.61        , 3           , 255         , 0           , 0
-0.122502878, 0.128173769 , -9.795757   , -0.000112831272, -0.000111147951, 0.000212597108, -0.013147898, -0.012527342, -0.000124238548, 922.9713    , 31.6182823  , 780.209839  , 2.62        , 3           , 255         , 0           , 0
-0.126251191, 0.131713673 , -9.792544   , 0.000126973435, -0.000460818468, -0.0007055644, -0.013146542, -0.0125320423, -0.000131233377, 922.9416    , 31.61523    , 780.2099    , 2.63        , 3           , 255         , 0           , 0
-0.123945929, 0.1351503   , -9.799326   , 4.35304537E-05, 0.000369496469, -8.760462E-05, -0.0131460959, -0.012528359, -0.000132157962, 922.9416    , 31.61523    , 780.209961  , 2.64        , 3           , 255         , 0           , 0
-0.125276446, 0.126653627 , -9.790106   , -0.0002773359, 0.000124492464, 0.000225847063, -0.0131488983, -0.0125270849, -0.000129915934, 922.9416    , 31.61523    , 780.21      , 2.65        , 3           , 255         , 0           , 0
-0.120696187, 0.126725584 , -9.786995   , -0.0005889315, 9.09653463E-05, 0.0002999485, -0.0131548243, -0.012526135, -0.000126928513, 922.9416    , 31.61523    , 780.2101    , 2.66        , 3           , 255         , 0           , 0
-0.123207226, 0.127170637 , -9.787601   , -0.000343747815, 0.000117686963, 0.000434971036, -0.0131583158, -0.0125249019, -0.000122594429, 922.9416    , 31.61523    , 780.210144  , 2.67        , 3           , 255         , 0           , 0
-0.125187054, 0.124501422 , -9.791913   , -8.894384E-05, 0.000211775041, -0.000262674817, -0.01315917 , -0.0125228185, -0.000125248946, 922.9416    , 31.61523    , 780.2102    , 2.68        , 3           , 255         , 0           , 0
-0.120932028, 0.121385172 , -9.7931     , 0.00020210084, 6.06119356E-05, -0.00107767223, -0.0131570157, -0.0125223557, -0.000136033283, 922.9416    , 31.61523    , 780.210266  , 2.69        , 3           , 255         , 0           , 0
-0.129281968, 0.132510662 , -9.792796   , 0.000219032459, -1.18740863E-05, 0.0007416845, -0.0131549183, -0.0125223743, -0.000128615124, 922.9416    , 31.61523    , 780.2103    , 2.7         , 3           , 255         , 0           , 0
-0.125449508, 0.128574818 , -9.784582   , 0.000478887028, 7.672061E-07, 0.0003970801, -0.01314729 , -0.0125244716, -0.000124680766, 922.9416    , 31.61523    , 780.267151  , 2.71        , 3           , 255         , 0           , 0
-0.127097934, 0.1265775   , -9.790064   , -0.000245810137, 0.000116773524, -0.0003217219, -0.0131497066, -0.0125233456, -0.000127913227, 922.9416    , 31.61523    , 780.2676    , 2.72        , 3           , 255         , 0           , 0
-0.128295943, 0.136744618 , -9.799238   , -0.0001412605, 0.000377015676, -2.122359E-05, -0.0131511167, -0.01251958 , -0.000128175016, 922.9612    , 31.6164513  , 780.268     , 2.73        , 3           , 255         , 0           , 0
-0.126016587, 0.132686138 , -9.795218   , -6.316544E-05, 0.0001477159, 0.000398378761, -0.0131517993, -0.0125180511, -0.0001242108, 922.9612    , 31.6164513  , 780.268433  , 2.74        , 3           , 255         , 0           , 0
-0.120506741, 0.125905126 , -9.785696   , 0.0007792561, -2.04823446E-05, 4.947676E-05, -0.0131440125, -0.0125182495, -0.000123713355, 922.9612    , 31.6164513  , 780.26886   , 2.75        , 3           , 255         , 0           , 0
-0.11401391 , 0.125548035 , -9.798515   , 0.0002650042, -0.000105419225, 0.000317005964, -0.013141402, -0.0125192637, -0.000120529556, 922.9612    , 31.6164513  , 780.2693    , 2.76        , 3           , 255         , 0           , 0
-0.130299509, 0.126259968 , -9.7994585  , -0.0006276367, 0.000153836008, 9.391227E-05, -0.01314769 , -0.0125177111, -0.00011961069, 922.9612    , 31.6164513  , 780.2697    , 2.77        , 3           , 255         , 0           , 0
-0.12584734 , 0.128411084 , -9.795173   , -0.0003643022, -0.0002583793, -0.00035233784, -0.0131512871, -0.01252034 , -0.000123099977, 922.9612    , 31.6164513  , 780.270142  , 2.78        , 3           , 255         , 0           , 0
-0.117414638, 0.116609514 , -9.792189   , -7.073974E-05, -5.15047141E-05, 0.0006143132, -0.0131520731, -0.0125207752, -0.000116950265, 922.9612    , 31.6164513  , 780.2706    , 2.79        , 3           , 255         , 0           , 0
-0.124027051, 0.119439483 , -9.797258   , 7.028814E-05, -3.46907764E-05, -4.40336225E-05, -0.0131513635, -0.0125211282, -0.000117386036, 922.9612    , 31.6164513  , 780.2711    , 2.8         , 3           , 255         , 0           , 0
-0.119091213, 0.133705229 , -9.79072    , 0.0006388647, -7.538388E-05, -0.00022388334, -0.013141063, -0.01252429 , -0.000119663528, 922.9612    , 31.6164513  , 780.2927    , 2.81        , 3           , 255         , 0           , 0
-0.121538125, 0.128327459 , -9.788941   , 0.000341166568, 4.19799835E-05, -0.000195940054, -0.0131376274, -0.0125238989, -0.000121628378, 922.9612    , 31.6164513  , 780.293335  , 2.82        , 3           , 255         , 0           , 0
-0.1257076  , 0.133162111 , -9.782919   , 0.000209195248, 2.05941324E-05, 9.229941E-05, -0.0131355487, -0.0125236781, -0.000120708122, 922.991638  , 31.61774    , 780.293945  , 2.83        , 3           , 255         , 0           , 0
-0.123104379, 0.131507471 , -9.790361   , 0.000291703735, -0.0001561541, 0.0008779328, -0.01313274 , -0.0125251245, -0.000111908557, 922.991638  , 31.61774    , 780.294556  , 2.84        , 3           , 255         , 0           , 0
-0.12059053 , 0.12689279  , -9.804405   , -0.000332465017, -5.465455E-05, -0.000264959526, -0.013136033, -0.0125257056, -0.0001145509, 922.991638  , 31.61774    , 780.295166  , 2.85        , 3           , 255         , 0           , 0
-0.123958394, 0.135107845 , -9.796855   , 0.0002282169, -2.93164339E-05, -6.001466E-05, -0.0131337428, -0.0125260064, -0.000115147173, 922.991638  , 31.61774    , 780.2958    , 2.86        , 3           , 255         , 0           , 0
-0.129051089, 0.134582579 , -9.796787   , -2.0324107E-05, 0.000327934336, -4.833301E-05, -0.01313394 , -0.0125227328, -0.000115673567, 922.991638  , 31.61774    , 780.2964    , 2.87        , 3           , 255         , 0           , 0
-0.13559714 , 0.128174126 , -9.784113   , -0.0005862883, -5.172922E-05, -9.251374E-05, -0.0131397918, -0.0125232618, -0.000116591866, 922.991638  , 31.61774    , 780.297     , 2.88        , 3           , 255         , 0           , 0
-0.122434355, 0.127624    , -9.790686   , -5.023877E-05, -0.000437761657, 0.000506237033, -0.0131403571, -0.0125275729, -0.000111472145, 922.991638  , 31.61774    , 780.2976    , 2.89        , 3           , 255         , 0           , 0
-0.1269848  , 0.131853119 , -9.788511   , 8.808123E-05, -0.000238193024, 0.000913813652, -0.0131395888, -0.0125298342, -0.000102303005, 922.991638  , 31.61774    , 780.2982    , 2.9         , 3           , 255         , 0           , 0
-0.12091653 , 0.131198362 , -9.792653   , -0.000533355633, 0.0003963074, -0.000188841455, -0.0131502021, -0.012530487, -0.000104176986, 922.991638  , 31.61774    , 780.273438  , 2.91        , 3           , 255         , 0           , 0
-0.123087049, 0.140161946 , -9.804427   , -0.000585805741, 0.0003201145, 0.000187691563, -0.0131560843, -0.0125272619, -0.000102342223, 922.991638  , 31.61774    , 780.273865  , 2.92        , 3           , 255         , 0           , 0
-0.12441013 , 0.1256971   , -9.785706   , -0.00012782155, -6.10109419E-05, 0.000565764145, -0.0131574329, -0.0125277974, -9.667675E-05, 922.972656  , 31.61557    , 780.2743    , 2.93        , 3           , 255         , 0           , 0
-0.115884081, 0.123127222 , -9.788483   , 0.000289597723, -7.096259E-05, -0.000168449478, -0.0131545151, -0.0125285294, -9.83518548E-05, 922.972656  , 31.61557    , 780.2747    , 2.94        , 3           , 255         , 0           , 0
-0.122792289, 0.128893852 , -9.784866   , -4.641668E-05, -0.000283789181, -0.000737441937, -0.0131548876, -0.012531464, -0.000105688712, 922.972656  , 31.61557    , 780.275146  , 2.95        , 3           , 255         , 0           , 0
-0.126337484, 0.127896279 , -9.798035   , -0.000104118983, -0.00015108331, -0.000772409141, -0.013155832, -0.0125330761, -0.000113392671, 922.972656  , 31.61557    , 780.275635  , 2.96        , 3           , 255         , 0           , 0
-0.129140034, 0.127818316 , -9.788811   , 0.000362151943, -0.000239819143, 0.000395847572, -0.0131522613, -0.012535423, -0.000109402768, 922.972656  , 31.61557    , 780.2761    , 2.97        , 3           , 255         , 0           , 0
-0.11939542 , 0.130889148 , -9.786432   , 0.0006619628, 1.36814488E-05, -0.000116675357, -0.0131456284, -0.0125353  , -0.000110571287, 922.972656  , 31.61557    , 780.2766    , 2.98        , 3           , 255         , 0           , 0
-0.114141688, 0.12677224  , -9.797361   , 3.86055326E-05, 0.000115076793, 6.24044333E-07, -0.0131452428, -0.012534149, -0.000110580178, 922.972656  , 31.61557    , 780.2771    , 2.99        , 3           , 255         , 0           , 0
-0.130160421, 0.12632668  , -9.795816   , -5.806968E-05, 0.000202296011, 0.000103277707, -0.0131458351, -0.0125321131, -0.000109574037, 922.972656  , 31.61557    , 780.2776    , 3           , 3           , 0           , 8.458237    , 300
-0.124881804, 0.128322542 , -9.788078   , -0.0001384519, 0.0004254966, -5.86665556E-05, -0.0131473234, -0.0125276865, -0.000110215224, 922.972656  , 31.61557    , 780.282349  , 3.01        , 3           , 1           , 0           , 0
-0.117224172, 0.12601833  , -9.81129    , 0.000358728517, 0.000103127481, 3.949654E-05, -0.0131437415, -0.01252665 , -0.000109833825, 922.972656  , 31.61557    , 780.282837  , 3.02        , 3           , 2           , 0           , 0
-0.129575267, 0.131745055 , -9.791255   , 0.000118670985, 0.0001363532, 0.000556278857, -0.0131426239, -0.0125252139, -0.000104289153, 922.950867  , 31.618351   , 780.2833    , 3.03        , 3           , 3           , 0           , 0
-0.134869814, 0.13240394  , -9.797464   , -0.000135815615, 0.0002416193, 0.000251549063, -0.0131440125, -0.0125227636, -0.000101805505, 922.950867  , 31.618351   , 780.2838    , 3.04        , 3           , 4           , 0           , 0
-0.1279811  , 0.129762188 , -9.793381   , -0.000256370316, 0.000179358452, -0.000301751075, -0.0131465392, -0.0125210118, -0.0001048465, 922.950867  , 31.618351   , 780.2843    , 3.05        , 3           , 5           , 0           , 0
-0.123298764, 0.133632809 , -9.79344    , 0.000175534849, 0.000157700226, 0.0002892033, -0.01314482 , -0.0125193959, -0.000101975282, 922.950867  , 31.618351   , 780.2848    , 3.06        , 3           , 6           , 0           , 0
-0.1305373  , 0.13116169  , -9.79705    , 0.000410061242, 0.0005896003, 0.000240095716, -0.0131407483, -0.0125134718, -9.96519E-05, 922.950867  , 31.618351   , 780.2853    , 3.07        , 3           , 7           , 0           , 0
-0.121622659, 0.1295253   , -9.792858   , -0.000106945372, 9.534008E-05, -0.00067676045, -0.0131417327, -0.0125126066, -0.000106431813, 922.950867  , 31.618351   , 780.285767  , 3.08        , 3           , 8           , 5           , 5
-0.1277833  , 0.132149011 , -9.78813648 , -0.000442574354, 0.000314061181, -6.48608548E-05, -0.0131461509, -0.0125094745, -0.000107121661, 922.950867  , 31.618351   , 780.286255  , 3.09        , 3           , 9           , 5           , 0.1
-0.127748519, 0.127617434 , -9.789892   , 3.17276E-05 , 0.000403968326, 0.0003627548, -0.0131458789, -0.0125053879, -0.000103547354, 922.950867  , 31.618351   , 780.286743  , 3.1         , 3           , 10          , 0.1         , 0.1
-0.123040661, 0.1234899   , -9.796064   , 0.000242266819, -0.000176244153, -9.29393E-05, -0.0131459357, -0.0125137363, -0.00010442239, 922.950867  , 31.618351   , 780.3209    , 3.11        , 3           , 11          , 0.007329634 , 0.007329631
-0.129587263, 0.115776122 , -9.798887   , 0.000534695748, -0.000107512489, -7.56395457E-05, -0.0131405788, -0.0125148222, -0.000105164625, 922.950867  , 31.618351   , 780.321655  , 3.12        , 3           , 12          , 0.174645633 , 0
-0.126850232, 0.125717819 , -9.787763   , 0.000133484922, -0.000259824476, -0.000405005529, -0.0131391939, -0.0125174718, -0.000109180393, 922.9949    , 31.6185551  , 780.3224    , 3.13        , 3           , 13          , 0           , 0
-0.115888014, 0.1350753   , -9.795537   , 9.167951E-05, -3.19738028E-05, -0.000168786559, -0.0131382551, -0.0125178136, -0.000110863992, 922.9949    , 31.6185551  , 780.3231    , 3.14        , 3           , 14          , -0.000401485653, -0.0001492693
-0.115565695, 0.128492668 , -9.794121   , 0.000319129467, 0.000617012265, -0.0001843365, -0.013135042, -0.0125116687, -0.000112788359, 922.9949    , 31.6185551  , 780.323853  , 3.15        , 3           , 15          , 0           , 9.53889E-05
-0.117867038, 0.124474086 , -9.793381   , 0.000481967931, 0.000342211919, -0.000167750361, -0.013130202, -0.0125082713, -0.000114510753, 922.9949    , 31.6185551  , 780.3246    , 3.16        , 3           , 16          , 0           , 1.401298E-45
-0.121202543, 0.119108364 , -9.797657   , 0.000575992744, 0.000326840731, 9.272212E-05, -0.0131244538, -0.0125049921, -0.000113626462, 922.9949    , 31.6185551  , 780.3253    , 3.17        , 3           , 20          , 0           , 0
-0.130286977, 0.1229976   , -9.79495049 , -6.963848E-05, 0.000160217387, 0.00016942888, -0.013125171, -0.0125033678, -0.000111953254, 922.9949    , 31.6185551  , 780.32605   , 3.18        , 3           , 21          , 0           , 0
-0.128159717, 0.126467019 , -9.79101    , 0.000189413535, 2.74715421E-06, -0.0005260776, -0.0131232105, -0.01250341 , -0.000117214244, 922.9949    , 31.6185551  , 780.3268    , 3.19        , 3           , 22          , 0           , 0
-0.1246535  , 0.131660149 , -9.792902   , 6.60179649E-05, 1.45105878E-06, -9.201944E-05, -0.0131225381, -0.012503407, -0.000118134587, 922.9949    , 31.6185551  , 780.3275    , 3.2         , 3           , 40          , 0           , 0
-0.117989026, 0.122181579 , -9.790485   , -0.000110722991, 0.0002748392, -0.000278998865, -0.0131179979, -0.0125019187, -0.000121030724, 922.9949    , 31.6185551  , 780.294     , 3.21        , 3           , 41          , 0           , 0
-0.128072888, 0.118649937 , -9.794835   , 0.000369042216, 0.000167047867, 0.000178320028, -0.0131143313, -0.0125002246, -0.000119269484, 922.9949    , 31.6185551  , 780.294556  , 3.22        , 3           , 42          , 0           , 0
-0.127545342, 0.127284274 , -9.79047    , -0.000186556223, -0.0004795621, -3.11090116E-06, -0.0131161977, -0.01250502 , -0.000119237695, 922.9532    , 31.61998    , 780.2951    , 3.23        , 3           , 255         , 0           , 0
-0.13024132 , 0.130926818 , -9.782615   , -0.000185009121, -3.14128847E-05, 5.438902E-06, -0.0131180473, -0.0125053339, -0.000119179182, 922.9532    , 31.61998    , 780.295654  , 3.24        , 3           , 255         , 0           , 0
-0.127993658, 0.136461988 , -9.797306   , -0.000516450149, 0.000460275653, -0.000465209421, -0.0131231518, -0.0125007927, -0.000123891528, 922.9532    , 31.61998    , 780.2962    , 3.25        , 3           , 255         , 0           , 0
-0.12112315 , 0.130958468 , -9.793562   , -0.000212446932, 2.00868963E-05, -0.000856480736, -0.013125171, -0.0125007043, -0.000132458677, 922.9532    , 31.61998    , 780.296753  , 3.26        , 3           , 255         , 0           , 0
-0.132832244, 0.131711    , -9.785394   , 0.000439378724, 0.0005196107, -3.229243E-05, -0.0131207723, -0.0124955121, -0.000132849775, 922.9532    , 31.61998    , 780.2973    , 3.27        , 3           , 255         , 0           , 0
-0.123498932, 0.125065863 , -9.785654   , -0.0003485887, 0.000552846468, -0.000475862, -0.0131241977, -0.0124900481, -0.000137680763, 922.9532    , 31.61998    , 780.297852  , 3.28        , 3           , 255         , 0           , 0
-0.121816456, 0.122957006 , -9.789676   , -0.000623113243, -1.45553058E-05, 0.000219675727, -0.0131304562, -0.0124901645, -0.000135482172, 922.9532    , 31.61998    , 780.2984    , 3.29        , 3           , 255         , 0           , 0
-0.132316828, 0.124466836 , -9.796224   , -0.000154712267, -0.000113408838, 0.0003619661, -0.0131320478, -0.0124912513, -0.000131847759, 922.9532    , 31.61998    , 780.29895   , 3.3         , 3           , 255         , 0           , 0
-0.117599472, 0.129816622 , -9.797011   , -0.00014932052, 3.58224061E-05, 0.00042942  , -0.0131305931, -0.0124992076, -0.000127595922, 922.9532    , 31.61998    , 780.3281    , 3.31        , 3           , 255         , 0           , 0
-0.114215232, 0.120586731 , -9.790574   , -0.000133126974, 0.000216811328, 0.000134406786, -0.01313194 , -0.0124970227, -0.000126280371, 922.9532    , 31.61998    , 780.328857  , 3.32        , 3           , 255         , 0           , 0
-0.120531216, 0.136479929 , -9.793776   , -0.0006096094, -7.54774373E-06, 0.0006822828, -0.0131381219, -0.0124970069, -0.000119456759, 922.9864    , 31.6180115  , 780.3296    , 3.33        , 3           , 255         , 0           , 0
-0.120315313, 0.125170738 , -9.798632   , -0.000464787474, 7.464611E-05, -8.845022E-05, -0.013142759, -0.0124962721, -0.000120351055, 922.9864    , 31.6180115  , 780.3303    , 3.34        , 3           , 255         , 0           , 0
-0.120798565, 0.123983696 , -9.791292   , -0.0005052767, 0.000399436482, 0.000458792754, -0.0131478673, -0.0124922171, -0.0001158158, 922.9864    , 31.6180115  , 780.331055  , 3.35        , 3           , 255         , 0           , 0
-0.1181715  , 0.125522971 , -9.78852749 , 0.000105866173, 4.0547653E-05, -0.0006026695, -0.0131467339, -0.0124918912, -0.000121847625, 922.9864    , 31.6180115  , 780.3318    , 3.36        , 3           , 255         , 0           , 0
-0.126860246, 0.137596816 , -9.797288   , 3.95352836E-05, -0.000280772685, -0.0006614088, -0.013146257, -0.0124947848, -0.000128424566, 922.9864    , 31.6180115  , 780.3325    , 3.37        , 3           , 255         , 0           , 0
-0.130916908, 0.136261731 , -9.791819   , 9.6693635E-05, 0.000101544625, -3.283075E-05, -0.0131452857, -0.0124937734, -0.000128766216, 922.9864    , 31.6180115  , 780.333252  , 3.38        , 3           , 255         , 0           , 0
-0.124490879, 0.121391855 , -9.789041   , 1.6340462E-05, 6.05575333E-05, -4.66619531E-06, -0.0131451217, -0.0124931689, -0.000128820844, 922.9864    , 31.6180115  , 780.334     , 3.39        , 3           , 255         , 0           , 0
-0.13052547 , 0.117274448 , -9.787138   , -0.0002992439, -4.4581393E-05, 0.000336998375, -0.0131481569, -0.01249357 , -0.000125445091, 922.9864    , 31.6180115  , 780.3347    , 3.4         , 3           , 255         , 0           , 0
-0.128530547, 0.132464811 , -9.797127   , -0.000428863161, 0.000131767636, -0.0002740774, -0.0131499926, -0.0124924351, -0.000128233311, 922.9864    , 31.6180115  , 780.311646  , 3.41        , 3           , 255         , 0           , 0
-0.1178092  , 0.1329585   , -9.806128   , -0.000418405572, 0.000319872925, -4.497441E-05, -0.0131541714, -0.0124892443, -0.0001287251, 922.9864    , 31.6180115  , 780.312256  , 3.42        , 3           , 255         , 0           , 0
-0.128466636, 0.134413972 , -9.778432   , -0.000113884453, 0.000188938808, -0.000164873738, -0.01315529 , -0.0124873761, -0.00013039865, 922.9942    , 31.6169262  , 780.312866  , 3.43        , 3           , 255         , 0           , 0
-0.1312602  , 0.124117278 , -9.797454   , 4.106408E-05, 0.000132611051, 0.000497800531, -0.0131549416, -0.0124859847, -0.000125438251, 922.9942    , 31.6169262  , 780.3135    , 3.44        , 3           , 255         , 0           , 0
-0.128390208, 0.123317085 , -9.787039   , -0.000410022971, 0.000112527327, 0.000210170751, -0.0131590664, -0.0124848327, -0.000123351434, 922.9942    , 31.6169262  , 780.3141    , 3.45        , 3           , 255         , 0           , 0
-0.1347802  , 0.133208424 , -9.791146   , 0.000129465538, 0.0001998491, 0.0004064039, -0.0131578222, -0.012482781, -0.000119313831, 922.9942    , 31.6169262  , 780.3147    , 3.46        , 3           , 255         , 0           , 0
-0.124710485, 0.133482039 , -9.793085   , 0.000284894079, 0.00053928  , -6.138723E-05, -0.0131549658, -0.0124773961, -0.000119998644, 922.9942    , 31.6169262  , 780.3153    , 3.47        , 3           , 255         , 0           , 0
-0.123794675, 0.128570735 , -9.799433   , 5.99840423E-05, 0.000264614879, -0.000125185426, -0.0131543493, -0.012474766, -0.000121285259, 922.9942    , 31.6169262  , 780.3159    , 3.48        , 3           , 255         , 0           , 0
-0.125396922, 0.123818383 , -9.794218   , -0.000139423588, 0.0004816694, 1.51616841E-05, -0.0131557453, -0.0124699473, -0.000121197016, 922.9942    , 31.6169262  , 780.3165    , 3.49        , 3           , 255         , 0           , 0
-0.129585534, 0.124658689 , -9.789114   , 6.514572E-05, -2.16053886E-05, -0.000234336709, -0.0131550645, -0.0124701951, -0.000123537451, 922.9942    , 31.6169262  , 780.317139  , 3.5         , 3           , 255         , 0           , 0
-0.114837632, 0.1274341   , -9.785502   , 0.000428043277, 1.58776966E-05, 0.000482056319, -0.0131512443, -0.0124783562, -0.000118714146, 922.9942    , 31.6169262  , 780.285645  , 3.51        , 3           , 255         , 0           , 0
-0.113917291, 0.121924341 , -9.790125   , -1.7303566E-05, 0.000271635829, -3.43286738E-05, -0.0131514147, -0.0124756433, -0.000119093151, 922.9942    , 31.6169262  , 780.2861    , 3.52        , 3           , 255         , 0           , 0
-0.116559908, 0.132680163 , -9.797064   , 0.000116963347, 4.398082E-05, -0.00063020247, -0.0131501649, -0.0124752857, -0.000125400751, 922.9964    , 31.61808    , 780.2865    , 3.53        , 3           , 255         , 0           , 0
-0.1242259  , 0.132345363 , -9.80028    , -0.000190645165, 0.0007585805, -0.000214116022, -0.0131520461, -0.0124677327, -0.000127641586, 922.9964    , 31.61808    , 780.2869    , 3.54        , 3           , 255         , 0           , 0
-0.125755757, 0.129620045 , -9.795506   , 0.000143481244, 0.000353900774, -0.000761745439, -0.0131505141, -0.0124642923, -0.000135305352, 922.9964    , 31.61808    , 780.287354  , 3.55        , 3           , 255         , 0           , 0
-0.129464537, 0.125967309 , -9.792585   , 0.000395427458, -0.00018331359, -0.0001557738, -0.0131465411, -0.0124661447, -0.00013683892, 922.9964    , 31.61808    , 780.2878    , 3.56        , 3           , 255         , 0           , 0
-0.118534029, 0.126812741 , -9.792092   , 0.0002351602, 0.000127329986, 0.000392175571, -0.0131442379, -0.0124648195, -0.000132934059, 922.9964    , 31.61808    , 780.2882    , 3.57        , 3           , 255         , 0           , 0
-0.117354169, 0.131321326 , -9.787738   , -1.86717662E-05, 0.000277998974, 0.000358024059, -0.01314447 , -0.0124619929, -0.000129390464, 922.9964    , 31.61808    , 780.288635  , 3.58        , 3           , 255         , 0           , 0
-0.121459268, 0.12798661  , -9.794702   , 0.0006230874, 0.000266815128, -0.000129318141, -0.0131382225, -0.0124593442, -0.000130718676, 922.9964    , 31.61808    , 780.289063  , 3.59        , 3           , 255         , 0           , 0
-0.121745609, 0.12829271  , -9.790167   , 0.000150763954, -8.068452E-05, 0.000646251137, -0.0131367967, -0.0124600641, -0.00012424578, 922.9964    , 31.61808    , 780.2895    , 3.6         , 3           , 255         , 0           , 0
-0.125082046, 0.1166847   , -9.795905   , 0.000217460125, -6.29018E-05, 0.000317089667, -0.0131340418, -0.0124576632, -0.000121074452, 922.9964    , 31.61808    , 780.258545  , 3.61        , 3           , 255         , 0           , 0
-0.11623615 , 0.1358882   , -9.793361   , 0.000654799864, -0.0003542808, 0.0004428659, -0.01312755 , -0.0124611463, -0.000116599411, 922.9964    , 31.61808    , 780.2588    , 3.62        , 3           , 255         , 0           , 0
-0.118713059, 0.132529482 , -9.788325   , 0.000733046036, 0.000171344465, 0.0001445424, -0.0131202377, -0.0124594178, -0.000115176539, 922.986     , 31.6178074  , 780.259033  , 3.63        , 3           , 255         , 0           , 0
-0.122658394, 0.122682236 , -9.791942   , 0.000474298024, -8.219741E-05, -0.000295737118, -0.0131154573, -0.0124602783, -0.000118123025, 922.986     , 31.6178074  , 780.2593    , 3.64        , 3           , 255         , 0           , 0
-0.125366241, 0.127038449 , -9.796291   , 0.00034199073, -0.000154671085, -0.000152178633, -0.0131120188, -0.0124618439, -0.00011962447, 922.986     , 31.6178074  , 780.2595    , 3.65        , 3           , 255         , 0           , 0
-0.12202891 , 0.1301172   , -9.791667   , -0.00019755424, 0.000439423777, -0.000462064927, -0.0131139373, -0.0124575114, -0.000124302591, 922.986     , 31.6178074  , 780.259766  , 3.66        , 3           , 255         , 0           , 0
-0.127087444, 0.125116616 , -9.793596   , 0.000419035146, -0.0002165414, 0.000351881929, -0.0131097911, -0.01245963 , -0.000120755481, 922.986     , 31.6178074  , 780.26      , 3.67        , 3           , 255         , 0           , 0
-0.119803429, 0.120923638 , -9.80284    , 2.10272847E-05, -0.00014923414, 0.00064341235, -0.0131096607, -0.0124610374, -0.000114302005, 922.986     , 31.6178074  , 780.260254  , 3.68        , 3           , 255         , 0           , 0
-0.117362037, 0.122149289 , -9.792513   , -0.0001487339, 3.196462E-05, 0.000188152073, -0.0131111722, -0.0124606937, -0.000112424743, 922.986     , 31.6178074  , 780.2605    , 3.69        , 3           , 255         , 0           , 0
-0.1296623  , 0.119070545 , -9.783533   , 0.0004040438, -3.444287E-05, 3.17235026E-05, -0.0131071368, -0.0124610346, -0.000112103, 922.986     , 31.6178074  , 780.260742  , 3.7         , 3           , 255         , 0           , 0
-0.1313686  , 0.115049742 , -9.790225   , -5.4023054E-05, 9.14720949E-05, -0.000446686841, -0.0131022325, -0.0124607673, -0.000116648858, 922.986     , 31.6178074  , 780.2489    , 3.71        , 3           , 255         , 0           , 0
-0.120753333, 0.122543529 , -9.795811   , 0.0002795445, 0.000186035541, 5.83855945E-05, -0.013099445, -0.0124588981, -0.000116089395, 922.986     , 31.6178074  , 780.2491    , 3.72        , 3           , 255         , 0           , 0
-0.113566019, 0.125384837 , -9.782761   , 0.000362681225, -0.000258181884, -0.00013237336, -0.0130958008, -0.0124614965, -0.000117379277, 922.943665  , 31.6176052  , 780.249268  , 3.73        , 3           , 255         , 0           , 0
-0.121039249, 0.127029851 , -9.790376   , 0.0005221178, 0.000677235133, -0.000281723, -0.0130905444, -0.0124547658, -0.000120285091, 922.943665  , 31.6176052  , 780.249451  , 3.74        , 3           , 255         , 0           , 0
-0.114430867, 0.135959655 , -9.799962   , 0.0005014108, -0.000204419528, 0.000173780514, -0.0130855516, -0.0124567859, -0.000118520591, 922.943665  , 31.6176052  , 780.249634  , 3.75        , 3           , 255         , 0           , 0
-0.1207484  , 0.12627396  , -9.793165   , 0.0003086686, -0.000101085912, 0.000138353178, -0.0130824829, -0.0124577787, -0.000117123869, 922.943665  , 31.6176052  , 780.2498    , 3.76        , 3           , 255         , 0           , 0
-0.121138692, 0.123858072 , -9.793559   , -5.30162943E-05, 0.000456269132, -0.000202794356, -0.0130829858, -0.0124532431, -0.000119211443, 922.943665  , 31.6176052  , 780.25      , 3.77        , 3           , 255         , 0           , 0
-0.121374831, 0.131062374 , -9.790087   , -0.000609379262, 1.148686E-05, 5.57137173E-05, -0.0130890878, -0.0124531211, -0.000118655822, 922.943665  , 31.6176052  , 780.2502    , 3.78        , 3           , 255         , 0           , 0
-0.123311065, 0.132438213 , -9.791101   , 0.00027923513, -0.000156159091, 9.735082E-05, -0.0130863078, -0.012454669, -0.000117661919, 922.943665  , 31.6176052  , 780.250366  , 3.79        , 3           , 255         , 0           , 0
-0.1326221  , 0.133875087 , -9.797783   , 0.0004046237, -0.000313021766, -4.34529065E-05, -0.0130822575, -0.0124578038, -0.000118055475, 922.943665  , 31.6176052  , 780.250549  , 3.8         , 3           , 255         , 0           , 0
-0.133219019, 0.1280049   , -9.79965    , 0.0003554346, -0.000209977268, 0.00049659767, -0.0130773615, -0.0124599133, -0.000113079681, 922.943665  , 31.6176052  , 780.299866  , 3.81        , 3           , 255         , 0           , 0
-0.1257011  , 0.1330373   , -9.802893   , 0.0003316999, 0.000495283748, -0.000156340218, -0.0130740246, -0.0124549847, -0.000114707807, 922.943665  , 31.6176052  , 780.300354  , 3.82        , 3           , 255         , 0           , 0
-0.120234653, 0.128268331 , -9.79554    , 0.000304122572, -0.000103356957, 0.000194573062, -0.013071009, -0.01245599 , -0.000112748639, 922.937866  , 31.6184177  , 780.300842  , 3.83        , 3           , 255         , 0           , 0
-0.11190138 , 0.122176483 , -9.794199   , -0.0004130662, 0.000131107212, -0.000315087673, -0.0130751  , -0.01245472 , -0.000115916548, 922.937866  , 31.6184177  , 780.301331  , 3.84        , 3           , 255         , 0           , 0
-0.115687013, 0.120365284 , -9.791964   , -0.0003252003, 0.000167969585, 7.601961E-05, -0.01307836 , -0.0124530308, -0.000115178336, 922.937866  , 31.6184177  , 780.3018    , 3.85        , 3           , 255         , 0           , 0
-0.124992132, 0.125813037 , -9.788027   , 2.74133927E-05, 0.000251508376, -0.0002557477, -0.0130780544, -0.01245055 , -0.000117768621, 922.937866  , 31.6184177  , 780.3023    , 3.86        , 3           , 255         , 0           , 0
-0.124363922, 0.123884484 , -9.789891   , -6.13304437E-05, 0.000173557914, -0.000303144276, -0.01307863 , -0.0124488538, -0.00012082266, 922.937866  , 31.6184177  , 780.3028    , 3.87        , 3           , 255         , 0           , 0
-0.113541067, 0.127975509 , -9.794796   , 0.000319570652, 8.373552E-05, 0.0005402024, -0.0130755035, -0.0124479458, -0.00011543178, 922.937866  , 31.6184177  , 780.3033    , 3.88        , 3           , 255         , 0           , 0
-0.116578   , 0.126476392 , -9.790406   , 0.000369636342, 0.00015553298, 0.0003826798, -0.0130718537, -0.0124463392, -0.000111625443, 922.937866  , 31.6184177  , 780.3038    , 3.89        , 3           , 255         , 0           , 0
-0.119710505, 0.125590041 , -9.794507   , 0.000183840515, -9.759216E-05, -0.000235699568, -0.0130699873, -0.0124473451, -0.000113969611, 922.937866  , 31.6184177  , 780.30426   , 3.9         , 3           , 255         , 0           , 0
-0.120465778, 0.12876074  , -9.791191   , 0.000559798034, -8.783849E-05, -0.0006483624, -0.0130614042, -0.0124462051, -0.000120477693, 922.937866  , 31.6184177  , 780.3542    , 3.91        , 3           , 255         , 0           , 0
-0.12531063 , 0.128341824 , -9.788596   , 0.0007135682, -0.000158492287, 0.000243853778, -0.0130543  , -0.0124477586, -0.000118018543, 922.937866  , 31.6184177  , 780.355     , 3.92        , 3           , 255         , 0           , 0
-0.123107359, 0.13130565  , -9.791606   , 8.827131E-05, -0.000324904278, 0.0004681074, -0.0130534759, -0.0124509456, -0.000113295195, 923.0249    , 31.6222172  , 780.3558    , 3.93        , 3           , 255         , 0           , 0
-0.127989084, 0.126851916 , -9.797121   , 0.00015820151, -0.000450409658, -0.000707350555, -0.0130518042, -0.0124555426, -0.000120309691, 923.0249    , 31.6222172  , 780.356567  , 3.94        , 3           , 255         , 0           , 0
-0.119137526, 0.124889873 , -9.788415   , 0.000269712531, -0.0005076887, -0.0007414829, -0.0130490167, -0.0124607142, -0.00012765803, 923.0249    , 31.6222172  , 780.357361  , 3.95        , 3           , 255         , 0           , 0
-0.122375093, 0.125317067 , -9.78967    , 0.0006430097, 6.783739E-05, -0.000214993721, -0.0130425608, -0.0124600641, -0.000129816748, 923.0249    , 31.6222172  , 780.358154  , 3.96        , 3           , 255         , 0           , 0
