Acc X       , Acc Y       , Acc Z       , Gyro X      , Gyro Y      , Gyro Z      , Euler X     , Euler Y     , Euler Z     , Pres X      , Pres Y      , Pres Z      , Time        , Status      , LowRate X   , LowRate Y   , LowRate Z    
-0.123007484, 0.128102675 , -9.785185   , 0           , 0           , 0           , -0.0130907446, -0.0125690494, 0           , 922.641357  , 33.61399    , 783.276     , 0           , 2           , 0           , 5.006232    , 0
-0.131493   , 0.13001807  , -9.792852   , -0.0005090145, 0.000144297082, 0.0002746699, -0.0130956555, -0.0125677306, 2.72771717E-06, 922.641357  , 33.61399    , 783.276     , 0.01        , 3           , 1           , 0           , 0
-0.13179116 , 0.13601993  , -9.792114   , 0.000108152104, -0.0008139979, -0.000149562431, -0.0130945565, -0.01257589 , 1.3387438E-06, 922.641357  , 33.61399    , 783.276     , 0.02        , 3           , 2           , 0           , 0
-0.1284667  , 0.141543791 , -9.792277   , -0.000270878954, -0.000131256937, 0.000111395937, -0.01309728 , -0.0125771882, 2.46985178E-06, 922.5966    , 33.18116    , 783.276     , 0.03        , 3           , 3           , 0           , 0
-0.125166416, 0.131894708 , -9.789798   , -0.000345593726, 0.000163819874, -0.000117255375, -0.01310072 , -0.012575563, 1.27587464E-06, 922.5966    , 33.18116    , 783.276     , 0.04        , 3           , 4           , 0           , 0
-0.131593212, 0.13190344  , -9.787943   , 0.000171771855, 0.0004425806, 0.0001951002, -0.0130990287, -0.0125711123, 3.1688428E-06, 922.5966    , 33.18116    , 783.276     , 0.05        , 3           , 5           , 0           , 0
-0.1293036  , 0.124783754 , -9.795358   , -0.000254558, 0.000106562395, -0.000120914367, -0.0131015573, -0.0125700608, 1.94578138E-06, 922.5966    , 33.18116    , 783.276     , 0.06        , 3           , 6           , 0           , 0
-0.123302139, 0.128727868 , -9.803186   , 7.355993E-06, -7.02566467E-06, -0.000368412031, -0.0131014381, -0.0125701791, -1.73730143E-06, 922.5966    , 33.18116    , 783.276     , 0.07        , 3           , 7           , 0           , 0
-0.127181441, 0.124281332 , -9.794174   , -0.000111105677, -0.0002761854, 0.000571966055, -0.0131026208, -0.0125728669, 4.0183636E-06, 922.5966    , 33.18116    , 783.276     , 0.08        , 3           , 8           , 5           , 5
-0.125657886, 0.1139551   , -9.788699   , -0.000395555224, -0.0001729884, 0.0004944771, -0.0131066376, -0.012574533, 8.985645E-06, 922.5966    , 33.18116    , 783.276     , 0.09        , 3           , 9           , 5           , 0.1
-0.118161879, 0.125456378 , -9.79217    , 2.35328334E-05, 3.325747E-05, 2.86687282E-06, -0.0131064029, -0.0125742  , 9.009957E-06, 922.5966    , 33.18116    , 783.276     , 0.1         , 3           , 10          , 0.1         , 0.1
-0.126646936, 0.120495319 , -9.796674   , -0.0005965321, -0.0001194115, 0.000443208672, -0.0131147243, -0.0125918323, 1.34865186E-05, 922.5966    , 33.18116    , 783.677734  , 0.11        , 3           , 11          , 0.0109544508, 0.0109544508
-0.1413469  , 0.113734439 , -9.796614   , -0.0002384829, 0.000229026045, 0.000461242336, -0.0131171672, -0.0125894826, 1.80687621E-05, 922.5966    , 33.18116    , 783.677734  , 0.12        , 3           , 12          , 0.174642488 , 0
-0.131883278, 0.119445324 , -9.794657   , -0.0007058406, -0.00034602714, 0.000359410944, -0.0131242694, -0.012592894, 2.17081524E-05, 922.6227    , 33.21895    , 783.677734  , 0.13        , 3           , 13          , 0           , 0
-0.122005388, 0.123795591 , -9.79077    , -0.000500168244, -0.000147689017, 0.000228753837, -0.0131292995, -0.0125943413, 2.40150021E-05, 922.6227    , 33.21895    , 783.677734  , 0.14        , 3           , 14          , -0.0007655243, -0.0005589854
-0.128394753, 0.12227533  , -9.804117   , -0.000245249656, -7.809041E-05, 3.99674464E-05, -0.0131317563, -0.012595119, 2.44249168E-05, 922.6227    , 33.21895    , 783.677734  , 0.15        , 3           , 15          , 0           , -0.000153357993
-0.121972516, 0.127995938 , -9.799309   , 6.0558843E-05, 0.000105814222, -0.000905368943, -0.0131310383, -0.0125941793, 1.53576275E-05, 922.6227    , 33.21895    , 783.677734  , 0.16        , 3           , 16          , 0           , 1.401298E-45
-0.121556304, 0.1367069   , -9.787325   , -0.000130382716, 0.0006331586, -0.000601992244, -0.0131322648, -0.0125879264, 9.254741E-06, 922.6227    , 33.21895    , 783.677734  , 0.17        , 3           , 20          , 0           , 0
-0.12316899 , 0.125996619 , -9.794907   , -0.00016241608, 8.612988E-06, 7.390883E-05, -0.0131338993, -0.01258783 , 9.992676E-06, 922.6227    , 33.21895    , 783.6778    , 0.18        , 3           , 21          , 0           , 0
-0.128118426, 0.134543464 , -9.795471   , 0.000103990955, -3.103679E-05, -5.470778E-06, -0.0131328581, -0.0125881424, 9.942046E-06, 922.6227    , 33.21895    , 783.677856  , 0.19        , 3           , 22          , 0           , 0
-0.129353   , 0.128940269 , -9.792059   , 0.000500264461, 0.000312198332, 3.418351E-05, -0.01312786 , -0.012585016, 1.02428785E-05, 922.6227    , 33.21895    , 783.6779    , 0.2         , 3           , 40          , 0           , 0
-0.131678417, 0.137078092 , -9.791443   , 0.000306139525, 6.901112E-05, 0.0003106047, -0.0131139318, -0.0125979781, 1.32023642E-05, 922.6227    , 33.21895    , 783.5602    , 0.21        , 3           , 41          , 0           , 0
-0.132169768, 0.137604848 , -9.794618   , -0.000114613445, 4.419661E-05, 0.0004105992, -0.0131151285, -0.0125974827, 1.73024309E-05, 922.6227    , 33.21895    , 783.560242  , 0.22        , 3           , 42          , 0           , 0
-0.125118941, 0.133945748 , -9.792803   , -0.0005103515, -0.000212484039, -9.98028263E-05, -0.0131202191, -0.01259962 , 1.63323E-05 , 922.589     , 33.24276    , 783.5603    , 0.23        , 3           , 255         , 0           , 0
-0.116627976, 0.120950378 , -9.796549   , -0.00054434326, 0.00063457666, -0.000130134023, -0.013125645, -0.0125932926, 1.49477264E-05, 922.589     , 33.24276    , 783.560364  , 0.24        , 3           , 255         , 0           , 0
-0.130403057, 0.12985763  , -9.795604   , -2.33476749E-06, 0.00019294463, -0.000444956269, -0.0131256124, -0.0125914216, 1.04729779E-05, 922.589     , 33.24276    , 783.5604    , 0.25        , 3           , 255         , 0           , 0
-0.120451905, 0.130362719 , -9.792822   , 0.000244578929, 0.000215861422, -8.91706E-05, -0.0131231546, -0.0125892758, 9.55296946E-06, 922.589     , 33.24276    , 783.5605    , 0.26        , 3           , 255         , 0           , 0
-0.121811822, 0.13123478  , -9.80142    , 0.000409828761, 0.000242500479, 0.000483962358, -0.0131191174, -0.0125867864, 1.43606339E-05, 922.589     , 33.24276    , 783.560547  , 0.27        , 3           , 255         , 0           , 0
-0.134926021, 0.139204741 , -9.796466   , -0.000454220339, -5.369296E-05, -0.0003960488, -0.01312361 , -0.0125873759, 1.04073079E-05, 922.589     , 33.24276    , 783.5606    , 0.28        , 3           , 255         , 0           , 0
-0.135258466, 0.128946155 , -9.797379   , 0.000145505241, -0.000204619835, -0.000347053137, -0.0131221125, -0.0125894668, 6.963746E-06, 922.589     , 33.24276    , 783.560669  , 0.29        , 3           , 255         , 0           , 0
-0.124750331, 0.127408475 , -9.795215   , 0.000830931 , -0.000157939619, 0.0004339931, -0.0131138582, -0.0125909876, 1.13242613E-05, 922.589     , 33.24276    , 783.5607    , 0.3         , 3           , 255         , 0           , 0
-0.125914723, 0.132734269 , -9.791596   , 7.561466E-05, -6.83123944E-05, 0.000145028054, -0.0131229972, -0.0126043363, 1.29079481E-05, 922.589     , 33.24276    , 783.6233    , 0.31        , 3           , 255         , 0           , 0
-0.115117013, 0.131054968 , -9.79263    , 0.000787178753, -0.00024187722, -0.000638828438, -0.0131150465, -0.0126068406, 6.551596E-06, 922.589     , 33.24276    , 783.623352  , 0.32        , 3           , 255         , 0           , 0
-0.1293147  , 0.129682586 , -9.791483   , 0.000363151485, 0.000121727295, -0.000123925376, -0.0131113995, -0.0126056364, 5.29643E-06 , 922.649231  , 33.2604675  , 783.6234    , 0.33        , 3           , 255         , 0           , 0
-0.120317616, 0.134930074 , -9.790342   , -0.000304474321, 7.611816E-06, -0.000143189929, -0.0131144254, -0.01260558 , 3.86357124E-06, 922.649231  , 33.2604675  , 783.6235    , 0.34        , 3           , 255         , 0           , 0
-0.123806417, 0.122547314 , -9.79017448 , -0.000232646766, 0.00020175337, -0.0002608199, -0.0131167183, -0.0126035959, 1.22899223E-06, 922.649231  , 33.2604675  , 783.623535  , 0.35        , 3           , 255         , 0           , 0
-0.136628956, 0.128497213 , -9.787899   , 0.000100893143, 0.0004270794, 2.65156414E-05, -0.0131157115, -0.0125993229, 1.43812724E-06, 922.649231  , 33.2604675  , 783.6236    , 0.36        , 3           , 255         , 0           , 0
-0.118002675, 0.122992277 , -9.795873   , -0.0002795243, 3.88286426E-05, 0.0004464977, -0.0131185642, -0.0125988759, 5.897865E-06, 922.649231  , 33.2604675  , 783.623657  , 0.37        , 3           , 255         , 0           , 0
-0.128240943, 0.1319913   , -9.792837   , -0.000264321978, -0.00012510363, -0.0005503248, -0.0131211374, -0.0126001993, 4.11211573E-07, 922.649231  , 33.2604675  , 783.6237    , 0.38        , 3           , 255         , 0           , 0
-0.132028073, 0.13421078  , -9.798044   , -0.0006652647, -5.247473E-05, 0.000679330435, -0.0131278755, -0.0126006361, 7.21118431E-06, 922.649231  , 33.2604675  , 783.6238    , 0.39        , 3           , 255         , 0           , 0
-0.129356354, 0.12986961  , -9.800792   , -0.000403211161, 0.000166372687, 8.89382063E-05, -0.0131319184, -0.01259896 , 8.078687E-06, 922.649231  , 33.2604675  , 783.62384   , 0.4         , 3           , 255         , 0           , 0
-0.123081252, 0.126463115 , -9.804456   , 0.000233662082, 0.000168322062, 0.0007007666, -0.0131346853, -0.0126058571, 1.51272479E-05, 922.649231  , 33.2604675  , 783.5177    , 0.41        , 3           , 255         , 0           , 0
-0.129686683, 0.128251716 , -9.791819   , -0.000264552073, 6.763823E-05, 0.0001015906, -0.0131373433, -0.0126051679, 1.613424E-05, 922.649231  , 33.2604675  , 783.517761  , 0.42        , 3           , 255         , 0           , 0
-0.120384075, 0.128120154 , -9.79585552 , -0.000435111346, -0.000160297379, -5.53396676E-05, -0.013141687, -0.0126067791, 1.5601925E-05, 922.6485    , 33.27044    , 783.5178    , 0.43        , 3           , 255         , 0           , 0
-0.117764056, 0.124799982 , -9.789255   , -0.000285741524, 0.000337953737, 0.000138133721, -0.0131445611, -0.0126033816, 1.69387986E-05, 922.6485    , 33.27044    , 783.5179    , 0.44        , 3           , 255         , 0           , 0
-0.12942794 , 0.124929905 , -9.785472   , 0.000442208839, 4.97330329E-05, 0.000244853378, -0.0131401708, -0.0126028517, 1.93807173E-05, 922.6485    , 33.27044    , 783.517944  , 0.45        , 3           , 255         , 0           , 0
-0.12938863 , 0.1303139   , -9.791203   , -0.000217260211, -0.000404714374, -0.0001055476, -0.0131423306, -0.0126069123, 1.83784723E-05, 922.6485    , 33.27044    , 783.518     , 0.46        , 3           , 255         , 0           , 0
-0.126201943, 0.1313477   , -9.79524    , -0.00026025658, 5.708309E-06, 0.000162438548, -0.0131449532, -0.0126068341, 2.00020477E-05, 922.6485    , 33.27044    , 783.518066  , 0.47        , 3           , 255         , 0           , 0
-0.130988568, 0.133713841 , -9.791172   , -0.0005682502, 7.990177E-05, 0.000290495256, -0.0131506706, -0.0126059968, 2.28964036E-05, 922.6485    , 33.27044    , 783.5181    , 0.48        , 3           , 255         , 0           , 0
-0.13049601 , 0.1370854   , -9.794363   , -0.000214061, 0.000188536418, 0.000358119316, -0.0131528573, -0.0126040652, 2.645268E-05, 922.6485    , 33.27044    , 783.5182    , 0.49        , 3           , 255         , 0           , 0
-0.1260031  , 0.134790152 , -9.796925   , -0.0003436216, 0.000456828566, 0.0002636077, -0.0131563256, -0.0125994626, 2.9028577E-05, 922.6485    , 33.27044    , 783.51825   , 0.5         , 3           , 255         , 0           , 0
-0.130830929, 0.133297518 , -9.787625   , 2.529798E-05, 0.000304166577, -0.00040507887, -0.0131602958, -0.0126062362, 2.49917848E-05, 922.6485    , 33.27044    , 783.4556    , 0.51        , 3           , 255         , 0           , 0
-0.131008208, 0.1277158   , -9.785109   , 1.07967644E-05, -0.000103941478, -0.00065367535, -0.0131601049, -0.0126073621, 1.846892E-05, 922.6485    , 33.27044    , 783.4557    , 0.52        , 3           , 255         , 0           , 0
-0.122982129, 0.123970665 , -9.794855   , 0.000558774569, -0.000217165565, 7.586418E-05, -0.0131545272, -0.0126095228, 1.925611E-05, 922.6327    , 33.27858    , 783.45575   , 0.53        , 3           , 255         , 0           , 0
-0.120048083, 0.125202134 , -9.79579    , 0.0003437095, 0.000195404835, -0.000132629808, -0.0131510738, -0.0126075856, 1.79041526E-05, 922.6327    , 33.27858    , 783.4558    , 0.54        , 3           , 255         , 0           , 0
-0.120536909, 0.13191402  , -9.796869   , -0.0007455085, -9.026326E-05, -0.000417423667, -0.013158476, -0.012608544, 1.37419283E-05, 922.6327    , 33.27858    , 783.4559    , 0.55        , 3           , 255         , 0           , 0
-0.120937452, 0.129228249 , -9.801465   , 5.03192423E-05, 0.000135590264, 0.0004052192, -0.0131580243, -0.0126071349, 1.777615E-05, 922.6327    , 33.27858    , 783.455933  , 0.56        , 3           , 255         , 0           , 0
-0.125467792, 0.126711324 , -9.799841   , 0.0004158658, 0.000650130562, -6.44222455E-05, -0.0131538576, -0.0126006454, 1.70464245E-05, 922.6327    , 33.27858    , 783.456     , 0.57        , 3           , 255         , 0           , 0
-0.129505515, 0.13213928  , -9.793057   , 0.000242112437, 0.000245941657, 0.000107028864, -0.01315145 , -0.01259817 , 1.80843381E-05, 922.6327    , 33.27858    , 783.456055  , 0.58        , 3           , 255         , 0           , 0
-0.132452562, 0.1285407   , -9.797795   , -0.0001681819, -0.0004524822, 2.14339816E-05, -0.0131531339, -0.0126026925, 1.83581742E-05, 922.6327    , 33.27858    , 783.4561    , 0.59        , 3           , 255         , 0           , 0
-0.119651042, 0.129656047 , -9.792307   , -0.0007400616, -0.00017115206, 0.000801122165, -0.0131606348, -0.0126042971, 2.63916627E-05, 922.6327    , 33.27858    , 783.4562    , 0.6         , 3           , 255         , 0           , 0
-0.118637085, 0.127620324 , -9.796047   , 0.0002818469, -0.000210024184, -0.000534596969, -0.0131576844, -0.0126121351, 2.10726612E-05, 922.6327    , 33.27858    , 783.4388    , 0.61        , 3           , 255         , 0           , 0
-0.12723659 , 0.116551258 , -9.795268   , 0.000370546069, -0.000142545381, 0.0008977149, -0.0131540932, -0.0126134446, 3.00682859E-05, 922.6327    , 33.27858    , 783.438843  , 0.62        , 3           , 255         , 0           , 0
-0.116780758, 0.12623319  , -9.789756   , -0.000239717425, 0.00025297227, 0.000444280158, -0.0131565463, -0.0126108564, 3.447768E-05, 922.579163  , 33.2833977  , 783.4389    , 0.63        , 3           , 255         , 0           , 0
-0.118531726, 0.135172009 , -9.789715   , -0.000330399838, -3.60215781E-05, 0.000516180065, -0.0131599139, -0.012611147, 3.964405E-05, 922.579163  , 33.2833977  , 783.438965  , 0.64        , 3           , 255         , 0           , 0
-0.128748238, 0.134952366 , -9.786995   , -0.000100252742, 0.000127714273, 0.000303485867, -0.0131609552, -0.0126098311, 4.2662E-05  , 922.579163  , 33.2833977  , 783.4391    , 0.65        , 3           , 255         , 0           , 0
-0.124543265, 0.125105    , -9.787026   , -0.000260948669, -2.093811E-05, 0.000818280561, -0.0131636681, -0.0126099316, 5.08472949E-05, 922.579163  , 33.2833977  , 783.4392    , 0.66        , 3           , 255         , 0           , 0
-0.129884511, 0.122504435 , -9.790121   , 0.000277463085, -0.000392695481, 0.000254641025, -0.0131609254, -0.0126138246, 5.344531E-05, 922.579163  , 33.2833977  , 783.439331  , 0.67        , 3           , 255         , 0           , 0
-0.119607709, 0.126823977 , -9.797831   , 0.0007653592, -0.0004341493, -1.2373217E-05, -0.0131532708, -0.0126181673, 5.337871E-05, 922.579163  , 33.2833977  , 783.439453  , 0.68        , 3           , 255         , 0           , 0
-0.129166216, 0.13205862  , -9.798688   , 0.000423256017, 0.000161646254, -0.000498153153, -0.0131489756, -0.0126166157, 4.83760923E-05, 922.579163  , 33.2833977  , 783.4396    , 0.69        , 3           , 255         , 0           , 0
-0.128247291, 0.135505885 , -9.802324   , -0.0007584641, 0.000417652453, -0.0003256568, -0.0131565183, -0.0126124835, 4.50646839E-05, 922.579163  , 33.2833977  , 783.4397    , 0.7         , 3           , 255         , 0           , 0
-0.121058859, 0.130242556 , -9.797764   , -0.000372521172, 4.88454825E-05, 0.0001274606, -0.0131581966, -0.0126139866, 4.630679E-05, 922.579163  , 33.2833977  , 783.5003    , 0.71        , 3           , 255         , 0           , 0
-0.125618443, 0.11894621  , -9.801976   , -0.000383333478, -0.0003108796, 0.000189261686, -0.0131620551, -0.01261707 , 4.82402538E-05, 922.579163  , 33.2833977  , 783.5004    , 0.72        , 3           , 255         , 0           , 0
-0.12643294 , 0.123234645 , -9.799864   , -0.00062034576, 7.026183E-05, 0.000120137818, -0.0131682726, -0.0126163522, 4.94323431E-05, 922.6854    , 33.2863159  , 783.500549  , 0.73        , 3           , 255         , 0           , 0
-0.12094228 , 0.128791615 , -9.78844    , -0.000523772265, 1.30849658E-05, -0.0007191661, -0.0131734191, -0.012616314, 4.22391859E-05, 922.6854    , 33.2863159  , 783.5007    , 0.74        , 3           , 255         , 0           , 0
-0.123520777, 0.129989922 , -9.793652   , 4.2513595E-05, 2.66127754E-05, -0.0001552692, -0.0131729748, -0.0126160681, 4.06830368E-05, 922.6854    , 33.2863159  , 783.5008    , 0.75        , 3           , 255         , 0           , 0
-0.119968578, 0.118341543 , -9.794892   , 7.302174E-05, -0.000333269534, -0.00024108286, -0.0131722149, -0.012619433, 3.831618E-05, 922.6854    , 33.2863159  , 783.5009    , 0.76        , 3           , 255         , 0           , 0
-0.116714023, 0.130715147 , -9.799594   , -7.03509431E-06, 0.000126184459, -0.00092636 , -0.0131721683, -0.0126182931, 2.90362568E-05, 922.6854    , 33.2863159  , 783.5011    , 0.77        , 3           , 255         , 0           , 0
-0.12543188 , 0.1353338   , -9.798857   , 9.706046E-05, 7.49215251E-05, 6.430562E-05, -0.0131712053, -0.012617535, 2.96694252E-05, 922.6854    , 33.2863159  , 783.5013    , 0.78        , 3           , 255         , 0           , 0
-0.129992157, 0.129837722 , -9.79480648 , 0.000283665926, 0.000129140157, -0.000206986035, -0.0131683415, -0.01261627 , 2.75826278E-05, 922.6854    , 33.2863159  , 783.501465  , 0.79        , 3           , 255         , 0           , 0
-0.133120328, 0.14195402  , -9.794903   , 0.000146792852, 0.0006091562, 0.000105077721, -0.0131668858, -0.0126101663, 2.855315E-05, 922.6854    , 33.2863159  , 783.501648  , 0.8         , 3           , 255         , 0           , 0
-0.119525269, 0.1354756   , -9.793056   , 0.000216024055, 3.16260266E-05, 0.000428963831, -0.013163954, -0.0126115289, 3.28280621E-05, 922.6854    , 33.2863159  , 783.415833  , 0.81        , 3           , 255         , 0           , 0
-0.125137419, 0.131660253 , -9.793161   , 0.0006647806, 0.000168170838, 0.000748309947, -0.0131574012, -0.0126097472, 4.02887963E-05, 922.6854    , 33.2863159  , 783.4159    , 0.82        , 3           , 255         , 0           , 0
-0.13487874 , 0.13269034  , -9.801032   , 0.0007084091, 0.0003239358, 0.000382975617, -0.013150366, -0.0126064606, 4.407583E-05, 922.662842  , 33.2891655  , 783.415955  , 0.83        , 3           , 255         , 0           , 0
-0.124041438, 0.130358636 , -9.801193   , -0.000174993125, 0.000478673755, 0.000309700728, -0.0131521542, -0.0126016317, 4.710979E-05, 922.662842  , 33.2891655  , 783.416     , 0.84        , 3           , 255         , 0           , 0
-0.125883654, 0.136564583 , -9.800935   , 0.000332368276, 0.000325817848, 0.000288525567, -0.0131488666, -0.0125983357, 4.99521047E-05, 922.662842  , 33.2891655  , 783.4161    , 0.85        , 3           , 255         , 0           , 0
-0.116267368, 0.129621416 , -9.792035   , 0.000594802957, 0.000347068766, -0.0001913461, -0.013142894, -0.0125948936, 4.799309E-05, 922.662842  , 33.2891655  , 783.416138  , 0.86        , 3           , 255         , 0           , 0
-0.117010042, 0.116876341 , -9.786374   , 0.000208753336, 0.000346894434, -6.267642E-05, -0.0131408  , -0.0125914309, 4.732076E-05, 922.662842  , 33.2891655  , 783.4162    , 0.87        , 3           , 255         , 0           , 0
-0.117921673, 0.128842071 , -9.784638   , 9.319518E-05, 0.000241825182, 0.000196785055, -0.0131398924, -0.0125889871, 4.92567669E-05, 922.662842  , 33.2891655  , 783.41626   , 0.88        , 3           , 255         , 0           , 0
-0.1187518  , 0.126601025 , -9.797517   , 0.000382591 , -0.00020477589, -0.0001669525, -0.013136046, -0.0125910556, 4.7614194E-05, 922.662842  , 33.2891655  , 783.4163    , 0.89        , 3           , 255         , 0           , 0
-0.117942311, 0.120716393 , -9.809461   , 0.0002847592, -0.0002377922, 0.000151690954, -0.0131332166, -0.0125934128, 4.91622923E-05, 922.662842  , 33.2891655  , 783.416443  , 0.9         , 3           , 255         , 0           , 0
-0.125389725, 0.11398311  , -9.793012   , 4.24288446E-05, -0.000143999408, 9.147669E-06, -0.0131330937, -0.0125904009, 4.92764448E-05, 922.662842  , 33.2891655  , 783.3739    , 0.91        , 3           , 255         , 0           , 0
-0.123790227, 0.118557155 , -9.78431    , -0.000394466857, 0.000135936512, 0.0005263412, -0.0131371059, -0.0125889732, 5.452183E-05, 922.662842  , 33.2891655  , 783.373962  , 0.92        , 3           , 255         , 0           , 0
-0.119374409, 0.123287633 , -9.786764   , 0.000128242769, -0.000179519353, 0.0009717373, -0.0131359464, -0.0125906421, 6.426248E-05, 922.670166  , 33.2925568  , 783.374     , 0.93        , 3           , 255         , 0           , 0
-0.115037546, 0.129062533 , -9.790907   , 0.000198411639, -2.54257466E-05, 0.000652634131, -0.0131340446, -0.0125908107, 7.079196E-05, 922.670166  , 33.2925568  , 783.3741    , 0.94        , 3           , 255         , 0           , 0
-0.12333636 , 0.127225414 , -9.787191   , -6.0031598E-05, -0.000156780588, 0.000593670644, -0.0131347207, -0.0125923  , 7.67490637E-05, 922.670166  , 33.2925568  , 783.374146  , 0.95        , 3           , 255         , 0           , 0
-0.1231375  , 0.131039441 , -9.788801   , -0.00030872185, -0.0002640034, -0.000254076265, -0.0131377755, -0.0125949718, 7.42430639E-05, 922.670166  , 33.2925568  , 783.3742    , 0.96        , 3           , 255         , 0           , 0
-0.119747281, 0.140003    , -9.806907   , -0.000274236721, 0.000372637238, -0.000183927, -0.013140494, -0.0125912689, 7.235489E-05, 922.670166  , 33.2925568  , 783.374268  , 0.97        , 3           , 255         , 0           , 0
-0.120622717, 0.1376652   , -9.800518   , -0.000173241366, -0.0001948856, 0.00016452682, -0.0131422468, -0.0125931967, 7.402572E-05, 922.670166  , 33.2925568  , 783.3743    , 0.98        , 3           , 255         , 0           , 0
-0.134387285, 0.135356739 , -9.804781   , -4.31858934E-05, -9.689282E-05, 0.000299146865, -0.0131427152, -0.0125941252, 7.702982E-05, 922.670166  , 33.2925568  , 783.3744    , 0.99        , 3           , 255         , 0           , 0
-0.13036114 , 0.1338644   , -9.80052    , -0.0006409068, -0.0003040054, -0.000196353867, -0.0131491  , -0.0125971921, 7.510631E-05, 922.670166  , 33.2925568  , 783.374451  , 1           , 3           , 0           , 6.00623655  , 100
-0.114951015, 0.130238682 , -9.793302   , 0.000154644309, -0.0004457999, 0.0004391958, -0.0131485956, -0.0126020731, 7.956917E-05, 922.670166  , 33.2925568  , 783.3311    , 1.01        , 3           , 1           , 0           , 0
-0.122462332, 0.136125952 , -9.785485   , 0.000331339281, -0.000396819261, 0.000195433735, -0.013145308, -0.0126060145, 8.157561E-05, 922.670166  , 33.2925568  , 783.331055  , 1.02        , 3           , 2           , 0           , 0
-0.127527416, 0.131892845 , -9.78994    , -1.14205177E-05, -0.000677906, 0.0006687476, -0.0131455073, -0.0126127061, 8.8352E-05  , 922.6412    , 33.29812    , 783.331055  , 1.03        , 3           , 3           , 0           , 0
-0.126447767, 0.125835255 , -9.790364   , 0.000279371015, 3.77809047E-05, 0.0001688964, -0.0131427338, -0.0126123056, 9.003593E-05, 922.6412    , 33.29812    , 783.331055  , 1.04        , 3           , 4           , 0           , 0
-0.126670256, 0.123753548 , -9.790498   , -0.000851554156, 0.0002760957, -0.000246611, -0.0131512173, -0.0126095768, 8.75336045E-05, 922.6412    , 33.29812    , 783.331055  , 1.05        , 3           , 5           , 0           , 0
-0.124443218, 0.121993445 , -9.792216   , -0.0007540003, -0.000231697282, 0.000146984312, -0.0131587749, -0.0126118725, 8.903386E-05, 922.6412    , 33.29812    , 783.331055  , 1.06        , 3           , 6           , 0           , 0
-0.116295658, 0.115675762 , -9.798381   , -0.000155949383, 8.409913E-05, 9.44567655E-05, -0.0131603461, -0.0126110194, 8.9967325E-05, 922.6412    , 33.29812    , 783.331055  , 1.07        , 3           , 7           , 0           , 0
-0.120159253, 0.117955305 , -9.7969     , -0.0002555402, 0.000208193087, 0.000212953732, -0.0131629286, -0.0126089109, 9.20693856E-05, 922.6412    , 33.29812    , 783.331055  , 1.08        , 3           , 8           , 5           , 5
-0.121425889, 0.118386351 , -9.790374   , -0.0003944232, -0.000272535777, -9.796931E-06, -0.0131668719, -0.0126116369, 9.20073E-05 , 922.6412    , 33.29812    , 783.331055  , 1.09        , 3           , 9           , 5           , 0.1
-0.128206685, 0.119324468 , -9.788683   , -0.000256058935, -0.0001923808, -0.000546287862, -0.0131693622, -0.0126136318, 8.656993E-05, 922.6412    , 33.29812    , 783.331055  , 1.1         , 3           , 10          , 0.1         , 0.1
-0.122910812, 0.1233256   , -9.78867    , -1.04777282E-05, -0.000435512571, -8.296191E-05, -0.01315421 , -0.0126159005, 8.560533E-05, 922.6412    , 33.29812    , 783.3248    , 1.11        , 3           , 11          , 0.009354616 , 0.009354616
-0.127203867, 0.121760264 , -9.788643   , 0.000381966354, 0.000130211614, -0.000352905947, -0.0131503446, -0.0126146451, 8.205926E-05, 922.6412    , 33.29812    , 783.324768  , 1.12        , 3           , 12          , 0.174642846 , 0
-0.127229467, 0.129660413 , -9.797638   , 0.000102478487, 0.00034713588, 0.000635465665, -0.0131494  , -0.0126110911, 8.836808E-05, 922.629761  , 33.29561    , 783.324768  , 1.13        , 3           , 13          , 0           , 0
-0.127898753, 0.13395457  , -9.789415   , -0.00016929151, -5.89294941E-05, -0.000112355265, -0.0131510785, -0.0126116946, 8.725231E-05, 922.629761  , 33.29561    , 783.324768  , 1.14        , 3           , 14          , -0.000765539531, -0.000558971951
-0.123069167, 0.134221956 , -9.790689   , -0.000438786868, -0.0001951711, 0.000571805 , -0.0131555395, -0.0126135712, 9.299584E-05, 922.629761  , 33.29561    , 783.324768  , 1.15        , 3           , 15          , 0           , -0.000153357614
-0.132492691, 0.144949809 , -9.79614449 , 9.003846E-05, -5.83363E-06, 4.960969E-05, -0.0131546445, -0.0126136234, 9.349268E-05, 922.629761  , 33.29561    , 783.324768  , 1.16        , 3           , 16          , 0           , 1.401298E-45
-0.1289951  , 0.134938046 , -9.789114   , 0.000476758 , -2.28644931E-05, 0.000184441888, -0.0131498994, -0.0126138264, 9.53400449E-05, 922.629761  , 33.29561    , 783.324768  , 1.17        , 3           , 20          , 0           , 0
-0.122543119, 0.13845399  , -9.787691   , -0.0003100704, -4.55469126E-05, -0.000519175665, -0.0131529355, -0.0126143508, 9.015445E-05, 922.629761  , 33.29561    , 783.324768  , 1.18        , 3           , 21          , 0           , 0
-0.122726962, 0.130422711 , -9.79579    , -0.000129407621, 3.1452335E-05, -0.0008138664, -0.0131541258, -0.012614144, 8.20119E-05 , 922.629761  , 33.29561    , 783.324768  , 1.19        , 3           , 22          , 0           , 0
-0.115966521, 0.138107449 , -9.796701   , 2.53976323E-05, 0.000226405624, 7.8558005E-05, -0.0131538808, -0.01261187 , 8.276768E-05, 922.629761  , 33.29561    , 783.324768  , 1.2         , 3           , 40          , 0           , 0
-0.113021836, 0.142539024 , -9.807829   , 5.434209E-06, 3.03506386E-05, 4.50468433E-05, -0.0131665869, -0.0126163932, 8.337506E-05, 922.629761  , 33.29561    , 783.330933  , 1.21        , 3           , 41          , 0           , 0
-0.124012306, 0.136590064 , -9.803373   , 0.000471784151, -0.0003065524, -0.000212221479, -0.0131618436, -0.0126194861, 8.129326E-05, 922.629761  , 33.29561    , 783.330933  , 1.22        , 3           , 42          , 0           , 0
-0.123201646, 0.1273279   , -9.800366   , -8.988491E-05, 1.40573247E-05, -0.000269909215, -0.0131627088, -0.0126193818, 7.859241E-05, 922.629761  , 33.2968979  , 783.330933  , 1.23        , 3           , 255         , 0           , 0
-0.1222589  , 0.109485134 , -9.782995   , -5.960348E-05, 0.000216765009, 0.000374367781, -0.0131633515, -0.0126171634, 8.230743E-05, 922.629761  , 33.2968979  , 783.330933  , 1.24        , 3           , 255         , 0           , 0
-0.125642315, 0.119215988 , -9.789004   , -0.0002872537, 0.000276625477, 0.000224754418, -0.0131662507, -0.0126143685, 8.451849E-05, 922.629761  , 33.2968979  , 783.330933  , 1.25        , 3           , 255         , 0           , 0
-0.129868716, 0.123507619 , -9.79861    , -0.000465818972, 0.000553569 , 0.000961843354, -0.01317103 , -0.01260871 , 9.406372E-05, 922.629761  , 33.2968979  , 783.330933  , 1.26        , 3           , 255         , 0           , 0
-0.132363483, 0.12135601  , -9.793072   , -2.43839459E-05, 0.0006150304, 0.000687348831, -0.013171359, -0.012602469, 0.000100855978, 922.629761  , 33.2968979  , 783.330933  , 1.27        , 3           , 255         , 0           , 0
-0.119168781, 0.122095093 , -9.794032   , 0.000426739862, 0.0001797941, -4.25526232E-05, -0.013167087, -0.0126006771, 0.000100406789, 922.629761  , 33.2968979  , 783.330933  , 1.28        , 3           , 255         , 0           , 0
-0.120995358, 0.1193106   , -9.796523   , 0.000583986053, -0.000109273591, -0.00108823425, -0.01316111 , -0.0126019139, 8.95391859E-05, 922.629761  , 33.2968979  , 783.330933  , 1.29        , 3           , 255         , 0           , 0
-0.1237121  , 0.122416139 , -9.789635   , 0.000164861442, 6.868597E-05, 0.0001719748, -0.0131594827, -0.0126012042, 9.124984E-05, 922.629761  , 33.2968979  , 783.330933  , 1.3         , 3           , 255         , 0           , 0
-0.126803413, 0.129274443 , -9.790765   , 5.23362542E-06, 0.0002786957, 0.000712816836, -0.0131485732, -0.0125979222, 9.820319E-05, 922.629761  , 33.2968979  , 783.3365    , 1.31        , 3           , 255         , 0           , 0
-0.126747221, 0.13406533  , -9.797297   , 0.000339176331, 0.000213640073, 0.000397349417, -0.0131452326, -0.0125957336, 0.000102148464, 922.629761  , 33.2968979  , 783.336548  , 1.32        , 3           , 255         , 0           , 0
-0.12358509 , 0.128529355 , -9.797371   , 0.000276239763, -0.000235845277, 0.00119698234, -0.0131426193, -0.0125979371, 0.000114148919, 922.667847  , 33.294796   , 783.3366    , 1.33        , 3           , 255         , 0           , 0
-0.114195466, 0.128017932 , -9.788811   , -0.00017673074, 0.0002001515, 0.000722324941, -0.0131444791, -0.0125958407, 0.000121345634, 922.667847  , 33.294796   , 783.3367    , 1.34        , 3           , 255         , 0           , 0
-0.121773437, 0.137479424 , -9.792322   , -0.0002512383, -0.000160974858, 0.000204459473, -0.0131470179, -0.012597423, 0.000123411315, 922.667847  , 33.294796   , 783.336731  , 1.35        , 3           , 255         , 0           , 0
-0.120898917, 0.142161727 , -9.791143   , -0.0008207955, 9.660053E-05, 0.0002661915, -0.0131552583, -0.0125964209, 0.000126060448, 922.667847  , 33.294796   , 783.3368    , 1.36        , 3           , 255         , 0           , 0
-0.122609638, 0.136045143 , -9.799996   , -0.0006576147, -0.0002099275, 0.000178516915, -0.0131618567, -0.0125984959, 0.00012787318, 922.667847  , 33.294796   , 783.336853  , 1.37        , 3           , 255         , 0           , 0
-0.123339079, 0.133930176 , -9.802192   , 0.000236432243, -8.60925647E-05, -0.000128049069, -0.0131594762, -0.0125993732, 0.000126604049, 922.667847  , 33.294796   , 783.3369    , 1.38        , 3           , 255         , 0           , 0
-0.132142872, 0.122231588 , -9.793905   , 0.000175398716, 0.000371466158, -0.000486588629, -0.0131576611, -0.0125957234, 0.000121689438, 922.667847  , 33.294796   , 783.337     , 1.39        , 3           , 255         , 0           , 0
-0.123521805, 0.120870329 , -9.788115   , -0.000145962636, 0.000208744052, 0.00011503946, -0.0131591335, -0.01259362 , 0.000122812344, 922.667847  , 33.294796   , 783.337036  , 1.4         , 3           , 255         , 0           , 0
-0.119422957, 0.122742556 , -9.783941   , -0.0004039986, 0.000266040181, 0.0002623524, -0.0131695047, -0.0125913508, 0.000125480059, 922.667847  , 33.294796   , 783.302856  , 1.41        , 3           , 255         , 0           , 0
-0.119845942, 0.127306491 , -9.788836   , -0.0002634648, 0.0004427178, 0.000611349358, -0.0131722167, -0.0125868432, 0.000131535053, 922.667847  , 33.294796   , 783.3028    , 1.42        , 3           , 255         , 0           , 0
-0.120150149, 0.1250638   , -9.791979   , -0.000419243181, 0.0003956166, -0.000403931655, -0.0131763564, -0.012582941, 0.000127443724, 922.621155  , 33.2997475  , 783.302734  , 1.43        , 3           , 255         , 0           , 0
-0.119325116, 0.130815789 , -9.795611   , -0.00035065884, 0.000319262675, -0.000232489081, -0.0131798331, -0.01257978 , 0.000125076855, 922.621155  , 33.2997475  , 783.3027    , 1.44        , 3           , 255         , 0           , 0
-0.124018811, 0.118744932 , -9.794045   , 8.744944E-06, -0.000109009212, 0.0003968737, -0.0131797958, -0.0125808166, 0.00012905983, 922.621155  , 33.2997475  , 783.3026    , 1.45        , 3           , 255         , 0           , 0
-0.132004544, 0.125051469 , -9.782566   , -0.000328004535, 0.00024461266, 0.000824419665, -0.01318318 , -0.012578262, 0.0001372715, 922.621155  , 33.2997475  , 783.302551  , 1.46        , 3           , 255         , 0           , 0
-0.123316169, 0.12473426  , -9.786974   , -0.000747883751, 0.0004899739, 0.0003929091, -0.0131907072, -0.0125733092, 0.000141135839, 922.621155  , 33.2997475  , 783.3025    , 1.47        , 3           , 255         , 0           , 0
-0.118676305, 0.127698973 , -9.789339   , -0.00137672713, 9.295138E-05, 9.112373E-05, -0.0132044852, -0.01257237 , 0.0001420348, 922.621155  , 33.2997475  , 783.3024    , 1.48        , 3           , 255         , 0           , 0
-0.111722484, 0.136638328 , -9.794522   , -0.00044209318, 0.000240545691, -0.000416326162, -0.0132088549, -0.0125700179, 0.0001378399, 922.621155  , 33.2997475  , 783.302368  , 1.49        , 3           , 255         , 0           , 0
-0.120215751, 0.127859309 , -9.795485   , -0.000832202437, 5.78415347E-05, 0.0001625239, -0.0132171977, -0.0125694163, 0.000139457421, 922.621155  , 33.2997475  , 783.3023    , 1.5         , 3           , 255         , 0           , 0
-0.120471336, 0.126275718 , -9.793872   , -0.0006512728, 0.000189131621, 0.000213960127, -0.013215947, -0.0125599168, 0.000141474142, 922.621155  , 33.2997475  , 783.3204    , 1.51        , 3           , 255         , 0           , 0
-0.124449551, 0.127981827 , -9.793746   , -0.0002746469, 0.00012870098, -0.000172992732, -0.0132186711, -0.0125586521, 0.000139727243, 922.621155  , 33.2997475  , 783.3204    , 1.52        , 3           , 255         , 0           , 0
-0.121224225, 0.1343842   , -9.796268   , -0.000743625569, 0.000111383124, -0.000570106262, -0.013226036, -0.0125576118, 0.000134011629, 922.6484    , 33.3001556  , 783.3204    , 1.53        , 3           , 255         , 0           , 0
-0.11259903 , 0.130619928 , -9.796744   , -0.000437811483, 4.08442575E-05, 0.000306717149, -0.0132304514, -0.0125571629, 0.000137073308, 922.6484    , 33.3001556  , 783.3204    , 1.54        , 3           , 255         , 0           , 0
-0.120188989, 0.143268988 , -9.804558   , -0.000399329117, -3.26634035E-05, 0.000885181071, -0.0132345567, -0.0125573752, 0.000145929123, 922.6484    , 33.3001556  , 783.3204    , 1.55        , 3           , 255         , 0           , 0
-0.127168939, 0.139464289 , -9.801538   , -0.0007341291, 1.81962969E-06, 0.00108643482, -0.0132420333, -0.01255721 , 0.000156792856, 922.6484    , 33.3001556  , 783.3204    , 1.56        , 3           , 255         , 0           , 0
-0.1269134  , 0.121039286 , -9.799107   , -2.1878921E-05, 0.000197594258, 0.0008878747, -0.0132423621, -0.0125551168, 0.000165645135, 922.6484    , 33.3001556  , 783.3204    , 1.57        , 3           , 255         , 0           , 0
-0.122829989, 0.122855589 , -9.786124   , -0.00015074783, -0.000412187539, -5.17525768E-05, -0.0132438671, -0.0125592444, 0.000165182224, 922.6484    , 33.3001556  , 783.3204    , 1.58        , 3           , 255         , 0           , 0
-0.121459126, 0.123399675 , -9.78791    , -0.000325137982, -0.000321020372, 0.000438065821, -0.0132471733, -0.0125623969, 0.00016960525, 922.6484    , 33.3001556  , 783.320435  , 1.59        , 3           , 255         , 0           , 0
-0.124018624, 0.124356091 , -9.792994   , -0.0002629439, -0.000139886513, 0.00022264244, -0.0132498294, -0.012563766, 0.00017185013, 922.6484    , 33.3001556  , 783.3205    , 1.6         , 3           , 255         , 0           , 0
-0.121489182, 0.123263456 , -9.785049   , -0.000205552264, 2.30793376E-05, 0.0004294215, -0.01325135 , -0.0125614945, 0.000176133748, 922.6484    , 33.3001556  , 783.3077    , 1.61        , 3           , 255         , 0           , 0
-0.128049657, 0.126298591 , -9.799167   , -0.000776609057, 0.000212321931, 0.0005812823, -0.0132591883, -0.0125592928, 0.000181918222, 922.6484    , 33.3001556  , 783.3077    , 1.62        , 3           , 255         , 0           , 0
-0.1269142  , 0.134287864 , -9.797128   , -0.000353486626, 0.000264039583, 2.688753E-05, -0.0132627264, -0.0125566479, 0.000182152042, 922.638367  , 33.30097    , 783.3077    , 1.63        , 3           , 255         , 0           , 0
-0.125696927, 0.131162241 , -9.786471   , 0.000248104217, 0.0005105737, 0.001137286 , -0.0132603869, -0.0125513934, 0.000193456828, 922.638367  , 33.30097    , 783.3077    , 1.64        , 3           , 255         , 0           , 0
-0.133243084, 0.138103977 , -9.785064   , -0.000128271757, 0.000133908761, 0.000127258521, -0.0132616851, -0.0125500383, 0.000194711611, 922.638367  , 33.30097    , 783.3077    , 1.65        , 3           , 255         , 0           , 0
-0.130298749, 0.1410866   , -9.796585   , -0.0004157466, 0.0004936501, -0.000166108061, -0.0132658212, -0.0125451237, 0.0001929851, 922.638367  , 33.30097    , 783.3077    , 1.66        , 3           , 255         , 0           , 0
-0.122338571, 0.133004859 , -9.803663   , 0.000175182417, 0.0002889408, 0.000812774058, -0.0132641727, -0.0125421276, 0.000201074246, 922.638367  , 33.30097    , 783.3077    , 1.67        , 3           , 255         , 0           , 0
-0.112313524, 0.127938837 , -9.794501   , 0.0006005337, -0.000182010524, -0.000367446919, -0.013258121, -0.0125439959, 0.000197424029, 922.638367  , 33.30097    , 783.3077    , 1.68        , 3           , 255         , 0           , 0
-0.116845034, 0.122728743 , -9.793813   , 1.77084585E-05, -0.000264600443, -4.830821E-05, -0.0132579384, -0.0125466473, 0.000196976049, 922.638367  , 33.30097    , 783.3077    , 1.69        , 3           , 255         , 0           , 0
-0.117836155, 0.130504787 , -9.779822   , -0.000231537968, -2.55931518E-05, 0.0003597264, -0.0132602975, -0.012546855, 0.000200576571, 922.638367  , 33.30097    , 783.3077    , 1.7         , 3           , 255         , 0           , 0
-0.115740336, 0.128058046 , -9.782118   , -0.0007088992, 3.92309157E-05, 0.000151832835, -0.0132700251, -0.0125480238, 0.000202122523, 922.638367  , 33.30097    , 783.307     , 1.71        , 3           , 255         , 0           , 0
-0.118347883, 0.123356722 , -9.792582   , -0.0005852219, -4.41222219E-05, 0.0007489341, -0.0132759688, -0.0125483638, 0.000209617428, 922.638367  , 33.30097    , 783.307     , 1.72        , 3           , 255         , 0           , 0
-0.126944959, 0.134539872 , -9.802012   , -0.0005387253, 9.168446E-05, -0.000115928546, -0.0132813416, -0.0125474622, 0.000208446 , 922.661438  , 33.3013763  , 783.307     , 1.73        , 3           , 255         , 0           , 0
-0.122571386, 0.128335908 , -9.793361   , 0.000242324313, 0.0003949688, -1.87561527E-05, -0.0132789155, -0.0125435153, 0.000208206 , 922.661438  , 33.3013763  , 783.307     , 1.74        , 3           , 255         , 0           , 0
-0.115336336, 0.117248811 , -9.785988   , -2.27642013E-05, 0.000269391283, 0.00031756633, -0.0132791819, -0.0125407791, 0.000211345789, 922.661438  , 33.3013763  , 783.307     , 1.75        , 3           , 255         , 0           , 0
-0.121307313, 0.12636745  , -9.793665   , 8.574902E-05, -0.0002464095, 0.00039668064, -0.0132783744, -0.01254319 , 0.000215345135, 922.661438  , 33.3013763  , 783.307     , 1.76        , 3           , 255         , 0           , 0
-0.115745246, 0.124141775 , -9.784783   , 0.000265310227, -0.000204178388, 0.000357867073, -0.0132757658, -0.0125451842, 0.000218950809, 922.661438  , 33.3013763  , 783.307     , 1.77        , 3           , 255         , 0           , 0
-0.116422489, 0.121915877 , -9.795972   , 0.0002939098, 3.214751E-05, -0.00012977577, -0.0132728107, -0.0125448806, 0.000217648834, 922.661438  , 33.3013763  , 783.307     , 1.78        , 3           , 255         , 0           , 0
-0.12705259 , 0.133795783 , -9.79304    , 3.12119955E-05, 0.000179295108, 0.000280543638, -0.0132725341, -0.0125430506, 0.000220430375, 922.661438  , 33.3013763  , 783.307     , 1.79        , 3           , 255         , 0           , 0
-0.132992983, 0.129252583 , -9.783168   , 0.000264376518, 0.00010576527, -0.000183559619, -0.0132698677, -0.0125420177, 0.000218580826, 922.661438  , 33.3013763  , 783.307     , 1.8         , 3           , 255         , 0           , 0
-0.122730568, 0.127495229 , -9.782697   , 6.02983637E-05, 0.000268127042, 0.00018103089, -0.01325951 , -0.0125347059, 0.00022023292, 922.661438  , 33.3013763  , 783.2804    , 1.81        , 3           , 255         , 0           , 0
-0.1249756  , 0.131333232 , -9.787905   , 0.000359141384, 0.000207234058, 0.0003873675, -0.0132559668, -0.0125325825, 0.000224078976, 922.661438  , 33.3013763  , 783.2802    , 1.82        , 3           , 255         , 0           , 0
-0.132918388, 0.135288551 , -9.789548   , -0.0006371886, 0.000272796373, -0.000247435528, -0.0132623073, -0.0125298873, 0.000221568524, 922.6636    , 33.300766   , 783.28      , 1.83        , 3           , 255         , 0           , 0
-0.126835912, 0.126371831 , -9.789377   , -0.000420531316, -0.000325339963, 0.00032280595, -0.0132665522, -0.0125330957, 0.000224839634, 922.6636    , 33.300766   , 783.279846  , 1.84        , 3           , 255         , 0           , 0
-0.125826508, 0.123840943 , -9.787527   , -7.32296E-05, -4.009402E-06, -0.00114071625, -0.0132671408, -0.0125332884, 0.000213433392, 922.6636    , 33.300766   , 783.2797    , 1.85        , 3           , 255         , 0           , 0
-0.130357936, 0.134607449 , -9.791562   , -5.67460665E-06, 0.000326729263, -0.0005918309, -0.0132671231, -0.0125301  , 0.000207471938, 922.6636    , 33.300766   , 783.2796    , 1.86        , 3           , 255         , 0           , 0
-0.121219419, 0.130478173 , -9.794995   , -0.0008324931, 0.000160413823, 0.000289092772, -0.0132754818, -0.0125284567, 0.000210341474, 922.6636    , 33.300766   , 783.2795    , 1.87        , 3           , 255         , 0           , 0
-0.11201831 , 0.126510292 , -9.795639   , -0.000182148011, -0.000213057443, 0.0005738505, -0.0132773761, -0.0125305112, 0.000216108048, 922.6636    , 33.300766   , 783.279358  , 1.88        , 3           , 255         , 0           , 0
-0.122643746, 0.12601155  , -9.792956   , -9.184622E-05, 1.629698E-05, -0.0003647711, -0.0132782487, -0.0125303967, 0.0002124583, 922.6636    , 33.300766   , 783.279236  , 1.89        , 3           , 255         , 0           , 0
-0.132978946, 0.12778607  , -9.792797   , -8.0087164E-05, -0.000110365567, -0.000151143133, -0.013279031, -0.01253152 , 0.000210961574, 922.6636    , 33.300766   , 783.2791    , 1.9         , 3           , 255         , 0           , 0
-0.125415117, 0.130472437 , -9.7853775  , 0.000142530131, 0.0004572092, 0.000227936427, -0.013274963, -0.0125342114, 0.000213146661, 922.6636    , 33.300766   , 783.252258  , 1.91        , 3           , 255         , 0           , 0
-0.123895288, 0.128245369 , -9.795067   , -0.000143757672, 0.0001872594, -0.000660888734, -0.0132763181, -0.0125324279, 0.000206513156, 922.6636    , 33.300766   , 783.251953  , 1.92        , 3           , 255         , 0           , 0
-0.1225753  , 0.125013351 , -9.795523   , 7.2026276E-05, 0.000407911954, -0.000735322537, -0.013275506, -0.01252845 , 0.000199106042, 922.64856   , 33.3006973  , 783.251648  , 1.93        , 3           , 255         , 0           , 0
-0.112551212, 0.131595582 , -9.792264   , -9.554776E-05, -0.000260312634, -0.000262506946, -0.013276428, -0.0125310859, 0.000196515626, 922.64856   , 33.3006973  , 783.251343  , 1.94        , 3           , 255         , 0           , 0
-0.121258557, 0.119482718 , -9.790167   , -0.000127537525, -4.683464E-05, 0.0006067141, -0.0132777793, -0.0125314742, 0.000202588781, 922.64856   , 33.3006973  , 783.251038  , 1.95        , 3           , 255         , 0           , 0
-0.125772685, 0.131590739 , -9.786972   , -9.613967E-05, -0.000573088357, -9.585933E-05, -0.0132787293, -0.0125372186, 0.000201706309, 922.64856   , 33.3006973  , 783.250732  , 1.96        , 3           , 255         , 0           , 0
-0.130628616, 0.125439972 , -9.789853   , -0.000339268, -0.000221004128, 0.000434060756, -0.013282178, -0.0125393681, 0.000206076089, 922.64856   , 33.3006973  , 783.2504    , 1.97        , 3           , 255         , 0           , 0
-0.123375677, 0.127540514 , -9.795534   , -1.64188677E-05, -8.7070046E-05, 0.00018551985, -0.0132823642, -0.0125402147, 0.0002079428, 922.64856   , 33.3006973  , 783.2501    , 1.98        , 3           , 255         , 0           , 0
-0.122896574, 0.1255776   , -9.790039   , 0.000202827738, 2.409378E-05, -0.000404324557, -0.0132802865, -0.0125400275, 0.000203896474, 922.64856   , 33.3006973  , 783.2498    , 1.99        , 3           , 255         , 0           , 0
-0.120059624, 0.129392654 , -9.799738   , 0.000226315111, -0.00013586547, 0.000732741959, -0.0132781146, -0.0125412894, 0.0002112417, 922.64856   , 33.3006973  , 783.2495    , 2           , 3           , 0           , 7.00623655  , 200
-0.1265269  , 0.127492964 , -9.792014   , 0.000244483934, 0.000415348972, 0.000359548954, -0.013269254, -0.0125373891, 0.000214700936, 922.64856   , 33.3006973  , 783.243958  , 2.01        , 3           , 1           , 0           , 0
-0.124437854, 0.12899372  , -9.788839   , 0.000191901985, 0.000135995855, 0.000172582979, -0.0132673578, -0.0125360051, 0.000216408676, 922.64856   , 33.3006973  , 783.243652  , 2.02        , 3           , 2           , 0           , 0
-0.1194165  , 0.119297013 , -9.789448   , 0.000612580858, -6.714807E-05, 0.000229347381, -0.01326126 , -0.0125366468, 0.000218711 , 922.588562  , 33.29995    , 783.243347  , 2.03        , 3           , 3           , 0           , 0
-0.117544219, 0.124914445 , -9.790537   , 0.0005120047, -0.000210362137, 0.0008354324, -0.0132562462, -0.0125386408, 0.000227092911, 922.588562  , 33.29995    , 783.243042  , 2.04        , 3           , 4           , 0           , 0
-0.12411283 , 0.126400962 , -9.793157   , -0.000349224429, 4.22999728E-05, 2.43650429E-05, -0.0132597424, -0.0125382151, 0.000227330951, 922.588562  , 33.29995    , 783.242737  , 2.05        , 3           , 5           , 0           , 0
-0.123946942, 0.130341381 , -9.793036   , -0.000307991169, 0.000312458316, -0.000101369587, -0.0132628093, -0.0125351027, 0.000226275835, 922.588562  , 33.29995    , 783.242432  , 2.06        , 3           , 6           , 0           , 0
-0.125324652, 0.1283699   , -9.801808   , -0.0004846094, 0.000346001732, -0.000277997169, -0.0132676186, -0.0125316782, 0.000223450057, 922.588562  , 33.29995    , 783.2421    , 2.07        , 3           , 7           , 0           , 0
-0.121582173, 0.129538491 , -9.79904652 , -0.0004039444, 0.000165698439, 0.0004742568, -0.0132717174, -0.012529958, 0.000228170466, 922.588562  , 33.29995    , 783.2418    , 2.08        , 3           , 8           , 5           , 5
-0.11861714 , 0.1356088   , -9.794117   , -0.000367811532, 0.000162661483, 0.000364709 , -0.0132754408, -0.0125282835, 0.000231795828, 922.588562  , 33.29995    , 783.2415    , 2.09        , 3           , 9           , 5           , 0.1
-0.121257111, 0.136644751 , -9.801671   , -4.77174763E-06, 0.000318420731, 0.000225061085, -0.0132755162, -0.01252507 , 0.000234004081, 922.588562  , 33.29995    , 783.2412    , 2.1         , 3           , 10          , 0.1         , 0.1
-0.125590116, 0.130086154 , -9.796099   , -0.000463745382, 0.000270414719, 6.214886E-05, -0.0132778557, -0.0125212185, 0.0002345608, 922.588562  , 33.29995    , 783.310242  , 2.11        , 3           , 11          , 0.008166476 , 0.008166476
-0.132647619, 0.125933737 , -9.786911   , 0.0002893909, 0.0003592996, -0.000479697279, -0.0132749015, -0.0125176888, 0.0002297163, 922.588562  , 33.29995    , 783.310364  , 2.12        , 3           , 12          , 0.174643889 , 0
-0.132341459, 0.117655531 , -9.792317   , -0.000113529211, -2.32187449E-05, -0.000134055968, -0.0132760191, -0.0125179393, 0.000228378864, 922.5938    , 33.3022575  , 783.3105    , 2.13        , 3           , 13          , 0           , 0
-0.125280112, 0.12249732  , -9.784782   , 0.000321751315, -0.000211453647, 0.000128832238, -0.0132728191, -0.0125200367, 0.000229695215, 922.5938    , 33.3022575  , 783.3106    , 2.14        , 3           , 14          , -0.0007655918, -0.0005589747
-0.130561009, 0.119799949 , -9.786037   , 0.00026221975, -0.000101329, -0.000172009313, -0.013270176, -0.0125210723, 0.000227988639, 922.5938    , 33.3022575  , 783.3107    , 2.15        , 3           , 15          , 0           , -0.000153357018
-0.118976951, 0.124394134 , -9.791223   , 0.000234711973, -9.509083E-05, 0.001036101 , -0.0132679595, -0.0125218872, 0.0002383619, 922.5938    , 33.3022575  , 783.310852  , 2.16        , 3           , 16          , 0           , 1.401298E-45
-0.117967747, 0.133842692 , -9.802427   , -3.127905E-06, -0.000158881012, -0.000158879382, -0.0132679716, -0.0125234956, 0.000236794236, 922.5938    , 33.3022575  , 783.311     , 2.17        , 3           , 20          , 0           , 0
-0.11502023 , 0.12664558  , -9.799366   , -0.000108531094, -0.000226705451, -5.692382E-05, -0.0132690491, -0.0125257708, 0.000236255073, 922.5938    , 33.3022575  , 783.3111    , 2.18        , 3           , 21          , 0           , 0
-0.120353475, 0.136025146 , -9.789616   , 0.00018862955, -6.3734944E-05, -6.17624028E-06, -0.0132671632, -0.01252641 , 0.000236201784, 922.5938    , 33.3022575  , 783.3112    , 2.19        , 3           , 22          , 0           , 0
-0.1306808  , 0.129391938 , -9.795252   , 4.81127063E-06, 0.000104345614, 0.000252404541, -0.0132671464, -0.0125253331, 0.0002387119, 922.5938    , 33.3022575  , 783.31134   , 2.2         , 3           , 40          , 0           , 0
-0.13042368 , 0.1260901   , -9.789555   , -0.000182326592, -2.04045209E-05, 0.0002870618, -0.0132612241, -0.0125309024, 0.000241487636, 922.5938    , 33.3022575  , 783.366943  , 2.21        , 3           , 41          , 0           , 0
-0.131980568, 0.12600787  , -9.795274   , 0.00077393814, -0.000211362145, -9.536222E-05, -0.0132534737, -0.0125330277, 0.000240562062, 922.5938    , 33.3022575  , 783.367432  , 2.22        , 3           , 42          , 0           , 0
-0.128720179, 0.1277324   , -9.791934   , 0.000232395658, 0.000351621275, -3.7519465E-05, -0.0132511426, -0.0125295166, 0.000240140289, 922.6283    , 33.30219    , 783.3679    , 2.23        , 3           , 255         , 0           , 0
-0.120118544, 0.1280441   , -9.786196   , 0.000439025171, 4.165806E-06, -0.000135229173, -0.0132467356, -0.0125294933, 0.0002387875, 922.6283    , 33.30219    , 783.3684    , 2.24        , 3           , 255         , 0           , 0
-0.114259318, 0.133784816 , -9.791085   , 0.000438436778, -5.432649E-05, 0.000320315477, -0.0132423947, -0.0125299953, 0.000241997739, 922.6283    , 33.30219    , 783.3689    , 2.25        , 3           , 255         , 0           , 0
-0.119675651, 0.124588728 , -9.795624   , 0.000157197588, 0.000247983466, 0.000394062547, -0.01324087 , -0.0125274668, 0.000245905365, 922.6283    , 33.30219    , 783.3694    , 2.26        , 3           , 255         , 0           , 0
-0.116476394, 0.129885271 , -9.793837   , 0.000253660837, 0.0004977268, 0.00027762042, -0.0132383695, -0.0125224516, 0.00024861563, 922.6283    , 33.30219    , 783.3699    , 2.27        , 3           , 255         , 0           , 0
-0.118048094, 0.129130915 , -9.798144   , -0.0004004998, 0.000107082858, -4.989805E-05, -0.0132423677, -0.0125213861, 0.000248102442, 922.6283    , 33.30219    , 783.370361  , 2.28        , 3           , 255         , 0           , 0
-0.12320099 , 0.131768093 , -9.799335   , -0.000337789883, 2.35467451E-06, 0.0003487381, -0.0132457893, -0.0125213163, 0.0002515894, 922.6283    , 33.30219    , 783.37085   , 2.29        , 3           , 255         , 0           , 0
-0.126102254, 0.126508489 , -9.80088    , 1.747231E-05, 6.615539E-05, 0.000132313784, -0.013245631, -0.0125206364, 0.00025290373, 922.6283    , 33.30219    , 783.371338  , 2.3         , 3           , 255         , 0           , 0
-0.121745765, 0.121526934 , -9.798933   , 0.000189966988, -6.54392061E-05, 4.53523753E-05, -0.013240966, -0.0125216171, 0.0002533312, 922.6283    , 33.30219    , 783.3756    , 2.31        , 3           , 255         , 0           , 0
-0.118819281, 0.129252091 , -9.794278   , -8.75533442E-05, -0.000352929637, -0.000394933275, -0.0132417921, -0.012525199, 0.000249428762, 922.6283    , 33.30219    , 783.37616   , 2.32        , 3           , 255         , 0           , 0
-0.121535555, 0.124120876 , -9.803683   , 0.000181187817, -0.000542645052, 0.000190798077, -0.0132400058, -0.0125306  , 0.000251408521, 922.6267    , 33.30307    , 783.3767    , 2.33        , 3           , 255         , 0           , 0
-0.125426814, 0.123440504 , -9.791338   , 0.000111735193, -0.000586125243, -0.0003520029, -0.0132388435, -0.012536508, 0.000247966178, 922.6267    , 33.30307    , 783.377258  , 2.34        , 3           , 255         , 0           , 0
-0.117816113, 0.127974018 , -9.787205   , -0.000189878221, 0.000195534667, -0.00010686279, -0.0132407295, -0.0125345653, 0.000246871728, 922.6267    , 33.30307    , 783.3778    , 2.35        , 3           , 255         , 0           , 0
-0.122879662, 0.129252836 , -9.805138   , -0.0006028739, 0.0002535828, -0.000174290661, -0.0132467365, -0.0125320535, 0.0002450953, 922.6267    , 33.30307    , 783.378357  , 2.36        , 3           , 255         , 0           , 0
-0.126467139, 0.134529024 , -9.796701   , -2.9290095E-05, -0.000439361378, 0.000575844955, -0.0132471006, -0.0125363693, 0.000250911748, 922.6267    , 33.30307    , 783.3789    , 2.37        , 3           , 255         , 0           , 0
-0.128109142, 0.1258212   , -9.793222   , -0.000271397468, 0.00015633498, 0.00039329112, -0.0132498629, -0.0125347534, 0.0002548238, 922.6267    , 33.30307    , 783.379456  , 2.38        , 3           , 255         , 0           , 0
-0.129234478, 0.127280682 , -9.789518   , -0.0004403551, -9.157957E-05, 0.000168414743, -0.0132542886, -0.0125356475, 0.00025652  , 922.6267    , 33.30307    , 783.38      , 2.39        , 3           , 255         , 0           , 0
-0.117294967, 0.131798923 , -9.793795   , -0.000270988734, -0.000372525246, -0.000491369166, -0.0132569382, -0.012539438, 0.000251655874, 922.6267    , 33.30307    , 783.380554  , 2.4         , 3           , 255         , 0           , 0
-0.124712408, 0.134301245 , -9.793715   , 0.000241743692, -5.4506585E-05, 0.000317603844, -0.0132505  , -0.0125401765, 0.000254788116, 922.6267    , 33.30307    , 783.386     , 2.41        , 3           , 255         , 0           , 0
-0.127491146, 0.128586322 , -9.790876   , 0.000204430486, -7.83646246E-05, 0.0008874065, -0.0132485675, -0.0125408424, 0.0002636723, 922.6267    , 33.30307    , 783.3866    , 2.42        , 3           , 255         , 0           , 0
-0.13331826 , 0.130428284 , -9.794258   , -0.000115545292, -0.000321539585, -8.27576E-05, -0.013249713, -0.0125440676, 0.000262887334, 922.605347  , 33.30314    , 783.3872    , 2.43        , 3           , 255         , 0           , 0
-0.1203263  , 0.132389441 , -9.801829   , -3.94972158E-05, -0.0002821355, -0.000423039019, -0.0132500557, -0.0125469435, 0.000258694461, 922.605347  , 33.30314    , 783.3878    , 2.44        , 3           , 255         , 0           , 0
-0.116870843, 0.130894378 , -9.787796   , -4.738843E-05, 0.0003444966, 7.40452E-05 , -0.0132505381, -0.01254349 , 0.000259389228, 922.605347  , 33.30314    , 783.3884    , 2.45        , 3           , 255         , 0           , 0
-0.127987742, 0.129287392 , -9.788626   , 0.0004953258, -7.3051895E-05, 0.000279831933, -0.0132456208, -0.012544184, 0.000262197136, 922.605347  , 33.30314    , 783.389038  , 2.46        , 3           , 255         , 0           , 0
-0.134830371, 0.128316879 , -9.789724   , 0.0001402999, 5.08117955E-05, 0.000395682233, -0.0132442685, -0.0125436224, 0.000266147079, 922.605347  , 33.30314    , 783.389648  , 2.47        , 3           , 255         , 0           , 0
-0.131562859, 0.132912666 , -9.790522   , 0.000267695636, 0.000337629521, -2.23443058E-05, -0.0132415881, -0.01254025 , 0.000265878945, 922.605347  , 33.30314    , 783.390259  , 2.48        , 3           , 255         , 0           , 0
-0.124793932, 0.129253417 , -9.797497   , -0.0002511196, -0.000333300675, 0.000409864821, -0.01324415 , -0.0125435283, 0.000270021643, 922.605347  , 33.30314    , 783.390869  , 2.49        , 3           , 255         , 0           , 0
-0.119042195, 0.130979747 , -9.79392052 , -3.76952812E-06, -0.00013582391, 3.965424E-05, -0.013244193, -0.0125448806, 0.0002704361, 922.605347  , 33.30314    , 783.3915    , 2.5         , 3           , 255         , 0           , 0
-0.117101982, 0.13131246  , -9.783464   , 0.000292462966, 9.19031154E-05, -2.90070166E-05, -0.0132433176, -0.0125507982, 0.0002701596, 922.605347  , 33.30314    , 783.423767  , 2.51        , 3           , 255         , 0           , 0
-0.123724259, 0.131491333 , -9.800524   , 0.000131705718, 0.000149179163, 3.62158753E-05, -0.0132420054, -0.0125493025, 0.000270502 , 922.605347  , 33.30314    , 783.424561  , 2.52        , 3           , 255         , 0           , 0
-0.131072983, 0.124827504 , -9.78173351 , 0.000196694629, 0.000173102424, -0.000502580951, -0.0132399742, -0.0125476383, 0.000265453476, 922.6178    , 33.30402    , 783.425354  , 2.53        , 3           , 255         , 0           , 0
-0.130531818, 0.118747786 , -9.789458   , -0.0006389086, 0.000230614474, 0.000200509035, -0.0132463882, -0.0125453062, 0.000267427939, 922.6178    , 33.30402    , 783.426147  , 2.54        , 3           , 255         , 0           , 0
-0.118889846, 0.128208235 , -9.792924   , -0.0005688303, -0.000262759218, 0.00134838768, -0.0132522453, -0.0125477547, 0.000280946173, 922.6178    , 33.30402    , 783.426941  , 2.55        , 3           , 255         , 0           , 0
-0.11871171 , 0.128066435 , -9.796083   , 0.000337603 , 6.905355E-05, -0.000531512138, -0.0132488022, -0.0125471335, 0.0002756221, 922.6178    , 33.30402    , 783.427734  , 2.56        , 3           , 255         , 0           , 0
-0.122823715, 0.130279809 , -9.789825   , 0.0003876249, -0.000170496351, -0.0007718486, -0.01324483 , -0.0125489412, 0.000267926429, 922.6178    , 33.30402    , 783.4285    , 2.57        , 3           , 255         , 0           , 0
-0.115606487, 0.126287222 , -9.78844    , 0.0004761597, 4.82302858E-06, -8.490923E-05, -0.013240058, -0.0125489067, 0.000267076743, 922.6178    , 33.30402    , 783.4293    , 2.58        , 3           , 255         , 0           , 0
-0.120847441, 0.127675235 , -9.787867   , 0.0003750904, -2.02027149E-06, 0.000118982549, -0.0132363234, -0.0125489095, 0.000268266769, 922.6178    , 33.30402    , 783.4302    , 2.59        , 3           , 255         , 0           , 0
-0.118740186, 0.127148479 , -9.792723   , 0.00013684202, 0.0002125572, -0.0007121257, -0.013234864, -0.0125468774, 0.000261117646, 922.6178    , 33.30402    , 783.431     , 2.6         , 3           , 255         , 0           , 0
-0.12332046 , 0.125905961 , -9.79604    , 0.000803023169, -0.000277001353, 0.000702714431, -0.0132210078, -0.0125468858, 0.000268107018, 922.6178    , 33.30402    , 783.4416    , 2.61        , 3           , 255         , 0           , 0
-0.11996381 , 0.123017147 , -9.799677   , -0.000276752, -8.308218E-05, 0.000303512323, -0.0132238129, -0.0125476765, 0.000271153025, 922.6178    , 33.30402    , 783.4425    , 2.62        , 3           , 255         , 0           , 0
-0.128808454, 0.130385324 , -9.789587   , -8.29894E-05, 9.261473E-05, -0.000132242625, -0.013224626, -0.0125467675, 0.0002698184, 922.6302    , 33.3036156  , 783.4434    , 2.63        , 3           , 255         , 0           , 0
-0.128979832, 0.137969553 , -9.789924   , -0.000482967065, 0.000176503672, 0.00031389916, -0.013229494, -0.0125449607, 0.000272933918, 922.6302    , 33.3036156  , 783.444336  , 2.64        , 3           , 255         , 0           , 0
-0.12603724 , 0.137500256 , -9.795228   , -6.732409E-05, -4.17300034E-05, 0.000466694182, -0.013230226, -0.0125453165, 0.0002776062, 922.6302    , 33.3036156  , 783.445251  , 2.65        , 3           , 255         , 0           , 0
-0.122858264, 0.13649945  , -9.795219   , -2.8653827E-05, -2.2178283E-05, -0.000265322276, -0.0132304793, -0.0125455735, 0.000274956 , 922.6302    , 33.3036156  , 783.446167  , 2.66        , 3           , 255         , 0           , 0
-0.1288232  , 0.127741009 , -9.796021   , -0.000438532617, 0.000339962222, -0.000430893182, -0.013234809, -0.012542231, 0.000270602235, 922.6302    , 33.3036156  , 783.4471    , 2.67        , 3           , 255         , 0           , 0
-0.129382759, 0.127075821 , -9.789389   , -0.000214755361, 0.000320322724, 5.60568442E-05, -0.0132369641, -0.0125390217, 0.000271120371, 922.6302    , 33.3036156  , 783.448     , 2.68        , 3           , 255         , 0           , 0
-0.119505025, 0.1261442   , -9.80153    , -6.34306343E-06, 0.000235048064, 2.17957422E-05, -0.0132370293, -0.0125366691, 0.000271307217, 922.6302    , 33.3036156  , 783.4489    , 2.69        , 3           , 255         , 0           , 0
-0.124489784, 0.128632158 , -9.802404   , 0.000440632284, -0.000218602887, -2.47304124E-05, -0.0132326195, -0.0125388587, 0.00027108888, 922.6302    , 33.3036156  , 783.4498    , 2.7         , 3           , 255         , 0           , 0
-0.12621288 , 0.117241062 , -9.787057   , -0.0002699428, 0.000213451392, -0.000195771034, -0.0132361287, -0.012540726, 0.0002691134, 922.6302    , 33.3036156  , 783.440857  , 2.71        , 3           , 255         , 0           , 0
-0.122991405, 0.125154376 , -9.783352   , -0.000161174219, -1.34072034E-05, 0.0002800161, -0.0132377753, -0.0125408228, 0.000271915254, 922.6302    , 33.3036156  , 783.4417    , 2.72        , 3           , 255         , 0           , 0
-0.124550477, 0.122862957 , -9.79033852 , -0.000210326631, 2.319942E-05, 0.000121989433, -0.0132398913, -0.0125405742, 0.000273132027, 922.646362  , 33.30687    , 783.442566  , 2.73        , 3           , 255         , 0           , 0
-0.116763495, 0.120474383 , -9.791292   , -0.0005356885, -4.2690488E-05, -0.000383069448, -0.0132452007, -0.012541051, 0.000269307115, 922.646362  , 33.30687    , 783.4434    , 2.74        , 3           , 255         , 0           , 0
-0.124670409, 0.12775676  , -9.792892   , -0.00078229 , -0.000131264445, -0.0003939938, -0.0132529726, -0.0125424154, 0.000265384675, 922.646362  , 33.30687    , 783.4443    , 2.75        , 3           , 255         , 0           , 0
-0.1238989  , 0.123882055 , -9.797287   , -0.000500484952, -0.0002729625, -0.000676671043, -0.0132578937, -0.0125452327, 0.000258654385, 922.646362  , 33.30687    , 783.4451    , 2.76        , 3           , 255         , 0           , 0
-0.127870113, 0.133165568 , -9.785478   , -1.15891453E-06, 0.0001225996, -0.000508844561, -0.0132578416, -0.0125440741, 0.000253549835, 922.646362  , 33.30687    , 783.446     , 2.77        , 3           , 255         , 0           , 0
-0.127479881, 0.121306479 , -9.802634   , 0.000101284531, -2.02047522E-05, 0.00027210894, -0.0132568628, -0.0125442408, 0.000256273517, 922.646362  , 33.30687    , 783.446838  , 2.78        , 3           , 255         , 0           , 0
-0.126524687, 0.133452833 , -9.797613   , -0.00025397446, -9.197561E-05, -0.000682655838, -0.0132593168, -0.0125452513, 0.000249459379, 922.646362  , 33.30687    , 783.4477    , 2.79        , 3           , 255         , 0           , 0
-0.1265665  , 0.131487235 , -9.799829   , -0.000413264032, -9.509828E-05, -0.0002790104, -0.0132634146, -0.0125462385, 0.000246682 , 922.646362  , 33.30687    , 783.448547  , 2.8         , 3           , 255         , 0           , 0
-0.123105027, 0.1230699   , -9.799612   , 0.000206284691, -0.0004766268, 0.000587852148, -0.0132531719, -0.0125548011, 0.0002525199, 922.646362  , 33.30687    , 783.4172    , 2.81        , 3           , 255         , 0           , 0
-0.127659932, 0.119018473 , -9.793144   , -0.0003420692, -0.000349776179, 0.000881937449, -0.0132567035, -0.01255818 , 0.0002613853, 922.646362  , 33.30687    , 783.417847  , 2.82        , 3           , 255         , 0           , 0
-0.129423872, 0.1313527   , -9.790234   , -0.0001549357, -0.000206081546, 0.000137557989, -0.0132582709, -0.0125602232, 0.000262788177, 922.634033  , 33.302597   , 783.4185    , 2.83        , 3           , 255         , 0           , 0
-0.124052033, 0.130112782 , -9.790472   , -0.0004623126, -1.19067263E-05, 0.000302600849, -0.0132629322, -0.0125603024, 0.000265815674, 922.634033  , 33.302597   , 783.4192    , 2.84        , 3           , 255         , 0           , 0
-0.11716412 , 0.135066    , -9.800457   , -0.000752314, 0.000413924019, 0.0008888474, -0.0132705634, -0.0125560472, 0.000274648948, 922.634033  , 33.302597   , 783.419861  , 2.85        , 3           , 255         , 0           , 0
-0.121292174, 0.1407306   , -9.800101   , -0.000152478111, 0.000119375094, 0.000717547256, -0.0132721793, -0.0125547564, 0.0002818083, 922.634033  , 33.302597   , 783.420532  , 2.86        , 3           , 255         , 0           , 0
-0.117445432, 0.124572471 , -9.795759   , -0.000109647517, 6.903976E-05, 0.000224978081, -0.0132733025, -0.0125540374, 0.000284048845, 922.634033  , 33.302597   , 783.4212    , 2.87        , 3           , 255         , 0           , 0
-0.12602067 , 0.129440635 , -9.789911   , -0.0007402338, 0.000252232916, -0.0001817544, -0.0132806823, -0.01255154 , 0.000282197871, 922.634033  , 33.302597   , 783.4219    , 2.88        , 3           , 255         , 0           , 0
-0.122818016, 0.12083602  , -9.789158   , -0.000251379563, 0.000139301526, -8.16602842E-05, -0.0132831838, -0.0125501575, 0.0002813628, 922.634033  , 33.302597   , 783.422546  , 2.89        , 3           , 255         , 0           , 0
-0.123753682, 0.127452642 , -9.798079   , 0.000121523684, 0.0001428278, -0.000768967031, -0.0132818706, -0.0125488313, 0.0002736544, 922.634033  , 33.302597   , 783.4232    , 2.9         , 3           , 255         , 0           , 0
-0.1157663  , 0.137182266 , -9.798581   , 0.0001402524, -4.052883E-06, -0.000361531915, -0.0132772885, -0.0125493705, 0.000270000426, 922.634033  , 33.302597   , 783.4123    , 2.91        , 3           , 255         , 0           , 0
-0.124907017, 0.130759686 , -9.797865   , -0.0001163698, 0.000339219056, -0.000297149178, -0.0132784136, -0.0125460168, 0.00026698396, 922.634033  , 33.302597   , 783.4129    , 2.92        , 3           , 255         , 0           , 0
-0.131043449, 0.129755363 , -9.791496   , 0.000101569458, 0.000160140684, 0.000404008024, -0.0132774478, -0.0125443619, 0.000271002646, 922.6591    , 33.3049     , 783.4135    , 2.93        , 3           , 255         , 0           , 0
-0.134848133, 0.13102892  , -9.78892    , 7.359777E-05, 0.000212002778, 0.0002658801, -0.0132767446, -0.0125422068, 0.000273633224, 922.6591    , 33.3049     , 783.4141    , 2.94        , 3           , 255         , 0           , 0
-0.122588754, 0.1328339   , -9.784563   , 0.0002168736, 0.000329448347, 5.67587631E-05, -0.0132745821, -0.0125389062, 0.0002741571, 922.6591    , 33.3049     , 783.414734  , 2.95        , 3           , 255         , 0           , 0
-0.123731934, 0.136779964 , -9.787655   , 0.000372205337, 6.26222463E-05, 0.000359713624, -0.0132709062, -0.0125382319, 0.00027774577, 922.6591    , 33.3049     , 783.415344  , 2.96        , 3           , 255         , 0           , 0
-0.125982881, 0.12485075  , -9.790461   , 0.000426451268, -6.333634E-05, 0.0001885619, -0.0132666659, -0.0125388447, 0.00027963976, 922.6591    , 33.3049     , 783.415955  , 2.97        , 3           , 255         , 0           , 0
-0.1263492  , 0.129615784 , -9.80249    , -0.000185814977, -5.651702E-05, -0.000442611345, -0.0132684689, -0.0125394659, 0.000275221275, 922.6591    , 33.3049     , 783.416565  , 2.98        , 3           , 255         , 0           , 0
-0.131508142, 0.126965284 , -9.79951    , 0.000413946458, 0.0003230408, -0.0005021175, -0.0132642668, -0.0125363031, 0.0002701574, 922.6591    , 33.3049     , 783.4172    , 2.99        , 3           , 255         , 0           , 0
-0.12539269 , 0.117104605 , -9.801199   , 3.3132208E-05, -1.33072608E-05, 0.000238809909, -0.013263965, -0.0125364047, 0.0002725472, 922.6591    , 33.3049     , 783.4178    , 3           , 3           , 0           , 8.006237    , 300
-0.122550979, 0.13242209  , -9.791921   , 0.0004967132, 0.000218042464, -0.000302019616, -0.0132583557, -0.0125401979, 0.000269490585, 922.6591    , 33.3049     , 783.3724    , 3.01        , 3           , 1           , 0           , 0
-0.11961855 , 0.123061441 , -9.802874   , -1.56223541E-05, 0.000146369566, 0.000264169561, -0.0132585438, -0.0125386994, 0.0002721128, 922.6591    , 33.3049     , 783.3727    , 3.02        , 3           , 2           , 0           , 0
-0.122153856, 0.120283507 , -9.791278   , 0.000268942735, 0.00011312135, -0.000300094631, -0.013255816, -0.0125376089, 0.000269096985, 922.622864  , 33.3032074  , 783.373     , 3.03        , 3           , 3           , 0           , 0
-0.132536381, 0.123648658 , -9.787417   , 6.825104E-05, 0.000191397674, -0.00070094195, -0.0132550457, -0.0125357881, 0.0002620624, 922.622864  , 33.3032074  , 783.3733    , 3.04        , 3           , 4           , 0           , 0
-0.126490042, 0.118370235 , -9.793724   , 2.72434554E-05, 0.000194365421, -0.000193772343, -0.0132547487, -0.0125338724, 0.000260099 , 922.622864  , 33.3032074  , 783.3736    , 3.05        , 3           , 5           , 0           , 0
-0.129401252, 0.116649471 , -9.798681   , -9.93703143E-05, 2.17066263E-05, -0.00061071 , -0.013255666, -0.0125337346, 0.000253989216, 922.622864  , 33.3032074  , 783.3739    , 3.06        , 3           , 6           , 0           , 0
-0.122705087, 0.120017372 , -9.788733   , -0.00019214541, -0.000186062593, 0.00028284092, -0.0132576227, -0.012535559, 0.000256842177, 922.622864  , 33.3032074  , 783.3742    , 3.07        , 3           , 7           , 0           , 0
-0.123837039, 0.132386759 , -9.793348   , -0.000159327465, 0.00018346947, 0.000100391531, -0.0132592293, -0.0125337094, 0.000257821754, 922.622864  , 33.3032074  , 783.3746    , 3.08        , 3           , 8           , 5           , 5
-0.129763559, 0.1294244   , -9.792635   , -6.345974E-06, -0.000108522829, 0.000397473224, -0.0132593429, -0.0125347422, 0.000261810754, 922.622864  , 33.3032074  , 783.374939  , 3.09        , 3           , 9           , 5           , 0.1
-0.1271244  , 0.121623293 , -9.794125   , -7.286505E-05, 3.06364382E-05, 0.0008286515, -0.0132601745, -0.0125343259, 0.0002700929, 922.622864  , 33.3032074  , 783.3753    , 3.1         , 3           , 10          , 0.1         , 0.1
-0.1231002  , 0.123681463 , -9.790024   , -0.000152921944, 0.000167592952, 5.41093032E-05, -0.0132506518, -0.0125378584, 0.0002704731, 922.622864  , 33.3032074  , 783.3867    , 3.11        , 3           , 11          , 0.007419214 , 0.00741921226
-0.123966217, 0.128690869 , -9.786072   , -0.000272314181, -5.67721436E-05, -0.000537968939, -0.0132533079, -0.0125384973, 0.000265101116, 922.622864  , 33.3032074  , 783.387146  , 3.12        , 3           , 12          , 0.174645633 , 0
-0.134661481, 0.127365485 , -9.79677    , -0.000203013886, 0.000464120123, -0.000424029975, -0.0132552842, -0.0125339115, 0.000260799454, 922.6477    , 33.3045654  , 783.3876    , 3.13        , 3           , 13          , 0           , 0
-0.128651768, 0.128459662 , -9.801744   , -0.0005131818, 0.000666839071, -0.000433483539, -0.0132603608, -0.012527301, 0.00025637637, 922.6477    , 33.3045654  , 783.388     , 3.14        , 3           , 14          , -0.0007657568, -0.0005588536
-0.127495691, 0.136784256 , -9.791306   , -0.000277883024, 0.0001087421, 0.000320059 , -0.0132631809, -0.0125261722, 0.000259562425, 922.6477    , 33.3045654  , 783.3884    , 3.15        , 3           , 15          , 0           , -0.00015335335
-0.126543984, 0.126655519 , -9.791552   , 0.000115566829, 0.0005597089, 0.0004271443, -0.0132620782, -0.0125205182, 0.0002637595, 922.6477    , 33.3045654  , 783.388855  , 3.16        , 3           , 16          , 0           , 1.401298E-45
-0.123739168, 0.1297839   , -9.784268   , 5.57133462E-05, -4.17407136E-06, 9.063631E-05, -0.0132615324, -0.012520548, 0.0002646664, 922.6477    , 33.3045654  , 783.3893    , 3.17        , 3           , 20          , 0           , 0
-0.117880642, 0.132345349 , -9.797525   , -0.000281722867, 3.16055375E-05, -5.65327646E-05, -0.0132643422, -0.01252024 , 0.0002640969, 922.6477    , 33.3045654  , 783.3897    , 3.18        , 3           , 21          , 0           , 0
-0.114815935, 0.126629919 , -9.791915   , -0.0001631729, -1.98191265E-05, -9.24249762E-05, -0.0132659627, -0.0125204492, 0.0002631753, 922.6477    , 33.3045654  , 783.390137  , 3.19        , 3           , 22          , 0           , 0
-0.131828338, 0.123029545 , -9.801895   , -5.95613965E-05, -0.000115560484, -6.532704E-06, -0.0132665578, -0.0125216059, 0.0002631253, 922.6477    , 33.3045654  , 783.390564  , 3.2         , 3           , 40          , 0           , 0
-0.129819259, 0.124221742 , -9.793518   , -0.000685536943, 0.000109722489, 2.36136257E-05, -0.0132706072, -0.0125251831, 0.000263311726, 922.6477    , 33.3045654  , 783.364441  , 3.21        , 3           , 41          , 0           , 0
-0.122923031, 0.127922922 , -9.800346   , 5.018356E-05, 0.000145749946, -0.000215504144, -0.0132700792, -0.0125237545, 0.000261137378, 922.6477    , 33.3045654  , 783.3647    , 3.22        , 3           , 42          , 0           , 0
-0.120919682, 0.130179137 , -9.794104   , -2.04583048E-05, 0.000120737357, -5.79219777E-05, -0.0132702766, -0.012522555, 0.000260542147, 922.636841  , 33.3036156  , 783.3649    , 3.23        , 3           , 255         , 0           , 0
-0.119784072, 0.125145942 , -9.786741   , -0.000309195661, 0.0003078276, 4.560766E-05, -0.0132733742, -0.0125194713, 0.000260957371, 922.636841  , 33.3036156  , 783.3652    , 3.24        , 3           , 255         , 0           , 0
-0.121158265, 0.117302574 , -9.787571   , 0.000450517633, -9.712577E-05, -0.0005528517, -0.0132688  , -0.0125205154, 0.000255441933, 922.636841  , 33.3036156  , 783.3654    , 3.25        , 3           , 255         , 0           , 0
-0.121355414, 0.129108146 , -9.797617   , 0.000732933346, 7.666636E-05, 0.000176621048, -0.0132614933, -0.0125197247, 0.000257197942, 922.636841  , 33.3036156  , 783.365662  , 3.26        , 3           , 255         , 0           , 0
-0.117277026, 0.136017263 , -9.793322   , -0.000115647737, 0.000212773331, -0.0002984226, -0.0132626127, -0.0125176366, 0.000254185579, 922.636841  , 33.3036156  , 783.3659    , 3.27        , 3           , 255         , 0           , 0
-0.126073226, 0.119271696 , -9.797904   , -0.000235005922, -2.52834288E-05, -0.000177261361, -0.0132649411, -0.0125179132, 0.000252416357, 922.636841  , 33.3036156  , 783.36615   , 3.28        , 3           , 255         , 0           , 0
-0.1276963  , 0.123214379 , -9.79962    , 0.0005182862, -0.0002558342, -0.000724044163, -0.0132596679, -0.0125205675, 0.0002452101, 922.636841  , 33.3036156  , 783.366455  , 3.29        , 3           , 255         , 0           , 0
-0.124832943, 0.130237147 , -9.805595   , 0.000124681159, -0.000274950464, 0.000134265778, -0.0132584376, -0.0125232991, 0.0002465892, 922.636841  , 33.3036156  , 783.36676   , 3.3         , 3           , 255         , 0           , 0
-0.1235105  , 0.1291078   , -9.78964    , 0.000211878854, 0.000190183433, 0.000102328406, -0.0132505344, -0.0125221973, 0.000247514661, 922.636841  , 33.3036156  , 783.359436  , 3.31        , 3           , 255         , 0           , 0
-0.117291674, 0.133431166 , -9.792173   , -0.000459692965, -3.592897E-05, -0.000109094064, -0.0132551193, -0.0125225708, 0.0002464285, 922.636841  , 33.3036156  , 783.3597    , 3.32        , 3           , 255         , 0           , 0
-0.123770952, 0.1318205   , -9.789263   , -1.49017433E-06, 0.0004234015, 0.000532571459, -0.0132551994, -0.0125182662, 0.000251697929, 922.683167  , 33.30497    , 783.3599    , 3.33        , 3           , 255         , 0           , 0
-0.129977316, 0.130382389 , -9.788712   , 6.708206E-05, -0.000366619439, 0.000315204263, -0.01325457 , -0.0125218909, 0.000254898448, 922.683167  , 33.30497    , 783.360168  , 3.34        , 3           , 255         , 0           , 0
-0.126468867, 0.124369524 , -9.791632   , -0.000218559464, -0.000297988125, -0.0002448379, -0.0132567259, -0.0125249028, 0.000252489641, 922.683167  , 33.30497    , 783.3604    , 3.35        , 3           , 255         , 0           , 0
-0.135005176, 0.124885775 , -9.793356   , -0.00051420246, 1.88049162E-05, 0.000176192145, -0.0132618891, -0.0125246914, 0.000254249026, 922.683167  , 33.30497    , 783.360657  , 3.36        , 3           , 255         , 0           , 0
-0.1280224  , 0.137980863 , -9.78609848 , 0.000122624624, 0.0001593951, 0.000329611939, -0.0132607035, -0.0125230541, 0.000257523876, 922.683167  , 33.30497    , 783.3609    , 3.37        , 3           , 255         , 0           , 0
-0.117229916, 0.135560244 , -9.796907   , -8.555566E-05, -0.0003749596, -0.000141980985, -0.0132615417, -0.0125268223, 0.000256153842, 922.683167  , 33.30497    , 783.361145  , 3.38        , 3           , 255         , 0           , 0
-0.114534676, 0.126922771 , -9.798401   , 0.000141705386, 4.982535E-05, 0.000188377046, -0.0132601494, -0.0125263  , 0.000258030952, 922.683167  , 33.30497    , 783.3614    , 3.39        , 3           , 255         , 0           , 0
-0.120054379, 0.137061909 , -9.796285   , 0.000358877238, -0.0003359791, -0.000162350028, -0.0132565415, -0.0125296805, 0.00025645204, 922.683167  , 33.30497    , 783.361633  , 3.4         , 3           , 255         , 0           , 0
-0.119303249, 0.1288063   , -9.794631   , 0.000164384313, 0.000235234678, 0.0001445789, -0.013257456, -0.01252908 , 0.000257898442, 922.683167  , 33.30497    , 783.2895    , 3.41        , 3           , 255         , 0           , 0
-0.120621517, 0.124885894 , -9.787184   , -0.000209572609, 0.0001945959, 0.000638026744, -0.0132596325, -0.0125270486, 0.000264252682, 922.683167  , 33.30497    , 783.2893    , 3.42        , 3           , 255         , 0           , 0
-0.12558803 , 0.130254179 , -9.787701   , -0.0008025983, 0.000114445487, -0.000300086074, -0.0132676186, -0.012525945, 0.000261236739, 922.665161  , 33.30375    , 783.2891    , 3.43        , 3           , 255         , 0           , 0
-0.126817644, 0.130977526 , -9.796244   , -0.0004078271, -0.000185316021, -0.0002919734, -0.01327166 , -0.0125278346, 0.000258341664, 922.665161  , 33.30375    , 783.28894   , 3.44        , 3           , 255         , 0           , 0
-0.121503852, 0.12877591  , -9.790036   , 3.1152973E-05, -7.429626E-06, -0.000116053823, -0.0132713346, -0.012527924, 0.000257182168, 922.665161  , 33.30375    , 783.288757  , 3.45        , 3           , 255         , 0           , 0
-0.128593773, 0.129145265 , -9.80072    , -8.983817E-05, -9.622419E-05, -0.0003806778, -0.0132721849, -0.0125289364, 0.0002533883, 922.665161  , 33.30375    , 783.2886    , 3.46        , 3           , 255         , 0           , 0
-0.130476326, 0.126976639 , -9.795666   , -0.0003940689, -0.00027205894, 2.47479766E-05, -0.01327613 , -0.012531653, 0.0002536719, 922.665161  , 33.30375    , 783.2884    , 3.47        , 3           , 255         , 0           , 0
-0.112885609, 0.123106383 , -9.786131   , 0.000193869229, -0.000208252168, 0.000101448655, -0.013274204, -0.0125337224, 0.000254714 , 922.665161  , 33.30375    , 783.2882    , 3.48        , 3           , 255         , 0           , 0
-0.11634326 , 0.128120214 , -9.785387   , 0.000235545624, 0.000331634656, 0.000443228084, -0.0132719046, -0.0125303483, 0.0002591021, 922.665161  , 33.30375    , 783.288     , 3.49        , 3           , 255         , 0           , 0
-0.127902046, 0.137060359 , -9.790209   , -0.000436711358, 1.27313542E-05, 0.000407410669, -0.0132763218, -0.0125301657, 0.000263174355, 922.665161  , 33.30375    , 783.287842  , 3.5         , 3           , 255         , 0           , 0
-0.12030711 , 0.127579138 , -9.794891   , 0.000439352327, -0.000181385025, 0.000350661139, -0.0132696964, -0.0125325732, 0.0002666764, 922.665161  , 33.30375    , 783.251648  , 3.51        , 3           , 255         , 0           , 0
-0.112964392, 0.128403023 , -9.794536   , 2.46765558E-06, -0.000228289457, 0.000569531054, -0.0132697439, -0.01253478 , 0.0002724018, 922.665161  , 33.30375    , 783.2512    , 3.52        , 3           , 255         , 0           , 0
-0.112618767, 0.139762521 , -9.795628   , -2.8847775E-05, -0.0003229421, 0.000238046166, -0.0132700624, -0.0125379786, 0.000274825055, 922.6211    , 33.30273    , 783.2508    , 3.53        , 3           , 255         , 0           , 0
-0.121897377, 0.125433773 , -9.791901   , -0.000464493176, 0.000230849371, -9.365329E-05, -0.0132746957, -0.0125356829, 0.000273857877, 922.6211    , 33.30273    , 783.250366  , 3.54        , 3           , 255         , 0           , 0
-0.11979866 , 0.129357681 , -9.791915   , -7.142179E-05, 1.12623093E-05, -0.0005123716, -0.0132753467, -0.0125356382, 0.000268732838, 922.6211    , 33.30273    , 783.249939  , 3.55        , 3           , 255         , 0           , 0
-0.117647804, 0.125889689 , -9.794678   , 0.000129569555, 0.000362312625, -0.00107272714, -0.0132739162, -0.0125321588, 0.000257957843, 922.6211    , 33.30273    , 783.2495    , 3.56        , 3           , 255         , 0           , 0
-0.125740364, 0.127414316 , -9.789657   , -0.000237347325, 0.000124801561, 7.93479558E-05, -0.0132762976, -0.0125308977, 0.0002587347, 922.6211    , 33.30273    , 783.2491    , 3.57        , 3           , 255         , 0           , 0
-0.121910378, 0.132468432 , -9.795955   , -0.000103894854, 0.000199602218, -7.533621E-05, -0.0132773258, -0.0125289112, 0.000257954875, 922.6211    , 33.30273    , 783.248657  , 3.58        , 3           , 255         , 0           , 0
-0.123875305, 0.123561904 , -9.795319   , -0.00049775606, 0.000267824245, 0.0004650667, -0.0132823605, -0.0125261722, 0.0002625698, 922.6211    , 33.30273    , 783.2482    , 3.59        , 3           , 255         , 0           , 0
-0.119450592, 0.1267797   , -9.79443    , -0.00041535066, 0.000136667164, 0.00121911429, -0.0132866651, -0.0125246421, 0.000274742371, 922.6211    , 33.30273    , 783.2478    , 3.6         , 3           , 255         , 0           , 0
-0.122985266, 0.130086347 , -9.795065   , 0.000211424485, 0.000215427455, 0.000155637739, -0.01328234 , -0.01251726 , 0.00027624215, 922.6211    , 33.30273    , 783.2801    , 3.61        , 3           , 255         , 0           , 0
-0.122770891, 0.129762158 , -9.791109   , 2.53343023E-05, -5.649292E-05, 0.00082086015, -0.0132821891, -0.0125177167, 0.000284458016, 922.6211    , 33.30273    , 783.2799    , 3.62        , 3           , 255         , 0           , 0
-0.122608587, 0.127669588 , -9.785967   , -0.000282905239, 0.0001582971, 0.000646277331, -0.0132850986, -0.0125160469, 0.000290899479, 922.626343  , 33.30375    , 783.2797    , 3.63        , 3           , 255         , 0           , 0
-0.120636746, 0.128373563 , -9.792752   , -0.000516017142, 9.137951E-05, 0.0006335983, -0.0132903373, -0.01251505 , 0.0002972231, 922.626343  , 33.30375    , 783.279541  , 3.64        , 3           , 255         , 0           , 0
-0.119628266, 0.135202885 , -9.804708   , -0.000241689675, 0.000147830462, 0.000220498652, -0.0132927811, -0.0125135425, 0.0002994084, 922.626343  , 33.30375    , 783.279358  , 3.65        , 3           , 255         , 0           , 0
-0.119102873, 0.121767983 , -9.797506   , 0.0002974112, -0.0003081126, 0.000148103209, -0.0132898269, -0.0125166047, 0.000300930318, 922.626343  , 33.30375    , 783.2792    , 3.66        , 3           , 255         , 0           , 0
-0.125152141, 0.130077556 , -9.79186249 , -0.0003164155, 0.000197704387, -6.397709E-05, -0.0132929822, -0.0125146359, 0.000300264277, 922.626343  , 33.30375    , 783.279     , 3.67        , 3           , 255         , 0           , 0
-0.119763568, 0.127018362 , -9.793165   , -0.0004149046, 0.00016206014, 0.000928680762, -0.0132972458, -0.0125128906, 0.00030952922, 922.626343  , 33.30375    , 783.2788    , 3.68        , 3           , 255         , 0           , 0
-0.112502135, 0.118318878 , -9.789746   , -0.000585236761, 0.000153077912, 0.0004398925, -0.0133031541, -0.0125113009, 0.000313907629, 922.626343  , 33.30375    , 783.2786    , 3.69        , 3           , 255         , 0           , 0
-0.124569058, 0.127003819 , -9.797148   , 5.28276432E-05, -0.000419929915, 0.000702839461, -0.0133027136, -0.0125154061, 0.000320991618, 922.626343  , 33.30375    , 783.278442  , 3.7         , 3           , 255         , 0           , 0
-0.11839807 , 0.124503866 , -9.790127   , 0.000311160664, -0.0005312089, 0.0004219688, -0.0132953525, -0.0125180613, 0.000325227971, 922.626343  , 33.30375    , 783.2989    , 3.71        , 3           , 255         , 0           , 0
-0.115441717, 0.123239771 , -9.797514   , -0.0005434789, 0.0001039959, 0.000445663522, -0.0133008426, -0.0125169633, 0.000329670642, 922.626343  , 33.30375    , 783.2988    , 3.72        , 3           , 255         , 0           , 0
-0.123184219, 0.12690416  , -9.793381   , -5.900045E-06, 0.0003325206, -8.997905E-05, -0.01330089 , -0.01251365 , 0.00032872663, 922.6137    , 33.3023262  , 783.298767  , 3.73        , 3           , 255         , 0           , 0
-0.124276437, 0.123331845 , -9.792196   , -0.000157173141, 0.000135876529, -4.253455E-05, -0.0133024547, -0.0125122964, 0.000328283233, 922.6137    , 33.3023262  , 783.2987    , 3.74        , 3           , 255         , 0           , 0
-0.115934238, 0.132486954 , -9.784598   , 0.000240635069, -0.000452859269, 0.0008817975, -0.01330016 , -0.012516709, 0.000337161124, 922.6137    , 33.3023262  , 783.298645  , 3.75        , 3           , 255         , 0           , 0
-0.118163846, 0.12904413  , -9.792348   , -4.828273E-05, -0.0004174293, 0.000881558168, -0.0133007513, -0.012520764, 0.000346031884, 922.6137    , 33.3023262  , 783.2986    , 3.76        , 3           , 255         , 0           , 0
-0.126243338, 0.130053252 , -9.789651   , -0.0003321186, -0.0001624308, -0.000324246474, -0.0133040324, -0.0125224311, 0.000342811138, 922.6137    , 33.3023262  , 783.2985    , 3.77        , 3           , 255         , 0           , 0
-0.126023   , 0.14285776  , -9.78852749 , -0.0003186257, 0.000225866272, -1.35917362E-05, -0.0133072156, -0.0125201745, 0.0003426452, 922.6137    , 33.3023262  , 783.298462  , 3.78        , 3           , 255         , 0           , 0
-0.114125773, 0.130063325 , -9.7978735  , -0.000184568751, 1.89188286E-05, 1.36202289E-05, -0.0133090634, -0.0125199836, 0.000342778832, 922.6137    , 33.3023262  , 783.2984    , 3.79        , 3           , 255         , 0           , 0
-0.119405091, 0.134239376 , -9.797296   , -4.512607E-06, -4.33692476E-05, -0.00031807198, -0.013309069, -0.0125204585, 0.000339604041, 922.6137    , 33.3023262  , 783.29834   , 3.8         , 3           , 255         , 0           , 0
-0.124810353, 0.131406888 , -9.796247   , -0.000231089187, 0.0003959779, -0.000196843932, -0.01331032 , -0.0125121865, 0.000337569974, 922.6137    , 33.3023262  , 783.3339    , 3.81        , 3           , 255         , 0           , 0
-0.121861294, 0.130117059 , -9.791538   , -0.000204968383, 0.00049566105, 0.0004057794, -0.0133124208, -0.012507176, 0.000341561681, 922.6137    , 33.3023262  , 783.3341    , 3.82        , 3           , 255         , 0           , 0
-0.127570763, 0.127494529 , -9.79320049 , 9.603036E-05, -0.000124192564, 0.000417842239, -0.0133115128, -0.0125083625, 0.000345756474, 922.672241  , 33.30273    , 783.3343    , 3.83        , 3           , 255         , 0           , 0
-0.125641182, 0.131234065 , -9.793997   , 0.000239740941, 1.925748E-05, 0.0008558193, -0.0133092217, -0.0125080571, 0.000354311778, 922.672241  , 33.30273    , 783.3345    , 3.84        , 3           , 255         , 0           , 0
-0.117400564, 0.127092853 , -9.792205   , -0.0003960817, -0.000357254641, 0.000585094269, -0.0133132543, -0.01251155 , 0.000360210077, 922.672241  , 33.30273    , 783.334656  , 3.85        , 3           , 255         , 0           , 0
-0.107674405, 0.12061055  , -9.79895    , 4.33630776E-05, -0.00031701033, -0.0002533395, -0.0133127905, -0.0125147551, 0.000357718964, 922.672241  , 33.30273    , 783.334839  , 3.86        , 3           , 255         , 0           , 0
-0.119252183, 0.130148187 , -9.7963     , 5.623611E-05, 0.0001467311, -0.0004081698, -0.0133121777, -0.0125133423, 0.000353617885, 922.672241  , 33.30273    , 783.335     , 3.87        , 3           , 255         , 0           , 0
-0.120007157, 0.130438626 , -9.793363   , 1.53475557E-05, -0.0003912663, -0.000201249524, -0.0133119989, -0.0125172818, 0.000351657538, 922.672241  , 33.30273    , 783.3352    , 3.88        , 3           , 255         , 0           , 0
-0.117662527, 0.134751841 , -9.78405    , 3.70654161E-05, -0.00035786652, 0.0002707395, -0.01331166 , -0.0125208218, 0.000354412448, 922.672241  , 33.30273    , 783.3354    , 3.89        , 3           , 255         , 0           , 0
-0.124032594, 0.134701446 , -9.78933    , 0.000413905538, 0.0002650165, -0.000121530815, -0.0133075053, -0.0125181871, 0.000353161944, 922.672241  , 33.30273    , 783.3356    , 3.9         , 3           , 255         , 0           , 0
-0.1230199  , 0.137107581 , -9.792821   , 0.00019195833, 5.737762E-05, -0.000397263328, -0.0133045856, -0.0125144245, 0.000349169917, 922.672241  , 33.30273    , 783.282837  , 3.91        , 3           , 255         , 0           , 0
-0.111793041, 0.122439459 , -9.795444   , 0.0005918963, 0.000232766586, 0.000131808934, -0.0132986829, -0.0125120785, 0.000350457034, 922.672241  , 33.30273    , 783.2827    , 3.92        , 3           , 255         , 0           , 0
-0.134230018, 0.126635268 , -9.80283    , 0.000796784 , 0.0001243586, -0.000141973418, -0.0132906977, -0.0125108566, 0.000349020818, 922.663757  , 33.306057   , 783.2826    , 3.93        , 3           , 255         , 0           , 0
-0.13365075 , 0.128047854 , -9.793817   , -5.71878045E-05, 0.000179954834, -0.00044198276, -0.0132912146, -0.0125091141, 0.000344577216, 922.663757  , 33.306057   , 783.2825    , 3.94        , 3           , 255         , 0           , 0
-0.130214244, 0.133422732 , -9.793795   , -9.39627644E-05, -0.000229879166, -0.000206857643, -0.0132921264, -0.01251144 , 0.000342539279, 922.663757  , 33.306057   , 783.282349  , 3.95        , 3           , 255         , 0           , 0
-0.117974877, 0.124303579 , -9.791913   , 0.000434632355, -0.000466071651, -0.000441862678, -0.0132877259, -0.01251616 , 0.000338182726, 922.663757  , 33.306057   , 783.2822    , 3.96        , 3           , 255         , 0           , 0
-0.126837015, 0.120185457 , -9.790895   , -9.963155E-05, -0.000281582179, -0.0003708577, -0.0132886758, -0.0125190243, 0.000334511715, 922.663757  , 33.306057   , 783.2821    , 3.97        , 3           , 255         , 0           , 0
-0.1288813  , 0.131774947 , -9.796273   , -0.0002953906, 0.00019912899, -0.0008276099, -0.0132915266, -0.012517143, 0.00032620944, 922.663757  , 33.306057   , 783.282     , 3.98        , 3           , 255         , 0           , 0
-0.123097911, 0.123825565 , -9.796602   , 0.0003104853, 0.00017918722, 6.239135E-05, -0.0132884281, -0.0125153437, 0.000326809473, 922.663757  , 33.306057   , 783.28186   , 3.99        , 3           , 255         , 0           , 0
-0.127863854, 0.121879235 , -9.792431   , 0.000237519853, -0.0002531394, -0.000323773769, -0.0132860141, -0.0125179179, 0.00032360552, 922.663757  , 33.306057   , 783.281738  , 4           , 3           , 0           , 9.006237    , 400
-0.123337485, 0.126090392 , -9.79537    , -1.09325629E-05, -0.000359338941, 8.105905E-05, -0.0132813882, -0.0125262  , 0.000324404362, 922.663757  , 33.306057   , 783.2489    , 4.01        , 3           , 1           , 0           , 0
-0.12062633 , 0.124664471 , -9.796698   , -0.000454766676, 0.0002515331, 8.245086E-06, -0.0132859377, -0.0125236856, 0.0003244534, 922.663757  , 33.306057   , 783.2486    , 4.02        , 3           , 2           , 0           , 0
-0.119706944, 0.126146957 , -9.785437   , -0.000157834147, -0.000154676614, 0.000551026547, -0.0132875852, -0.012525158, 0.000329984032, 922.635     , 33.3039551  , 783.2483    , 4.03        , 3           , 3           , 0           , 0
-0.124732658, 0.1342309   , -9.786876   , -0.000161285046, 9.841245E-05, -6.949704E-05, -0.013289189, -0.0125241829, 0.000329276 , 922.635     , 33.3039551  , 783.248     , 4.04        , 3           , 4           , 0           , 0
-0.1271751  , 0.125778317 , -9.798872   , 9.202398E-05, -0.0001300539, -2.60368251E-05, -0.0132882651, -0.0125254868, 0.000329032919, 922.635     , 33.3039551  , 783.2477    , 4.05        , 3           , 5           , 0           , 0
