Acc X       , Acc Y       , Acc Z       , Gyro X      , Gyro Y      , Gyro Z      , Euler X     , Euler Y     , Euler Z     , Pres X      , Pres Y      , Pres Z      , Time        , Status      , LowRate X   , LowRate Y   , LowRate Z    
-0.155022427, 0.12776266  , -9.78553    , 0           , 0           , 0           , -0.0130555416, -0.01583933 , 0           , 921.155     , 32.5034866  , 796.635559  , 0           , 2           , 0           , 5.93523169  , 0
-0.160795122, 0.124407515 , -9.78939    , -0.000157233037, 3.97752738E-05, 0.0003904584, -0.01305696 , -0.0158389937, 3.899435E-06, 921.155     , 32.5034866  , 796.635559  , 0.01        , 3           , 1           , 0           , 0
-0.163791075, 0.128922686 , -9.789948   , 0.000195933681, -0.000547923148, -9.584929E-05, -0.0130549874, -0.0158444848, 3.0124645E-06, 921.155     , 32.5034866  , 796.635559  , 0.02        , 3           , 2           , 0           , 0
-0.158573151, 0.13391158  , -9.791215   , -0.000144286139, 0.0004180883, -0.000221200738, -0.0130563928, -0.015840333, 7.458283E-07, 921.1586    , 32.06882    , 796.635559  , 0.03        , 3           , 3           , 0           , 0
-0.153242618, 0.122474492 , -9.794893   , -4.14379174E-05, 0.0002506107, 0.000481849129, -0.0130568836, -0.0158377625, 5.53168047E-06, 921.1586    , 32.06882    , 796.635559  , 0.04        , 3           , 4           , 0           , 0
-0.144751191, 0.124993458 , -9.795765   , -0.0002633343, 0.00011816324, 1.05881627E-05, -0.0130595192, -0.01583658 , 5.62212472E-06, 921.1586    , 32.06882    , 796.635559  , 0.05        , 3           , 5           , 0           , 0
-0.157647416, 0.128325433 , -9.786137   , -0.000102845777, -0.000353265437, -1.45551166E-05, -0.0130605446, -0.015840115, 5.52270831E-06, 921.1586    , 32.06882    , 796.635559  , 0.06        , 3           , 6           , 0           , 0
-0.157845765, 0.126703471 , -9.783948   , 1.59399351E-05, -0.0001354051, -0.000368211477, -0.0130603276, -0.0158415176, 1.8582291E-06, 921.1586    , 32.06882    , 796.635559  , 0.07        , 3           , 7           , 0           , 0
-0.160514578, 0.123830296 , -9.788797   , 0.000427239022, 0.000469299383, -0.000369944668, -0.013055997, -0.0158368722, -1.90254514E-06, 921.1586    , 32.06882    , 796.635559  , 0.08        , 3           , 8           , 5           , 5
-0.170082122, 0.1335878   , -9.792524   , -0.000160716358, 0.000184307923, -3.16353544E-05, -0.0130575988, -0.0158350337, -2.24295718E-06, 921.1586    , 32.06882    , 796.635559  , 0.09        , 3           , 9           , 5           , 0.1
-0.155869812, 0.134852141 , -9.795308   , -0.000409219239, -0.000110301015, 0.000326788169, -0.0130617442, -0.0158360954, 1.03937725E-06, 921.1586    , 32.06882    , 796.635559  , 0.1         , 3           , 10          , 0.1         , 0.1
-0.154035285, 0.12408457  , -9.791934   , -0.000719449949, 0.00048649963, 0.000140796677, -0.0130705116, -0.015845906, 2.40838972E-06, 921.1586    , 32.06882    , 796.6013    , 0.11        , 3           , 11          , 0.0109544508, 0.0109544508
-0.158873349, 0.124047473 , -9.794058   , -0.000373365241, 0.0002835571, -4.47914354E-05, -0.0130742369, -0.0158430766, 1.92340076E-06, 921.1586    , 32.06882    , 796.6013    , 0.12        , 3           , 12          , 0.174642488 , 0
-0.14797534 , 0.133361548 , -9.790202   , 1.53778819E-06, -2.28874851E-05, 0.000234466657, -0.0130742583, -0.0158432741, 4.27110126E-06, 921.125366  , 32.1060677  , 796.6013    , 0.13        , 3           , 13          , 0           , 0
-0.149270728, 0.130212739 , -9.795946   , 0.0008095026, -0.000287854346, 0.00017422298, -0.0130661931, -0.01584613 , 6.050988E-06, 921.125366  , 32.1060677  , 796.6013    , 0.14        , 3           , 14          , -0.0007369614, -0.000788632547
-0.158352315, 0.131033733 , -9.792615   , 0.000347415364, -0.000189071172, -2.60479428E-05, -0.0130627146, -0.0158480238, 5.81521E-06 , 921.125366  , 32.1060677  , 796.6013    , 0.15        , 3           , 15          , 0           , -0.000167350343
-0.157446519, 0.143044457 , -9.78503    , 0.0004662624, 0.00021463522, -8.207746E-05, -0.0130580384, -0.0158458874, 4.966392E-06, 921.125366  , 32.1060677  , 796.6013    , 0.16        , 3           , 16          , 0           , 1.401298E-45
-0.154006541, 0.13622494  , -9.793247   , 0.00036374823, -8.02670838E-05, -4.64758778E-05, -0.0130543951, -0.0158467013, 4.512118E-06, 921.125366  , 32.1060677  , 796.6013    , 0.17        , 3           , 20          , 0           , 0
-0.154722318, 0.124900863 , -9.791502   , 0.000484005373, -2.84457929E-05, -0.0003165251, -0.0130495047, -0.0158470236, 1.35051459E-06, 921.125366  , 32.1060677  , 796.6013    , 0.18        , 3           , 21          , 0           , 0
-0.154510379, 0.126229852 , -9.795774   , 0.000169701816, 8.096045E-05, 0.000346796849, -0.0130478628, -0.0158461686, 4.80797462E-06, 921.125366  , 32.1060677  , 796.6013    , 0.19        , 3           , 22          , 0           , 0
-0.146595746, 0.124886595 , -9.790018   , -0.000131698675, -0.000226903241, 0.0004481935, -0.0130492514, -0.01584838 , 9.319584E-06, 921.125366  , 32.1060677  , 796.6014    , 0.2         , 3           , 40          , 0           , 0
-0.161404133, 0.133263513 , -9.793607   , -0.0003881128, -0.000265960523, 0.00028155162, -0.0130606554, -0.015844509, 1.228835E-05, 921.125366  , 32.1060677  , 796.7524    , 0.21        , 3           , 41          , 0           , 0
-0.160214186, 0.128266171 , -9.794344   , -0.000180917559, -0.000122168625, 4.427221E-05, -0.0130624715, -0.0158457235, 1.27470321E-05, 921.125366  , 32.1060677  , 796.752441  , 0.22        , 3           , 42          , 0           , 0
-0.157529965, 0.132997587 , -9.797983   , 0.0004786316, 1.59794581E-05, -0.00034225022, -0.0130576305, -0.015845608, 9.32239254E-06, 921.171265  , 32.13178    , 796.7525    , 0.23        , 3           , 255         , 0           , 0
-0.163043827, 0.134213045 , -9.79505    , 0.00027884866, 0.000436485716, -0.0003089055, -0.0130547937, -0.0158412848, 6.17630258E-06, 921.171265  , 32.13178    , 796.752563  , 0.24        , 3           , 255         , 0           , 0
-0.154197931, 0.134355456 , -9.788271   , 0.000447188679, 0.000165315229, -0.000205069417, -0.01305029 , -0.0158396587, 4.10400253E-06, 921.171265  , 32.13178    , 796.7526    , 0.25        , 3           , 255         , 0           , 0
-0.156433478, 0.123450935 , -9.792189   , 0.000245802221, -9.905489E-05, -1.82523363E-05, -0.0130478293, -0.01584065 , 3.93440041E-06, 921.171265  , 32.13178    , 796.7527    , 0.26        , 3           , 255         , 0           , 0
-0.165204272, 0.121693991 , -9.791409   , -8.47078045E-05, -0.000380815065, -0.000514106243, -0.0130485948, -0.0158445239, -1.15706621E-06, 921.171265  , 32.13178    , 796.752747  , 0.27        , 3           , 255         , 0           , 0
-0.156662077, 0.122882083 , -9.787006   , -3.246026E-05, 0.000132220041, 0.000759316259, -0.01304904 , -0.0158431046, 6.418972E-06, 921.171265  , 32.13178    , 796.7528    , 0.28        , 3           , 255         , 0           , 0
-0.160614923, 0.12656793  , -9.791318   , 0.0003077379, 0.000289410062, -5.90057753E-05, -0.0130459536, -0.0158402175, 5.79113066E-06, 921.171265  , 32.13178    , 796.752869  , 0.29        , 3           , 255         , 0           , 0
-0.166210279, 0.127290353 , -9.7838335  , 0.0005320854, -4.507322E-05, 0.000355082157, -0.0130406879, -0.0158406254, 9.347896E-06, 921.171265  , 32.13178    , 796.7529    , 0.3         , 3           , 255         , 0           , 0
-0.151003987, 0.124977946 , -9.791178   , 8.40238645E-05, 2.20531365E-05, -0.00034649545, -0.0130425394, -0.0158603955, 5.92354172E-06, 921.171265  , 32.13178    , 796.665     , 0.31        , 3           , 255         , 0           , 0
-0.1590881  , 0.128164992 , -9.78998    , 0.000120902085, 0.000347088033, -0.000558264, -0.01304124 , -0.015856998, 2.95542918E-07, 921.171265  , 32.13178    , 796.665039  , 0.32        , 3           , 255         , 0           , 0
-0.155883327, 0.127471283 , -9.794523   , 9.839109E-05, 4.15211543E-05, -0.000232891238, -0.0130402194, -0.0158566125, -2.038827E-06, 921.155457  , 32.14589    , 796.6651    , 0.33        , 3           , 255         , 0           , 0
-0.149665833, 0.128400728 , -9.783129   , -0.00023499137, -8.50744545E-05, 0.000265714538, -0.0130426129, -0.0158574283, 6.294568E-07, 921.155457  , 32.14589    , 796.665161  , 0.34        , 3           , 255         , 0           , 0
-0.153196827, 0.1262947   , -9.790743   , -0.000122163212, 0.000210010272, 0.000362445484, -0.0130438926, -0.01585528 , 4.22657467E-06, 921.155457  , 32.14589    , 796.6652    , 0.35        , 3           , 255         , 0           , 0
-0.145480752, 0.129660472 , -9.796831   , 0.000399867 , 0.000186768011, 0.000129957785, -0.013039913, -0.0158534  , 5.501825E-06, 921.155457  , 32.14589    , 796.6653    , 0.36        , 3           , 255         , 0           , 0
-0.144634068, 0.126939684 , -9.79315948 , 0.000290628843, -0.000214227533, -0.000430648943, -0.01303694 , -0.0158555936, 1.22319864E-06, 921.155457  , 32.14589    , 796.665344  , 0.37        , 3           , 255         , 0           , 0
-0.14935784 , 0.127699256 , -9.794019   , -0.0004382037, -0.000160796975, -0.000235973072, -0.0130412839, -0.0158572327, -1.11561735E-06, 921.155457  , 32.14589    , 796.6654    , 0.38        , 3           , 255         , 0           , 0
-0.1495758  , 0.1258392   , -9.78475    , -0.000153506524, 3.369368E-05, -0.0002314487, -0.0130427824, -0.0158569254, -3.43453848E-06, 921.155457  , 32.14589    , 796.665466  , 0.39        , 3           , 255         , 0           , 0
-0.151309669, 0.124153838 , -9.779622   , -0.000409372849, 0.000293678022, 0.000116879375, -0.0130468942, -0.015853975, -2.30403953E-06, 921.155457  , 32.14589    , 796.6655    , 0.4         , 3           , 255         , 0           , 0
-0.161807135, 0.130529284 , -9.784152   , 0.0005501859, -0.000152228342, -0.000176739239, -0.0130380979, -0.0158363543, -4.10335451E-06, 921.155457  , 32.14589    , 796.6568    , 0.41        , 3           , 255         , 0           , 0
-0.163588986, 0.1291293   , -9.790876   , 0.0006202515, 0.000210140948, -0.00049333577, -0.013031817, -0.01583432 , -9.064185E-06, 921.155457  , 32.14589    , 796.65686   , 0.42        , 3           , 255         , 0           , 0
-0.158200428, 0.126439154 , -9.799649   , 0.0008492031, -0.000511479855, 3.6389E-05  , -0.0130233318, -0.0158394277, -8.633665E-06, 921.111938  , 32.1601372  , 796.6569    , 0.43        , 3           , 255         , 0           , 0
-0.155871481, 0.120084621 , -9.791009   , 0.0001998748, 6.146211E-05, -0.000269293872, -0.01302129 , -0.0158388466, -1.13346578E-05, 921.111938  , 32.1601372  , 796.657     , 0.44        , 3           , 255         , 0           , 0
-0.15743944 , 0.131088525 , -9.791761   , -3.454165E-05, 0.000107474625, 0.0006263698, -0.0130217355, -0.015837688, -5.08485164E-06, 921.111938  , 32.1601372  , 796.657043  , 0.45        , 3           , 255         , 0           , 0
-0.1596004  , 0.127355963 , -9.794348   , 0.00036677593, -0.000231193553, -4.13278467E-05, -0.0130180605, -0.015840007, -5.46804449E-06, 921.111938  , 32.1601372  , 796.6571    , 0.46        , 3           , 255         , 0           , 0
-0.151085228, 0.1263242   , -9.786214   , 0.0005762271, -0.000280591485, -0.000824533054, -0.013012168, -0.01584292 , -1.36769877E-05, 921.111938  , 32.1601372  , 796.657166  , 0.47        , 3           , 255         , 0           , 0
-0.149268121, 0.128092334 , -9.795263   , 2.32587336E-05, -0.00024114555, 0.0001868378, -0.013011965, -0.0158453044, -1.17772161E-05, 921.111938  , 32.1601372  , 796.6572    , 0.48        , 3           , 255         , 0           , 0
-0.150573716, 0.122520782 , -9.798021   , -6.223621E-05, 0.000221206166, 0.000377613673, -0.0130126458, -0.0158430431, -8.02981E-06, 921.111938  , 32.1601372  , 796.6573    , 0.49        , 3           , 255         , 0           , 0
-0.1562897  , 0.123917244 , -9.801627   , 0.000451699045, 0.000114617986, -5.63741778E-05, -0.0130081214, -0.015841905, -8.608474E-06, 921.111938  , 32.1601372  , 796.657349  , 0.5         , 3           , 255         , 0           , 0
-0.152366742, 0.137000769 , -9.79899    , 0.0005997249, 9.108847E-05, 0.000193491724, -0.01299895 , -0.0158450119, -6.73615523E-06, 921.111938  , 32.1601372  , 796.7325    , 0.51        , 3           , 255         , 0           , 0
-0.162538469, 0.12683402  , -9.794917   , 0.0001847106, 5.18864836E-05, 0.0004714883, -0.0129971765, -0.015844427, -2.02794035E-06, 921.111938  , 32.1601372  , 796.7326    , 0.52        , 3           , 255         , 0           , 0
-0.1554508  , 0.123156704 , -9.793251   , -0.0001129047, 0.000114563678, 0.000286818744, -0.0129983509, -0.0158432443, 8.2539367E-07, 921.1442    , 32.1684151  , 796.7327    , 0.53        , 3           , 255         , 0           , 0
-0.1497478  , 0.126472265 , -9.794077   , 0.000648798363, -7.519481E-05, 5.86205642E-05, -0.0129918717, -0.01584399 , 1.421384E-06, 921.1442    , 32.1684151  , 796.732849  , 0.54        , 3           , 255         , 0           , 0
-0.152635112, 0.12365067  , -9.797067   , 0.000134875241, 0.00058792124, 0.0006142645, -0.01299062 , -0.0158380345, 7.487731E-06, 921.1442    , 32.1684151  , 796.733     , 0.55        , 3           , 255         , 0           , 0
-0.14697358 , 0.135909751 , -9.79057    , 0.000436709641, -0.0002243885, -0.000251626829, -0.0129862139, -0.0158403069, 5.000549E-06, 921.1442    , 32.1684151  , 796.7331    , 0.56        , 3           , 255         , 0           , 0
-0.158226341, 0.131167471 , -9.794269   , -0.000160755415, -0.000143143872, -0.0003504551, -0.0129877664, -0.015841784, 1.51454242E-06, 921.1442    , 32.1684151  , 796.7332    , 0.57        , 3           , 255         , 0           , 0
-0.16031909 , 0.125863492 , -9.792082   , -0.000462714641, 0.000109874585, -0.000822495262, -0.0129922619, -0.015840793, -6.724825E-06, 921.1442    , 32.1684151  , 796.733337  , 0.58        , 3           , 255         , 0           , 0
-0.149361759, 0.128947541 , -9.795392   , -0.000131068635, -4.46336344E-05, -0.0001993276, -0.0129935406, -0.0158412661, -8.712328E-06, 921.1442    , 32.1684151  , 796.733459  , 0.59        , 3           , 255         , 0           , 0
-0.149373025, 0.130687773 , -9.792119   , -0.00014203199, -2.51739984E-05, 0.0008184577, -0.0129950913, -0.0158414133, -5.2434217E-07, 921.1442    , 32.1684151  , 796.7336    , 0.6         , 3           , 255         , 0           , 0
-0.159006044, 0.130274042 , -9.794027   , 0.000186235 , 0.000120849523, 0.0008609594, -0.0129984887, -0.0158357155, 8.15082149E-06, 921.1442    , 32.1684151  , 796.7334    , 0.61        , 3           , 255         , 0           , 0
-0.156386822, 0.132005885 , -9.794401   , 0.0003137794, -6.22241059E-05, -0.000533033046, -0.0129952664, -0.0158364065, 2.8284976E-06, 921.1442    , 32.1684151  , 796.7335    , 0.62        , 3           , 255         , 0           , 0
-0.149338156, 0.133030951 , -9.792652   , 0.0005382532, -0.000346621033, -0.000292240817, -0.0129898386, -0.015839912, -4.89151226E-08, 921.136658  , 32.1722145  , 796.733643  , 0.63        , 3           , 255         , 0           , 0
-0.156635031, 0.129709885 , -9.78992748 , 0.000137217343, 3.836822E-05, -0.000439064577, -0.0129883988, -0.0158395842, -4.444618E-06, 921.136658  , 32.1722145  , 796.733765  , 0.64        , 3           , 255         , 0           , 0
-0.154291958, 0.128800735 , -9.789675   , -0.000391329522, -3.67671018E-05, -0.000718454132, -0.0129921967, -0.0158400442, -1.16244946E-05, 921.136658  , 32.1722145  , 796.7339    , 0.65        , 3           , 255         , 0           , 0
-0.14405331 , 0.133476689 , -9.790193   , -0.000347475056, 0.000111536996, -0.0005268972, -0.0129955877, -0.015839   , -1.69080413E-05, 921.136658  , 32.1722145  , 796.734     , 0.66        , 3           , 255         , 0           , 0
-0.157396644, 0.129854828 , -9.797228   , -0.000566615141, 0.000379635778, 0.000185049037, -0.0130012846, -0.015835179, -1.51068616E-05, 921.136658  , 32.1722145  , 796.734131  , 0.67        , 3           , 255         , 0           , 0
-0.158795938, 0.127445132 , -9.792232   , -0.000125283608, 0.000635913 , -8.98774451E-05, -0.0130025214, -0.0158288311, -1.60883428E-05, 921.136658  , 32.1722145  , 796.734253  , 0.68        , 3           , 255         , 0           , 0
-0.1545797  , 0.125723779 , -9.793825   , 0.000417678675, 0.000222841278, -0.000486660982, -0.0129982689, -0.0158266667, -2.09839945E-05, 921.136658  , 32.1722145  , 796.7344    , 0.69        , 3           , 255         , 0           , 0
-0.15890038 , 0.119486474 , -9.790742   , -3.65214655E-05, 0.000110843335, 7.240528E-05, -0.0129986452, -0.01582555 , -2.027434E-05, 921.136658  , 32.1722145  , 796.7345    , 0.7         , 3           , 255         , 0           , 0
-0.150221854, 0.1310161   , -9.789551   , 2.88493466E-05, 6.736483E-05, -0.0005607252, -0.0130039724, -0.015824303, -2.58001382E-05, 921.136658  , 32.1722145  , 796.744751  , 0.71        , 3           , 255         , 0           , 0
-0.155032247, 0.13221094  , -9.802839   , 0.000452001346, 0.000130830624, -0.0006325834, -0.0129993521, -0.0158230755, -3.21430634E-05, 921.136658  , 32.1722145  , 796.7449    , 0.72        , 3           , 255         , 0           , 0
-0.150387779, 0.124161124 , -9.782653   , 0.0005775612, 6.133743E-05, 0.000718182768, -0.0129936906, -0.01582237 , -2.49691E-05, 921.1751    , 32.1806946  , 796.745     , 0.73        , 3           , 255         , 0           , 0
-0.1495424  , 0.118057236 , -9.787628   , -0.0001323822, -0.0003158957, 0.000393664232, -0.0129950754, -0.0158254784, -2.099136E-05, 921.1751    , 32.1806946  , 796.7451    , 0.74        , 3           , 255         , 0           , 0
-0.141854957, 0.127918825 , -9.789133   , 0.0003080031, -0.000441326469, 0.000363800616, -0.0129920533, -0.0158298425, -1.72959553E-05, 921.1751    , 32.1806946  , 796.745239  , 0.75        , 3           , 255         , 0           , 0
-0.1491113  , 0.134681553 , -9.790828   , 0.00025807062, -0.0005160085, 0.000105550942, -0.01298949 , -0.0158349872, -1.61733969E-05, 921.1751    , 32.1806946  , 796.745361  , 0.76        , 3           , 255         , 0           , 0
-0.149922356, 0.136623338 , -9.795262   , 0.000366561173, 0.0005373673, 0.000270813 , -0.0129858674, -0.015829578, -1.35350219E-05, 921.1751    , 32.1806946  , 796.7455    , 0.77        , 3           , 255         , 0           , 0
-0.145684108, 0.128674567 , -9.796553   , 0.000208420854, 0.0007717934, 0.00024599157, -0.0129838213, -0.01582183 , -1.11752915E-05, 921.1751    , 32.1806946  , 796.7456    , 0.78        , 3           , 255         , 0           , 0
-0.1555472  , 0.12403287  , -9.794494   , -8.39552958E-05, 0.000182264776, 0.000140442484, -0.0129846819, -0.01581999 , -9.794506E-06, 921.1751    , 32.1806946  , 796.7457    , 0.79        , 3           , 255         , 0           , 0
-0.157184392, 0.130870253 , -9.79390049 , -0.000728198967, -9.780197E-05, -0.0001899277, -0.0129919332, -0.0158209931, -1.16811061E-05, 921.1751    , 32.1806946  , 796.74585   , 0.8         , 3           , 255         , 0           , 0
-0.155444235, 0.133816272 , -9.788733   , 7.17428047E-05, 0.0004981659, 1.11045229E-05, -0.0129962834, -0.01580139 , -1.155471E-05, 921.1751    , 32.1806946  , 796.7056    , 0.81        , 3           , 255         , 0           , 0
-0.155117333, 0.12473987  , -9.785891   , -0.000101451646, 3.63349682E-05, 0.000393322465, -0.0129973609, -0.0158009753, -7.62616264E-06, 921.1751    , 32.1806946  , 796.70575   , 0.82        , 3           , 255         , 0           , 0
-0.148881525, 0.125701576 , -9.789658   , -3.15526268E-05, 7.531047E-05, 0.000176607326, -0.0129977046, -0.0158002  , -5.86984E-06, 921.106445  , 32.1787949  , 796.7059    , 0.83        , 3           , 255         , 0           , 0
-0.152569324, 0.136181429 , -9.798379   , 0.000119394565, 0.000496527762, 0.0005146594, -0.0129965907, -0.01579517 , -7.876989E-07, 921.106445  , 32.1787949  , 796.706     , 0.84        , 3           , 255         , 0           , 0
-0.153683424, 0.1316297   , -9.791157   , -3.946887E-05, 0.000109960558, -0.0001629996, -0.0129969595, -0.01579409 , -2.432016E-06, 921.106445  , 32.1787949  , 796.7061    , 0.85        , 3           , 255         , 0           , 0
-0.150195718, 0.124450706 , -9.787632   , -4.96660359E-05, -0.000163447461, -0.000306088245, -0.0129974084, -0.0157957636, -5.47170066E-06, 921.106445  , 32.1787949  , 796.706238  , 0.86        , 3           , 255         , 0           , 0
-0.152687579, 0.120563433 , -9.796274   , -0.000200812821, 8.622947E-05, 0.0005878876, -0.0129995095, -0.0157948267, 3.96057942E-07, 921.106445  , 32.1787949  , 796.70636   , 0.87        , 3           , 255         , 0           , 0
-0.155151278, 0.12270923  , -9.792472   , -0.0006735546, -2.22010422E-05, 0.000310166972, -0.0130062923, -0.0157950073, 3.50065261E-06, 921.106445  , 32.1787949  , 796.7065    , 0.88        , 3           , 255         , 0           , 0
-0.154832244, 0.12164779  , -9.791416   , -0.000163902238, 0.00022574584, -0.00011826634, -0.0130079137, -0.0157927647, 2.28860313E-06, 921.106445  , 32.1787949  , 796.7066    , 0.89        , 3           , 255         , 0           , 0
-0.161410153, 0.1275113   , -9.789511   , -5.146989E-05, -6.94759656E-05, 0.000867513 , -0.0130085656, -0.0157933459, 1.09729153E-05, 921.106445  , 32.1787949  , 796.7067    , 0.9         , 3           , 255         , 0           , 0
-0.151897937, 0.132912517 , -9.790508   , 0.0004868782, 0.000116120209, 0.000160843 , -0.0130024916, -0.01578989 , 1.25468441E-05, 921.106445  , 32.1787949  , 796.7538    , 0.91        , 3           , 255         , 0           , 0
-0.155306175, 0.1270994   , -9.79420948 , 0.000207406876, 0.0003479331, 0.0004564717, -0.0130004911, -0.0157863535, 1.7066388E-05, 921.106445  , 32.1787949  , 796.753967  , 0.92        , 3           , 255         , 0           , 0
-0.158447653, 0.137445986 , -9.792471   , 1.55402231E-05, 0.000211459 , 1.73819426E-05, -0.0130003365, -0.0157842413, 1.72127147E-05, 921.1285    , 32.183      , 796.75415   , 0.93        , 3           , 255         , 0           , 0
-0.157978445, 0.131326944 , -9.799231   , -4.468253E-05, 0.000346414017, -8.55094E-05, -0.0130007686, -0.0157807842, 1.63125678E-05, 921.1285    , 32.183      , 796.754333  , 0.94        , 3           , 255         , 0           , 0
-0.1530429  , 0.129260659 , -9.795641   , 2.11478327E-05, -0.0005016925, 0.000464790966, -0.0130006317, -0.01578574 , 2.1025764E-05, 921.1285    , 32.183      , 796.7545    , 0.95        , 3           , 255         , 0           , 0
-0.161103636, 0.1343388   , -9.792173   , -0.0003042664, -0.000381238759, -0.000256204163, -0.0130036343, -0.0157895871, 1.851326E-05, 921.1285    , 32.183      , 796.7547    , 0.96        , 3           , 255         , 0           , 0
-0.155328363, 0.131694466 , -9.787344   , -0.0002455599, -0.000132763351, 2.501093E-05, -0.0130060939, -0.0157909077, 1.87806363E-05, 921.1285    , 32.183      , 796.7549    , 0.97        , 3           , 255         , 0           , 0
-0.152821332, 0.116813183 , -9.7984     , 0.000409555534, 0.000266209128, -0.000435671129, -0.0130019281, -0.0157883018, 1.43892366E-05, 921.1285    , 32.183      , 796.755066  , 0.98        , 3           , 255         , 0           , 0
-0.14373669 , 0.12494798  , -9.791418   , 0.000666412758, -0.000389684225, 0.0002305175, -0.0129953017, -0.0157921687, 1.6745109E-05, 921.1285    , 32.183      , 796.755249  , 0.99        , 3           , 255         , 0           , 0
-0.154203564, 0.122635983 , -9.792586   , 0.000472633052, 0.000116334646, 0.000334193959, -0.01299063 , -0.0157909654, 2.0071986E-05, 921.1285    , 32.183      , 796.755432  , 1           , 3           , 0           , 6.93523645  , 100
-0.164638013, 0.130587146 , -9.786375   , 4.10161447E-05, -0.000173120236, 0.0007314723, -0.0129945558, -0.0157919973, 2.7475935E-05, 921.1285    , 32.183      , 796.7702    , 1.01        , 3           , 1           , 0           , 0
-0.1589834  , 0.114869878 , -9.7875185  , 9.793951E-05, -4.857604E-06, 0.0005189725, -0.012993657, -0.0157919787, 3.26663649E-05, 921.1285    , 32.183      , 796.770447  , 1.02        , 3           , 2           , 0           , 0
-0.146420985, 0.118061282 , -9.788175   , 0.00060748856, -0.00021132722, 0.000656448 , -0.0129876863, -0.015794009, 3.925842E-05, 921.1228    , 32.1847649  , 796.7707    , 1.03        , 3           , 3           , 0           , 0
-0.146818742, 0.127673417 , -9.789511   , 0.0003526079, 0.000147735991, 0.0007161565, -0.012984273, -0.0157924369, 4.640091E-05, 921.1228    , 32.1847649  , 796.770935  , 1.04        , 3           , 4           , 0           , 0
-0.153166622, 0.132135019 , -9.792551   , -0.000151480781, -0.000163931632, -0.000162506461, -0.0129857622, -0.0157940984, 4.479711E-05, 921.1228    , 32.1847649  , 796.7712    , 1.05        , 3           , 5           , 0           , 0
-0.164167121, 0.128949776 , -9.776625   , -7.501489E-05, -0.000119905395, -0.000101068916, -0.0129864961, -0.015795311, 4.3801967E-05, 921.1228    , 32.1847649  , 796.7714    , 1.06        , 3           , 6           , 0           , 0
-0.15949671 , 0.127848476 , -9.7899065  , 0.00043496117, -0.000177511945, 0.000237966917, -0.012982185, -0.0157970544, 4.62047246E-05, 921.1228    , 32.1847649  , 796.771667  , 1.07        , 3           , 7           , 0           , 0
-0.1529986  , 0.141496554 , -9.798162   , 9.35369753E-05, -0.0004082144, 0.0003178016, -0.0129813  , -0.0158010945, 4.94357846E-05, 921.1228    , 32.1847649  , 796.7719    , 1.08        , 3           , 8           , 5           , 5
-0.1500288  , 0.1419303   , -9.799805   , -1.55058224E-05, -0.00039478892, -7.79275E-05, -0.0129814427, -0.01580505 , 4.87077377E-05, 921.1228    , 32.1847649  , 796.772156  , 1.09        , 3           , 9           , 5           , 0.1
-0.148289546, 0.127767012 , -9.790454   , -0.0001997567, -1.18608E-05, 0.0002874008, -0.0129834861, -0.0158051327, 5.15833381E-05, 921.1228    , 32.1847649  , 796.7724    , 1.1         , 3           , 10          , 0.1         , 0.1
-0.14898248 , 0.125413671 , -9.785421   , -0.000194713066, 0.0002700587, -0.000214234213, -0.0129923765, -0.0158019625, 4.95161439E-05, 921.1228    , 32.1847649  , 796.790649  , 1.11        , 3           , 11          , 0.00917304  , 0.009173039
-0.154331118, 0.127647832 , -9.798206   , -0.0003499983, -0.000192216481, -0.000183391225, -0.0129958466, -0.0158039089, 4.77071771E-05, 921.1228    , 32.1847649  , 796.790955  , 1.12        , 3           , 12          , 0.174642846 , 0
-0.152786389, 0.124865666 , -9.782849   , -2.14373E-06, -9.40556638E-05, -6.833555E-05, -0.0129958577, -0.015804857, 4.70360355E-05, 921.106567  , 32.1878853  , 796.79126   , 1.13        , 3           , 13          , 0           , 0
-0.162559122, 0.125312179 , -9.796017   , 0.0006671148, 0.000405330968, -0.00025372603, -0.0129891466, -0.0158008374, 4.44460566E-05, 921.106567  , 32.1878853  , 796.791565  , 1.14        , 3           , 14          , -0.0007369377, -0.0007886534
-0.15860419 , 0.119952306 , -9.791151   , 0.000856566243, 0.000141772442, -0.0001592767, -0.0129805552, -0.0157994423, 4.2834843E-05, 921.106567  , 32.1878853  , 796.7919    , 1.15        , 3           , 15          , 0           , -0.000167350969
-0.145836279, 0.121229209 , -9.791719   , -1.508632E-05, 0.000299756881, 4.6024943E-06, -0.0129807051, -0.0157964434, 4.284196E-05, 921.106567  , 32.1878853  , 796.7922    , 1.16        , 3           , 16          , 0           , 1.401298E-45
-0.145635933, 0.133068755 , -9.791342   , -0.0005885711, 0.000323930639, 9.0164096E-05, -0.0129866041, -0.0157931913, 4.37015624E-05, 921.106567  , 32.1878853  , 796.7925    , 1.17        , 3           , 20          , 0           , 0
-0.146141157, 0.140540525 , -9.791399   , -0.0005556873, -0.000512255938, 0.000383435516, -0.0129922228, -0.015798267, 4.7602527E-05, 921.106567  , 32.1878853  , 796.7928    , 1.18        , 3           , 21          , 0           , 0
-0.150333375, 0.125218853 , -9.790547   , 0.0002872668, -0.0003413757, -0.000150246531, -0.0129893273, -0.0158017  , 4.61443851E-05, 921.106567  , 32.1878853  , 796.7931    , 1.19        , 3           , 22          , 0           , 0
-0.158471152, 0.132932544 , -9.802774   , -0.0003396136, -0.000139022246, 0.000222454139, -0.0129927583, -0.0158030577, 4.83870244E-05, 921.106567  , 32.1878853  , 796.7934    , 1.2         , 3           , 40          , 0           , 0
-0.15890561 , 0.129819185 , -9.798599   , 0.0001344072, 0.000236295222, 0.000130290078, -0.0129927751, -0.0157939047, 4.968043E-05, 921.106567  , 32.1878853  , 796.826     , 1.21        , 3           , 41          , 0           , 0
-0.158753648, 0.125118211 , -9.790564   , 0.0002686434, -4.40147123E-05, -2.0575797E-05, -0.0129900863, -0.01579435 , 4.94803935E-05, 921.106567  , 32.1878853  , 796.8264    , 1.22        , 3           , 42          , 0           , 0
-0.15570122 , 0.12324091  , -9.789256   , -0.0004340884, -0.000127943873, 0.000250675424, -0.0129944673, -0.0157955959, 5.20037975E-05, 921.0922    , 32.1846962  , 796.826843  , 1.23        , 3           , 255         , 0           , 0
-0.149264127, 0.134315938 , -9.785031   , 0.000157235132, -6.12518052E-05, 0.000741387834, -0.0129930126, -0.0157961119, 5.94257581E-05, 921.0922    , 32.1846962  , 796.8273    , 1.24        , 3           , 255         , 0           , 0
-0.150621608, 0.138660461 , -9.792043   , 0.000129730732, 0.000116087031, 0.000815928 , -0.0129918428, -0.0157948434, 6.757007E-05, 921.0922    , 32.1846962  , 796.8277    , 1.25        , 3           , 255         , 0           , 0
-0.156098157, 0.122354366 , -9.792081   , -0.000170639774, -0.000200685638, -7.87744648E-05, -0.0129935369, -0.01579686 , 6.680839E-05, 921.0922    , 32.1846962  , 796.8281    , 1.26        , 3           , 255         , 0           , 0
-0.152771488, 0.122859575 , -9.792219   , -0.000273076585, -0.000349554874, -0.000215807377, -0.0129962331, -0.01580038 , 6.46957051E-05, 921.0922    , 32.1846962  , 796.828552  , 1.27        , 3           , 255         , 0           , 0
-0.1556052  , 0.119984187 , -9.7961     , 0.0007192039, -0.000159080082, 0.000262849 , -0.0129890842, -0.0158019364, 6.73448958E-05, 921.0922    , 32.1846962  , 796.829     , 1.28        , 3           , 255         , 0           , 0
-0.162865385, 0.129871756 , -9.798811   , 0.00027646753, -0.000452068, 0.000203961055, -0.0129863508, -0.015806431, 6.944326E-05, 921.0922    , 32.1846962  , 796.8294    , 1.29        , 3           , 255         , 0           , 0
-0.153405711, 0.126093939 , -9.79256248 , 0.000270238466, -0.000549095741, 0.000275333558, -0.0129836937, -0.0158118866, 7.226794E-05, 921.0922    , 32.1846962  , 796.829834  , 1.3         , 3           , 255         , 0           , 0
-0.1555809  , 0.118938766 , -9.793966   , 0.000142886187, -0.0009333433, 0.000456118665, -0.0129823266, -0.0158230048, 7.695016E-05, 921.0922    , 32.1846962  , 796.872864  , 1.31        , 3           , 255         , 0           , 0
-0.163582176, 0.126224875 , -9.788616   , -0.0003552636, -0.0002846073, 0.0007423619, -0.012985995, -0.015825754, 8.44108363E-05, 921.0922    , 32.1846962  , 796.8735    , 1.32        , 3           , 255         , 0           , 0
-0.1532374  , 0.124089085 , -9.784967   , 0.000188996317, -3.63419531E-05, 0.0005334875, -0.0129841911, -0.0158260465, 8.975051E-05, 921.126831  , 32.1868668  , 796.8741    , 1.33        , 3           , 255         , 0           , 0
-0.154553175, 0.129191533 , -9.790009   , -0.000303831534, -6.19061757E-06, -0.0002318994, -0.0129871918, -0.0158261377, 8.743229E-05, 921.126831  , 32.1868668  , 796.8747    , 1.34        , 3           , 255         , 0           , 0
-0.159785315, 0.1277849   , -9.786356   , -0.0003322435, 2.26182747E-05, -0.00055040716, -0.0129904263, -0.015825985, 8.192518E-05, 921.126831  , 32.1868668  , 796.8753    , 1.35        , 3           , 255         , 0           , 0
-0.152493984, 0.120299421 , -9.78566551 , 0.000266372925, -0.000170966436, -1.598864E-05, -0.0129877608, -0.0158276949, 8.17875043E-05, 921.126831  , 32.1868668  , 796.8759    , 1.36        , 3           , 255         , 0           , 0
-0.140827343, 0.13261354  , -9.793715   , 0.0008330218, -1.39324693E-05, -0.0002138334, -0.0129793966, -0.01582786 , 7.965094E-05, 921.126831  , 32.1868668  , 796.8765    , 1.37        , 3           , 255         , 0           , 0
-0.150972158, 0.132600635 , -9.792035   , 0.000330621435, -0.000182735268, 0.000781506766, -0.0129762143, -0.0158295874, 8.748985E-05, 921.126831  , 32.1868668  , 796.877136  , 1.38        , 3           , 255         , 0           , 0
-0.1525039  , 0.128093183 , -9.788325   , 0.0003037237, -0.0001002443, -9.268652E-05, -0.0129731623, -0.0158306  , 8.657598E-05, 921.126831  , 32.1868668  , 796.877747  , 1.39        , 3           , 255         , 0           , 0
-0.158871025, 0.121852949 , -9.793488   , 0.0005227193, -0.000128153246, -0.000109346336, -0.012967919, -0.015831897, 8.549912E-05, 921.126831  , 32.1868668  , 796.878357  , 1.4         , 3           , 255         , 0           , 0
-0.153417408, 0.12697728  , -9.797152   , 0.000145567814, -1.56356255E-05, -0.0001574463, -0.01296318 , -0.01582973 , 8.387507E-05, 921.126831  , 32.1868668  , 796.880859  , 1.41        , 3           , 255         , 0           , 0
-0.163210392, 0.13573584  , -9.794489   , 0.000143217156, 0.000168448314, 0.000582888955, -0.0129618412, -0.01582797 , 8.968222E-05, 921.126831  , 32.1868668  , 796.8815    , 1.42        , 3           , 255         , 0           , 0
-0.15960151 , 0.120203413 , -9.796034   , 1.76851172E-05, 0.00023280317, 0.00111538044, -0.01296184 , -0.0158254988, 0.000100806021, 921.161865  , 32.1888351  , 796.8821    , 1.43        , 3           , 255         , 0           , 0
-0.150491044, 0.11614313  , -9.788224   , -0.000232256076, -0.0002796949, 0.000386190659, -0.0129642244, -0.0158282425, 0.000104704253, 921.161865  , 32.1888351  , 796.8827    , 1.44        , 3           , 255         , 0           , 0
-0.150566056, 0.125025138 , -9.786962   , -0.0005066578, -0.000151626882, -0.0003623775, -0.0129692322, -0.0158298053, 0.000101100086, 921.161865  , 32.1888351  , 796.8833    , 1.45        , 3           , 255         , 0           , 0
-0.158289284, 0.128423691 , -9.797656   , 0.000229792844, -0.000197729561, -0.000327504065, -0.0129668834, -0.0158318263, 9.78506359E-05, 921.161865  , 32.1888351  , 796.8839    , 1.46        , 3           , 255         , 0           , 0
-0.158068389, 0.121980868 , -9.792114   , 0.000758405251, 7.660477E-06, 0.000239513553, -0.0129593369, -0.0158317182, 0.000100244826, 921.161865  , 32.1888351  , 796.8845    , 1.47        , 3           , 255         , 0           , 0
-0.153832242, 0.123101212 , -9.79268    , 0.000334195181, 0.0006207125, 3.14079662E-05, -0.0129560009, -0.0158255082, 0.000100478486, 921.161865  , 32.1888351  , 796.885132  , 1.48        , 3           , 255         , 0           , 0
-0.153508827, 0.129226714 , -9.788618   , 5.21329348E-05, 9.01646E-05 , -0.000163701436, -0.0129554523, -0.015824629, 9.882977E-05, 921.161865  , 32.1888351  , 796.885742  , 1.49        , 3           , 255         , 0           , 0
-0.153348878, 0.138969362 , -9.789898   , -0.000383447448, 0.0003271207, -0.000301819935, -0.0129592381, -0.0158213936, 9.576913E-05, 921.161865  , 32.1888351  , 796.886353  , 1.5         , 3           , 255         , 0           , 0
-0.155213043, 0.124367975 , -9.794606   , 0.0004979235, -0.000109492335, 0.000306465547, -0.0129532563, -0.0158234891, 9.8831355E-05, 921.161865  , 32.1888351  , 796.850952  , 1.51        , 3           , 255         , 0           , 0
-0.163584143, 0.1186643   , -9.790731   , -0.000140379823, -0.000170376734, -0.0001847761, -0.01295463 , -0.0158252139, 9.700562E-05, 921.161865  , 32.1888351  , 796.8514    , 1.52        , 3           , 255         , 0           , 0
-0.165743724, 0.12624608  , -9.790786   , 0.000303148467, -0.0003342905, 0.0003281698, -0.0129516507, -0.0158285145, 0.000100330682, 921.1334    , 32.1881561  , 796.851868  , 1.53        , 3           , 255         , 0           , 0
-0.15693742 , 0.133652955 , -9.791257   , 0.0009320203, -0.000221379974, 0.000347476045, -0.0129423859, -0.0158306789, 0.000103834151, 921.1334    , 32.1881561  , 796.852356  , 1.54        , 3           , 255         , 0           , 0
-0.160407126, 0.130430013 , -9.789304   , 0.0002946421, 0.000347891153, 0.000357410841, -0.012939496, -0.0158271547, 0.0001073633, 921.1334    , 32.1881561  , 796.852844  , 1.55        , 3           , 255         , 0           , 0
-0.159513831, 0.139160156 , -9.794881   , 0.000125755789, 0.0005324739, 0.000251750345, -0.0129382778, -0.0158218  , 0.000109811946, 921.1334    , 32.1881561  , 796.853333  , 1.56        , 3           , 255         , 0           , 0
-0.155242249, 0.129637986 , -9.79047    , 0.000384355022, 0.00017878256, 0.000271096767, -0.0129344761, -0.0158199761, 0.000112499816, 921.1334    , 32.1881561  , 796.8538    , 1.57        , 3           , 255         , 0           , 0
-0.152042329, 0.120329656 , -9.790943   , 0.0005095984, -0.000460970739, -0.0004972558, -0.0129293026, -0.01582465 , 0.000107586806, 921.1334    , 32.1881561  , 796.8543    , 1.58        , 3           , 255         , 0           , 0
-0.150645837, 0.122967288 , -9.789511   , 0.000143873447, -0.000110157009, -0.0008537872, -0.01292773 , -0.01582586 , 9.906303E-05, 921.1334    , 32.1881561  , 796.8548    , 1.59        , 3           , 255         , 0           , 0
-0.148141116, 0.127244562 , -9.798185   , 0.000275069178, 0.000308534829, -0.000197153669, -0.0129249468, -0.0158228  , 9.705158E-05, 921.1334    , 32.1881561  , 796.8553    , 1.6         , 3           , 255         , 0           , 0
-0.149411336, 0.12286631  , -9.793936   , 0.000139944023, -0.000352873, 0.000105224492, -0.0129249673, -0.0158307441, 9.817166E-05, 921.1334    , 32.1881561  , 796.853149  , 1.61        , 3           , 255         , 0           , 0
-0.152125686, 0.127562568 , -9.800869   , -0.00026870874, -0.000277171959, -0.0003340448, -0.012927602, -0.01583356 , 9.486699E-05, 921.1334    , 32.1881561  , 796.853638  , 1.62        , 3           , 255         , 0           , 0
-0.154381946, 0.127054125 , -9.781261   , -2.03836244E-05, 0.000134968315, -0.000738637056, -0.0129276887, -0.0158323068, 8.746304E-05, 921.1275    , 32.1906662  , 796.8541    , 1.63        , 3           , 255         , 0           , 0
-0.15568009 , 0.12895897  , -9.794764   , 8.462998E-05, -0.000413259026, 4.550752E-05, -0.0129268505, -0.0158364326, 8.797155E-05, 921.1275    , 32.1906662  , 796.8546    , 1.64        , 3           , 255         , 0           , 0
-0.156346917, 0.124072239 , -9.787134   , 1.80557836E-05, -0.000145442667, -0.000454888621, -0.0129265971, -0.0158379469, 8.3441395E-05, 921.1275    , 32.1906662  , 796.8551    , 1.65        , 3           , 255         , 0           , 0
-0.156095147, 0.128629431 , -9.797308   , 0.000243966875, 7.09198648E-05, -0.000238298177, -0.0129241189, -0.0158372689, 8.104921E-05, 921.1275    , 32.1906662  , 796.8556    , 1.66        , 3           , 255         , 0           , 0
-0.152505308, 0.127125651 , -9.796595   , -0.0003460509, 0.000196355628, 0.00123696984, -0.0129277762, -0.0158351436, 9.339373E-05, 921.1275    , 32.1906662  , 796.8561    , 1.67        , 3           , 255         , 0           , 0
-0.137522608, 0.130448565 , -9.788135   , 0.000184373523, -0.000198137946, 0.000293272344, -0.0129259787, -0.0158370864, 9.635211E-05, 921.1275    , 32.1906662  , 796.856567  , 1.68        , 3           , 255         , 0           , 0
-0.144395143, 0.132460669 , -9.793297   , 0.000185458513, -0.000221312977, 1.86105171E-05, -0.0129241273, -0.0158392955, 9.656683E-05, 921.1275    , 32.1906662  , 796.857056  , 1.69        , 3           , 255         , 0           , 0
-0.146575421, 0.1232872   , -9.789595   , -0.000192390173, 0.000153869914, -0.000484286051, -0.012925975, -0.01583782 , 9.17039943E-05, 921.1275    , 32.1906662  , 796.857544  , 1.7         , 3           , 255         , 0           , 0
-0.144539088, 0.125860348 , -9.792513   , 6.978528E-05, 0.000477866066, -0.000768330938, -0.0129267862, -0.0158217158, 8.39845961E-05, 921.1275    , 32.1906662  , 796.8615    , 1.71        , 3           , 255         , 0           , 0
-0.163233444, 0.120803513 , -9.791361   , -0.000337276666, -0.0001721069, -0.000491410145, -0.01293008 , -0.015823504, 7.909266E-05, 921.1275    , 32.1906662  , 796.862     , 1.72        , 3           , 255         , 0           , 0
-0.168770075, 0.12374793  , -9.797342   , 4.57637361E-05, 4.257221E-05, 0.000566500763, -0.0129297124, -0.0158230029, 8.475227E-05, 921.1515    , 32.18985    , 796.8625    , 1.73        , 3           , 255         , 0           , 0
-0.151253581, 0.121268488 , -9.79505    , 0.000402105274, 0.000203160162, 9.83472855E-05, -0.0129257068, -0.01582096 , 8.570949E-05, 921.1515    , 32.18985    , 796.863     , 1.74        , 3           , 255         , 0           , 0
-0.161979467, 0.129753083 , -9.786329   , 0.000424801081, 0.000383006874, -0.000179691837, -0.01292143 , -0.0158171579, 8.386305E-05, 921.1515    , 32.18985    , 796.863464  , 1.75        , 3           , 255         , 0           , 0
-0.1575412  , 0.1315048   , -9.795273   , -6.43801759E-05, -7.736136E-05, 0.000640312035, -0.0129221752, -0.0158178434, 9.02762549E-05, 921.1515    , 32.18985    , 796.863953  , 1.76        , 3           , 255         , 0           , 0
-0.144447833, 0.126642272 , -9.793068   , 3.49490438E-06, -0.000224031741, 0.000279983 , -0.0129221855, -0.0158200487, 9.310509E-05, 921.1515    , 32.18985    , 796.864441  , 1.77        , 3           , 255         , 0           , 0
-0.151122   , 0.130483285 , -9.792857   , 6.550376E-05, 0.000261864043, -0.00041362812, -0.0129214637, -0.0158174839, 8.893491E-05, 921.1515    , 32.18985    , 796.8649    , 1.78        , 3           , 255         , 0           , 0
-0.15383929 , 0.121902131 , -9.788222   , 0.00010714255, 0.000126136583, 5.502472E-06, -0.0129203945, -0.0158162229, 8.897364E-05, 921.1515    , 32.18985    , 796.8654    , 1.79        , 3           , 255         , 0           , 0
-0.155901581, 0.135590658 , -9.792982   , 0.000310316333, 0.000260023517, -0.000198401583, -0.01291726 , -0.0158136487, 8.695599E-05, 921.1515    , 32.18985    , 796.8659    , 1.8         , 3           , 255         , 0           , 0
-0.155918077, 0.1404198   , -9.791301   , 0.0003576505, 0.000188829028, -0.0005381529, -0.012914069, -0.01581262 , 8.155747E-05, 921.1515    , 32.18985    , 796.842     , 1.81        , 3           , 255         , 0           , 0
-0.161838561, 0.133457452 , -9.788847   , 0.000438378978, 0.000132869987, -0.000436978677, -0.0129096173, -0.0158113521, 7.717045E-05, 921.1515    , 32.18985    , 796.842346  , 1.82        , 3           , 255         , 0           , 0
-0.15292868 , 0.119394764 , -9.788733   , 0.000426054758, -0.0002945235, 0.00111510081, -0.0129055334, -0.01581415 , 8.835966E-05, 921.1454    , 32.1901245  , 796.8427    , 1.83        , 3           , 255         , 0           , 0
-0.154505268, 0.128250748 , -9.793355   , 0.000317854865, -0.000352692616, 0.000103857841, -0.0129023707, -0.0158176646, 8.944377E-05, 921.1454    , 32.1901245  , 796.8431    , 1.84        , 3           , 255         , 0           , 0
-0.160596758, 0.136915073 , -9.797223   , 0.000392880378, 0.00027343462, -0.000286906317, -0.0128983986, -0.0158149675, 8.653938E-05, 921.1454    , 32.1901245  , 796.843445  , 1.85        , 3           , 255         , 0           , 0
-0.154291466, 0.1246011   , -9.790205   , 0.000242192531, -0.000252368452, -7.517068E-05, -0.012895965, -0.0158174988, 8.58202256E-05, 921.1454    , 32.1901245  , 796.8438    , 1.86        , 3           , 255         , 0           , 0
-0.151465833, 0.122280911 , -9.790495   , 0.00100377807, -0.000235028856, -0.000306719041, -0.0128858788, -0.0158198848, 8.278327E-05, 921.1454    , 32.1901245  , 796.8442    , 1.87        , 3           , 255         , 0           , 0
-0.1520203  , 0.135225728 , -9.794498   , 0.000399603479, -0.00023169542, 0.000414812152, -0.01288195 , -0.01582215 , 8.696131E-05, 921.1454    , 32.1901245  , 796.844543  , 1.88        , 3           , 255         , 0           , 0
-0.1525197  , 0.125967473 , -9.802637   , 2.454681E-05, -0.000369523827, -0.000487279642, -0.0128816282, -0.0158259068, 8.213604E-05, 921.1454    , 32.1901245  , 796.8449    , 1.89        , 3           , 255         , 0           , 0
-0.1497874  , 0.121792018 , -9.795871   , 0.0001272136, -0.0004950192, -0.000784386531, -0.0128802313, -0.0158309583, 7.435579E-05, 921.1454    , 32.1901245  , 796.8453    , 1.9         , 3           , 255         , 0           , 0
-0.148568675, 0.124292471 , -9.791186   , -0.000483782729, -0.000153071946, -0.000598982268, -0.012890446, -0.0158318374, 6.84721963E-05, 921.1454    , 32.1901245  , 796.830261  , 1.91        , 3           , 255         , 0           , 0
-0.155004457, 0.13209413  , -9.791598   , 0.000397048338, 0.000138575851, -0.000520668, -0.0128863938, -0.0158305187, 6.324757E-05, 921.1454    , 32.1901245  , 796.830566  , 1.92        , 3           , 255         , 0           , 0
-0.155885965, 0.128365412 , -9.795432   , -0.0003816801, 0.000576722261, -0.0004732029, -0.012890134, -0.0158248134, 5.84411246E-05, 921.1347    , 32.1927     , 796.8309    , 1.93        , 3           , 255         , 0           , 0
-0.156100184, 0.128877863 , -9.79177    , 0.000332234456, 6.121292E-05, 0.000310882227, -0.0128868613, -0.0158241615, 6.15421159E-05, 921.1347    , 32.1927     , 796.8312    , 1.94        , 3           , 255         , 0           , 0
-0.147581488, 0.123920023 , -9.790426   , 0.0005256286, -8.391327E-05, 0.0005974946, -0.0128817018, -0.0158249233, 6.752799E-05, 921.1347    , 32.1927     , 796.8315    , 1.95        , 3           , 255         , 0           , 0
-0.146003142, 0.125629678 , -9.79830551 , 0.000286322349, 0.000157029135, -0.000649947149, -0.0128787355, -0.0158234369, 6.1008177E-05, 921.1347    , 32.1927     , 796.8318    , 1.96        , 3           , 255         , 0           , 0
-0.152832165, 0.129608482 , -9.79304    , 0.000518212153, 4.60215961E-05, -0.00069362385, -0.0128734428, -0.0158230644, 5.406589E-05, 921.1347    , 32.1927     , 796.8321    , 1.97        , 3           , 255         , 0           , 0
-0.148752064, 0.120016634 , -9.790915   , 0.000743895071, -0.0003179147, 1.26494124E-05, -0.0128660081, -0.015826242, 5.423331E-05, 921.1347    , 32.1927     , 796.8324    , 1.98        , 3           , 255         , 0           , 0
-0.141959   , 0.135193288 , -9.792369   , 0.0005386747, -4.936545E-05, -0.0002808796, -0.0128605776, -0.0158267729, 5.143081E-05, 921.1347    , 32.1927     , 796.8327    , 1.99        , 3           , 255         , 0           , 0
-0.153025538, 0.126477212 , -9.789088   , 0.000796116 , -0.0002543807, 0.0002445362, -0.0128526557, -0.0158292875, 5.390892E-05, 921.1347    , 32.1927     , 796.833     , 2           , 3           , 0           , 7.93523645  , 200
-0.160028547, 0.12416283  , -9.787626   , 0.000281677727, -0.000122859492, 0.0004864707, -0.0128528541, -0.0158202946, 5.883598E-05, 921.1347    , 32.1927     , 796.8317    , 2.01        , 3           , 1           , 0           , 0
-0.160915256, 0.129075959 , -9.799599   , -3.420055E-05, 0.000222419971, 0.000337179459, -0.012853249, -0.0158180259, 6.217925E-05, 921.1347    , 32.1927     , 796.832031  , 2.02        , 3           , 2           , 0           , 0
-0.158510745, 0.126455128 , -9.789818   , -0.000180485426, -0.000180113711, -0.000479291019, -0.0128549775, -0.0158198886, 5.74094E-05 , 921.162     , 32.19277    , 796.832336  , 2.03        , 3           , 3           , 0           , 0
-0.159046143, 0.124349318 , -9.796231   , 0.000396410935, -0.00053377985, -0.000210247745, -0.0128509812, -0.0158252548, 5.53754981E-05, 921.162     , 32.19277    , 796.832642  , 2.04        , 3           , 4           , 0           , 0
-0.161320776, 0.130094558 , -9.798035   , 0.000363060943, -0.000225070165, -0.0003317707, -0.0128473  , -0.0158275478, 5.20866633E-05, 921.162     , 32.19277    , 796.832947  , 2.05        , 3           , 5           , 0           , 0
-0.159032539, 0.1264718   , -9.79788    , 0.0003894458, -0.000308164745, -0.000364658365, -0.0128433481, -0.0158306751, 4.84796074E-05, 921.162     , 32.19277    , 796.833252  , 2.06        , 3           , 6           , 0           , 0
-0.160209417, 0.124898992 , -9.7929945  , -3.46672023E-05, 8.49614153E-05, 0.0003563962, -0.01284375 , -0.0158297811, 5.2032723E-05, 921.162     , 32.19277    , 796.833557  , 2.07        , 3           , 7           , 0           , 0
-0.14758794 , 0.1344633   , -9.783678   , -0.0004508142, 0.000213367748, -0.000484538963, -0.0128481807, -0.0158277061, 4.715982E-05, 921.162     , 32.19277    , 796.833862  , 2.08        , 3           , 8           , 5           , 5
-0.1406035  , 0.1277821   , -9.794227   , -0.000319416577, -0.000274025137, -0.000171776555, -0.0128513472, -0.0158304684, 4.547723E-05, 921.162     , 32.19277    , 796.834167  , 2.09        , 3           , 9           , 5           , 0.1
-0.149449155, 0.118349195 , -9.802511   , -2.49285949E-06, -0.000353385345, 0.000216058863, -0.0128514068, -0.0158339739, 4.768328E-05, 921.162     , 32.19277    , 796.8345    , 2.1         , 3           , 10          , 0.1         , 0.1
-0.157268852, 0.11510402  , -9.800733   , 0.000350683025, 0.0003009841, -0.000238233333, -0.01284937 , -0.0158322547, 4.52861059E-05, 921.162     , 32.19277    , 796.7992    , 2.11        , 3           , 11          , 0.008050175 , 0.008050173
-0.158640176, 0.123999223 , -9.797497   , -0.000244606, 0.000186434714, 0.000255400169, -0.0128518566, -0.0158303566, 4.78161855E-05, 921.162     , 32.19277    , 796.7993    , 2.12        , 3           , 12          , 0.174643889 , 0
-0.160814509, 0.12609902  , -9.789423   , 0.00027850538, -0.000182399061, 0.000147369879, -0.0128490962, -0.0158321615, 4.931336E-05, 921.1059    , 32.1922951  , 796.799438  , 2.13        , 3           , 13          , 0           , 0
-0.152861729, 0.126998037 , -9.797933   , 0.0003736053, 0.0001424562, 0.000205494754, -0.0128453914, -0.01583071 , 5.13500381E-05, 921.1059    , 32.1922951  , 796.799561  , 2.14        , 3           , 14          , -0.0007369087, -0.000788703444
-0.147094935, 0.130399674 , -9.79550648 , 0.0003245349, -0.000114662864, 1.85424724E-05, -0.01284215 , -0.0158318542, 5.15502E-05 , 921.1059    , 32.1922951  , 796.7997    , 2.15        , 3           , 15          , 0           , -0.00016735206
-0.156869918, 0.1231821   , -9.788323   , 0.000517662265, -0.0001022612, -0.000470629282, -0.0128369  , -0.0158329364, 4.68569451E-05, 921.1059    , 32.1922951  , 796.7998    , 2.16        , 3           , 16          , 0           , 1.401298E-45
-0.160351127, 0.1355369   , -9.795851   , 0.0006850356, -0.000178147224, -8.841918E-06, -0.0128300488, -0.0158347227, 4.67914033E-05, 921.1059    , 32.1922951  , 796.7999    , 2.17        , 3           , 20          , 0           , 0
-0.149081022, 0.129854    , -9.801987   , -3.57414829E-05, -0.000210541068, -0.000132218789, -0.0128303859, -0.0158368424, 4.54962E-05 , 921.1059    , 32.1922951  , 796.800049  , 2.18        , 3           , 21          , 0           , 0
-0.15129146 , 0.131302536 , -9.793598   , -0.0003148254, -0.00018629845, -0.000193964952, -0.012833504, -0.0158387329, 4.35804177E-05, 921.1059    , 32.1922951  , 796.8002    , 2.19        , 3           , 22          , 0           , 0
-0.15230456 , 0.139410764 , -9.795976   , 0.000173593 , 5.11027756E-05, 0.0002741572, -0.0128318118, -0.0158381835, 4.631548E-05, 921.1059    , 32.1922951  , 796.8003    , 2.2         , 3           , 40          , 0           , 0
-0.149811476, 0.141622156 , -9.794658   , -0.000261002278, 1.00026373E-05, 7.57415546E-06, -0.0128386719, -0.0158372782, 4.64572367E-05, 921.1059    , 32.1922951  , 796.8395    , 2.21        , 3           , 41          , 0           , 0
-0.1553177  , 0.124696411 , -9.791762   , 8.483883E-05, 0.000188815407, 0.0005074291, -0.0128379036, -0.0158353262, 5.15073771E-05, 921.1059    , 32.1922951  , 796.839844  , 2.22        , 3           , 42          , 0           , 0
-0.152113631, 0.125603825 , -9.788795   , 0.000460358162, 3.36456578E-05, 0.0005959031, -0.0128333941, -0.0158349127, 5.74622E-05 , 921.1453    , 32.1922264  , 796.8402    , 2.23        , 3           , 255         , 0           , 0
-0.14980197 , 0.123275    , -9.793991   , 0.000258489454, 0.000140037679, 0.0006682371, -0.0128309159, -0.01583343 , 6.412673E-05, 921.1453    , 32.1922264  , 796.8406    , 2.24        , 3           , 255         , 0           , 0
-0.156854868, 0.128719568 , -9.796321   , -0.000137525552, -0.0001448493, 0.0005097535, -0.0128323724, -0.01583481 , 6.924294E-05, 921.1453    , 32.1922264  , 796.840942  , 2.25        , 3           , 255         , 0           , 0
-0.153369218, 0.128624052 , -9.784865   , 0.00033715216, -5.505205E-05, 0.0008530435, -0.0128291361, -0.0158352517, 7.77806054E-05, 921.1453    , 32.1922264  , 796.8413    , 2.26        , 3           , 255         , 0           , 0
-0.149388865, 0.1320072   , -9.783252   , 0.000210637983, 0.000323260145, -0.000110987894, -0.0128270108, -0.015832033, 7.662922E-05, 921.1453    , 32.1922264  , 796.8417    , 2.27        , 3           , 255         , 0           , 0
-0.156298786, 0.1314925   , -9.78893852 , 0.000368683337, 1.15099829E-05, -0.000608574832, -0.0128232287, -0.0158319958, 7.054188E-05, 921.1453    , 32.1922264  , 796.842041  , 2.28        , 3           , 255         , 0           , 0
-0.1508403  , 0.135887966 , -9.790747   , -0.000206320721, -0.000357470824, -0.0009771549, -0.0128251379, -0.015835695, 6.0816008E-05, 921.1453    , 32.1922264  , 796.8424    , 2.29        , 3           , 255         , 0           , 0
-0.153335363, 0.132080361 , -9.793146   , -0.000403438054, -0.0007475428, -0.000285076152, -0.0128291268, -0.0158432052, 5.806108E-05, 921.1453    , 32.1922264  , 796.8428    , 2.3         , 3           , 255         , 0           , 0
-0.161407173, 0.122563742 , -9.796694   , -0.00052679237, -0.0008052627, -6.480262E-05, -0.0128461216, -0.0158454981, 5.770229E-05, 921.1453    , 32.1922264  , 796.826355  , 2.31        , 3           , 255         , 0           , 0
-0.15473032 , 0.128326565 , -9.794153   , -0.000487841084, -0.0006623373, 4.36015544E-05, -0.0128510082, -0.0158521123, 5.82234134E-05, 921.1453    , 32.1922264  , 796.82666   , 2.32        , 3           , 255         , 0           , 0
-0.153830692, 0.1314028   , -9.798144   , -4.354713E-05, -0.000176339992, 6.16485559E-05, -0.0128514534, -0.0158538688, 5.88625771E-05, 921.1283    , 32.19494    , 796.826965  , 2.33        , 3           , 255         , 0           , 0
-0.162970737, 0.125744015 , -9.789492   , 0.000166727987, 7.26151047E-05, 0.0006062131, -0.0128498832, -0.0158530623, 6.491549E-05, 921.1283    , 32.19494    , 796.8273    , 2.34        , 3           , 255         , 0           , 0
-0.157400519, 0.124379493 , -9.792223   , 0.00130667561, 0.000266238232, 0.0002613678, -0.0128368577, -0.0158503652, 6.749501E-05, 921.1283    , 32.19494    , 796.8276    , 2.35        , 3           , 255         , 0           , 0
-0.151459262, 0.1291872   , -9.786634   , 2.15505133E-05, 0.00013906759, -0.000372683367, -0.012836583, -0.0158490222, 6.375026E-05, 921.1283    , 32.19494    , 796.8279    , 2.36        , 3           , 255         , 0           , 0
-0.159662709, 0.1152336   , -9.784041   , -3.0410185E-05, -9.84115759E-05, -0.000303127948, -0.0128368391, -0.0158500448, 6.07315633E-05, 921.1283    , 32.19494    , 796.8282    , 2.37        , 3           , 255         , 0           , 0
-0.153653651, 0.127309427 , -9.787376   , 3.33995558E-07, 0.000144275138, -0.000402520964, -0.0128367711, -0.0158486534, 5.66877643E-05, 921.1283    , 32.19494    , 796.8285    , 2.38        , 3           , 255         , 0           , 0
-0.155208752, 0.130105689 , -9.791881   , -0.000457670656, 0.0005619791, -0.0005469138, -0.012841261, -0.0158431046, 5.11463622E-05, 921.1283    , 32.19494    , 796.8288    , 2.39        , 3           , 255         , 0           , 0
-0.15828687 , 0.127030641 , -9.789391   , 0.000339107733, 3.89723E-05 , 0.000263425754, -0.01283791 , -0.0158426855, 5.377567E-05, 921.1283    , 32.19494    , 796.8291    , 2.4         , 3           , 255         , 0           , 0
-0.157472342, 0.122872233 , -9.791464   , 0.000594076642, 7.31665059E-05, -0.000145571117, -0.0128328493, -0.0158457924, 5.23248054E-05, 921.1283    , 32.19494    , 796.8367    , 2.41        , 3           , 255         , 0           , 0
-0.157519534, 0.128547877 , -9.794535   , 0.0008717435, -0.000280055625, 0.000218667992, -0.0128241656, -0.015848564, 5.454745E-05, 921.1283    , 32.19494    , 796.837036  , 2.42        , 3           , 255         , 0           , 0
-0.153352052, 0.12845552  , -9.793005   , 0.000363745727, -2.0163774E-05, -0.000225616983, -0.0128204953, -0.015848795, 5.229384E-05, 921.127869  , 32.1973152  , 796.8374    , 2.43        , 3           , 255         , 0           , 0
-0.156288743, 0.129527748 , -9.800278   , 0.000294373516, 0.0002538811, -0.0004355518, -0.0128174815, -0.015846312, 4.79056835E-05, 921.127869  , 32.1973152  , 796.837769  , 2.44        , 3           , 255         , 0           , 0
-0.1538896  , 0.130683392 , -9.792013   , -6.451551E-05, 0.000301516731, -2.95245263E-06, -0.012818126, -0.0158433  , 4.7837515E-05, 921.127869  , 32.1973152  , 796.838135  , 2.45        , 3           , 255         , 0           , 0
-0.152946666, 0.132716462 , -9.786177   , -0.000171421387, -6.0498598E-05, 0.000608823 , -0.0128199365, -0.0158438236, 5.3933607E-05, 921.127869  , 32.1973152  , 796.8385    , 2.46        , 3           , 255         , 0           , 0
-0.152190924, 0.1309549   , -9.796589   , 0.0006137185, 6.2231964E-05, 0.0004259359, -0.012813868, -0.0158431455, 5.818506E-05, 921.127869  , 32.1973152  , 796.838867  , 2.47        , 3           , 255         , 0           , 0
-0.168216377, 0.127043158 , -9.790833   , 0.0005112528, -0.000104208419, 0.000273663754, -0.0128087979, -0.0158441514, 6.09351118E-05, 921.127869  , 32.1973152  , 796.839233  , 2.48        , 3           , 255         , 0           , 0
-0.158022031, 0.1283807   , -9.794813   , 0.0004071725, -0.000105548534, 0.00021463263, -0.0128047606, -0.01584518 , 6.309498E-05, 921.127869  , 32.1973152  , 796.8396    , 2.49        , 3           , 255         , 0           , 0
-0.151124746, 0.128723055 , -9.786748   , 0.000271509227, -9.105046E-05, 0.000208937592, -0.0128020784, -0.0158460643, 6.51960654E-05, 921.127869  , 32.1973152  , 796.839966  , 2.5         , 3           , 255         , 0           , 0
-0.16421324 , 0.132909924 , -9.79462051 , -0.000564252958, -0.000407641579, -0.000624858658, -0.0128142452, -0.01585208 , 5.91045173E-05, 921.127869  , 32.1973152  , 796.846558  , 2.51        , 3           , 255         , 0           , 0
-0.16715689 , 0.125910759 , -9.791042   , -0.000145134691, -0.000128173444, -0.000152527879, -0.0128156729, -0.0158533826, 5.759563E-05, 921.127869  , 32.1973152  , 796.8469    , 2.52        , 3           , 255         , 0           , 0
-0.157782644, 0.13228479  , -9.795048   , -0.00011703372, -0.0004971731, -0.000497763045, -0.0128167635, -0.0158584137, 5.268163E-05, 921.146545  , 32.1946     , 796.8473    , 2.53        , 3           , 255         , 0           , 0
-0.1569499  , 0.1281267   , -9.797269   , -5.43841161E-05, -3.604847E-05, -4.400572E-06, -0.0128173074, -0.0158587769, 5.26422518E-05, 921.146545  , 32.1946     , 796.8477    , 2.54        , 3           , 255         , 0           , 0
-0.159242958, 0.133279771 , -9.791586   , -0.000328016, -0.000131371955, 0.0002095666, -0.012820622, -0.0158600621, 5.4754797E-05, 921.146545  , 32.1946     , 796.848145  , 2.55        , 3           , 255         , 0           , 0
-0.157209784, 0.129264742 , -9.781881   , -0.000126953877, -9.03810142E-05, 0.0005490205, -0.0128219761, -0.0158608966, 6.025669E-05, 921.146545  , 32.1946     , 796.8486    , 2.56        , 3           , 255         , 0           , 0
-0.160755545, 0.1236437   , -9.788556   , 0.0006375092, 6.821245E-05, -0.000378687953, -0.0128155435, -0.0158602614, 5.64609945E-05, 921.146545  , 32.1946     , 796.849     , 2.57        , 3           , 255         , 0           , 0
-0.161884859, 0.128429919 , -9.793409   , 0.0003040084, 5.062786E-06, 0.000320240215, -0.0128125539, -0.01586017 , 5.96628124E-05, 921.146545  , 32.1946     , 796.8494    , 2.58        , 3           , 255         , 0           , 0
-0.152324989, 0.134971589 , -9.797489   , 0.0004665622, 0.000197992253, 0.000555620936, -0.0128079755, -0.01585812 , 6.51937662E-05, 921.146545  , 32.1946     , 796.849854  , 2.59        , 3           , 255         , 0           , 0
-0.155992165, 0.131575182 , -9.79273    , 0.000421716482, 0.000172032393, -0.000473819819, -0.0128036849, -0.0158564616, 6.043345E-05, 921.146545  , 32.1946     , 796.8503    , 2.6         , 3           , 255         , 0           , 0
-0.15032202 , 0.13271305  , -9.792186   , 0.000152292545, 9.40563041E-05, 0.000499668531, -0.0128113376, -0.0158635844, 6.55625045E-05, 921.146545  , 32.1946     , 796.830444  , 2.61        , 3           , 255         , 0           , 0
-0.152749255, 0.130862087 , -9.796885   , 3.8046448E-05, 9.23046E-05 , 0.00013321286, -0.0128109781, -0.0158626437, 6.68828361E-05, 921.146545  , 32.1946     , 796.83075   , 2.62        , 3           , 255         , 0           , 0
-0.15937373 , 0.128656268 , -9.785129   , -0.00020948 , 0.000341768144, -0.0004097466, -0.0128130084, -0.01585928 , 6.274151E-05, 921.101868  , 32.19277    , 796.831055  , 2.63        , 3           , 255         , 0           , 0
-0.1564705  , 0.1326853   , -9.790535   , -6.379781E-05, 5.44078648E-06, -0.000457019545, -0.0128135746, -0.0158592835, 5.81705353E-05, 921.101868  , 32.19277    , 796.83136   , 2.64        , 3           , 255         , 0           , 0
-0.148960128, 0.127507478 , -9.791066   , -0.0002043689, 0.000136920658, 0.000414598966, -0.0128156831, -0.0158578642, 6.22990556E-05, 921.101868  , 32.19277    , 796.831665  , 2.65        , 3           , 255         , 0           , 0
-0.156049669, 0.119799137 , -9.787943   , 7.733365E-05, 0.00022163929, 0.000138541873, -0.0128149316, -0.01585563 , 6.365609E-05, 921.101868  , 32.19277    , 796.832     , 2.66        , 3           , 255         , 0           , 0
-0.1477073  , 0.126164421 , -9.788284   , 0.00022800325, 0.000114000577, 0.0004890602, -0.012812729, -0.0158544276, 6.853218E-05, 921.101868  , 32.19277    , 796.8323    , 2.67        , 3           , 255         , 0           , 0
-0.151245639, 0.12285956  , -9.7915535  , 0.00060879963, 9.866507E-05, 0.000135517068, -0.0128066642, -0.0158534274, 6.98747463E-05, 921.101868  , 32.19277    , 796.8326    , 2.68        , 3           , 255         , 0           , 0
-0.152231023, 0.1207221   , -9.792019   , 0.000633719552, -0.000202247, 0.00040930917, -0.0128003927, -0.0158553924, 7.39938041E-05, 921.101868  , 32.19277    , 796.8329    , 2.69        , 3           , 255         , 0           , 0
-0.159245923, 0.1243477   , -9.78681    , -0.000212513318, 0.0003859395, 0.000263136026, -0.012802558, -0.0158515  , 7.657581E-05, 921.101868  , 32.19277    , 796.8332    , 2.7         , 3           , 255         , 0           , 0
-0.164395869, 0.121275529 , -9.795314   , -7.964036E-05, 0.0007287591, -0.0002959795, -0.012806044, -0.0158399083, 7.35660142E-05, 921.101868  , 32.19277    , 796.8768    , 2.71        , 3           , 255         , 0           , 0
-0.159335822, 0.131477326 , -9.791868   , 0.0003408225, 0.000103297469, -0.00017981742, -0.0128026083, -0.0158389024, 7.175459E-05, 921.101868  , 32.19277    , 796.8773    , 2.72        , 3           , 255         , 0           , 0
-0.151788086, 0.140699312 , -9.789843   , 0.000365214073, -0.000338338257, -0.000146228165, -0.0127989352, -0.0158423  , 7.033559E-05, 921.1411    , 32.19433    , 796.877869  , 2.73        , 3           , 255         , 0           , 0
-0.151592612, 0.1268673   , -9.788348   , 0.000331441959, 0.0002905308, -0.0006030421, -0.0127955247, -0.01583947 , 6.426788E-05, 921.1411    , 32.19433    , 796.8784    , 2.74        , 3           , 255         , 0           , 0
-0.150630444, 0.125013933 , -9.790453   , 0.000332758762, 0.000221888651, 0.000141774581, -0.0127922194, -0.0158372317, 6.56572738E-05, 921.1411    , 32.19433    , 796.878967  , 2.75        , 3           , 255         , 0           , 0
-0.1517119  , 0.126539424 , -9.791544   , 0.0005855403, -2.52735917E-05, 0.000205130782, -0.0127863968, -0.0158374626, 6.771185E-05, 921.1411    , 32.19433    , 796.8795    , 2.76        , 3           , 255         , 0           , 0
-0.155517578, 0.125191391 , -9.797354   , 0.000372029172, 0.000214250234, -0.00035661296, -0.0127826193, -0.0158353653, 6.411828E-05, 921.1411    , 32.19433    , 796.8801    , 2.77        , 3           , 255         , 0           , 0
-0.160574257, 0.119302548 , -9.783641   , 2.77886284E-05, 0.000433038047, -0.0001347077, -0.0127823194, -0.0158310533, 6.27158151E-05, 921.1411    , 32.19433    , 796.880737  , 2.78        , 3           , 255         , 0           , 0
-0.159221381, 0.121757306 , -9.792372   , 0.00019247242, 0.000357863784, 0.0004254626, -0.0127804633, -0.01582742 , 6.692478E-05, 921.1411    , 32.19433    , 796.881348  , 2.79        , 3           , 255         , 0           , 0
-0.150535911, 0.120906338 , -9.790518   , 0.00012474251, -0.000216408574, -0.000244246447, -0.0127791781, -0.0158296153, 6.450993E-05, 921.1411    , 32.19433    , 796.881958  , 2.8         , 3           , 255         , 0           , 0
-0.149198726, 0.132723182 , -9.796461   , -0.0004959361, -0.0003465762, -4.163626E-05, -0.0127854859, -0.01583401 , 6.415932E-05, 921.1411    , 32.19433    , 796.864563  , 2.81        , 3           , 255         , 0           , 0
-0.15384087 , 0.134835541 , -9.786616   , -0.000580439169, -0.000476815738, 0.000186149235, -0.0127913207, -0.0158387553, 6.608181E-05, 921.1411    , 32.19433    , 796.865051  , 2.82        , 3           , 255         , 0           , 0
-0.161301345, 0.128517091 , -9.790439   , -3.93185765E-05, 0.0002207706, -9.484473E-06, -0.0127917118, -0.0158365462, 6.595873E-05, 921.164734  , 32.1976547  , 796.86554   , 2.83        , 3           , 255         , 0           , 0
-0.160075754, 0.130844429 , -9.783005   , 9.80287441E-05, -0.000143684912, 0.00036017067, -0.0127907889, -0.0158379376, 6.9578884E-05, 921.164734  , 32.1976547  , 796.866     , 2.84        , 3           , 255         , 0           , 0
-0.1487462  , 0.125917628 , -9.795046   , 0.0002905106, -0.0004420249, 0.0002508034, -0.0127879241, -0.0158423241, 7.214349E-05, 921.164734  , 32.1976547  , 796.8665    , 2.85        , 3           , 255         , 0           , 0
-0.162159652, 0.123797081 , -9.800108   , -0.0008871393, 0.0001697347, 1.36617309E-05, -0.0127967969, -0.0158406235, 7.225838E-05, 921.164734  , 32.1976547  , 796.867     , 2.86        , 3           , 255         , 0           , 0
-0.15432547 , 0.126326352 , -9.788622   , -0.000578862557, 0.0002036718, 0.00025519816, -0.0128026251, -0.0158385541, 7.47843442E-05, 921.164734  , 32.1976547  , 796.8675    , 2.87        , 3           , 255         , 0           , 0
-0.154076487, 0.126317665 , -9.793174   , -0.000536333129, -6.39002537E-05, 6.520875E-05, -0.0128079988, -0.0158391856, 7.544462E-05, 921.164734  , 32.1976547  , 796.868     , 2.88        , 3           , 255         , 0           , 0
-0.152060539, 0.133481771 , -9.796045   , -0.000292603218, -0.000187107711, 0.000525703537, -0.0128110088, -0.0158409886, 8.07257238E-05, 921.164734  , 32.1976547  , 796.868469  , 2.89        , 3           , 255         , 0           , 0
-0.145591035, 0.132722527 , -9.803328   , -0.000287353934, 0.000271336641, -9.466775E-05, -0.0128138671, -0.0158382878, 7.974426E-05, 921.164734  , 32.1976547  , 796.868958  , 2.9         , 3           , 255         , 0           , 0
-0.154385313, 0.134579539 , -9.788845   , -0.000155886984, -6.64892141E-05, 5.717548E-05, -0.0128231579, -0.0158371087, 8.044686E-05, 921.164734  , 32.1976547  , 796.8204    , 2.91        , 3           , 255         , 0           , 0
-0.1563635  , 0.129663259 , -9.78535652 , 0.000208196172, -0.000220031245, 0.000502873969, -0.0128211565, -0.0158392452, 8.550391E-05, 921.164734  , 32.1976547  , 796.820557  , 2.92        , 3           , 255         , 0           , 0
-0.146534175, 0.125046313 , -9.795165   , -0.0001533564, 7.112912E-05, 0.0001585885, -0.0128227146, -0.015838515, 8.70807053E-05, 921.1301    , 32.1967735  , 796.82074   , 2.93        , 3           , 255         , 0           , 0
-0.15318428 , 0.120056845 , -9.794268   , -0.0001857559, 1.982716E-05, -0.000127770429, -0.0128245521, -0.0158383325, 8.5800435E-05, 921.1301    , 32.1967735  , 796.8209    , 2.94        , 3           , 255         , 0           , 0
-0.157307416, 0.122168347 , -9.792543   , -9.4024E-05 , -3.765081E-05, 0.000146139966, -0.0128255142, -0.01583869 , 8.726668E-05, 921.1301    , 32.1967735  , 796.8211    , 2.95        , 3           , 255         , 0           , 0
-0.1507435  , 0.124417983 , -9.798704   , 0.000444872276, 0.000360656646, -0.000296846847, -0.0128210187, -0.01583512 , 8.42519148E-05, 921.1301    , 32.1967735  , 796.8213    , 2.96        , 3           , 255         , 0           , 0
-0.153473109, 0.131194964 , -9.796399   , 0.000381107675, -3.41038685E-07, -0.000277151063, -0.012817164, -0.0158351585, 8.148039E-05, 921.1301    , 32.1967735  , 796.8215    , 2.97        , 3           , 255         , 0           , 0
-0.165827215, 0.132682726 , -9.793374   , 5.41658956E-05, 0.000332688156, -0.0003918899, -0.0128165595, -0.0158318821, 7.751879E-05, 921.1301    , 32.1967735  , 796.821655  , 2.98        , 3           , 255         , 0           , 0
-0.165120035, 0.124897406 , -9.794375   , -0.000162323064, 0.000303946319, 0.0001441421, -0.0128182052, -0.01582883 , 7.892128E-05, 921.1301    , 32.1967735  , 796.821838  , 2.99        , 3           , 255         , 0           , 0
-0.161623687, 0.118470192 , -9.794751   , 6.572914E-05, 0.0004256788, 2.39406072E-05, -0.0128175495, -0.0158245657, 7.910611E-05, 921.1301    , 32.1967735  , 796.822     , 3           , 3           , 0           , 8.935237    , 300
-0.160782948, 0.117129482 , -9.793251   , 3.40968254E-05, -0.000236731081, 0.0003859343, -0.012818519, -0.0158292  , 8.301563E-05, 921.1301    , 32.1967735  , 796.8285    , 3.01        , 3           , 1           , 0           , 0
-0.144700259, 0.12279173  , -9.783041   , 0.000311531156, -0.000217333727, 0.000267354539, -0.0128154475, -0.01583134 , 8.571709E-05, 921.1301    , 32.1967735  , 796.828735  , 3.02        , 3           , 2           , 0           , 0
-0.1382048  , 0.126689911 , -9.786543   , -1.39638432E-05, 0.0002352476, 0.0007546963, -0.0128157055, -0.01582889 , 9.323403E-05, 921.1572    , 32.1971779  , 796.829     , 3.03        , 3           , 3           , 0           , 0
-0.1462052  , 0.134731889 , -9.795759   , -0.000353903626, 0.000356382341, 0.0005636779, -0.012819333, -0.0158252548, 9.88252359E-05, 921.1572    , 32.1971779  , 796.8292    , 3.04        , 3           , 4           , 0           , 0
-0.157106668, 0.142182961 , -9.79057    , -0.000302745146, 4.53914981E-05, -0.000175054316, -0.0128223319, -0.0158248227, 9.706884E-05, 921.1572    , 32.1971779  , 796.829468  , 3.05        , 3           , 5           , 0           , 0
-0.162141591, 0.147062957 , -9.788763   , -0.000231642742, -0.000275483762, 1.25892548E-05, -0.0128246518, -0.0158275757, 9.723005E-05, 921.1572    , 32.1971779  , 796.8297    , 3.06        , 3           , 6           , 0           , 0
-0.161332756, 0.149765655 , -9.791956   , -6.77926E-05, -0.000390887784, 0.000231914513, -0.012825367, -0.0158314519, 9.95993541E-05, 921.1572    , 32.1971779  , 796.829956  , 3.07        , 3           , 7           , 0           , 0
-0.157426879, 0.141015723 , -9.792485   , 0.000362950115, -0.0007247858, 5.959852E-05, -0.012821747, -0.015838692, 0.000100288307, 921.1572    , 32.1971779  , 796.8302    , 3.08        , 3           , 8           , 5           , 5
-0.14847146 , 0.124883451 , -9.789346   , 4.23440943E-05, 1.89639977E-05, -0.000486404344, -0.0128212469, -0.0158385653, 9.542175E-05, 921.1572    , 32.1971779  , 796.830444  , 3.09        , 3           , 9           , 5           , 0.1
-0.16254124 , 0.112643458 , -9.79097    , -0.000223041745, 0.000259898778, 0.0005107545, -0.0128235584, -0.0158359  , 0.00010049605, 921.1572    , 32.1971779  , 796.8307    , 3.1         , 3           , 10          , 0.1         , 0.1
-0.149897873, 0.09596665  , -9.792392   , 0.000242267328, -0.000372132927, 3.83437146E-05, -0.0128349112, -0.0158373043, 0.00010114527, 921.1572    , 32.1971779  , 796.7974    , 3.11        , 3           , 11          , 0.007296953 , 0.00729694963
-0.146347925, 0.10669376  , -9.783145   , 0.0005465449, -0.000471344159, -0.000874421152, -0.0128293093, -0.01584213 , 9.24613851E-05, 921.1572    , 32.1971779  , 796.7975    , 3.12        , 3           , 12          , 0.174645633 , 0
-0.138767928, 0.100699946 , -9.793265   , 0.000232545019, 0.000377601827, -0.0001689395, -0.0128269568, -0.0158383772, 9.072353E-05, 921.1279    , 32.196907   , 796.797546  , 3.13        , 3           , 13          , 0           , 0
-0.140724927, 0.107651792 , -9.794193   , 8.838595E-05, 0.000460723 , -3.57859244E-05, -0.0128260665, -0.0158337746, 9.03065738E-05, 921.1279    , 32.196907   , 796.7976    , 3.14        , 3           , 14          , -0.0007366628, -0.0007886957
-0.148765445, 0.1185071   , -9.78906    , 0.000392114627, 1.66579848E-05, 0.0006334459, -0.0128222452, -0.0158335268, 9.663901E-05, 921.1279    , 32.196907   , 796.797668  , 3.15        , 3           , 15          , 0           , -0.000167355814
-0.1656121  , 0.124089561 , -9.790548   , 0.00022487744, -0.000143468613, 0.0008788668, -0.0128201367, -0.0158348475, 0.000105446234, 921.1279    , 32.196907   , 796.7977    , 3.16        , 3           , 16          , 0           , 1.401298E-45
-0.161747232, 0.133105889 , -9.789555   , 0.000304448127, -0.000425641134, 0.000236748529, -0.01281713 , -0.0158390757, 0.000107868327, 921.1279    , 32.196907   , 796.7978    , 3.17        , 3           , 20          , 0           , 0
-0.1625885  , 0.137512863 , -9.7907505  , 0.0002683763, -4.50926E-05, 0.0009181311, -0.0128145935, -0.0158394072, 0.000117055584, 921.1279    , 32.196907   , 796.797852  , 3.18        , 3           , 21          , 0           , 0
-0.157821625, 0.133679837 , -9.795546   , -2.488523E-05, -5.86949755E-05, 0.000112084046, -0.0128148608, -0.0158399791, 0.000118183954, 921.1279    , 32.196907   , 796.7979    , 3.19        , 3           , 22          , 0           , 0
-0.148142651, 0.1293269   , -9.798441   , 0.0005742488, -0.000165763253, -0.0002997456, -0.0128090717, -0.0158416722, 0.000115207709, 921.1279    , 32.196907   , 796.798     , 3.2         , 3           , 40          , 0           , 0
-0.14436841 , 0.134850591 , -9.789595   , 0.0004869675, 0.000326441368, 0.000327906338, -0.0127910357, -0.01583254 , 0.000118235745, 921.1279    , 32.196907   , 796.8108    , 3.21        , 3           , 41          , 0           , 0
-0.150496751, 0.137067154 , -9.794443   , 0.000384066137, 0.000422832876, 0.0002912034, -0.0127872415, -0.0158282742, 0.000121093763, 921.1279    , 32.196907   , 796.8109    , 3.22        , 3           , 42          , 0           , 0
-0.149123386, 0.1419967   , -9.786929   , 0.000531306257, 0.0005080196, 1.7051585E-05, -0.01278193 , -0.0158231929, 0.000121199322, 921.128662  , 32.1951447  , 796.811035  , 3.23        , 3           , 255         , 0           , 0
-0.152793765, 0.128736749 , -9.785164   , 0.000573846744, 0.0001980695, 0.0005250537, -0.0127762752, -0.0158211458, 0.000126424653, 921.128662  , 32.1951447  , 796.811157  , 3.24        , 3           , 255         , 0           , 0
-0.156313628, 0.12786606  , -9.788055   , -0.000283674046, 9.56462463E-05, 0.00018159  , -0.0127791408, -0.0158201661, 0.000128228363, 921.128662  , 32.1951447  , 796.8113    , 3.25        , 3           , 255         , 0           , 0
-0.1599792  , 0.1317704   , -9.781368   , 0.000205608259, -1.35783921E-05, -1.52082939E-05, -0.0127770817, -0.0158203021, 0.000128078012, 921.128662  , 32.1951447  , 796.8114    , 3.26        , 3           , 255         , 0           , 0
-0.154329821, 0.124437436 , -9.783181   , 0.000326032372, 7.731689E-05, 0.0009603259, -0.0127739748, -0.015819408, 0.000137671581, 921.128662  , 32.1951447  , 796.8115    , 3.27        , 3           , 255         , 0           , 0
-0.145149231, 0.120710194 , -9.792093   , -0.0004365127, 0.000227676355, 0.000142042176, -0.0127783613, -0.0158171114, 0.000139062919, 921.128662  , 32.1951447  , 796.811646  , 3.28        , 3           , 255         , 0           , 0
-0.15280889 , 0.130440608 , -9.790995   , 0.000145032653, 0.000354684773, -0.000209853228, -0.0127768777, -0.015813591, 0.000136919043, 921.128662  , 32.1951447  , 796.811768  , 3.29        , 3           , 255         , 0           , 0
-0.15663293 , 0.131600723 , -9.796278   , -4.29462525E-05, -0.000253263, -0.0006024716, -0.0127772121, -0.0158162  , 0.000130926564, 921.128662  , 32.1951447  , 796.8119    , 3.3         , 3           , 255         , 0           , 0
-0.145370632, 0.1283266   , -9.790107   , -7.33847846E-05, -0.00066018285, -0.000853390433, -0.0127917295, -0.0158165172, 0.000122696962, 921.128662  , 32.1951447  , 796.821533  , 3.31        , 3           , 255         , 0           , 0
-0.1418517  , 0.121227048 , -9.788979   , -3.42961866E-05, -3.90521E-05, -0.000121540157, -0.0127920536, -0.0158169214, 0.000121486526, 921.128662  , 32.1951447  , 796.8217    , 3.32        , 3           , 255         , 0           , 0
-0.1574593  , 0.128899679 , -9.785134   , 0.00028976897, -0.0001213107, -0.000164710189, -0.0127891311, -0.0158181563, 0.000119854914, 921.1323    , 32.1979256  , 796.8219    , 3.33        , 3           , 255         , 0           , 0
-0.15557757 , 0.131387457 , -9.782941   , 0.000129386841, -0.0006413982, 0.00039722427, -0.0127879009, -0.01582452 , 0.000123909267, 921.1323    , 32.1979256  , 796.8221    , 3.34        , 3           , 255         , 0           , 0
-0.155812651, 0.156348661 , -9.791008   , -2.89792079E-05, -0.000165347359, 0.00126971956, -0.0127883917, -0.0158260074, 0.00013662783, 921.1323    , 32.1979256  , 796.822266  , 3.35        , 3           , 255         , 0           , 0
-0.151463538, 0.168873742 , -9.796549   , 0.000137851923, 0.000310487 , -0.0004763227, -0.0127869388, -0.0158229675, 0.000131824825, 921.1323    , 32.1979256  , 796.822449  , 3.36        , 3           , 255         , 0           , 0
-0.155077785, 0.16631338  , -9.800317   , -7.621577E-05, 0.000167029561, -0.0008720597, -0.0127875628, -0.0158214066, 0.0001230827, 921.1323    , 32.1979256  , 796.822632  , 3.37        , 3           , 255         , 0           , 0
-0.15740408 , 0.143873528 , -9.790286   , -0.000239858869, 0.0002893149, -0.000304930581, -0.0127899116, -0.0158185512, 0.00011999633, 921.1323    , 32.1979256  , 796.8228    , 3.38        , 3           , 255         , 0           , 0
-0.1607441  , 0.12041682  , -9.791999   , -5.766924E-05, 6.10270072E-05, -0.000523151248, -0.0127904043, -0.0158180073, 0.0001147569, 921.1323    , 32.1979256  , 796.823059  , 3.39        , 3           , 255         , 0           , 0
-0.1386967  , 0.09667072  , -9.795225   , -0.00024282519, -0.000233005791, -0.000660793041, -0.0127927288, -0.0158204231, 0.000108178669, 921.1323    , 32.1979256  , 796.8233    , 3.4         , 3           , 255         , 0           , 0
-0.14348264 , 0.09781251  , -9.783561   , -9.22702E-06, 0.00025356916, -8.444274E-05, -0.0128135579, -0.0158121865, 0.000107629872, 921.1323    , 32.1979256  , 796.826355  , 3.41        , 3           , 255         , 0           , 0
-0.167240486, 0.09988989  , -9.791765   , -0.000298738654, 4.965026E-05, -0.000137573326, -0.0128165213, -0.0158117078, 0.000106247753, 921.1323    , 32.1979256  , 796.8266    , 3.42        , 3           , 255         , 0           , 0
-0.171060085, 0.0976856947, -9.788304   , 2.60399538E-05, -0.0003739894, 3.21419939E-05, -0.0128162662, -0.0158154443, 0.00010661711, 921.164734  , 32.19806    , 796.826843  , 3.43        , 3           , 255         , 0           , 0
-0.1582491  , 0.116553307 , -9.783429   , 5.15549327E-05, 8.404534E-05, -0.0004682056, -0.0128156766, -0.0158146638, 0.0001019242, 921.164734  , 32.19806    , 796.8271    , 3.44        , 3           , 255         , 0           , 0
-0.142268181, 0.129817352 , -9.790539   , -0.000133742171, 0.0005430577, -0.000972419453, -0.0128168585, -0.01580936 , 9.213021E-05, 921.164734  , 32.19806    , 796.827332  , 3.45        , 3           , 255         , 0           , 0
-0.143037289, 0.141971767 , -9.79879951 , 7.475546E-05, -2.05272227E-05, -0.000370519934, -0.0128160529, -0.0158096086, 8.842757E-05, 921.164734  , 32.19806    , 796.8276    , 3.46        , 3           , 255         , 0           , 0
-0.138955176, 0.143768042 , -9.793882   , 4.4053013E-05, 6.365386E-05, 4.827811E-05, -0.01281562 , -0.0158089679, 8.89022049E-05, 921.164734  , 32.19806    , 796.8278    , 3.47        , 3           , 255         , 0           , 0
-0.155744329, 0.147193715 , -9.79504    , 0.000211889157, -0.000175873109, 0.000191959916, -0.0128135309, -0.015810702, 9.08443762E-05, 921.164734  , 32.19806    , 796.828064  , 3.48        , 3           , 255         , 0           , 0
-0.162051752, 0.141584441 , -9.790967   , 8.075818E-05, -0.000376252981, -0.0003930594, -0.0128126619, -0.015814513, 8.696193E-05, 921.164734  , 32.19806    , 796.8283    , 3.49        , 3           , 255         , 0           , 0
-0.161803439, 0.136766583 , -9.789102   , 0.000425877428, -0.000218299625, -0.000185430123, -0.012808376, -0.01581672 , 8.513556E-05, 921.164734  , 32.19806    , 796.828552  , 3.5         , 3           , 255         , 0           , 0
-0.16201289 , 0.129264146 , -9.792423   , 0.000183332537, -0.0002945764, 0.000252213737, -0.0128062228, -0.0158187672, 8.76898048E-05, 921.164734  , 32.19806    , 796.7849    , 3.51        , 3           , 255         , 0           , 0
-0.168533951, 0.123513937 , -9.792085   , -5.70474076E-05, -0.000116976094, 0.000670730835, -0.0128068989, -0.0158198513, 9.44122E-05 , 921.164734  , 32.19806    , 796.7849    , 3.52        , 3           , 255         , 0           , 0
-0.158438221, 0.124282859 , -9.790937   , 0.000188292 , 0.000146188831, -1.91586878E-05, -0.012805013, -0.015818391, 9.420189E-05, 921.131653  , 32.1941261  , 796.7849    , 3.53        , 3           , 255         , 0           , 0
-0.136105031, 0.143096447 , -9.791493   , -0.000387647829, 0.000286787632, 0.000516817148, -0.01280897 , -0.01581546 , 9.933343E-05, 921.131653  , 32.1941261  , 796.7849    , 3.54        , 3           , 255         , 0           , 0
-0.1346226  , 0.15612413  , -9.798624   , -0.0003244016, 2.60358211E-05, 0.000159916774, -0.01281224 , -0.0158151779, 0.0001009293, 921.131653  , 32.1941261  , 796.7849    , 3.55        , 3           , 255         , 0           , 0
-0.1531482  , 0.144098476 , -9.798082   , -3.12434859E-05, 0.00018930895, -0.0004487069, -0.0128124794, -0.0158133432, 9.641789E-05, 921.131653  , 32.1941261  , 796.7849    , 3.56        , 3           , 255         , 0           , 0
-0.185666   , 0.123527646 , -9.797207   , 0.000113191723, 5.196582E-05, 0.000453422021, -0.01281142 , -0.0158127639, 0.00010094553, 921.131653  , 32.1941261  , 796.7849    , 3.57        , 3           , 255         , 0           , 0
-0.168336526, 0.105775759 , -9.798012   , -4.893518E-07, -7.70262E-06, 0.000534311752, -0.012811508, -0.0158127733, 0.000106289721, 921.131653  , 32.1941261  , 796.7849    , 3.58        , 3           , 255         , 0           , 0
-0.146060243, 0.103708327 , -9.795118   , 0.000244653784, -0.000285333139, 0.000120981022, -0.0128090819, -0.0158156119, 0.000107536107, 921.131653  , 32.1941261  , 796.7849    , 3.59        , 3           , 255         , 0           , 0
-0.138253585, 0.113080308 , -9.793594   , 0.0005059008, -0.0003749422, 0.000315038924, -0.0128040733, -0.01581932 , 0.000110734589, 921.131653  , 32.1941261  , 796.7849    , 3.6         , 3           , 255         , 0           , 0
-0.1442452  , 0.1229491   , -9.786926   , 5.682942E-05, -0.000135060633, 0.000187478348, -0.0128052123, -0.0158209149, 0.000112653237, 921.131653  , 32.1941261  , 796.7943    , 3.61        , 3           , 255         , 0           , 0
-0.154500484, 0.113995351 , -9.793886   , 0.000104519655, 0.0001222277, 5.821293E-05, -0.0128041767, -0.0158196855, 0.000113219743, 921.131653  , 32.1941261  , 796.7944    , 3.62        , 3           , 255         , 0           , 0
-0.1341434  , 0.148308277 , -9.794107   , 0.0005876663, -8.83506145E-05, 0.000203326956, -0.0127983326, -0.0158205424, 0.000115264345, 921.148132  , 32.1975861  , 796.794434  , 3.63        , 3           , 255         , 0           , 0
-0.114479937, 0.162038341 , -9.80026    , 0.000427961437, -0.00020758796, -5.13233826E-05, -0.0127940448, -0.0158226229, 0.000114777664, 921.148132  , 32.1975861  , 796.7945    , 3.64        , 3           , 255         , 0           , 0
-0.149843037, 0.173124716 , -9.801988   , 0.0005308259, 2.60234228E-05, -0.000428373372, -0.0127886692, -0.0158224218, 0.000110490531, 921.148132  , 32.1975861  , 796.794556  , 3.65        , 3           , 255         , 0           , 0
-0.227497786, 0.100088105 , -9.79743    , 0.000182655058, -0.000160360709, -0.0004539028, -0.0127867721, -0.0158240814, 0.000105971907, 921.148132  , 32.1975861  , 796.7946    , 3.66        , 3           , 255         , 0           , 0
-0.2611025  , 0.06487156  , -9.780083   , -0.000196830544, -0.000369696179, -0.00056139857, -0.0127886515, -0.01582785 , 0.000100405086, 921.148132  , 32.1975861  , 796.7947    , 3.67        , 3           , 255         , 0           , 0
-0.171238512, 0.115314625 , -9.774703   , -0.0008275207, -0.000446634716, -0.000361663318, -0.0127968686, -0.015832359, 9.684551E-05, 921.148132  , 32.1975861  , 796.794739  , 3.68        , 3           , 255         , 0           , 0
-0.0592871122, 0.154147953 , -9.806936   , -0.00055822 , -0.0001289703, 0.000787806348, -0.0128025757, -0.0158335436, 0.000104740218, 921.148132  , 32.1975861  , 796.7948    , 3.69        , 3           , 255         , 0           , 0
-0.07989019 , 0.134440273 , -9.813485   , 0.000173425011, -1.927896E-05, -0.000826803152, -0.01280071 , -0.0158338435, 9.647452E-05, 921.148132  , 32.1975861  , 796.794861  , 3.7         , 3           , 255         , 0           , 0
-0.172673509, 0.09745804  , -9.786833   , 0.000668135239, 0.0006774579, -0.0007840497, -0.0127990423, -0.0158195626, 8.862844E-05, 921.148132  , 32.1975861  , 796.7795    , 3.71        , 3           , 255         , 0           , 0
-0.21175532 , 0.07829287  , -9.794263   , 0.000314684759, -0.000126502826, 0.0007019369, -0.0127960062, -0.0158207379, 9.566412E-05, 921.148132  , 32.1975861  , 796.7795    , 3.72        , 3           , 255         , 0           , 0
-0.128583938, 0.116154172 , -9.783932   , 3.83105944E-05, -0.0006038036, 0.00184962421, -0.0127959168, -0.0158265363, 0.000114237955, 921.0839    , 32.1967049  , 796.7795    , 3.73        , 3           , 255         , 0           , 0
-0.0947008058, 0.151222676 , -9.801466   , -0.0008104961, 1.9596424E-05, 0.000450316176, -0.0128040928, -0.015826283, 0.000118738695, 921.0839    , 32.1967049  , 796.7795    , 3.74        , 3           , 255         , 0           , 0
-0.139338031, 0.153771    , -9.804172   , 0.000247369462, 0.000354158226, -0.0012201065, -0.0128014246, -0.0158228967, 0.000106492043, 921.0839    , 32.1967049  , 796.7795    , 3.75        , 3           , 255         , 0           , 0
-0.1929588  , 0.14628756  , -9.795842   , 0.00087500643, 0.000396284624, -0.0003031431, -0.0127926264, -0.015818974, 0.000103409846, 921.0839    , 32.1967049  , 796.7795    , 3.76        , 3           , 255         , 0           , 0
-0.202074617, 0.130701974 , -9.786634   , 0.0009188488, 5.859119E-05, 1.56897731E-05, -0.0127834408, -0.0158183873, 0.000103559258, 921.0839    , 32.1967049  , 796.7795    , 3.77        , 3           , 255         , 0           , 0
-0.148537964, 0.150016069 , -9.781805   , -0.000123573409, -2.92758341E-05, 0.0006374957, -0.0127847781, -0.0158185977, 0.000109938061, 921.0839    , 32.1967049  , 796.7795    , 3.78        , 3           , 255         , 0           , 0
-0.114580788, 0.168776363 , -9.78724    , 6.54516043E-06, 1.48834079E-05, 0.000317654281, -0.0127847632, -0.0158184078, 0.000113112772, 921.0839    , 32.1967049  , 796.7795    , 3.79        , 3           , 255         , 0           , 0
-0.145499989, 0.13948755  , -9.802923   , -0.000469843566, 2.98329978E-05, -0.000451861823, -0.01278939 , -0.0158181638, 0.00010859024, 921.0839    , 32.1967049  , 796.7795    , 3.8         , 3           , 255         , 0           , 0
-0.171802044, 0.110984765 , -9.792901   , 0.0003083336, -1.54034933E-06, -0.000365489454, -0.012798951, -0.0158183612, 0.00010513638, 921.0839    , 32.1967049  , 796.8577    , 3.81        , 3           , 255         , 0           , 0
-0.155131534, 0.111817464 , -9.80141449 , 0.000463931356, -0.000243648654, 4.87470461E-05, -0.01279432 , -0.01582079 , 0.000105655039, 921.0839    , 32.1967049  , 796.8582    , 3.82        , 3           , 255         , 0           , 0
-0.130161554, 0.148624316 , -9.792408   , 0.000244284049, 9.819737E-05, 0.000339711783, -0.0127919307, -0.0158197675, 0.000109039662, 921.154     , 32.1954842  , 796.8587    , 3.83        , 3           , 255         , 0           , 0
-0.153488427, 0.14983353  , -9.776776   , 0.000199102447, 5.33927232E-05, 0.000109003231, -0.0127899563, -0.015819218, 0.00011012287, 921.154     , 32.1954842  , 796.8592    , 3.84        , 3           , 255         , 0           , 0
-0.207628846, 0.131917521 , -9.792509   , -0.000181523792, -8.50893E-05, 0.000498146052, -0.01279185 , -0.0158200059, 0.000115115312, 921.154     , 32.1954842  , 796.8597    , 3.85        , 3           , 255         , 0           , 0
-0.189815834, 0.126521945 , -9.791077   , 0.00010238227, -3.676978E-06, -7.071176E-05, -0.012790815, -0.0158200525, 0.000114408649, 921.154     , 32.1954842  , 796.860168  , 3.86        , 3           , 255         , 0           , 0
-0.145722836, 0.09599531  , -9.79532051 , -3.412034E-05, 0.000314376375, -0.0005815319, -0.0127910646, -0.0158169828, 0.000108553 , 921.154     , 32.1954842  , 796.860657  , 3.87        , 3           , 255         , 0           , 0
-0.0968074948, 0.09176015  , -9.784192   , 0.000566660659, 0.000319414539, 0.0006235428, -0.0127854962, -0.0158137083, 0.000114747709, 921.154     , 32.1954842  , 796.861145  , 3.88        , 3           , 255         , 0           , 0
-0.08426541 , 0.103274509 , -9.791632   , 0.000301235123, -5.569018E-05, -0.0001634953, -0.0127824573, -0.0158142876, 0.000113119851, 921.154     , 32.1954842  , 796.861633  , 3.89        , 3           , 255         , 0           , 0
-0.13961336 , 0.103608049 , -9.788873   , 0.00028846343, -0.000298174331, 7.81769049E-05, -0.012779586, -0.0158172585, 0.000113939743, 921.154     , 32.1954842  , 796.8621    , 3.9         , 3           , 255         , 0           , 0
-0.21666415 , 0.09079703  , -9.785231   , 0.000660424354, -0.00032633415, 0.000138646108, -0.0127584087, -0.0158065446, 0.000115137191, 921.154     , 32.1954842  , 796.828857  , 3.91        , 3           , 255         , 0           , 0
-0.241784245, 0.110269114 , -9.792578   , 0.000255662075, -0.0004862717, -0.000203605043, -0.0127558205, -0.015811434, 0.000113163143, 921.154     , 32.1954842  , 796.829163  , 3.92        , 3           , 255         , 0           , 0
-0.185815781, 0.153535992 , -9.792443   , 0.000232614053, -0.000144864433, 0.000511696562, -0.0127535751, -0.0158128161, 0.000118298674, 921.1286    , 32.1959572  , 796.829468  , 3.93        , 3           , 255         , 0           , 0
-0.112741247, 0.168481335 , -9.787561   , 0.0002830211, 5.49911056E-05, 0.00075130543, -0.012750864, -0.01581217 , 0.000125804872, 921.1286    , 32.1959572  , 796.8298    , 3.94        , 3           , 255         , 0           , 0
-0.101680681, 0.169175744 , -9.794647   , -0.000105956686, 0.00030232736, 0.0004667459, -0.0127519974, -0.0158090889, 0.000130433866, 921.1286    , 32.1959572  , 796.8301    , 3.95        , 3           , 255         , 0           , 0
-0.120275363, 0.16158624  , -9.791198   , -0.000154978537, 0.00018651603, -0.000373615, -0.0127534885, -0.01580727 , 0.000126673869, 921.1286    , 32.1959572  , 796.8304    , 3.96        , 3           , 255         , 0           , 0
-0.161168128, 0.133788839 , -9.795798   , -0.000211189385, -0.00039362954, 0.000270725752, -0.0127556426, -0.0158111732, 0.000129431384, 921.1286    , 32.1959572  , 796.8307    , 3.97        , 3           , 255         , 0           , 0
-0.178838566, 0.1040592   , -9.790743   , -1.78115442E-07, -0.000446585473, 0.0003430649, -0.0127556985, -0.0158155952, 0.000132919056, 921.1286    , 32.1959572  , 796.831     , 3.98        , 3           , 255         , 0           , 0
-0.165251538, 0.108454719 , -9.79779148 , 0.000165858772, -0.000139004085, 0.000118257318, -0.0127540585, -0.01581697 , 0.000134119371, 921.1286    , 32.1959572  , 796.8313    , 3.99        , 3           , 255         , 0           , 0
-0.170026571, 0.116830982 , -9.787989   , 0.0007774964, -6.62589446E-06, -0.000174522225, -0.0127462568, -0.01581706 , 0.000132374975, 921.1286    , 32.1959572  , 796.8316    , 4           , 3           , 0           , 9.935237    , 400
-0.153017521, 0.117495932 , -9.787397   , 0.0007318122, 0.000104190724, -0.00030614296, -0.0127502168, -0.0158336069, 0.000129479566, 921.1286    , 32.1959572  , 796.839     , 4.01        , 3           , 1           , 0           , 0
-0.151128769, 0.114456668 , -9.790846   , 0.000290588476, 0.000184707111, -0.000620055944, -0.0127472123, -0.0158318412, 0.000123255333, 921.1286    , 32.1959572  , 796.839355  , 4.02        , 3           , 2           , 0           , 0
-0.134309262, 0.126848921 , -9.78971    , 0.000192883017, -1.55807938E-05, 0.000182153992, -0.0127453124, -0.0158319715, 0.000125078892, 921.1152    , 32.1992836  , 796.8397    , 4.03        , 3           , 3           , 0           , 0
-0.138598174, 0.1486146   , -9.791494   , 0.000347365043, -0.000140342163, 0.000410266162, -0.0127419047, -0.015833322, 0.000129199514, 921.1152    , 32.1992836  , 796.8401    , 4.04        , 3           , 4           , 0           , 0
-0.146627992, 0.129299328 , -9.802309   , 0.0001095279, -0.000283661, 0.000136358372, -0.0127408318, -0.01583614 , 0.000130599263, 921.1152    , 32.1992836  , 796.840454  , 4.05        , 3           , 5           , 0           , 0
-0.155718625, 0.112407424 , -9.790653   , 9.714294E-05, 0.000164281577, 0.0004429894, -0.0127399294, -0.0158344414, 0.000135008318, 921.1152    , 32.1992836  , 796.8408    , 4.06        , 3           , 6           , 0           , 0
-0.152752981, 0.125572428 , -9.791785   , -0.000274457445, 4.0216255E-05, 0.000219605077, -0.0127427094, -0.015834013, 0.0001371993, 921.1152    , 32.1992836  , 796.8412    , 4.07        , 3           , 7           , 0           , 0
-0.157822818, 0.137325227 , -9.787865   , -6.164191E-08, -0.0002690446, -0.0002429726, -0.0127426712, -0.0158367343, 0.0001348038, 921.1152    , 32.1992836  , 796.841553  , 4.08        , 3           , 8           , 5           , 5
-0.1620624  , 0.130631089 , -9.797176   , 0.0007224474, -0.000429193664, -0.000171867054, -0.01273542 , -0.01584105 , 0.0001331398, 921.1152    , 32.1992836  , 796.8419    , 4.09        , 3           , 9           , 5           , 0.1
-0.163597971, 0.1279107   , -9.794725   , 0.000121498015, -6.029388E-05, 3.931312E-05, -0.012734212, -0.0158416461, 0.0001335406, 921.1152    , 32.1992836  , 796.8423    , 4.1         , 3           , 10          , 0.1         , 0.1
-0.164118469, 0.125478774 , -9.787632   , -0.000289409538, 0.000340935483, 0.0006531972, -0.012740803, -0.0158326048, 0.000140086166, 921.1152    , 32.1992836  , 796.8668    , 4.11        , 3           , 11          , 0.006707117 , 0.006707113
-0.162187859, 0.118517622 , -9.782338   , -0.000134838687, -7.991702E-05, 0.00038625102, -0.012742213, -0.0158333555, 0.000143958954, 921.1152    , 32.1992836  , 796.8673    , 4.12        , 3           , 12          , 0.174648076 , 0
-0.152814537, 0.120170414 , -9.795066   , 0.000164128258, 0.0001603241, 0.0004710218, -0.0127406465, -0.0158316921, 0.000148648818, 921.118     , 32.1960258  , 796.8678    , 4.13        , 3           , 13          , 0           , 0
-0.141636923, 0.130912229 , -9.798175   , 0.000520908448, 0.0004832127, -0.000256421219, -0.0127353957, -0.0158268921, 0.000146023012, 921.118     , 32.1960258  , 796.8683    , 4.14        , 3           , 14          , -0.0007364027, -0.0007888583
-0.13325347 , 0.134449959 , -9.797427   , 0.0005225199, -0.0004338381, -4.04770835E-05, -0.0127301672, -0.0158312358, 0.000145673461, 921.118     , 32.1960258  , 796.8688    , 4.15        , 3           , 15          , 0           , -0.000167362028
-0.132182777, 0.145772859 , -9.798465   , 0.000147999031, 1.64291123E-05, -0.000839627464, -0.0127285523, -0.0158311762, 0.000137274939, 921.118     , 32.1960258  , 796.8693    , 4.16        , 3           , 16          , 0           , 1.401298E-45
-0.170829892, 0.142992511 , -9.792615   , 0.000325543835, 7.059309E-05, 0.0001932029, -0.0127253281, -0.015830446, 0.000139198019, 921.118     , 32.1960258  , 796.8699    , 4.17        , 3           , 20          , 0           , 0
-0.189910874, 0.121156469 , -9.785329   , 0.00024922032, -0.000337350066, 0.000112153786, -0.0127228554, -0.0158338044, 0.0001403625, 921.118     , 32.1960258  , 796.8704    , 4.18        , 3           , 21          , 0           , 0
-0.17880854 , 0.12013755  , -9.790857   , -2.634246E-06, -0.0004710293, -0.000832233, -0.0127227493, -0.015838623, 0.000132099929, 921.118     , 32.1960258  , 796.871     , 4.19        , 3           , 22          , 0           , 0
-0.148734033, 0.13719897  , -9.803217   , -4.02708538E-05, 0.000402355741, 3.10730247E-05, -0.0127231572, -0.0158345941, 0.000132359462, 921.118     , 32.1960258  , 796.8715    , 4.2         , 3           , 40          , 0           , 0
-0.123611189, 0.140411347 , -9.790825   , 0.000191248662, 0.000335353019, 0.000105721352, -0.0127285672, -0.0158347432, 0.000133489739, 921.118     , 32.1960258  , 796.8881    , 4.21        , 3           , 41          , 0           , 0
-0.116722129, 0.1390622   , -9.808962   , 0.00027406044, 0.000128305168, 0.0005376334, -0.012725913, -0.0158333927, 0.000138849849, 921.118     , 32.1960258  , 796.888733  , 4.22        , 3           , 42          , 0           , 0
-0.142890781, 0.125776738 , -9.787443   , 0.000298797735, 0.000200345414, 0.000582753448, -0.0127230166, -0.0158313159, 0.000144652018, 921.152344  , 32.19806    , 796.889343  , 4.23        , 3           , 255         , 0           , 0
-0.17175369 , 0.122625172 , -9.786354   , 0.001070318 , -0.000157776987, -0.0004490196, -0.012712243, -0.0158329513, 0.000140181757, 921.152344  , 32.19806    , 796.889954  , 4.24        , 3           , 255         , 0           , 0
-0.170916826, 0.134665772 , -9.784103   , -6.72247843E-05, 9.307347E-05, -0.000222701652, -0.0127128791, -0.0158320479, 0.000137942858, 921.152344  , 32.19806    , 796.890564  , 4.25        , 3           , 255         , 0           , 0
-0.1653206  , 0.136987239 , -9.798234   , -0.000143470068, -0.000118759752, 0.000236904569, -0.0127143515, -0.0158332046, 0.000140327043, 921.152344  , 32.19806    , 796.8912    , 4.26        , 3           , 255         , 0           , 0
-0.156090662, 0.123757459 , -9.796332   , 0.000492120162, -5.25231E-05, 0.0003498614, -0.0127094854, -0.0158336852, 0.000143832425, 921.152344  , 32.19806    , 796.8918    , 4.27        , 3           , 255         , 0           , 0
-0.152911752, 0.105389059 , -9.784302   , -0.00019124063, 0.000291283068, -0.0002282647, -0.012711362, -0.0158308  , 0.0001415127, 921.152344  , 32.19806    , 796.8924    , 4.28        , 3           , 255         , 0           , 0
-0.1339105  , 0.113129616 , -9.788681   , -0.000105333282, -0.000184005592, -2.31914164E-05, -0.0127124116, -0.015832644, 0.000141304175, 921.152344  , 32.19806    , 796.893066  , 4.29        , 3           , 255         , 0           , 0
-0.128643349, 0.124367274 , -9.791514   , 0.0005355427, -0.000200554729, 0.00030694867, -0.0127071058, -0.01583461 , 0.000144399222, 921.152344  , 32.19806    , 796.893738  , 4.3         , 3           , 255         , 0           , 0
-0.1367933  , 0.1496366   , -9.790567   , 0.000527311931, -0.000211249979, 0.0005458724, -0.0127053866, -0.01582239 , 0.000149939719, 921.152344  , 32.19806    , 796.858459  , 4.31        , 3           , 255         , 0           , 0
-0.1759791  , 0.142648488 , -9.807875   , 6.535312E-05, -0.000194912369, 0.0003795006, -0.0127047915, -0.01582429 , 0.000153759553, 921.152344  , 32.19806    , 796.8589    , 4.32        , 3           , 255         , 0           , 0
-0.190837383, 0.125113383 , -9.775953   , 0.000114980969, -0.000237150642, 0.000257609645, -0.0127036832, -0.01582663 , 0.00015636583, 921.137634  , 32.1985359  , 796.8593    , 4.33        , 3           , 255         , 0           , 0
-0.173563749, 0.121236011 , -9.789438   , 6.03616354E-05, -0.0004478186, 0.00114584586, -0.01270326 , -0.015830962, 0.000167881386, 921.137634  , 32.1985359  , 796.859741  , 4.34        , 3           , 255         , 0           , 0
-0.147028118, 0.121304348 , -9.792607   , 6.80356752E-05, 0.00016423926, -0.000114458409, -0.0127025628, -0.01582933 , 0.000166715923, 921.137634  , 32.1985359  , 796.860168  , 4.35        , 3           , 255         , 0           , 0
-0.125382483, 0.119975805 , -9.796566   , 0.000182482763, -0.000138790812, 0.000268153439, -0.0127007812, -0.0158306845, 0.000169415129, 921.137634  , 32.1985359  , 796.8606    , 4.36        , 3           , 255         , 0           , 0
-0.123400889, 0.118128441 , -9.79232    , 0.000379215518, -0.000322077365, 4.86170757E-06, -0.0126969907, -0.015833905, 0.000169504681, 921.137634  , 32.1985359  , 796.861     , 4.37        , 3           , 255         , 0           , 0
-0.152291089, 0.131319225 , -9.784398   , 0.000483629148, -0.0003486522, 0.0001909438, -0.0126921842, -0.0158373658, 0.0001714584, 921.137634  , 32.1985359  , 796.86145   , 4.38        , 3           , 255         , 0           , 0
-0.163944349, 0.1368232   , -9.790433   , 0.0002941186, -0.000171148044, 5.48496973E-05, -0.0126892524, -0.0158390719, 0.000172028638, 921.137634  , 32.1985359  , 796.8619    , 4.39        , 3           , 255         , 0           , 0
-0.171264246, 0.13871105  , -9.781065   , 0.000319628365, -0.000683064165, -0.000416983035, -0.0126859928, -0.0158459544, 0.000167945385, 921.137634  , 32.1985359  , 796.8623    , 4.4         , 3           , 255         , 0           , 0
-0.164768383, 0.13133049  , -9.786356   , -0.00014012726, -0.0003150662, -0.00053154683, -0.0126982173, -0.015851032, 0.000162842683, 921.137634  , 32.1985359  , 796.852234  , 4.41        , 3           , 255         , 0           , 0
-0.14897643 , 0.125294417 , -9.790532   , 0.000239869347, -0.000228939229, -0.00024612894, -0.0126957819, -0.0158533528, 0.000160410418, 921.137634  , 32.1985359  , 796.8526    , 4.42        , 3           , 255         , 0           , 0
-0.129668921, 0.122826934 , -9.793093   , 0.000397344469, -0.000172286, -0.0004254487, -0.01269174 , -0.01585513 , 0.000156177717, 921.151855  , 32.1990776  , 796.852966  , 4.43        , 3           , 255         , 0           , 0
-0.145646885, 0.128398418 , -9.789047   , 2.35575717E-05, -7.26952E-05, -6.89188746E-05, -0.0126914941, -0.0158558656, 0.00015549775, 921.151855  , 32.1990776  , 796.853333  , 4.44        , 3           , 255         , 0           , 0
-0.159719139, 0.126602843 , -9.78987    , 0.000151728629, 0.000482826581, -0.000355561962, -0.0126899211, -0.01585108 , 0.000151880784, 921.151855  , 32.1990776  , 796.8537    , 4.45        , 3           , 255         , 0           , 0
-0.165385008, 0.125089645 , -9.788744   , -7.556885E-05, -0.000289777061, 0.000865623064, -0.0126908133, -0.01585387 , 0.000160573953, 921.151855  , 32.1990776  , 796.854065  , 4.46        , 3           , 255         , 0           , 0
-0.1654419  , 0.1325362   , -9.802961   , -3.42376879E-05, 0.000537510146, 0.000427621766, -0.0126912231, -0.01584844 , 0.000164782046, 921.151855  , 32.1990776  , 796.854431  , 4.47        , 3           , 255         , 0           , 0
-0.15992853 , 0.129226729 , -9.791407   , 5.021924E-05, 0.0003859398, -0.000111920512, -0.0126907025, -0.0158445947, 0.000163613833, 921.151855  , 32.1990776  , 796.8548    , 4.48        , 3           , 255         , 0           , 0
-0.146257713, 0.145075828 , -9.800179   , 0.000107021362, 0.000428378466, 0.000537471264, -0.0126897162, -0.01584025 , 0.0001689343, 921.151855  , 32.1990776  , 796.855164  , 4.49        , 3           , 255         , 0           , 0
-0.143496454, 0.15354225  , -9.794556   , 0.0004799082, -0.000454647467, 0.000125864812, -0.0126849385, -0.0158447754, 0.000170250642, 921.151855  , 32.1990776  , 796.8555    , 4.5         , 3           , 255         , 0           , 0
-0.159325272, 0.15777573  , -9.790569   , 0.000552634243, -9.794254E-05, -0.0009660602, -0.0126904519, -0.0158424824, 0.000160779615, 921.151855  , 32.1990776  , 796.8264    , 4.51        , 3           , 255         , 0           , 0
-0.164137825, 0.166630164 , -9.79587    , 0.0003952768, -7.67034362E-05, -0.0007234353, -0.0126863858, -0.01584334 , 0.000153554851, 921.151855  , 32.1990776  , 796.8266    , 4.52        , 3           , 255         , 0           , 0
-0.165606588, 0.160255954 , -9.797107   , -0.000300824642, -0.0001584462, 0.000319034152, -0.0126894442, -0.0158448834, 0.000156765367, 921.1514    , 32.1988754  , 796.8268    , 4.53        , 3           , 255         , 0           , 0
-0.158698648, 0.155997157 , -9.793047   , -0.000217878376, -0.000317159633, 0.0005805771, -0.0126917139, -0.0158479828, 0.0001626115, 921.1514    , 32.1988754  , 796.826965  , 4.54        , 3           , 255         , 0           , 0
-0.1580985  , 0.159597784 , -9.79027    , -4.53148969E-05, -0.000552598562, 0.000268666685, -0.0126922112, -0.01585347 , 0.000165368358, 921.1514    , 32.1988754  , 796.827148  , 4.55        , 3           , 255         , 0           , 0
-0.155356   , 0.1553181   , -9.786923   , 0.0002413335, -0.000255319581, 0.000136241579, -0.0126898224, -0.0158560071, 0.000166763188, 921.1514    , 32.1988754  , 796.827332  , 4.56        , 3           , 255         , 0           , 0
-0.15141663 , 0.1332837   , -9.798778   , 0.000301782857, -0.0005376536, -0.000169726278, -0.0126867788, -0.0158614032, 0.000165134115, 921.1514    , 32.1988754  , 796.8276    , 4.57        , 3           , 255         , 0           , 0
