Acc X       , Acc Y       , Acc Z       , Gyro X      , Gyro Y      , Gyro Z      , Euler X     , Euler Y     , Euler Z     , Pres X      , Pres Y      , Pres Z      , Time        , Status      , LowRate X   , LowRate Y   , LowRate Z    
-0.02858799 , -0.152929962, -9.787414   , 0           , 0           , 0           , 0.0156238945, -0.00292052818, 0           , 921.390137  , 30.54448    , 794.5217    , 0           , 2           , 0           , 5.01623154  , 0
-0.030811023, -0.150785685, -9.799743   , 0.000245773932, 3.350858E-05, -0.000189011276, 0.015626397 , -0.00291999243, -1.8846066E-06, 921.390137  , 30.54448    , 794.5217    , 0.01        , 3           , 1           , 0           , 0
-0.0198211372, -0.151095286, -9.797988   , 0.000616370467, -0.0007368243, -0.000319442421, 0.0156325679, -0.00292730937, -5.193723E-06, 921.390137  , 30.54448    , 794.5217    , 0.02        , 3           , 2           , 0           , 0
-0.0253265556, -0.158566788, -9.800665   , 0.0003724103, 0.0005742388, -0.000154174661, 0.0156362951, -0.00292154378, -6.645474E-06, 921.3372    , 30.111105   , 794.5217    , 0.03        , 3           , 3           , 0           , 0
-0.022679951, -0.16300866 , -9.791019   , 0.000497763162, 0.0004097502, -0.000310795323, 0.0156412814, -0.00291739823, -9.688908E-06, 921.3372    , 30.111105   , 794.5217    , 0.04        , 3           , 4           , 0           , 0
-0.0242265631, -0.1514337  , -9.798088   , 0.0006918381, -0.000116010953, -0.0003008829, 0.0156482067, -0.00291851116, -1.27154526E-05, 921.3372    , 30.111105   , 794.5217    , 0.05        , 3           , 5           , 0           , 0
-0.03298707 , -0.15318349 , -9.800673   , 9.164907E-05, -4.506146E-06, -7.468111E-05, 0.0156491268, -0.00291854446, -1.34628626E-05, 921.3372    , 30.111105   , 794.5217    , 0.06        , 3           , 6           , 0           , 0
-0.03382558 , -0.160054713, -9.795165   , 0.00014824199, 0.000189945044, 5.48255339E-05, 0.0156506076, -0.00291665364, -1.28849624E-05, 921.3372    , 30.111105   , 794.5217    , 0.07        , 3           , 7           , 0           , 0
-0.02586006 , -0.152047724, -9.7897625  , 0.000178629474, 0.000693164242, 0.000102036051, 0.0156523921, -0.002909739, -1.17562586E-05, 921.3372    , 30.111105   , 794.5217    , 0.08        , 3           , 8           , 5           , 5
-0.02333853 , -0.1457968  , -9.791278   , 0.000112749112, 0.000103168248, -6.759238E-05, 0.0156535227, -0.002908697, -1.24159378E-05, 921.3372    , 30.111105   , 794.5217    , 0.09        , 3           , 9           , 5           , 0.1
-0.0303906742, -0.153173432, -9.795531   , 9.655807E-05, 0.0001527479, 0.000276792329, 0.0156544782, -0.00290721282, -9.624501E-06, 921.3372    , 30.111105   , 794.5217    , 0.1         , 3           , 10          , 0.1         , 0.1
-0.0328089148, -0.140799448, -9.794126   , 2.75143539E-05, 0.000225936063, -7.85279553E-05, 0.0156569444, -0.00289924885, -1.03806515E-05, 921.3372    , 30.111105   , 794.997437  , 0.11        , 3           , 11          , 0.0109544508, 0.0109544508
-0.0359828323, -0.14242284 , -9.792541   , -0.0002172401, 0.0001908826, -0.00121491891, 0.0156548079, -0.00289715035, -2.24982141E-05, 921.3372    , 30.111105   , 794.997437  , 0.12        , 3           , 12          , 0.174642488 , 0
-0.0375218354, -0.154727846, -9.7931385  , -0.000128233922, 3.581273E-05, -0.0004093654, 0.01565354  , -0.002896728, -2.65856761E-05, 921.3382    , 30.1499786  , 794.997437  , 0.13        , 3           , 13          , 0           , 0
-0.0264621563, -0.153045341, -9.792883   , 6.50112052E-05, 0.000189978746, 0.0005831206, 0.015654169 , -0.00289491983, -2.072557E-05, 921.3382    , 30.1499786  , 794.997437  , 0.14        , 3           , 14          , 0.0007028157, 0.0007686268
-0.0222148225, -0.156749547, -9.797287   , 0.000329262926, -0.00074430753, 0.0008614203, 0.0156574361, -0.00290249684, -1.222913E-05, 921.3382    , 30.1499786  , 794.997437  , 0.15        , 3           , 15          , 0           , 0.000105047446
-0.0244252235, -0.15268378 , -9.795954   , -0.00012873864, 1.68790575E-05, 0.000322023872, 0.0156561378, -0.00290237833, -9.006711E-06, 921.3382    , 30.1499786  , 794.997437  , 0.16        , 3           , 16          , 0           , 1.401298E-45
-0.030860994, -0.156903714, -9.798456   , -0.000424011872, 0.000232291175, 0.000166751619, 0.0156518966, -0.00290008145, -7.30307147E-06, 921.3382    , 30.1499786  , 794.9975    , 0.17        , 3           , 20          , 0           , 0
-0.0366644934, -0.159729764, -9.800601   , -7.302221E-05, -0.000398873875, 0.0004422666, 0.0156511553, -0.002904139, -2.94346682E-06, 921.3382    , 30.1499786  , 794.997559  , 0.18        , 3           , 21          , 0           , 0
-0.02596795 , -0.1538001  , -9.79612    , 9.83926E-05 , 0.000229448779, 0.000321941276, 0.0156521276, -0.0029018952, 3.11395922E-07, 921.3382    , 30.1499786  , 794.9976    , 0.19        , 3           , 22          , 0           , 0
-0.0279375054, -0.148395628, -9.794878   , -0.000279732019, 0.000224138261, 9.748655E-05, 0.0156493261, -0.00289966934, 1.32119771E-06, 921.3382    , 30.1499786  , 794.9977    , 0.2         , 3           , 40          , 0           , 0
-0.0284077339, -0.156805679, -9.791048   , -0.000322383537, 0.000175083289, 0.0006409237, 0.0156411678, -0.002903716, 7.771188E-06, 921.3382    , 30.1499786  , 794.992432  , 0.21        , 3           , 41          , 0           , 0
-0.0276401546, -0.163703084, -9.790023   , 2.18450441E-05, 0.000197082991, 0.000230647827, 0.0156413782, -0.00290178135, 1.01081632E-05, 921.3382    , 30.1499786  , 794.9925    , 0.22        , 3           , 42          , 0           , 0
-0.0283616148, -0.150941879, -9.786409   , 0.00018699019, 0.000156034774, 4.53866451E-05, 0.0156432483, -0.00290022837, 1.058637E-05, 921.3429    , 30.1788788  , 794.992554  , 0.23        , 3           , 255         , 0           , 0
-0.0266674515, -0.138812125, -9.790754   , 6.43499661E-05, 0.0004154893, -0.000101257167, 0.0156438947, -0.00289605814, 9.638935E-06, 921.3429    , 30.1788788  , 794.9926    , 0.24        , 3           , 255         , 0           , 0
-0.0333016329, -0.1513801  , -9.79225    , 0.000213895866, 9.119627E-06, -2.73721162E-05, 0.0156460349, -0.00289596268, 9.36667948E-06, 921.3429    , 30.1788788  , 794.9927    , 0.25        , 3           , 255         , 0           , 0
-0.03866989 , -0.161626056, -9.792555   , 4.952267E-05, 0.000266202376, 0.00027693357, 0.015646521 , -0.0028933445, 1.21772664E-05, 921.3429    , 30.1788788  , 794.992737  , 0.26        , 3           , 255         , 0           , 0
-0.0195197649, -0.157357484, -9.789937   , 0.000215561537, -8.483883E-05, 0.000148814928, 0.0156486724, -0.00289421622, 1.36519275E-05, 921.3429    , 30.1788788  , 794.9928    , 0.27        , 3           , 255         , 0           , 0
-0.02935223 , -0.158091635, -9.789859   , 0.000344873 , -0.000209024933, -5.98959159E-05, 0.01565212  , -0.00289629656, 1.30203434E-05, 921.3429    , 30.1788788  , 794.992859  , 0.28        , 3           , 255         , 0           , 0
-0.0146253165, -0.151932508, -9.786631   , -0.000236742431, -0.00048590856, -0.000235736457, 0.01564976  , -0.00290111825, 1.05872687E-05, 921.3429    , 30.1788788  , 794.9929    , 0.29        , 3           , 255         , 0           , 0
-0.0284145921, -0.150129378, -9.792668   , 0.000112338515, 0.000183460361, 0.0004881976, 0.0156508684, -0.00289936014, 1.54972586E-05, 921.3429    , 30.1788788  , 794.993     , 0.3         , 3           , 255         , 0           , 0
-0.02532352 , -0.1498154  , -9.790391   , 0.000440687581, 4.739559E-06, 0.0004935509, 0.0156595558, -0.00289526512, 2.04203643E-05, 921.3429    , 30.1788788  , 794.9769    , 0.31        , 3           , 255         , 0           , 0
-0.0113834525, -0.150563672, -9.7908535  , 0.000395707029, -9.028736E-05, 0.000332487834, 0.0156635   , -0.00289622 , 2.37306322E-05, 921.3429    , 30.1788788  , 794.977     , 0.32        , 3           , 255         , 0           , 0
-0.0154599128, -0.156508252, -9.794201   , 6.780517E-05, -0.000130530447, -0.000243404531, 0.0156641863, -0.00289748679, 2.12764917E-05, 921.3374    , 30.1956367  , 794.977051  , 0.33        , 3           , 255         , 0           , 0
-0.01921021 , -0.149699047, -9.798749   , -0.000222796458, 0.000113296614, 0.000299365463, 0.01566195  , -0.002896401, 2.428746E-05, 921.3374    , 30.1956367  , 794.9771    , 0.34        , 3           , 255         , 0           , 0
-0.0323669575, -0.15368779 , -9.79051    , 0.0006310385, 0.000225551485, 0.000111709654, 0.01566826  , -0.00289416336, 2.54397237E-05, 921.3374    , 30.1956367  , 794.9772    , 0.35        , 3           , 255         , 0           , 0
-0.03904466 , -0.154584378, -9.800083   , -1.842418E-05, -0.000412625872, -0.000267541152, 0.015668083 , -0.002898247, 2.27000473E-05, 921.3374    , 30.1956367  , 794.977234  , 0.36        , 3           , 255         , 0           , 0
-0.0207067318, -0.156434417, -9.796231   , 0.0003350118, -0.000192527368, 0.00092802057, 0.0156714022, -0.002900317, 3.19487626E-05, 921.3374    , 30.1956367  , 794.9773    , 0.37        , 3           , 255         , 0           , 0
-0.030903358, -0.143778846, -9.790754   , 0.000153011584, 5.7176454E-05, 0.0005237743, 0.0156729165, -0.00289982767, 3.71947135E-05, 921.3374    , 30.1956367  , 794.977356  , 0.38        , 3           , 255         , 0           , 0
-0.0239002984, -0.150884822, -9.793833   , 0.000214900181, 0.000123758742, 0.0003966853, 0.0156750567, -0.00289865257, 4.118039E-05, 921.3374    , 30.1956367  , 794.9774    , 0.39        , 3           , 255         , 0           , 0
-0.02664558 , -0.159495071, -9.793009   , -8.568057E-05, 0.000153368746, 0.00042749042, 0.0156741869, -0.002897186, 4.54787223E-05, 921.3374    , 30.1956367  , 794.9775    , 0.4         , 3           , 255         , 0           , 0
-0.03593254 , -0.161516309, -9.790537   , -9.93475E-05, 7.544708E-05, 0.000347218069, 0.0156700555, -0.00288298633, 4.89712475E-05, 921.3374    , 30.1956367  , 794.982056  , 0.41        , 3           , 255         , 0           , 0
-0.0314620622, -0.151768088, -9.792571   , 0.000227338227, 0.000308725052, 1.03269558E-05, 0.015672328 , -0.00287990132, 4.91228748E-05, 921.3374    , 30.1956367  , 794.9821    , 0.42        , 3           , 255         , 0           , 0
-0.0381546058, -0.145270273, -9.791817   , -0.0001983071, 0.000188139325, 0.000246694137, 0.0156703368, -0.0028780587, 5.161895E-05, 921.3446    , 30.2023525  , 794.9822    , 0.43        , 3           , 255         , 0           , 0
-0.0273633953, -0.155358389, -9.789412   , -5.59365144E-05, -0.000548633048, 0.0004339313, 0.015669765 , -0.00288361218, 5.58716747E-05, 921.3446    , 30.2023525  , 794.982239  , 0.44        , 3           , 255         , 0           , 0
-0.0349719375, -0.1549142  , -9.791807   , 0.000295625941, 0.000116903509, -0.000429093023, 0.015672734 , -0.00288237631, 5.15996835E-05, 921.3446    , 30.2023525  , 794.9823    , 0.45        , 3           , 255         , 0           , 0
-0.0282658581, -0.149237424, -9.7925     , -0.000103759288, -0.000164951489, -5.761026E-05, 0.0156716965, -0.00288401661, 5.099782E-05, 921.3446    , 30.2023525  , 794.982361  , 0.46        , 3           , 255         , 0           , 0
-0.043377012, -0.16223976 , -9.794439   , -0.0006545272, 8.712307E-05, 0.0007050496, 0.01566513  , -0.002883256, 5.80609521E-05, 921.3446    , 30.2023525  , 794.9824    , 0.47        , 3           , 255         , 0           , 0
-0.0348898247, -0.159807488, -9.789515   , -0.0005926076, 2.1563028E-06, 0.0005585165, 0.0156591889, -0.00288332161, 6.36456462E-05, 921.3446    , 30.2023525  , 794.9825    , 0.48        , 3           , 255         , 0           , 0
-0.0300210454, -0.16225715 , -9.797967   , 5.26944059E-05, -0.000111145317, -0.000176615256, 0.0156597216, -0.00288440543, 6.18623453E-05, 921.3446    , 30.2023525  , 794.982544  , 0.49        , 3           , 255         , 0           , 0
-0.024533445, -0.160397649, -9.795952   , 0.000660600548, -0.000103747472, 0.000592188 , 0.0156663079, -0.00288553559, 6.776713E-05, 921.3446    , 30.2023525  , 794.9826    , 0.5         , 3           , 255         , 0           , 0
-0.03038685 , -0.153513759, -9.801571   , 0.000361875573, -0.000138497853, 0.0001767199, 0.0156801343, -0.00290396833, 6.948271E-05, 921.3446    , 30.2023525  , 794.971741  , 0.51        , 3           , 255         , 0           , 0
-0.0288926177, -0.1548378  , -9.798883   , -3.12909251E-05, 0.000102692225, 0.000562076748, 0.0156798065, -0.00290302979, 7.51187763E-05, 921.3446    , 30.2023525  , 794.9718    , 0.52        , 3           , 255         , 0           , 0
-0.0284964256, -0.154024929, -9.796373   , -0.000132610439, -1.75029854E-05, 0.0008765561, 0.0156784542, -0.002903342, 8.38803244E-05, 921.3423    , 30.210968   , 794.971863  , 0.53        , 3           , 255         , 0           , 0
-0.0268415213, -0.143934682, -9.794389   , -0.000348659931, 0.000113072922, 0.00021635  , 0.01567496  , -0.00290224538, 8.606124E-05, 921.3423    , 30.210968   , 794.972     , 0.54        , 3           , 255         , 0           , 0
-0.0246964823, -0.152876347, -9.792926   , 7.28826853E-05, 0.000189519313, 0.000676220749, 0.0156756714, -0.00290045631, 9.2852184E-05, 921.3423    , 30.210968   , 794.9721    , 0.55        , 3           , 255         , 0           , 0
-0.0211006477, -0.1618758  , -9.798619   , -0.000686155749, -0.000420574448, -7.41522163E-05, 0.0156688131, -0.00290465029, 9.20448656E-05, 921.3423    , 30.210968   , 794.9722    , 0.56        , 3           , 255         , 0           , 0
-0.0174410529, -0.1563867  , -9.791037   , -0.0006917536, -0.0002281568, 0.00077804114, 0.0156618673, -0.00290705333, 9.978841E-05, 921.3423    , 30.210968   , 794.972351  , 0.57        , 3           , 255         , 0           , 0
-0.0247080121, -0.15068993 , -9.789686   , -0.00021314132, -0.00027424196, 0.00055436726, 0.0156597216, -0.00290988223, 0.000105288353, 921.3423    , 30.210968   , 794.9725    , 0.58        , 3           , 255         , 0           , 0
-0.0199610237, -0.157624766, -9.79554749 , -0.000112118025, 6.698654E-06, -0.000312783464, 0.0156586077, -0.002909766, 0.000102162026, 921.3423    , 30.210968   , 794.9726    , 0.59        , 3           , 255         , 0           , 0
-0.0157201644, -0.153867468, -9.786223   , -0.000303124078, 3.40017723E-05, 0.000562322 , 0.0156555623, -0.00290951412, 0.000107789754, 921.3423    , 30.210968   , 794.9727    , 0.6         , 3           , 255         , 0           , 0
-0.0368824266, -0.151352   , -9.789547   , -0.000391831534, 1.30926492E-05, -0.000161387812, 0.0156529546, -0.0028950104, 0.000106174382, 921.3423    , 30.210968   , 794.969     , 0.61        , 3           , 255         , 0           , 0
-0.0292680264, -0.14630653 , -9.798883   , -0.000181723852, 9.219622E-05, -0.0006557961, 0.0156511553, -0.00289398618, 9.96318049E-05, 921.3423    , 30.210968   , 794.9691    , 0.62        , 3           , 255         , 0           , 0
-0.0266654  , -0.161113113, -9.801317   , -0.0005268268, -1.41940545E-05, 9.054366E-05, 0.0156458858, -0.00289414241, 0.000100534889, 921.2951    , 30.216259   , 794.969238  , 0.63        , 3           , 255         , 0           , 0
-0.02363235 , -0.16012834 , -9.799836   , -0.000563132, -2.79683154E-05, -0.000574659032, 0.0156402681, -0.002894332, 9.478475E-05, 921.2951    , 30.216259   , 794.96936   , 0.64        , 3           , 255         , 0           , 0
-0.0246752035, -0.15761669 , -9.792656   , 0.0005719314, 0.000223544019, -4.51654123E-05, 0.0156459883, -0.00289208977, 9.436812E-05, 921.2951    , 30.216259   , 794.9695    , 0.65        , 3           , 255         , 0           , 0
-0.0260691941, -0.1539205  , -9.791975   , -4.112505E-05, -0.000543622242, -0.000217258639, 0.0156455822, -0.002897491, 9.21108E-05 , 921.2951    , 30.216259   , 794.9696    , 0.66        , 3           , 255         , 0           , 0
-0.0257764049, -0.158524245, -9.794644   , -0.000255440216, -6.600941E-05, -0.00034723297, 0.0156430379, -0.00289809681, 8.862865E-05, 921.2951    , 30.216259   , 794.9697    , 0.67        , 3           , 255         , 0           , 0
-0.0171045456, -0.156833977, -9.790333   , 0.000730266736, -0.0005956978, -0.0002995467, 0.0156503487, -0.002904006, 8.554039E-05, 921.2951    , 30.216259   , 794.969849  , 0.68        , 3           , 255         , 0           , 0
-0.0346295126, -0.150872663, -9.795462   , 6.155955E-05, -0.000377067248, 2.226641E-05, 0.0156509615, -0.0029077793, 8.570402E-05, 921.2951    , 30.216259   , 794.97      , 0.69        , 3           , 255         , 0           , 0
-0.02520847 , -0.15228954 , -9.789392   , -0.000318916, -9.594177E-05, -0.000377051765, 0.0156477839, -0.00290867966, 8.191903E-05, 921.2951    , 30.216259   , 794.9701    , 0.7         , 3           , 255         , 0           , 0
-0.02564695 , -0.159375682, -9.787529   , -0.000109498913, 0.00019915984, 0.00100436027, 0.0156517271, -0.00290273759, 9.197765E-05, 921.2951    , 30.216259   , 795.032532  , 0.71        , 3           , 255         , 0           , 0
-0.0213900227, -0.155584186, -9.794276   , -0.0003403084, -0.000143407553, 0.00091533456, 0.0156482961, -0.00290431431, 0.000101107245, 921.2951    , 30.216259   , 795.0327    , 0.72        , 3           , 255         , 0           , 0
-0.0197805315, -0.143684581, -9.795315   , 0.000203364529, -1.68924453E-05, 0.0002127113, 0.0156503245, -0.00290451641, 0.000103231425, 921.325562  , 30.2189064  , 795.0329    , 0.73        , 3           , 255         , 0           , 0
-0.0282600038, -0.144268   , -9.804325   , 5.28935925E-05, 0.000216389075, 0.000201934614, 0.0156508461, -0.00290238461, 0.000105284336, 921.325562  , 30.2189064  , 795.0331    , 0.74        , 3           , 255         , 0           , 0
-0.0234711431, -0.151610479, -9.793298   , 7.358496E-06, -9.252457E-05, -0.00022515477, 0.015650928 , -0.00290327449, 0.000103018625, 921.325562  , 30.2189064  , 795.033264  , 0.75        , 3           , 255         , 0           , 0
-0.03867683 , -0.152924389, -9.793857   , -0.000117012358, -0.0002742362, 0.00048457575, 0.0156497434, -0.00290609221, 0.000107820786, 921.325562  , 30.2189064  , 795.033447  , 0.76        , 3           , 255         , 0           , 0
-0.0453489125, -0.151946589, -9.793299   , 0.000147367828, -3.55013181E-05, -0.000110488159, 0.01565122  , -0.00290643 , 0.000106710504, 921.325562  , 30.2189064  , 795.0336    , 0.77        , 3           , 255         , 0           , 0
-0.0401574075, -0.149382442, -9.79063    , -0.00010149047, 0.0003136975, 7.179573E-06, 0.0156502053, -0.00290329475, 0.00010683138, 921.325562  , 30.2189064  , 795.0338    , 0.78        , 3           , 255         , 0           , 0
-0.0340142325, -0.157634452, -9.788341   , -6.142951E-05, 0.000208495068, 0.000505976263, 0.0156495757, -0.002901289, 0.000111923044, 921.325562  , 30.2189064  , 795.034     , 0.79        , 3           , 255         , 0           , 0
-0.0290411469, -0.150822118, -9.790587   , 7.125654E-05, -0.0001860974, 0.0006495746, 0.01565027  , -0.00290325168, 0.000118388736, 921.325562  , 30.2189064  , 795.0342    , 0.8         , 3           , 255         , 0           , 0
-0.0228497647, -0.145952314, -9.796613   , 0.000189579208, -6.214017E-06, 0.000339222723, 0.0156471189, -0.00291029434, 0.000121794161, 921.325562  , 30.2189064  , 795.043762  , 0.81        , 3           , 255         , 0           , 0
-0.0269286633, -0.15146488 , -9.7933445  , 0.000815149746, -0.000171772146, -7.970919E-05, 0.0156552736, -0.00291199959, 0.0001209703, 921.325562  , 30.2189064  , 795.043945  , 0.82        , 3           , 255         , 0           , 0
-0.03100265 , -0.152078971, -9.79476452 , 0.00107750273, 3.20742838E-05, 0.0003827797, 0.0156660359, -0.00291173859, 0.00012480258, 921.295837  , 30.2230434  , 795.0441    , 0.83        , 3           , 255         , 0           , 0
-0.0246503353, -0.151827529, -9.796639   , -0.000289797055, 4.052883E-06, 1.65124729E-05, 0.0156631377, -0.00291170063, 0.000124968312, 921.295837  , 30.2230434  , 795.0443    , 0.84        , 3           , 255         , 0           , 0
-0.0221977327, -0.1623224  , -9.798859   , 6.424368E-05, 0.000188378443, -0.000193374, 0.0156637859, -0.002909787, 0.000123064368, 921.295837  , 30.2230434  , 795.0445    , 0.85        , 3           , 255         , 0           , 0
-0.0257747136, -0.164044127, -9.794915   , -0.000109658053, 1.90541032E-05, -0.000265929237, 0.0156626962, -0.00290955463, 0.000120408433, 921.295837  , 30.2230434  , 795.0447    , 0.86        , 3           , 255         , 0           , 0
-0.02318738 , -0.157783225, -9.792363   , 4.13605E-05 , 0.000152977067, 4.0274288E-05, 0.01566311  , -0.00290803146, 0.000120835066, 921.295837  , 30.2230434  , 795.044861  , 0.87        , 3           , 255         , 0           , 0
-0.0196107142, -0.156746119, -9.789026   , -0.000274084072, -0.000372538023, 0.000583636342, 0.0156603511, -0.002911848, 0.000126612256, 921.295837  , 30.2230434  , 795.045044  , 0.88        , 3           , 255         , 0           , 0
-0.0295746233, -0.151164412, -9.795919   , 0.000257277046, 6.764138E-05, -4.552716E-05, 0.0156629253, -0.00291116443, 0.000126167652, 921.295837  , 30.2230434  , 795.0452    , 0.89        , 3           , 255         , 0           , 0
-0.0302260071, -0.158816934, -9.790043   , 0.000396492076, -2.14649481E-05, -0.0002782306, 0.0156668983, -0.00291133556, 0.000123382371, 921.295837  , 30.2230434  , 795.0454    , 0.9         , 3           , 255         , 0           , 0
-0.02532878 , -0.158320755, -9.793994   , 0.000123361067, 8.191785E-05, 0.00111176  , 0.0156733021, -0.00290225353, 0.000134496076, 921.295837  , 30.2230434  , 795.087158  , 0.91        , 3           , 255         , 0           , 0
-0.02343819 , -0.151195481, -9.787406   , 0.000167106162, 0.000582980458, 0.000397099764, 0.0156749617, -0.00289648632, 0.000138557865, 921.295837  , 30.2230434  , 795.0874    , 0.92        , 3           , 255         , 0           , 0
-0.0197105668, -0.149477869, -9.798096   , 0.000556712737, 0.000386521453, -0.00022772477, 0.0156805366, -0.002892586, 0.000136341536, 921.3419    , 30.2269783  , 795.087646  , 0.93        , 3           , 255         , 0           , 0
-0.0212653615, -0.154169828, -9.803768   , -9.468576E-05, 0.000416630763, 0.0008686581, 0.0156795625, -0.00288855587, 0.0001450922, 921.3419    , 30.2269783  , 795.0879    , 0.94        , 3           , 255         , 0           , 0
-0.02554869 , -0.151079819, -9.798995   , -0.000206096389, 0.000433583744, 0.0009343804, 0.0156774763, -0.00288436748, 0.000154502617, 921.3419    , 30.2269783  , 795.088135  , 0.95        , 3           , 255         , 0           , 0
-0.0292821769, -0.147146508, -9.797232   , -0.000830824662, -9.0783E-06 , 0.0006249418, 0.0156691484, -0.00288455561, 0.000160749725, 921.3419    , 30.2269783  , 795.0884    , 0.96        , 3           , 255         , 0           , 0
-0.0287028346, -0.1531476  , -9.789479   , -0.000482807052, -0.000409419241, 0.000700369768, 0.0156643   , -0.002888759, 0.000167688282, 921.3419    , 30.2269783  , 795.0886    , 0.97        , 3           , 255         , 0           , 0
-0.03242918 , -0.144261956, -9.791494   , -9.796908E-05, -5.52216661E-05, 0.000631125236, 0.0156633034, -0.00288940966, 0.000173989989, 921.3419    , 30.2269783  , 795.0889    , 0.98        , 3           , 255         , 0           , 0
-0.03437861 , -0.146198109, -9.790899   , 0.000310374773, 0.0005438966, 0.000386370462, 0.0156663954, -0.0028840322, 0.000177938316, 921.3419    , 30.2269783  , 795.089233  , 0.99        , 3           , 255         , 0           , 0
-0.034174256, -0.151235729, -9.799345   , 0.000476316549, 0.000112354232, 0.000436793838, 0.015671147 , -0.00288297748, 0.000182323245, 921.3419    , 30.2269783  , 795.089539  , 1           , 3           , 0           , 6.01623631  , 100
-0.03357014 , -0.158712551, -9.796872   , 0.000673095463, 0.000173711218, 0.000246893876, 0.0156699084, -0.002879003, 0.000184841978, 921.3419    , 30.2269783  , 795.0738    , 1.01        , 3           , 1           , 0           , 0
-0.0333014019, -0.147239447, -9.798968   , 0.0001883976, 0.0008232953, 0.000277805026, 0.0156717822, -0.00287081487, 0.000187748636, 921.3419    , 30.2269783  , 795.074036  , 1.02        , 3           , 2           , 0           , 0
-0.03475833 , -0.141788021, -9.79336    , 0.000395314069, 0.00068432  , 0.000338369049, 0.0156757273, -0.002864025, 0.000191239073, 921.3508    , 30.2265034  , 795.0743    , 1.03        , 3           , 3           , 0           , 0
-0.0326336  , -0.148833   , -9.792265   , 4.51736269E-05, -0.00019415468, 0.00031873773, 0.01567617  , -0.00286601647, 0.000194395572, 921.3508    , 30.2265034  , 795.0745    , 1.04        , 3           , 4           , 0           , 0
-0.0287679676, -0.156261116, -9.793814   , 9.454583E-05, -0.0004108579, 0.0009948707, 0.0156770833, -0.00287028076, 0.000204278433, 921.3508    , 30.2265034  , 795.074768  , 1.05        , 3           , 5           , 0           , 0
-0.0226625036, -0.1420354  , -9.802904   , 0.0005018577, -0.000905954163, 0.00104556372, 0.0156820752, -0.00287950248, 0.0002145905, 921.3508    , 30.2265034  , 795.075     , 1.06        , 3           , 6           , 0           , 0
-0.022419136, -0.1427773  , -9.794805   , -7.404678E-05, -0.0008207091, 0.000413240981, 0.0156813227, -0.002887773, 0.000218593632, 921.3508    , 30.2265034  , 795.075256  , 1.07        , 3           , 7           , 0           , 0
-0.0327192768, -0.15426743 , -9.797794   , 0.0006903773, -0.000157333328, 0.0007467089, 0.0156882014, -0.00288946275, 0.000226034957, 921.3508    , 30.2265034  , 795.0755    , 1.08        , 3           , 8           , 5           , 5
-0.02756077 , -0.147693485, -9.79274    , 4.69965744E-05, 7.76884262E-05, 0.0001661107, 0.0156886671, -0.00288871187, 0.00022770802, 921.3508    , 30.2265034  , 795.075745  , 1.09        , 3           , 9           , 5           , 0.1
-0.0265135653, -0.147732526, -9.782672   , 0.000424238271, -1.92589359E-05, 0.0004853516, 0.0156928934, -0.00288898079, 0.00023255781, 921.3508    , 30.2265034  , 795.076     , 1.1         , 3           , 10          , 0.1         , 0.1
-0.0273495317, -0.156673536, -9.791552   , 2.86047E-05 , -0.000504107331, -2.46447889E-05, 0.0156801511, -0.00289777061, 0.000232270031, 921.3508    , 30.2265034  , 795.0528    , 1.11        , 3           , 11          , 0.009266815 , 0.009266814
-0.0195999257, -0.162276417, -9.793142   , 0.0005925821, -0.000215546868, 0.000144782825, 0.01568607  , -0.00289994827, 0.000233683822, 921.3508    , 30.2265034  , 795.053     , 1.12        , 3           , 12          , 0.174642846 , 0
-0.0263592787, -0.154617146, -9.796659   , 0.0004073148, -6.196281E-05, 5.66838062E-05, 0.0156901442, -0.00290057668, 0.000234240841, 921.3924    , 30.2310486  , 795.053162  , 1.13        , 3           , 13          , 0           , 0
-0.0292933322, -0.148230582, -9.794409   , -6.108428E-05, -0.000422765821, 5.28162564E-05, 0.01568953  , -0.00290481187, 0.0002347026, 921.3924    , 30.2310486  , 795.053345  , 1.14        , 3           , 14          , 0.000702831952, 0.0007686179
-0.027850721, -0.154909417, -9.79097    , 0.000115241681, -0.0005714678, -0.000145425118, 0.015690688 , -0.002910503, 0.0002331589, 921.3924    , 30.2310486  , 795.0536    , 1.15        , 3           , 15          , 0           , 0.000105047533
-0.0315324776, -0.156082213, -9.791725   , -0.000297648046, 2.70786113E-05, 0.00017699122, 0.0156877059, -0.00291026 , 0.0002349328, 921.3924    , 30.2310486  , 795.053833  , 1.16        , 3           , 16          , 0           , 1.401298E-45
-0.026515102, -0.14730902 , -9.798279   , -3.68813635E-05, -1.6715494E-06, -0.0005102174, 0.015687352 , -0.00291019655, 0.000229831116, 921.3924    , 30.2310486  , 795.0541    , 1.17        , 3           , 20          , 0           , 0
-0.0211647786, -0.14817223 , -9.792107   , -0.0008960214, -0.000158387877, 0.000128314568, 0.015678389 , -0.00291180075, 0.000231089231, 921.3924    , 30.2310486  , 795.0543    , 1.18        , 3           , 21          , 0           , 0
-0.02521063 , -0.152587563, -9.797846   , -0.0004525166, -0.0005578698, 0.00034827902, 0.0156738535, -0.002917433, 0.000234484076, 921.3924    , 30.2310486  , 795.054565  , 1.19        , 3           , 22          , 0           , 0
-0.0299948566, -0.159702137, -9.801974   , 8.22606962E-05, -0.000304363552, 0.000573928 , 0.01567466  , -0.00292056636, 0.000240174835, 921.3924    , 30.2310486  , 795.0548    , 1.2         , 3           , 40          , 0           , 0
-0.03488926 , -0.154738069, -9.795932   , 0.000482897856, 0.000380432932, 8.330078E-05, 0.0156804118, -0.00291160936, 0.000241064612, 921.3924    , 30.2310486  , 794.9917    , 1.21        , 3           , 41          , 0           , 0
-0.03216074 , -0.15846689 , -9.798159   , -6.28166E-05, -7.603096E-05, -9.740566E-05, 0.0156797878, -0.00291235442, 0.000240078763, 921.3924    , 30.2310486  , 794.99176   , 1.22        , 3           , 42          , 0           , 0
-0.0307067391, -0.1589708  , -9.796565   , 0.0006206832, 0.000165988633, 0.000190728722, 0.0156859886, -0.00291072438, 0.000242011811, 921.35614   , 30.2296925  , 794.9918    , 1.23        , 3           , 255         , 0           , 0
-0.0310472  , -0.163199842, -9.79215    , -5.531014E-05, 0.0004957026, 0.0009084972, 0.0156854074, -0.00290591083, 0.000251173245, 921.35614   , 30.2296925  , 794.9919    , 1.24        , 3           , 255         , 0           , 0
-0.0276224725, -0.150918886, -9.788176   , -0.0007495027, 0.000381432 , -0.000104486826, 0.01567792  , -0.00290208 , 0.000250188343, 921.35614   , 30.2296925  , 794.991943  , 1.25        , 3           , 255         , 0           , 0
-0.0233048312, -0.155920178, -9.794439   , -0.00054112263, 0.000348501373, -0.000374699943, 0.01567252  , -0.00289853686, 0.0002464965, 921.35614   , 30.2296925  , 794.992     , 1.26        , 3           , 255         , 0           , 0
-0.0341133624, -0.15588522 , -9.798073   , 4.96539869E-05, 0.000153017754, -0.000391315873, 0.0156730283, -0.002896946, 0.000242607857, 921.35614   , 30.2296925  , 794.992065  , 1.27        , 3           , 255         , 0           , 0
-0.0399843678, -0.157451183, -9.789701   , -2.53792387E-05, -0.000415735936, 0.0004767505, 0.01567276  , -0.00290117715, 0.000247309537, 921.35614   , 30.2296925  , 794.9921    , 1.28        , 3           , 255         , 0           , 0
-0.037057478, -0.157848671, -9.793815   , 1.14444993E-05, -0.000141670112, -0.000235738757, 0.0156728812, -0.002902557, 0.0002449303, 921.35614   , 30.2296925  , 794.9922    , 1.29        , 3           , 255         , 0           , 0
-0.0324121527, -0.1505594  , -9.793218   , 2.86661088E-05, -0.000487404817, -0.000231345548, 0.0156731736, -0.0029073942, 0.0002425408, 921.35614   , 30.2296925  , 794.992249  , 1.3         , 3           , 255         , 0           , 0
-0.0270931181, -0.157078773, -9.79317    , -0.0003552729, 0.00039475126, -1.707166E-05, 0.0156770423, -0.002913733, 0.000242410344, 921.35614   , 30.2296925  , 794.9733    , 1.31        , 3           , 255         , 0           , 0
-0.019345548, -0.153838143, -9.80158    , -0.0002948539, -0.000378271, -0.000203965668, 0.0156741   , -0.002917483, 0.000240311711, 921.35614   , 30.2296925  , 794.9733    , 1.32        , 3           , 255         , 0           , 0
-0.017113639, -0.1479235  , -9.784945   , 8.715934E-05, -0.0006191338, 0.000114570961, 0.01567497  , -0.00292369188, 0.000241360191, 921.3247    , 30.232542   , 794.9733    , 1.33        , 3           , 255         , 0           , 0
-0.0300348643, -0.1494567  , -9.78629    , 4.81462339E-05, 5.601265E-05, 0.000153209578, 0.015675446 , -0.002923156, 0.000242900831, 921.3247    , 30.232542   , 794.9733    , 1.34        , 3           , 255         , 0           , 0
-0.0413149148, -0.1556062  , -9.801288   , 0.000214799074, 0.000111140136, 0.000589335 , 0.0156775732, -0.002922137, 0.000248810771, 921.3247    , 30.232542   , 794.9733    , 1.35        , 3           , 255         , 0           , 0
-0.0275920872, -0.140919253, -9.7967205  , 0.000208685291, 0.000353558047, 0.000309620227, 0.0156796519, -0.0029186504, 0.000251961959, 921.3247    , 30.232542   , 794.9733    , 1.36        , 3           , 255         , 0           , 0
-0.029993277, -0.140639856, -9.798033   , -0.00035992288, 0.0005565929, 0.000270000834, 0.0156760477, -0.00291312765, 0.000254748826, 921.3247    , 30.232542   , 794.9733    , 1.37        , 3           , 255         , 0           , 0
-0.01882201 , -0.1595234  , -9.79379    , 0.000218697765, 0.000579803542, 0.0010716418, 0.0156782027, -0.002907499, 0.000265554583, 921.3247    , 30.232542   , 794.9733    , 1.38        , 3           , 255         , 0           , 0
-0.02379227 , -0.160541028, -9.789394   , -0.0007810719, -7.118058E-05, 8.550862E-05, 0.0156703871, -0.00290822354, 0.000266398361, 921.3247    , 30.232542   , 794.9733    , 1.39        , 3           , 255         , 0           , 0
-0.0322743468, -0.149750918, -9.79749    , -0.000184958859, 0.00037557754, -0.00047813484, 0.0156685542, -0.00290439348, 0.000261676585, 921.3247    , 30.232542   , 794.9733    , 1.4         , 3           , 255         , 0           , 0
-0.0377373956, -0.159735233, -9.7985     , 0.0007804825, -0.000302605971, -0.00034387596, 0.01567119  , -0.00290253782, 0.000258205924, 921.3247    , 30.232542   , 794.988831  , 1.41        , 3           , 255         , 0           , 0
-0.0322227441, -0.152701616, -9.799688   , 0.000424712256, -0.000468440237, 0.000585133152, 0.01567542  , -0.00290731271, 0.000263982947, 921.3247    , 30.232542   , 794.9889    , 1.42        , 3           , 255         , 0           , 0
-0.0246681422, -0.146641642, -9.787895   , 0.000235519372, -0.0005023323, 0.0002972039, 0.015677765 , -0.00291238213, 0.000266875839, 921.3484    , 30.2324734  , 794.988953  , 1.43        , 3           , 255         , 0           , 0
-0.0312333014, -0.145718127, -9.796741   , 0.000254312356, -0.00033608987, 0.000801508548, 0.0156802814, -0.0029158676, 0.000274837017, 921.3484    , 30.2324734  , 794.989     , 1.44        , 3           , 255         , 0           , 0
-0.027610179, -0.1545924  , -9.79136    , 5.78656327E-05, -0.000346689485, 0.000435721944, 0.01568085  , -0.00291940221, 0.000279139262, 921.3484    , 30.2324734  , 794.9891    , 1.45        , 3           , 255         , 0           , 0
-0.02959003 , -0.158153459, -9.79584    , 0.000320099352, -0.000195880537, 0.0006053734, 0.015684031 , -0.00292145577, 0.0002851614, 921.3484    , 30.2324734  , 794.989136  , 1.46        , 3           , 255         , 0           , 0
-0.0329739377, -0.155498773, -9.795753   , -0.000114453956, -0.000375966454, 8.687624E-05, 0.0156828854, -0.00292522856, 0.000285971066, 921.3484    , 30.2324734  , 794.9892    , 1.47        , 3           , 255         , 0           , 0
-0.02372535 , -0.161630824, -9.792593   , -0.0004797536, 0.00041310396, 0.0002261003, 0.0156780779, -0.0029211333, 0.00028829652, 921.3484    , 30.2324734  , 794.989258  , 1.48        , 3           , 255         , 0           , 0
-0.02261826 , -0.16749163 , -9.789392   , -0.000210915285, 0.000272874255, 0.000626823632, 0.0156759527, -0.00291850325, 0.000294606638, 921.3484    , 30.2324734  , 794.9893    , 1.49        , 3           , 255         , 0           , 0
-0.0324382037, -0.16483885 , -9.791184   , -0.00025343243, 8.737552E-07, 0.0002401658, 0.01567341  , -0.002918532, 0.0002970081, 921.3484    , 30.2324734  , 794.9894    , 1.5         , 3           , 255         , 0           , 0
-0.03658735 , -0.161253139, -9.792207   , -0.000254754152, 1.75043242E-05, 0.0008814029, 0.0156787429, -0.0029207794, 0.000305800524, 921.3484    , 30.2324734  , 794.9787    , 1.51        , 3           , 255         , 0           , 0
-0.0256322678, -0.1523886  , -9.79543    , 5.3134223E-05, -8.280011E-05, 0.000471656356, 0.0156792589, -0.00292168139, 0.000310503383, 921.3484    , 30.2324734  , 794.97876   , 1.52        , 3           , 255         , 0           , 0
-0.02529942 , -0.154818267, -9.789026   , 0.0004240481, 0.000179597177, 0.0004503732, 0.0156834852, -0.002919956, 0.000315034617, 921.3043    , 30.233017   , 794.9788    , 1.53        , 3           , 255         , 0           , 0
-0.0290122572, -0.158486143, -9.787742   , 0.000141382508, -0.000114904309, -0.000872398552, 0.0156849232, -0.00292096823, 0.000306293921, 921.3043    , 30.233017   , 794.9789    , 1.54        , 3           , 255         , 0           , 0
-0.0361732133, -0.154586822, -9.788942   , 0.0008590938, 5.469029E-05, -6.9624075E-05, 0.0156935174, -0.0029204106, 0.000305606372, 921.3043    , 30.233017   , 794.978943  , 1.55        , 3           , 255         , 0           , 0
-0.02565076 , -0.150660709, -9.795092   , 5.23372437E-05, -0.000436675677, 7.961761E-05, 0.0156940371, -0.00292478944, 0.0003063339, 921.3043    , 30.233017   , 794.979     , 1.56        , 3           , 255         , 0           , 0
-0.026536921, -0.156312644, -9.78609    , 0.000499876158, -0.000218255271, -6.94435148E-05, 0.01569904  , -0.00292696035, 0.0003056053, 921.3043    , 30.233017   , 794.979065  , 1.57        , 3           , 255         , 0           , 0
-0.02488117 , -0.154366568, -9.80023    , 0.0003594036, 0.000154598383, -0.000278636551, 0.0157026388, -0.002925371, 0.0003028436, 921.3043    , 30.233017   , 794.9791    , 1.58        , 3           , 255         , 0           , 0
-0.0241568163, -0.162705481, -9.794377   , -0.000208789075, 0.0003189497, 7.34738351E-05, 0.0157005489, -0.00292219338, 0.000303628331, 921.3043    , 30.233017   , 794.9792    , 1.59        , 3           , 255         , 0           , 0
-0.0209863745, -0.151658759, -9.795737   , 6.55538752E-05, -0.000308349932, 0.000225516415, 0.0157011971, -0.002925312, 0.000305834779, 921.3043    , 30.233017   , 794.979248  , 1.6         , 3           , 255         , 0           , 0
-0.03407698 , -0.158321112, -9.806347   , 0.000134375878, 0.000182111631, -0.0005647213, 0.01570821  , -0.00292035844, 0.000300200423, 921.3043    , 30.233017   , 795.016541  , 1.61        , 3           , 255         , 0           , 0
-0.0349173322, -0.162159577, -9.793532   , 0.0005298056, 0.00041812053, -0.0006498816, 0.0157135259, -0.00291607575, 0.000293768215, 921.3043    , 30.233017   , 795.0168    , 1.62        , 3           , 255         , 0           , 0
-0.0299031474, -0.156056628, -9.794313   , 0.0005822669, -5.97756E-05, 0.000266719959, 0.01571934  , -0.00291671534, 0.000296425656, 921.2963    , 30.2339668  , 795.017     , 1.63        , 3           , 255         , 0           , 0
-0.0333189555, -0.1479464  , -9.798673   , 0.000141649041, 0.000141273311, -0.000482778676, 0.0157207716, -0.002915227, 0.00029162076, 921.2963    , 30.2339668  , 795.0173    , 1.64        , 3           , 255         , 0           , 0
-0.03390514 , -0.156408519, -9.796644   , 0.000144057965, 0.0004938728, -0.000618946156, 0.0157222282, -0.002910192, 0.000285509828, 921.2963    , 30.2339668  , 795.0175    , 1.65        , 3           , 255         , 0           , 0
-0.03053678 , -0.16324389 , -9.788696   , 1.4746387E-05, 0.000316404621, -0.0002394804, 0.0157223828, -0.00290699047, 0.0002831651, 921.2963    , 30.2339668  , 795.017761  , 1.66        , 3           , 255         , 0           , 0
-0.02985265 , -0.146982163, -9.787345   , 0.000378235651, 0.000251836958, 0.000690572953, 0.0157261472, -0.002904581, 0.000290109456, 921.2963    , 30.2339668  , 795.018     , 1.67        , 3           , 255         , 0           , 0
-0.03575784 , -0.147236675, -9.792589   , 0.000455812726, 0.0002442767, -0.000220698654, 0.0157307126, -0.00290210336, 0.0002879412, 921.2963    , 30.2339668  , 795.01825   , 1.68        , 3           , 255         , 0           , 0
-0.0313677639, -0.152382329, -9.792128   , 0.0005236904, 0.000124554965, -0.000106091858, 0.015735954 , -0.00290084165, 0.000286900031, 921.2963    , 30.2339668  , 795.0185    , 1.69        , 3           , 255         , 0           , 0
-0.03095135 , -0.156197384, -9.789759   , 0.000657790632, -0.000259349, 0.0006037801, 0.0157425087, -0.00290352944, 0.000292896148, 921.2963    , 30.2339668  , 795.018738  , 1.7         , 3           , 255         , 0           , 0
-0.02814512 , -0.153555915, -9.789517   , 0.0003345296, -0.000311594427, 0.000703646 , 0.0157475211, -0.00291620614, 0.000299877545, 921.2963    , 30.2339668  , 795.0617    , 1.71        , 3           , 255         , 0           , 0
-0.0290638171, -0.152103275, -9.799992   , -0.0005809277, 0.000222669449, -0.0003647999, 0.0157417245, -0.0029139223, 0.00029626512, 921.2963    , 30.2339668  , 795.0622    , 1.72        , 3           , 255         , 0           , 0
-0.0263263285, -0.154072076, -9.7907505  , 0.000179655559, 0.000114002149, -0.0003200473, 0.0157435313, -0.00291273231, 0.000293083052, 921.3274    , 30.2347813  , 795.0627    , 1.73        , 3           , 255         , 0           , 0
-0.0259892289, -0.153723449, -9.797197   , 0.0001914674, -0.000213019084, 0.000575051236, 0.0157454275, -0.00291495281, 0.000298799219, 921.3274    , 30.2347813  , 795.0632    , 1.74        , 3           , 255         , 0           , 0
-0.0222342089, -0.150428921, -9.788988   , 0.000208415848, 6.48936257E-05, 0.000133130059, 0.015747508 , -0.002914325, 0.0003001405, 921.3274    , 30.2347813  , 795.06366   , 1.75        , 3           , 255         , 0           , 0
-0.0275664032, -0.155641124, -9.796398   , 0.000261246285, 0.000448791776, -0.0002613141, 0.0157501288, -0.00290979678, 0.000297598424, 921.3274    , 30.2347813  , 795.064148  , 1.76        , 3           , 255         , 0           , 0
-0.0252584871, -0.157183781, -9.795441   , -2.187863E-05, 0.0001220351, 0.00103582523, 0.01574988  , -0.002908739, 0.0003079744, 921.3274    , 30.2347813  , 795.064636  , 1.77        , 3           , 255         , 0           , 0
-0.01808998 , -0.150578171, -9.80442    , 4.563917E-05, 7.02290563E-05, -0.00014952707, 0.0157503411, -0.0029080133, 0.0003064904, 921.3274    , 30.2347813  , 795.0651    , 1.78        , 3           , 255         , 0           , 0
-0.0245614313, -0.154348329, -9.791182   , 0.0006647008, 0.0004106128, 0.00068862614, 0.0157569665, -0.00290401629, 0.000313440338, 921.3274    , 30.2347813  , 795.0656    , 1.79        , 3           , 255         , 0           , 0
-0.0333718732, -0.157199427, -9.791594   , -0.000139181444, -0.0002610805, -0.000161296455, 0.015755577 , -0.002906601, 0.000311786484, 921.3274    , 30.2347813  , 795.0661    , 1.8         , 3           , 255         , 0           , 0
-0.0305001326, -0.153937116, -9.79482651 , -0.000248923781, -0.0005756307, 0.000500880065, 0.0157522559, -0.00290677976, 0.0003167062, 921.3274    , 30.2347813  , 795.0696    , 1.81        , 3           , 255         , 0           , 0
-0.02110364 , -0.1473061  , -9.797308   , 2.334587E-05, 0.000328612165, 0.000147595769, 0.015752485 , -0.00290351757, 0.000318233739, 921.3274    , 30.2347813  , 795.0701    , 1.82        , 3           , 255         , 0           , 0
-0.0119561572, -0.145404413, -9.796064   , 0.000146705657, 0.000286000082, -0.000309920579, 0.0157539621, -0.00290060882, 0.000315180019, 921.340454  , 30.2322025  , 795.0707    , 1.83        , 3           , 255         , 0           , 0
-0.0244673155, -0.155185387, -9.79085    , 0.000477378722, -0.000155178248, -0.000134955248, 0.0157587416, -0.00290213921, 0.000313806173, 921.340454  , 30.2322025  , 795.0712    , 1.84        , 3           , 255         , 0           , 0
-0.0286611877, -0.1551235  , -9.79554    , 0.0002844421, 0.0004624694, 0.000328361348, 0.0157615747, -0.002897567, 0.000317162252, 921.340454  , 30.2322025  , 795.0718    , 1.85        , 3           , 255         , 0           , 0
-0.030356029, -0.150028542, -9.788483   , 0.000412681024, 0.000368180452, 0.000166522572, 0.0157656986, -0.00289391214, 0.000318885257, 921.340454  , 30.2322025  , 795.0723    , 1.86        , 3           , 255         , 0           , 0
-0.0286519974, -0.151043683, -9.791109   , 0.0003261621, 0.000363901956, 8.521732E-05, 0.0157689545, -0.0028902872, 0.000319794664, 921.340454  , 30.2322025  , 795.0729    , 1.87        , 3           , 255         , 0           , 0
-0.0287698619, -0.152970716, -9.794011   , -0.000407240062, 9.233318E-05, 0.0004968964, 0.01576487  , -0.00288944226, 0.000324777473, 921.340454  , 30.2322025  , 795.0734    , 1.88        , 3           , 255         , 0           , 0
-0.0278966241, -0.155884147, -9.787145   , 9.199721E-05, 0.0001537308, 0.00102752622, 0.01576576  , -0.00288806669, 0.000335075427, 921.340454  , 30.2322025  , 795.074     , 1.89        , 3           , 255         , 0           , 0
-0.0234320462, -0.160193726, -9.786478   , 0.0001327935, -8.398318E-05, 0.00085513  , 0.01576706  , -0.00288904132, 0.0003436123, 921.340454  , 30.2322025  , 795.0745    , 1.9         , 3           , 255         , 0           , 0
-0.0339754559, -0.151636869, -9.794182   , -0.000309497176, -0.000305376569, 5.66957679E-05, 0.0157596823, -0.00288472977, 0.000344143366, 921.340454  , 30.2322025  , 795.0619    , 1.91        , 3           , 255         , 0           , 0
-0.0316607431, -0.156105086, -9.798508   , 0.00033929135, -0.000121079211, 7.193724E-05, 0.0157630742, -0.00288595166, 0.000344843545, 921.340454  , 30.2322025  , 795.0624    , 1.92        , 3           , 255         , 0           , 0
-0.02164415 , -0.144815534, -9.797468   , 0.000391248439, -0.0001393038, 0.0004156078, 0.01576697  , -0.00288741 , 0.000348977075, 921.3271    , 30.2354584  , 795.062866  , 1.93        , 3           , 255         , 0           , 0
-0.02789567 , -0.146820247, -9.792718   , 8.95158737E-05, -8.33777E-05, -7.39827374E-06, 0.0157678667, -0.00288824248, 0.000348889967, 921.3271    , 30.2354584  , 795.063354  , 1.94        , 3           , 255         , 0           , 0
-0.0340229943, -0.148822322, -9.797892   , -0.0002404764, -0.000349651673, -0.00029359886, 0.0157654714, -0.00289169187, 0.0003458993, 921.3271    , 30.2354584  , 795.063843  , 1.95        , 3           , 255         , 0           , 0
-0.03295707 , -0.153618053, -9.788595   , -6.24106E-05, -0.000217719353, 0.000260864064, 0.01576484  , -0.00289391 , 0.00034847323, 921.3271    , 30.2354584  , 795.064331  , 1.96        , 3           , 255         , 0           , 0
-0.0274275  , -0.153514385, -9.799999   , -4.5027642E-05, -6.832217E-05, -3.47609821E-05, 0.01576439  , -0.00289458735, 0.000348114932, 921.3271    , 30.2354584  , 795.0648    , 1.97        , 3           , 255         , 0           , 0
-0.03669356 , -0.156020686, -9.796674   , 8.616061E-05, -0.000691589841, 0.000166046608, 0.01576525  , -0.00290152826, 0.000349666137, 921.3271    , 30.2354584  , 795.0653    , 1.98        , 3           , 255         , 0           , 0
-0.03128404 , -0.159135059, -9.789503   , 0.000152413792, -0.000124249957, 1.12391208E-05, 0.0157667734, -0.00290277274, 0.00034975892, 921.3271    , 30.2354584  , 795.0658    , 1.99        , 3           , 255         , 0           , 0
-0.0250254422, -0.15596585 , -9.791183   , 3.862969E-05, -3.240665E-05, 8.28789853E-05, 0.0157671534, -0.00290310988, 0.000350582472, 921.3271    , 30.2354584  , 795.0663    , 2           , 3           , 0           , 7.01623631  , 200
-0.0284783039, -0.144155666, -9.787323   , 0.0004942486, -8.179963E-05, -0.000408387277, 0.0157682449, -0.00290805125, 0.000346497516, 921.3271    , 30.2354584  , 795.0701    , 2.01        , 3           , 1           , 0           , 0
-0.0332487449, -0.154239   , -9.79391    , -5.61501365E-05, 0.0002485207, -0.0006528833, 0.0157677028, -0.00290546333, 0.000340008817, 921.3271    , 30.2354584  , 795.0706    , 2.02        , 3           , 2           , 0           , 0
-0.02515151 , -0.155021861, -9.78938    , -9.013864E-06, 9.744492E-05, 0.0005503359, 0.0157675985, -0.002904576, 0.000345526758, 921.346069  , 30.2364082  , 795.0711    , 2.03        , 3           , 3           , 0           , 0
-0.0272238  , -0.151966184, -9.784983   , -5.71917626E-05, 0.00085635815, 0.0002300832, 0.01576702  , -0.00289604976, 0.0003479623, 921.346069  , 30.2364082  , 795.0716    , 2.04        , 3           , 4           , 0           , 0
-0.0246633887, -0.149732679, -9.794034   , -0.000182423391, 8.573831E-05, -0.000229489917, 0.015765205 , -0.00289515615, 0.000345681241, 921.346069  , 30.2364082  , 795.0721    , 2.05        , 3           , 5           , 0           , 0
-0.0245529152, -0.160805672, -9.796379   , -0.00021401397, -9.003683E-05, 0.000483071024, 0.0157630481, -0.00289613241, 0.000350497081, 921.346069  , 30.2364082  , 795.0726    , 2.06        , 3           , 6           , 0           , 0
-0.03317404 , -0.159850553, -9.794739   , 1.77976326E-05, 0.0003542654, 0.0005247429, 0.015763212 , -0.002892673, 0.000355799537, 921.346069  , 30.2364082  , 795.073059  , 2.07        , 3           , 7           , 0           , 0
-0.03107301 , -0.154144913, -9.793508   , -0.000362065359, 0.000203837175, 0.000279094384, 0.0157595817, -0.002890679, 0.00035862223, 921.346069  , 30.2364082  , 795.073547  , 2.08        , 3           , 8           , 5           , 5
-0.03520284 , -0.150987178, -9.794307   , -0.0009430291, 2.53007747E-05, 0.0001495924, 0.0157501474, -0.00289044925, 0.000360121863, 921.346069  , 30.2364082  , 795.074036  , 2.09        , 3           , 9           , 5           , 0.1
-0.026781911, -0.151518792, -9.794144   , 0.0002670089, 0.000112006848, -0.000132170579, 0.0157528184, -0.00288930861, 0.000358818041, 921.346069  , 30.2364082  , 795.0745    , 2.1         , 3           , 10          , 0.1         , 0.1
-0.0145058753, -0.14804244 , -9.797809   , 0.00053470704, -8.79243E-05, -0.000195281275, 0.0157553069, -0.00289164251, 0.000356859935, 921.346069  , 30.2364082  , 795.053833  , 2.11        , 3           , 11          , 0.008196187 , 0.008196186
-0.0220465232, -0.142185718, -9.801884   , -0.000240119378, -6.488757E-06, 0.0008649714, 0.015752878 , -0.00289184344, 0.000365507382, 921.346069  , 30.2364082  , 795.0542    , 2.12        , 3           , 12          , 0.174643889 , 0
-0.02585414 , -0.144437358, -9.793573   , 0.000360148784, -0.000476092042, 0.0005951534, 0.0157564618, -0.00289669749, 0.000371383067, 921.352234  , 30.238308   , 795.054565  , 2.13        , 3           , 13          , 0           , 0
-0.029582303, -0.158069789, -9.800226   , 0.000422631216, -0.000399250363, 0.00070699316, 0.0157606676, -0.00290080067, 0.000378389028, 921.352234  , 30.238308   , 795.054932  , 2.14        , 3           , 14          , 0.0007028294, 0.00076862087
-0.0273665152, -0.154689386, -9.798088   , 0.000262060261, 2.08876445E-05, -1.39473923E-05, 0.0157632884, -0.00290058972, 0.000378252851, 921.352234  , 30.238308   , 795.0553    , 2.15        , 3           , 15          , 0           , 0.000105047489
-0.0285067167, -0.153363168, -9.792898   , -0.0002541109, -0.000215142267, -0.000309288473, 0.0157607552, -0.00290269242, 0.000375126518, 921.352234  , 30.238308   , 795.055664  , 2.16        , 3           , 16          , 0           , 1.401298E-45
-0.0280227419, -0.151096508, -9.792226   , -0.000411464978, -0.000107877655, -4.72711981E-05, 0.01575664  , -0.00290376367, 0.000374636846, 921.352234  , 30.238308   , 795.056     , 2.17        , 3           , 20          , 0           , 0
-0.03621561 , -0.154584959, -9.798586   , -0.00010196009, 0.0006069506, 0.000124529615, 0.015755618 , -0.00289771426, 0.0003759776, 921.352234  , 30.238308   , 795.0564    , 2.18        , 3           , 21          , 0           , 0
-0.0324026719, -0.143230826, -9.795635   , 1.89818675E-05, -1.44304358E-05, -1.37074312E-05, 0.015755808 , -0.00289785652, 0.000375838281, 921.352234  , 30.238308   , 795.056763  , 2.19        , 3           , 22          , 0           , 0
-0.0179365836, -0.15594925 , -9.795921   , 0.0007341011, -0.000126751082, 0.000398843724, 0.0157631375, -0.00289918669, 0.000379806181, 921.352234  , 30.238308   , 795.0571    , 2.2         , 3           , 40          , 0           , 0
-0.0266520623, -0.155884862, -9.795008   , 0.000674414565, -0.0002041962, 0.000708040432, 0.01576278  , -0.00289735 , 0.0003868739, 921.352234  , 30.238308   , 795.030334  , 2.21        , 3           , 41          , 0           , 0
-0.0265524331, -0.147287756, -9.790809   , 0.000285090529, 7.954787E-05, 0.0005271599, 0.0157656148, -0.00289663742, 0.000392157264, 921.352234  , 30.238308   , 795.0306    , 2.22        , 3           , 42          , 0           , 0
-0.0229375549, -0.158238545, -9.796658   , 0.000278865919, 0.000143201323, 0.00133650412, 0.01576836  , -0.00289541669, 0.000405542931, 921.3328    , 30.2380371  , 795.0308    , 2.23        , 3           , 255         , 0           , 0
-0.025208313, -0.157309   , -9.797728   , 0.000192714215, 1.99845526E-05, 0.0006741979, 0.01577027  , -0.00289532263, 0.0004122871, 921.3328    , 30.2380371  , 795.031067  , 2.24        , 3           , 255         , 0           , 0
-0.0216768682, -0.1518031  , -9.789345   , -0.000155410147, 1.88254635E-05, 0.000471965963, 0.0157687049, -0.00289520854, 0.000417009025, 921.3328    , 30.2380371  , 795.0313    , 2.25        , 3           , 255         , 0           , 0
-0.0299763922, -0.158693492, -9.786793   , 0.0003613804, 0.000409364 , 0.00081251876, 0.0157722943, -0.00289124413, 0.0004251976, 921.3328    , 30.2380371  , 795.031555  , 2.26        , 3           , 255         , 0           , 0
-0.02761671 , -0.14925158 , -9.785552   , -0.000127554, 5.26197255E-05, 0.000347816531, 0.0157710053, -0.00289077242, 0.000428683561, 921.3328    , 30.2380371  , 795.0318    , 2.27        , 3           , 255         , 0           , 0
-0.0305708889, -0.150837332, -9.792831   , 0.000137705472, -0.000352792966, -0.000265909417, 0.01577239  , -0.00289425766, 0.000425969221, 921.3328    , 30.2380371  , 795.032043  , 2.28        , 3           , 255         , 0           , 0
-0.0287502166, -0.157303438, -9.801862   , 0.0005080127, -0.00037743093, -0.000121110133, 0.01577747  , -0.00289801252, 0.000424698752, 921.3328    , 30.2380371  , 795.0323    , 2.29        , 3           , 255         , 0           , 0
-0.0249398649, -0.151558429, -9.80093    , -0.000279529981, 6.572134E-05, 0.0006273213, 0.0157746542, -0.00289745443, 0.000430981425, 921.3328    , 30.2380371  , 795.032532  , 2.3         , 3           , 255         , 0           , 0
-0.02504072 , -0.146070451, -9.803186   , 0.000274968159, 4.99428133E-05, 0.000701068 , 0.01577602  , -0.00289304415, 0.0004380029, 921.3328    , 30.2380371  , 795.0334    , 2.31        , 3           , 255         , 0           , 0
-0.0293718968, -0.146406129, -9.795797   , 0.000194411725, 0.000104793231, 0.000199933784, 0.0157779567, -0.00289202784, 0.000440018484, 921.3328    , 30.2380371  , 795.0336    , 2.32        , 3           , 255         , 0           , 0
-0.03305953 , -0.1520306  , -9.792177   , 0.000333118427, -1.05779036E-05, 0.000461449323, 0.0157812741, -0.00289220666, 0.0004446306, 921.33844   , 30.239666   , 795.0339    , 2.33        , 3           , 255         , 0           , 0
-0.0303044915, -0.155004442, -9.791058   , 0.000127132982, 5.453633E-05, 0.0002883926, 0.0157825351, -0.002891707, 0.0004475227, 921.33844   , 30.239666   , 795.0341    , 2.34        , 3           , 255         , 0           , 0
-0.022505166, -0.15361321 , -9.786353   , 0.000211978971, -0.000258901564, 0.000338412938, 0.0157846455, -0.0028943487, 0.000450865453, 921.33844   , 30.239666   , 795.034363  , 2.35        , 3           , 255         , 0           , 0
-0.0281320252, -0.153999686, -9.799349   , -0.000344838918, 1.14375143E-05, -0.000136846444, 0.0157812033, -0.00289421272, 0.000449499 , 921.33844   , 30.239666   , 795.0346    , 2.36        , 3           , 255         , 0           , 0
-0.0270348731, -0.157510787, -9.799767   , -0.000138197327, -0.000111546367, 0.0005198625, 0.0157798044, -0.00289541017, 0.000454679277, 921.33844   , 30.239666   , 795.034851  , 2.37        , 3           , 255         , 0           , 0
-0.0307348017, -0.154020235, -9.799545   , -0.000466265221, -6.144954E-05, 0.000130845176, 0.0157751366, -0.00289604557, 0.0004559778, 921.33844   , 30.239666   , 795.0351    , 2.38        , 3           , 255         , 0           , 0
-0.04046551 , -0.149243444, -9.79494    , -0.000231653336, -2.83300178E-05, -0.000202003081, 0.015772827 , -0.00289629633, 0.000453953631, 921.33844   , 30.239666   , 795.035339  , 2.39        , 3           , 255         , 0           , 0
-0.0279923771, -0.1593192  , -9.788879   , -2.46614218E-06, 0.000180605857, 0.000148678359, 0.015772799 , -0.002894514, 0.00045546866, 921.33844   , 30.239666   , 795.0356    , 2.4         , 3           , 255         , 0           , 0
-0.03082304 , -0.148020267, -9.789072   , 0.000156428025, -0.000159932475, 0.000456841721, 0.0157706868, -0.00289835 , 0.000460021838, 921.33844   , 30.239666   , 795.029053  , 2.41        , 3           , 255         , 0           , 0
-0.03215153 , -0.153901413, -9.786108   , 0.000192462292, -0.000591384, 0.0002181262, 0.0157726035, -0.00290429732, 0.0004621095, 921.33844   , 30.239666   , 795.0293    , 2.42        , 3           , 255         , 0           , 0
-0.0297301374, -0.148313314, -9.790655   , 0.00033836026, -0.0004211258, 0.000129089778, 0.0157759842, -0.002908528, 0.000463333767, 921.349365  , 30.2376976  , 795.029541  , 2.43        , 3           , 255         , 0           , 0
-0.0339629129, -0.156221032, -9.797424   , 6.94428454E-05, -0.0004541271, 0.000128774467, 0.0157766752, -0.00291308924, 0.000464549725, 921.349365  , 30.2376976  , 795.0298    , 2.44        , 3           , 255         , 0           , 0
-0.02446376 , -0.150007039, -9.79604149 , -0.000387717038, -0.000154775858, 0.0002964076, 0.0157727934, -0.00291468343, 0.000467488979, 921.349365  , 30.2376976  , 795.03      , 2.45        , 3           , 255         , 0           , 0
-0.03549065 , -0.153504074, -9.790855   , 0.000139267242, -2.86547E-05, 0.000197547022, 0.01577418  , -0.00291500147, 0.000469459628, 921.349365  , 30.2376976  , 795.0303    , 2.46        , 3           , 255         , 0           , 0
-0.02704357 , -0.15291135 , -9.794964   , -0.000419006945, -4.01936122E-05, 0.000253198552, 0.01576998  , -0.002915443, 0.00047198488, 921.349365  , 30.2376976  , 795.0305    , 2.47        , 3           , 255         , 0           , 0
-0.02613281 , -0.163034275, -9.789208   , -0.0005944003, -0.000100560486, -0.000157155329, 0.0157640427, -0.0029164236, 0.000470397732, 921.349365  , 30.2376976  , 795.030762  , 2.48        , 3           , 255         , 0           , 0
-0.03335277 , -0.154728651, -9.7909565  , -7.365801E-05, 0.000230180623, -0.0003606685, 0.0157633182, -0.00291406526, 0.000466827827, 921.349365  , 30.2376976  , 795.031     , 2.49        , 3           , 255         , 0           , 0
-0.0297057182, -0.1468902  , -9.795576   , 0.000152185559, 0.000300793734, -0.000201580784, 0.0157648474, -0.00291102612, 0.0004648597, 921.349365  , 30.2376976  , 795.03125   , 2.5         , 3           , 255         , 0           , 0
-0.0255365483, -0.154620573, -9.794692   , 0.0002537961, 0.000130934117, 0.000481558818, 0.0157633573, -0.0029138634, 0.000469706982, 921.349365  , 30.2376976  , 795.010254  , 2.51        , 3           , 255         , 0           , 0
-0.0312241018, -0.1551092  , -9.79464149 , 0.0003723778, -0.000265989453, 0.0010883736, 0.0157670453, -0.00291669462, 0.0004805471, 921.349365  , 30.2376976  , 795.0104    , 2.52        , 3           , 255         , 0           , 0
-0.02554976 , -0.147283316, -9.783713   , 1.03302882E-05, -0.000304832181, 0.0007116209, 0.0157671254, -0.00291985436, 0.000487614219, 921.28894   , 30.2382412  , 795.0105    , 2.53        , 3           , 255         , 0           , 0
-0.031094823, -0.15085341 , -9.794243   , 0.000170176383, 0.000126638566, 0.0003856106, 0.0157688167, -0.002918649, 0.0004914897, 921.28894   , 30.2382412  , 795.0106    , 2.54        , 3           , 255         , 0           , 0
-0.03646878 , -0.154015258, -9.7956295  , -0.000104040839, 0.0001395769, 0.000623087341, 0.0157677568, -0.00291735167, 0.0004977417, 921.28894   , 30.2382412  , 795.010742  , 2.55        , 3           , 255         , 0           , 0
-0.03169    , -0.157245323, -9.7955     , 0.000107105065, -0.000487414072, 0.0001603289, 0.015768826 , -0.00292225042, 0.0004992679, 921.28894   , 30.2382412  , 795.010864  , 2.56        , 3           , 255         , 0           , 0
-0.0201542657, -0.144649416, -9.796282   , 0.0007387261, -8.227886E-05, 0.0004006305, 0.0157762   , -0.002923136, 0.000503260642, 921.28894   , 30.2382412  , 795.011     , 2.57        , 3           , 255         , 0           , 0
-0.03057373 , -0.1523585  , -9.794247   , 0.000291996635, -2.760283E-05, 0.0004614816, 0.0157791059, -0.002923485, 0.0005078704, 921.28894   , 30.2382412  , 795.0111    , 2.58        , 3           , 255         , 0           , 0
-0.0280488785, -0.157871932, -9.796457   , -0.000301258755, -0.000389046152, -0.00039311318, 0.0157761052, -0.00292731239, 0.000503878458, 921.28894   , 30.2382412  , 795.0112    , 2.59        , 3           , 255         , 0           , 0
-0.0366092436, -0.147763416, -9.79873848 , 0.000229545578, -7.346977E-05, -0.0005679554, 0.0157784168, -0.00292795734, 0.000498188136, 921.28894   , 30.2382412  , 795.011353  , 2.6         , 3           , 255         , 0           , 0
-0.03952025 , -0.152603328, -9.796621   , 6.62563252E-05, 0.000194379478, -0.000524816045, 0.01577468  , -0.00292809028, 0.0004929843, 921.28894   , 30.2382412  , 795.0751    , 2.61        , 3           , 255         , 0           , 0
-0.03367739 , -0.1573228  , -9.794899   , -0.0007104071, 0.000410340261, 6.531477E-05, 0.0157675724, -0.00292399828, 0.000493702129, 921.28894   , 30.2382412  , 795.0756    , 2.62        , 3           , 255         , 0           , 0
-0.0293154661, -0.151460558, -9.796404   , -3.01361433E-05, 0.000126697763, 0.000126414539, 0.015767267 , -0.00292275078, 0.000494986132, 921.3905    , 30.2424469  , 795.0762    , 2.63        , 3           , 255         , 0           , 0
-0.0321359225, -0.144778386, -9.793262   , -0.0002755283, 3.549579E-05, -0.000105281259, 0.0157645158, -0.00292237941, 0.000493939035, 921.3905    , 30.2424469  , 795.0767    , 2.64        , 3           , 255         , 0           , 0
-0.01959079 , -0.144040748, -9.793811   , -0.00010807073, -5.61746419E-05, -8.1528764E-05, 0.01576344  , -0.002922928, 0.000493115047, 921.3905    , 30.2424469  , 795.0773    , 2.65        , 3           , 255         , 0           , 0
-0.03374599 , -0.155191034, -9.792202   , 0.000627541158, -0.000222096278, -0.00040630193, 0.0157697219, -0.00292508467, 0.0004890175, 921.3905    , 30.2424469  , 795.0778    , 2.66        , 3           , 255         , 0           , 0
-0.0284597222, -0.1619212  , -9.797933   , 6.018713E-05, -0.0002600908, 3.62144783E-06, 0.0157703236, -0.00292768562, 0.0004890127, 921.3905    , 30.2424469  , 795.078369  , 2.67        , 3           , 255         , 0           , 0
-0.0201810449, -0.16067481 , -9.79484749 , 9.450386E-05, 0.0001514394, -0.000274833466, 0.0157712754, -0.002926128, 0.000486288685, 921.3905    , 30.2424469  , 795.0789    , 2.68        , 3           , 255         , 0           , 0
-0.0148644894, -0.158814818, -9.801881   , -0.00032414298, 6.59466E-05 , -5.015813E-05, 0.0157680381, -0.002925461, 0.000485797616, 921.3905    , 30.2424469  , 795.079468  , 2.69        , 3           , 255         , 0           , 0
-0.02061668 , -0.16641219 , -9.806658   , -0.000407507585, -0.000434404181, 0.0007881062, 0.0157639384, -0.00292992848, 0.000493609 , 921.3905    , 30.2424469  , 795.08      , 2.7         , 3           , 255         , 0           , 0
-0.0262712985, -0.156579763, -9.79148    , -0.000475863664, 1.74365123E-05, 8.17287E-05 , 0.0157606136, -0.002927422, 0.0004944246, 921.3905    , 30.2424469  , 794.9952    , 2.71        , 3           , 255         , 0           , 0
-0.03159363 , -0.146789953, -9.799826   , 4.74054832E-06, -0.000106943189, -6.646785E-05, 0.015760662 , -0.00292848074, 0.000493743166, 921.3905    , 30.2424469  , 794.9952    , 2.72        , 3           , 255         , 0           , 0
-0.0310325325, -0.148276284, -9.791153   , 0.000106072635, -0.000253255363, 0.0002706058, 0.0157617144, -0.00293105538, 0.00049640896, 921.3469    , 30.238987   , 794.9952    , 2.73        , 3           , 255         , 0           , 0
-0.0303164311, -0.1540254  , -9.788194   , 0.0006057624, -0.000350266375, 1.17330128E-05, 0.01576777  , -0.00293455948, 0.000496471068, 921.3469    , 30.238987   , 794.9952    , 2.74        , 3           , 255         , 0           , 0
-0.021370396, -0.152723655, -9.79336    , 0.00020980445, -0.00018424372, -0.000263513444, 0.0157698728, -0.00293636043, 0.0004938072, 921.3469    , 30.238987   , 794.9952    , 2.75        , 3           , 255         , 0           , 0
-0.019380698, -0.143657789, -9.798995   , 4.018983E-05, -0.000321286469, -0.000258749846, 0.0157702826, -0.002939532, 0.0004911695, 921.3469    , 30.238987   , 794.9952    , 2.76        , 3           , 255         , 0           , 0
-0.02553407 , -0.157969788, -9.801797   , 9.60108E-05 , 0.000234747364, 0.000341272535, 0.01577123  , -0.002937239, 0.0004946187, 921.3469    , 30.238987   , 794.9952    , 2.77        , 3           , 255         , 0           , 0
-0.0295209847, -0.15701285 , -9.790264   , 0.000484406075, -0.000237302331, 0.000580565 , 0.0157760549, -0.00293970271, 0.000500386057, 921.3469    , 30.238987   , 794.9952    , 2.78        , 3           , 255         , 0           , 0
-0.02581128 , -0.159734   , -9.793921   , 0.000472156622, -0.0004628779, 0.000331524439, 0.01578077  , -0.00294438354, 0.000503627758, 921.3469    , 30.238987   , 794.9952    , 2.79        , 3           , 255         , 0           , 0
-0.0278995223, -0.145423383, -9.794035   , -7.126934E-05, -0.0005884288, 0.000430403452, 0.0157800429, -0.00295033469, 0.000507838442, 921.3469    , 30.238987   , 794.9952    , 2.8         , 3           , 255         , 0           , 0
-0.0273924116, -0.156520039, -9.793837   , 1.11676054E-05, -0.000225417549, 0.000137217314, 0.0157759134, -0.00294904737, 0.000509187346, 921.3469    , 30.238987   , 794.9821    , 2.81        , 3           , 255         , 0           , 0
-0.03044802 , -0.156702429, -9.79678249 , 0.0001083081, -3.88564658E-05, -0.000424910453, 0.0157770067, -0.002949369, 0.000504932657, 921.3469    , 30.238987   , 794.982056  , 2.82        , 3           , 255         , 0           , 0
-0.04332002 , -0.151259676, -9.79204    , -0.000109333021, -4.00836E-05, 0.000125784267, 0.01577591  , -0.0029497894, 0.000506184 , 921.3678    , 30.238308   , 794.982     , 2.83        , 3           , 255         , 0           , 0
-0.0361788347, -0.159747392, -9.792112   , -1.41251367E-05, 0.000106621766, -4.461209E-05, 0.01577577  , -0.00294871628, 0.0005057548, 921.3678    , 30.238308   , 794.981934  , 2.84        , 3           , 255         , 0           , 0
-0.0264478438, -0.155401379, -9.795026   , -0.000587511342, -9.35613643E-05, 0.000267396448, 0.0157698877, -0.002949694, 0.0005084136, 921.3678    , 30.238308   , 794.9819    , 2.85        , 3           , 255         , 0           , 0
-0.02139919 , -0.15995872 , -9.79122    , -0.0006598586, -0.000241187576, -0.000280753826, 0.0157632977, -0.002952062, 0.00050556846, 921.3678    , 30.238308   , 794.9818    , 2.86        , 3           , 255         , 0           , 0
-0.02797987 , -0.146867588, -9.796713   , -0.000173342, -0.000304958376, -0.000165978563, 0.0157615654, -0.00295508467, 0.0005038609, 921.3678    , 30.238308   , 794.98175   , 2.87        , 3           , 255         , 0           , 0
-0.03562077 , -0.145886153, -9.789538   , -0.000225709955, -7.79485E-05, 0.0007753036, 0.0157592874, -0.00295598619, 0.000511600461, 921.3678    , 30.238308   , 794.9817    , 2.88        , 3           , 255         , 0           , 0
-0.0349527  , -0.156122476, -9.791754   , -0.0003279347, 0.000167936378, -0.0003651221, 0.0157560185, -0.0029542495, 0.0005079762, 921.3678    , 30.238308   , 794.9816    , 2.89        , 3           , 255         , 0           , 0
-0.03620798 , -0.156433553, -9.803347   , -0.000366738357, 0.000282018154, 0.000107582819, 0.015752349 , -0.002951447, 0.000509096368, 921.3678    , 30.238308   , 794.981567  , 2.9         , 3           , 255         , 0           , 0
-0.030575078, -0.1465442  , -9.801314   , -1.909997E-05, 0.000532497535, 0.0004025359, 0.015752146 , -0.002951964, 0.000513204955, 921.3678    , 30.238308   , 794.9408    , 2.91        , 3           , 255         , 0           , 0
-0.0235012453, -0.14933376 , -9.797566   , 0.0003248825, 6.077008E-05, 2.46641139E-05, 0.0157553926, -0.00295136031, 0.0005134612, 921.3678    , 30.238308   , 794.9405    , 2.92        , 3           , 255         , 0           , 0
-0.0339318775, -0.158312753, -9.792746   , -8.118356E-05, -0.000447370985, 0.0004943551, 0.0157545675, -0.00295591122, 0.000518333632, 921.352     , 30.2394619  , 794.9402    , 2.93        , 3           , 255         , 0           , 0
-0.03367611 , -0.154481083, -9.793891   , -0.0005198888, -0.000408034364, 5.31510159E-06, 0.0157493688, -0.002959992, 0.000518322457, 921.352     , 30.2394619  , 794.9399    , 2.94        , 3           , 255         , 0           , 0
-0.026548326, -0.151883259, -9.797472   , -0.000379398669, 0.0002566171, -0.000497338769, 0.0157455914, -0.00295734871, 0.0005133902, 921.352     , 30.2394619  , 794.9396    , 2.95        , 3           , 255         , 0           , 0
-0.0335314162, -0.156186908, -9.795809   , 7.367134E-05, 0.000162398384, -0.000379622681, 0.0157463364, -0.00295566465, 0.0005096201, 921.352     , 30.2394619  , 794.9393    , 2.96        , 3           , 255         , 0           , 0
-0.0234729666, -0.160323173, -9.795545   , -0.000295505452, -0.0006216982, -0.000243391274, 0.0157433916, -0.00296184234, 0.000507088553, 921.352     , 30.2394619  , 794.938965  , 2.97        , 3           , 255         , 0           , 0
-0.021523824, -0.15000698 , -9.794805   , 0.0003456645, -0.000248324533, 0.0007540445, 0.0157468244, -0.00296444423, 0.000514588843, 921.352     , 30.2394619  , 794.93866   , 2.98        , 3           , 255         , 0           , 0
-0.0151640577, -0.1520845  , -9.794063   , 0.0005225441, -0.0004084406, 0.00077421905, 0.0157520268, -0.00296864938, 0.0005222655, 921.352     , 30.2394619  , 794.938354  , 2.99        , 3           , 255         , 0           , 0
-0.0266815387, -0.162914962, -9.793108   , 0.000280928973, -0.0004079662, -3.94864037E-05, 0.01575484  , -0.00297272252, 0.0005218065, 921.352     , 30.2394619  , 794.938049  , 3           , 3           , 0           , 8.016236    , 300
-0.0295281317, -0.158771843, -9.793463   , 0.000284467533, -0.000236168678, 0.000237043991, 0.0157575775, -0.002971557, 0.0005241396, 921.352     , 30.2394619  , 794.925537  , 3.01        , 3           , 1           , 0           , 0
-0.0280975755, -0.153814077, -9.807951   , 6.248895E-05, -9.320676E-06, 0.000276702 , 0.015758194 , -0.00297169364, 0.000526904769, 921.352     , 30.2394619  , 794.9252    , 3.02        , 3           , 2           , 0           , 0
-0.0174557324, -0.141971573, -9.786957   , 0.000267399068, -0.000470561557, 0.000406113919, 0.0157608557, -0.00297646271, 0.0005308911, 921.3375    , 30.2417679  , 794.9248    , 3.03        , 3           , 3           , 0           , 0
-0.0220772717, -0.1537432  , -9.786226   , 0.000441575947, -0.000518814253, 7.44392455E-05, 0.0157652684, -0.00298166159, 0.00053155364, 921.3375    , 30.2417679  , 794.924438  , 3.04        , 3           , 4           , 0           , 0
-0.02616252 , -0.145837739, -9.790733   , -9.56628355E-05, -0.000427672232, 0.000344474975, 0.0157643016, -0.00298599177, 0.0005349305, 921.3375    , 30.2417679  , 794.9241    , 3.05        , 3           , 5           , 0           , 0
-0.0311701652, -0.151874557, -9.794821   , 0.000202288618, 4.115567E-05, 0.000306452974, 0.015766317 , -0.00298562879, 0.00053800107, 921.3375    , 30.2417679  , 794.9237    , 3.06        , 3           , 6           , 0           , 0
-0.0333821326, -0.153137475, -9.787516   , -3.09082679E-05, -0.0002909571, -0.0007323911, 0.0157660283, -0.00298842252, 0.0005306323, 921.3375    , 30.2417679  , 794.92334   , 3.07        , 3           , 7           , 0           , 0
-0.0252710674, -0.148588747, -9.79904652 , -0.000217926688, 0.000247746648, 0.000201086645, 0.0157638434, -0.002985977, 0.000532681937, 921.3375    , 30.2417679  , 794.923     , 3.08        , 3           , 8           , 5           , 5
-0.027451694, -0.149177715, -9.793989   , -6.82181E-05, -0.00039754773, 0.0009921327, 0.0157631319, -0.00299010845, 0.0005425391, 921.3375    , 30.2417679  , 794.9226    , 3.09        , 3           , 9           , 5           , 0.1
-0.03452475 , -0.150195271, -9.790553   , -0.0005634366, -3.238162E-05, 0.000514537853, 0.0157574825, -0.00299051334, 0.000547678559, 921.3375    , 30.2417679  , 794.922241  , 3.1         , 3           , 10          , 0.1         , 0.1
-0.03262583 , -0.149569482, -9.804307   , 4.458445E-05, 0.0003059684, 0.000241834525, 0.0157507285, -0.0029841417, 0.000550166355, 921.3375    , 30.2417679  , 794.9327    , 3.11        , 3           , 11          , 0.00746315625, 0.007463155
-0.0345875546, -0.159495518, -9.787489   , 0.000166840327, 6.51931623E-06, 0.00022682405, 0.0157523882, -0.00298411236, 0.0005524353, 921.3375    , 30.2417679  , 794.9324    , 3.12        , 3           , 12          , 0.174645633 , 0
-0.0403186455, -0.155540541, -9.796775   , 0.0002697162, -0.000374290335, 0.0001936174, 0.0157550815, -0.00298788538, 0.000554312137, 921.3057    , 30.2418365  , 794.932068  , 3.13        , 3           , 13          , 0           , 0
-0.0289935861, -0.161068887, -9.78815651 , 9.01802E-05 , -0.000442257384, 0.000237095286, 0.0157559775, -0.00299234455, 0.0005566131, 921.3057    , 30.2418365  , 794.931763  , 3.14        , 3           , 14          , 0.000702948251, 0.000768594153
-0.0235569626, -0.161185667, -9.792071   , 0.000116541458, 0.0002959725, 0.0006013005, 0.0157571249, -0.00298948 , 0.0005626719, 921.3057    , 30.2418365  , 794.931458  , 3.15        , 3           , 15          , 0           , 0.000105047562
-0.0195581689, -0.148347482, -9.796404   , 0.000107930275, 0.000132769521, 0.000177213165, 0.0157582   , -0.00298818084, 0.0005644647, 921.3057    , 30.2418365  , 794.931152  , 3.16        , 3           , 16          , 0           , 1.401298E-45
-0.0228669234, -0.149112239, -9.796582   , 4.683656E-05, -0.000169009552, -0.0005988661, 0.0157586858, -0.002989776, 0.000558450236, 921.3057    , 30.2418365  , 794.9309    , 3.17        , 3           , 20          , 0           , 0
-0.0362700745, -0.153099686, -9.797802   , 0.000327846676, 0.00050673  , -0.000324586144, 0.0157619733, -0.00298465858, 0.0005552848, 921.3057    , 30.2418365  , 794.930664  , 3.18        , 3           , 21          , 0           , 0
-0.0349918753, -0.153017834, -9.792027   , 0.000486502249, -7.645291E-05, 0.000535013154, 0.0157668218, -0.002985507, 0.000560621964, 921.3057    , 30.2418365  , 794.9304    , 3.19        , 3           , 22          , 0           , 0
-0.0308540557, -0.152580425, -9.794897   , 0.0007320382, 0.000135067792, 0.0006151354, 0.0157741215, -0.00298425322, 0.0005667937, 921.3057    , 30.2418365  , 794.9302    , 3.2         , 3           , 40          , 0           , 0
-0.0260014031, -0.145349175, -9.793147   , -8.960837E-06, -0.000127806212, -0.000361607381, 0.0157739688, -0.00298748538, 0.0005631582, 921.3057    , 30.2418365  , 794.984558  , 3.21        , 3           , 41          , 0           , 0
-0.0270218551, -0.1512975  , -9.793418   , 0.000422667246, 7.19298841E-05, 0.0008678165, 0.015778169 , -0.00298690377, 0.000571846438, 921.3057    , 30.2418365  , 794.9846    , 3.22        , 3           , 42          , 0           , 0
-0.0178582  , -0.1603934  , -9.795057   , 6.078655E-05, -0.000343691558, 0.000478469272, 0.0157787614, -0.00299041532, 0.00057657616, 921.333069  , 30.2398682  , 794.9847    , 3.23        , 3           , 255         , 0           , 0
-0.02345949 , -0.157996207, -9.797213   , 0.0007058206, -0.000402403, -0.000117834054, 0.0157858226, -0.00299442 , 0.0005753345, 921.333069  , 30.2398682  , 794.984741  , 3.24        , 3           , 255         , 0           , 0
-0.0200628135, -0.147751   , -9.797422   , -0.000164930825, -0.000210926111, -0.000290058932, 0.0157841817, -0.00299648312, 0.000572401041, 921.333069  , 30.2398682  , 794.9848    , 3.25        , 3           , 255         , 0           , 0
-0.0282499138, -0.150684386, -9.793821   , 0.000499439659, -0.0007429511, 0.0008711887, 0.01578915  , -0.00300404872, 0.000580994354, 921.333069  , 30.2398682  , 794.984863  , 3.26        , 3           , 255         , 0           , 0
-0.0284536574, -0.151744291, -9.793713   , 0.0005462308, -0.000218477333, -0.000731213135, 0.015794633 , -0.003006118, 0.0005736487, 921.333069  , 30.2398682  , 794.9849    , 3.27        , 3           , 255         , 0           , 0
-0.0273653474, -0.156585619, -9.797943   , 0.000388234155, 0.000333507021, -0.000397988, 0.0157985222, -0.00300272042, 0.00056972215, 921.333069  , 30.2398682  , 794.985046  , 3.28        , 3           , 255         , 0           , 0
-0.02595898 , -0.152528316, -9.799795   , 0.000539505039, 0.0002917252, 0.000206142751, 0.0158039127, -0.00299983635, 0.0005718293, 921.333069  , 30.2398682  , 794.985168  , 3.29        , 3           , 255         , 0           , 0
-0.0359616838, -0.156620562, -9.793963   , 0.000167394639, 0.000270415854, 0.00026919425, 0.0158055779, -0.002997175, 0.00057456363, 921.333069  , 30.2398682  , 794.9853    , 3.3         , 3           , 255         , 0           , 0
-0.0402390957, -0.1500611  , -9.786192   , 2.69238953E-05, 6.925664E-05, 0.000413831 , 0.0158033613, -0.00299122441, 0.0005787197, 921.333069  , 30.2398682  , 794.9932    , 3.31        , 3           , 255         , 0           , 0
-0.03290562 , -0.156088084, -9.7983     , 0.0001390794, 0.000271499739, -0.000245509029, 0.01580476  , -0.002988471, 0.000576307764, 921.333069  , 30.2398682  , 794.993347  , 3.32        , 3           , 255         , 0           , 0
-0.023512762, -0.150340632, -9.787349   , -3.1452626E-05, 0.000198655354, -0.000358983321, 0.0158044584, -0.00298642786, 0.0005727499, 921.356262  , 30.2417011  , 794.993469  , 3.33        , 3           , 255         , 0           , 0
-0.0270042773, -0.165099382, -9.788691   , 0.000226715347, -0.000590868643, 0.0005676866, 0.0158067066, -0.00299242488, 0.0005783326, 921.356262  , 30.2417011  , 794.9936    , 3.34        , 3           , 255         , 0           , 0
-0.03206209 , -0.158731848, -9.795892   , -4.16543335E-05, -0.00010133849, 0.000193004089, 0.0158062838, -0.002993469, 0.0005802463, 921.356262  , 30.2417011  , 794.9938    , 3.35        , 3           , 255         , 0           , 0
-0.0286830161, -0.154619068, -9.796765   , -0.000230933481, -0.0001528319, -0.000133002352, 0.0158039778, -0.002994976, 0.0005788923, 921.356262  , 30.2417011  , 794.993958  , 3.36        , 3           , 255         , 0           , 0
