Acc X       , Acc Y       , Acc Z       , Gyro X      , Gyro Y      , Gyro Z      , Euler X     , Euler Y     , Euler Z     , Pres X      , Pres Y      , Pres Z      , Time        , Status      , LowRate X   , LowRate Y   , LowRate Z    
-0.140350819, 9.786033    , 0.132067442 , 0           , 0           , 0           , -1.584291   , -0.014339665, 0           , 918.1208    , 32.01536    , 823.9598    , 0           , 2           , 0           , 5.00123167  , 0
-0.1396135  , 9.800673    , 0.127695531 , -0.0005457657, -2.87405564E-05, -8.646917E-05, -1.58429623 , -0.0143407639, 2.99451E-07 , 918.1208    , 32.01536    , 823.9598    , 0.01        , 3           , 1           , 0           , 0
-0.1499908  , 9.798379    , 0.117627427 , -0.0005108758, 3.693241E-05, -0.000443080964, -1.58430135 , -0.0143451979, -9.779893E-09, 918.1208    , 32.01536    , 823.9598    , 0.02        , 3           , 2           , 0           , 0
-0.15001598 , 9.801268    , 0.122984745 , 0.000222874573, -0.000472524727, -0.000411497836, -1.58429921 , -0.0143492492, 4.770726E-06, 918.115     , 31.5777817  , 823.9598    , 0.03        , 3           , 3           , 0           , 0
-0.141428337, 9.7946825   , 0.129397109 , 0.000287252915, -8.108269E-05, -0.000414188136, -1.58429635 , -0.0143533787, 5.63787626E-06, 918.115     , 31.5777817  , 823.9598    , 0.04        , 3           , 4           , 0           , 0
-0.140109435, 9.792995    , 0.136302337 , 3.62307765E-06, -3.21866246E-05, -0.000410323555, -1.58429635 , -0.0143574784, 6.015101E-06, 918.115     , 31.5777817  , 823.9598    , 0.05        , 3           , 5           , 0           , 0
-0.145031378, 9.799359    , 0.131422535 , -0.0005776225, 0.0003638202, -6.328657E-05, -1.58430207 , -0.0143581573, 2.38489747E-06, 918.115     , 31.5777817  , 823.9598    , 0.06        , 3           , 6           , 0           , 0
-0.139378652, 9.792177    , 0.1460537   , 0.000196287787, -2.61007226E-05, 8.546491E-05, -1.5843     , -0.0143572986, 2.63451761E-06, 918.115     , 31.5777817  , 823.9598    , 0.07        , 3           , 7           , 0           , 0
-0.1430504  , 9.79056     , 0.1266984   , 0.000166436657, 0.000146833976, -7.423233E-05, -1.58429837 , -0.01435806 , 1.175916E-06, 918.115     , 31.5777817  , 823.9598    , 0.08        , 3           , 8           , 5           , 5
-0.144572049, 9.800908    , 0.137054563 , -7.47484737E-05, -0.0004782909, -0.000145315964, -1.58429909 , -0.0143594518, 5.97784447E-06, 918.115     , 31.5777817  , 823.9598    , 0.09        , 3           , 9           , 5           , 0.1
-0.135742262, 9.793314    , 0.128432363 , -1.48484251E-05, -0.0002824436, 0.0006008158, -1.58429921 , -0.0143534048, 8.721803E-06, 918.115     , 31.5777817  , 823.9598    , 0.1         , 3           , 10          , 0.1         , 0.1
-0.136186421, 9.790431    , 0.128724784 , -0.0003912741, -0.000135077629, -8.496674E-05, -1.584297   , -0.0143614337, 9.995985E-06, 918.115     , 31.5777817  , 824.0128    , 0.11        , 3           , 11          , 0.0109544508, 0.0109544508
-0.138995931, 9.80678     , 0.122912787 , -0.000176016241, -0.00031873578, 0.000248438446, -1.58429873 , -0.0143589079, 1.31493016E-05, 918.115     , 31.5777817  , 824.0128    , 0.12        , 3           , 12          , 0.174642488 , 0
-0.141346052, 9.789993    , 0.131802648 , 0.0006692718, 0.000260884321, -0.0004395202, -1.58429217 , -0.0143633354, 1.06004763E-05, 918.084351  , 31.6168575  , 824.0128    , 0.13        , 3           , 13          , 0           , 0
-0.140891463, 9.795561    , 0.136198133 , 0.000458245457, 5.93574368E-05, 0.000833629165, -1.58428764 , -0.0143550085, 9.89446E-06 , 918.084351  , 31.6168575  , 824.0128    , 0.14        , 3           , 14          , -0.0005721637, -0.0006109208
-0.137189418, 9.800095    , 0.138223544 , 5.48118842E-05, 4.755624E-05, 0.0005840168, -1.584287   , -0.0143491784, 9.340265E-06, 918.084351  , 31.6168575  , 824.0129    , 0.15        , 3           , 15          , 0           , -0.000141580967
-0.141227067, 9.802638    , 0.12948738  , 0.000171187217, 3.83260776E-05, 0.000158156312, -1.58428526 , -0.0143476008, 8.935563E-06, 918.084351  , 31.6168575  , 824.012939  , 0.16        , 3           , 16          , 0           , 1.401298E-45
-0.1426973  , 9.795894    , 0.127581865 , -0.000216171029, 0.000367267552, 0.0005365488, -1.58428752 , -0.0143422857, 5.190795E-06, 918.084351  , 31.6168575  , 824.013     , 0.17        , 3           , 20          , 0           , 0
-0.139252692, 9.788684    , 0.1362355   , -0.000127602369, -0.000183959317, 0.000382006227, -1.58428884 , -0.0143384412, 6.97958376E-06, 918.084351  , 31.6168575  , 824.013062  , 0.18        , 3           , 21          , 0           , 0
-0.1423191  , 9.798046    , 0.138102084 , 0.0004994378, -0.000162405777, -0.000114077906, -1.584284   , -0.0143395606, 8.619345E-06, 918.084351  , 31.6168575  , 824.0131    , 0.19        , 3           , 22          , 0           , 0
-0.142781213, 9.794046    , 0.130922779 , 0.00040374088, -0.0006894377, 1.56133465E-05, -1.58427989 , -0.014339311, 1.551091E-05, 918.084351  , 31.6168575  , 824.0132    , 0.2         , 3           , 40          , 0           , 0
-0.141119629, 9.785272    , 0.13234973  , -0.0002679759, -0.000160137715, -9.507725E-05, -1.584282   , -0.014339217, 1.71176071E-05, 918.084351  , 31.6168575  , 824.1508    , 0.21        , 3           , 41          , 0           , 0
-0.144474715, 9.785966    , 0.136242971 , 0.00017594255, 0.000275057915, -3.2853568E-06, -1.58428025 , -0.0143392878, 1.43675925E-05, 918.084351  , 31.6168575  , 824.1509    , 0.22        , 3           , 42          , 0           , 0
-0.142587513, 9.788035    , 0.125521421 , 0.00026644647, -0.0003030239, -0.00056249497, -1.58427763 , -0.0143448683, 1.74738761E-05, 918.1016    , 31.6401272  , 824.15094   , 0.23        , 3           , 255         , 0           , 0
-0.138400286, 9.800856    , 0.129755318 , 0.000109953136, 9.49488E-05 , 0.00010380859, -1.58427656 , -0.0143438447, 1.65103229E-05, 918.1016    , 31.6401272  , 824.151     , 0.24        , 3           , 255         , 0           , 0
-0.146545172, 9.796689    , 0.12764892  , 0.000523542752, 0.00023026939, -0.0004879877, -1.58427131 , -0.0143487556, 1.42739882E-05, 918.1016    , 31.6401272  , 824.151062  , 0.25        , 3           , 255         , 0           , 0
-0.144316152, 9.799144    , 0.1274626   , -0.000160959375, 9.98047763E-05, -0.000918331731, -1.58427286 , -0.01435795 , 1.3399389E-05, 918.1016    , 31.6401272  , 824.1511    , 0.26        , 3           , 255         , 0           , 0
-0.1415472  , 9.79303551  , 0.126142338 , -7.77011155E-05, 0.0005472107, -0.000639329257, -1.5842737  , -0.0143644158, 8.014392E-06, 918.1016    , 31.6401272  , 824.1512    , 0.27        , 3           , 255         , 0           , 0
-0.143392369, 9.802792    , 0.12581414  , 0.0005542303, 1.8842984E-05, -0.000236969485, -1.58426809 , -0.0143667879, 7.85744851E-06, 918.1016    , 31.6401272  , 824.151245  , 0.28        , 3           , 255         , 0           , 0
-0.138470948, 9.796799    , 0.12302085  , -2.26401025E-05, -0.000163795368, -0.000374091847, -1.58426833 , -0.0143705066, 9.545645E-06, 918.1016    , 31.6401272  , 824.1513    , 0.29        , 3           , 255         , 0           , 0
-0.13812016 , 9.796695    , 0.1370854   , 0.0002718186, 3.97628173E-06, -0.000229057376, -1.58426559 , -0.0143727968, 9.53726249E-06, 918.1016    , 31.6401272  , 824.151367  , 0.3         , 3           , 255         , 0           , 0
-0.144267678, 9.785106    , 0.12960735  , 0.0006384485, -0.000130456348, 6.439845E-05, -1.58424938 , -0.0143767186, 1.06908246E-05, 918.1016    , 31.6401272  , 824.144958  , 0.31        , 3           , 255         , 0           , 0
-0.148986489, 9.799482    , 0.133105    , 0.0004478327, 0.000105602085, -3.18280654E-05, -1.58424485 , -0.01437705 , 9.639254E-06, 918.1016    , 31.6401272  , 824.145     , 0.32        , 3           , 255         , 0           , 0
-0.148678273, 9.798002    , 0.129700854 , 0.0003051997, -0.000269606651, -8.87690549E-05, -1.58424187 , -0.0143779013, 1.23473556E-05, 918.095154  , 31.6587162  , 824.1451    , 0.33        , 3           , 255         , 0           , 0
-0.148809239, 9.786763    , 0.134936258 , -0.000315193727, 0.000156590017, 0.0001078379, -1.58424509 , -0.0143768452, 1.07676678E-05, 918.095154  , 31.6587162  , 824.145142  , 0.34        , 3           , 255         , 0           , 0
-0.147265673, 9.795848    , 0.129302651 , 0.000414907525, -0.000557141146, 0.0005146282, -1.584241   , -0.0143716242, 1.62695578E-05, 918.095154  , 31.6587162  , 824.1452    , 0.35        , 3           , 255         , 0           , 0
-0.1342287  , 9.790298    , 0.131116539 , 0.00039621722, -0.000468184, 0.000104804894, -1.584237   , -0.014370515, 2.09373611E-05, 918.095154  , 31.6587162  , 824.145264  , 0.36        , 3           , 255         , 0           , 0
-0.147874519, 9.798464    , 0.131595045 , -1.469109E-05, -0.0006033854, -0.0001074187, -1.58423722 , -0.0143715069, 2.698553E-05, 918.095154  , 31.6587162  , 824.1453    , 0.37        , 3           , 255         , 0           , 0
-0.150390953, 9.803186    , 0.129548669 , 0.000399615674, -0.000345968874, -0.000387584849, -1.58423328 , -0.0143753365, 3.04960486E-05, 918.095154  , 31.6587162  , 824.1454    , 0.38        , 3           , 255         , 0           , 0
-0.1429622  , 9.793653    , 0.132836252 , 0.0003930275, -0.000202640484, 5.93416044E-05, -1.58422935 , -0.0143747162, 3.25158326E-05, 918.095154  , 31.6587162  , 824.145447  , 0.39        , 3           , 255         , 0           , 0
-0.145278618, 9.793474    , 0.128140748 , 3.757357E-05, 2.694811E-05, 0.0004950086, -1.58422911 , -0.014369769, 3.21800544E-05, 918.095154  , 31.6587162  , 824.1455    , 0.4         , 3           , 255         , 0           , 0
-0.14202711 , 9.798197    , 0.1284025   , 0.000418638519, 2.082612E-06, 1.20356854E-05, -1.58422244 , -0.0143862674, 3.212371E-05, 918.095154  , 31.6587162  , 824.157654  , 0.41        , 3           , 255         , 0           , 0
-0.13585186 , 9.803941    , 0.131055981 , 0.000356151431, -0.0004770694, 4.80335148E-05, -1.584219   , -0.0143857235, 3.68879155E-05, 918.095154  , 31.6587162  , 824.1577    , 0.42        , 3           , 255         , 0           , 0
-0.13934651 , 9.79147148  , 0.136371583 , -4.01107245E-05, -0.00026818004, -0.000105375846, -1.58421934 , -0.0143867405, 3.95834468E-05, 918.1353    , 31.6672649  , 824.1578    , 0.43        , 3           , 255         , 0           , 0
-0.140975192, 9.788733    , 0.138748333 , 0.000254358456, -0.000208107231, -0.000447052647, -1.58421683 , -0.014391182, 4.17247757E-05, 918.1353    , 31.6672649  , 824.157837  , 0.44        , 3           , 255         , 0           , 0
-0.141701654, 9.800531    , 0.13264294  , -5.07915975E-05, -0.000174059649, -0.0005983578, -1.58421731 , -0.0143971425, 4.354524E-05, 918.1353    , 31.6672649  , 824.1579    , 0.45        , 3           , 255         , 0           , 0
-0.138840109, 9.802912    , 0.132659286 , -0.000147085346, -0.000245507457, -0.000142717981, -1.58421886 , -0.0143985339, 4.60195624E-05, 918.1353    , 31.6672649  , 824.157959  , 0.46        , 3           , 255         , 0           , 0
-0.139684185, 9.793076    , 0.142916173 , 0.0004969858, -0.000101603393, -0.000143899655, -1.58421385 , -0.0143999606, 4.70539E-05 , 918.1353    , 31.6672649  , 824.1581    , 0.47        , 3           , 255         , 0           , 0
-0.143534645, 9.792962    , 0.1417736   , 0.000227146171, -0.00047675625, 0.0008211565, -1.58421159 , -0.014391684, 5.17109875E-05, 918.1353    , 31.6672649  , 824.1582    , 0.48        , 3           , 255         , 0           , 0
-0.137456983, 9.793692    , 0.134141758 , -0.000171700667, 0.0003215784, 0.00046325766, -1.58421326 , -0.0143870963, 4.84328557E-05, 918.1353    , 31.6672649  , 824.1583    , 0.49        , 3           , 255         , 0           , 0
-0.139910787, 9.790289    , 0.133471936 , -0.000176573987, 0.000310084928, 0.0006248772, -1.584215   , -0.0143808909, 4.52487948E-05, 918.1353    , 31.6672649  , 824.158447  , 0.5         , 3           , 255         , 0           , 0
-0.141256154, 9.788363    , 0.137819216 , -0.000128575368, -3.758329E-05, 2.54918414E-05, -1.58422756 , -0.0143773723, 4.57815659E-05, 918.1353    , 31.6672649  , 824.0907    , 0.51        , 3           , 255         , 0           , 0
-0.149674118, 9.795691    , 0.132504255 , 0.000623194 , -0.000131017936, 0.0005393249, -1.58422136 , -0.0143719641, 4.70189443E-05, 918.1353    , 31.6672649  , 824.090759  , 0.52        , 3           , 255         , 0           , 0
-0.138279885, 9.801275    , 0.1334163   , 0.0002527896, -9.82667E-05, -0.000110833309, -1.58421886 , -0.0143730557, 4.80165036E-05, 918.0866    , 31.67751    , 824.0909    , 0.53        , 3           , 255         , 0           , 0
-0.137992233, 9.787998    , 0.1271635   , -1.49227562E-05, -7.153262E-05, 0.000381965074, -1.5842191  , -0.0143692279, 4.868014E-05, 918.0866    , 31.67751    , 824.091     , 0.54        , 3           , 255         , 0           , 0
-0.137488514, 9.79093552  , 0.135957047 , 0.000110605557, -7.299491E-05, -0.000373001618, -1.58421791 , -0.0143729467, 4.945927E-05, 918.0866    , 31.67751    , 824.0911    , 0.55        , 3           , 255         , 0           , 0
-0.143958181, 9.798417    , 0.129281089 , 0.000142203382, 0.000162809156, -0.000367580331, -1.58421648 , -0.0143766478, 4.78814472E-05, 918.0866    , 31.67751    , 824.091248  , 0.56        , 3           , 255         , 0           , 0
-0.138385013, 9.794262    , 0.127270371 , 0.000221828523, -0.000115794945, -0.00051897025, -1.58421433 , -0.0143818185, 4.910953E-05, 918.0866    , 31.67751    , 824.0914    , 0.57        , 3           , 255         , 0           , 0
-0.137242451, 9.794718    , 0.1233479   , 0.000530140067, 0.000111860689, -0.000222821182, -1.584209   , -0.014384062, 4.80207E-05 , 918.0866    , 31.67751    , 824.0915    , 0.58        , 3           , 255         , 0           , 0
-0.147090763, 9.806541    , 0.126704484 , 0.0009836048, -0.000139904325, -0.000683208462, -1.58419919 , -0.0143908719, 4.95114473E-05, 918.0866    , 31.67751    , 824.0916    , 0.59        , 3           , 255         , 0           , 0
-0.147169083, 9.80168     , 0.13178575  , 2.44220137E-05, -0.000128288462, -9.713684E-05, -1.58419907 , -0.0143918283, 5.080751E-05, 918.0866    , 31.67751    , 824.091736  , 0.6         , 3           , 255         , 0           , 0
-0.14149946 , 9.792227    , 0.130284056 , -0.000165808189, -8.689874E-05, -8.108547E-05, -1.584198   , -0.0143955927, 5.164952E-05, 918.0866    , 31.67751    , 824.1229    , 0.61        , 3           , 255         , 0           , 0
-0.130440712, 9.795821    , 0.122961521 , 0.000105561659, 0.00021420687, 0.000485119817, -1.58419693 , -0.0143907731, 4.944298E-05, 918.0866    , 31.67751    , 824.123047  , 0.62        , 3           , 255         , 0           , 0
-0.135264039, 9.79772     , 0.119614437 , -0.00038259686, -0.000128643762, 0.0008010211, -1.58420086 , -0.0143827461, 5.062262E-05, 918.1579    , 31.68341    , 824.123169  , 0.63        , 3           , 255         , 0           , 0
-0.140295863, 9.788293    , 0.1277273   , -0.000539893634, -0.000237899832, 0.000572142 , -1.58420634 , -0.0143769933, 5.29236859E-05, 918.1579    , 31.68341    , 824.1233    , 0.64        , 3           , 255         , 0           , 0
-0.145394   , 9.780659    , 0.131886363 , 0.00022801297, -0.000155363465, 0.0005332977, -1.584204   , -0.01437164 , 5.44055656E-05, 918.1579    , 31.68341    , 824.1234    , 0.65        , 3           , 255         , 0           , 0
-0.153741315, 9.794531    , 0.133738369 , 0.0005032377, -0.000127424137, 0.000237878456, -1.584199   , -0.0143692447, 5.56480773E-05, 918.1579    , 31.68341    , 824.123535  , 0.66        , 3           , 255         , 0           , 0
-0.139356524, 9.789586    , 0.131982625 , 0.0005469578, 5.28717646E-06, 0.000138384392, -1.58419347 , -0.0143678626, 5.55763581E-05, 918.1579    , 31.68341    , 824.123657  , 0.67        , 3           , 255         , 0           , 0
-0.135702655, 9.80242     , 0.138521925 , 0.000117139454, -0.000481724623, -0.000663786253, -1.58419228 , -0.0143744349, 6.04812121E-05, 918.1579    , 31.68341    , 824.1238    , 0.68        , 3           , 255         , 0           , 0
-0.13587667 , 9.791962    , 0.126460344 , 5.633384E-05, -0.000144568563, -0.000488361635, -1.5841918  , -0.0143792965, 6.199292E-05, 918.1579    , 31.68341    , 824.1239    , 0.69        , 3           , 255         , 0           , 0
-0.140606642, 9.797266    , 0.138932317 , -3.493775E-05, 0.000138451054, -0.000531371741, -1.58419216 , -0.0143846283, 6.067962E-05, 918.1579    , 31.68341    , 824.124     , 0.7         , 3           , 255         , 0           , 0
-0.141466379, 9.794425    , 0.136531666 , 0.000243427989, 5.905109E-06, -7.736162E-05, -1.584186   , -0.0143822115, 6.057809E-05, 918.1579    , 31.68341    , 824.047668  , 0.71        , 3           , 255         , 0           , 0
-0.139602989, 9.787881    , 0.129731447 , -7.987692E-05, 7.25092832E-07, -0.000686024548, -1.58418679 , -0.0143890725, 6.06633148E-05, 918.1579    , 31.68341    , 824.0477    , 0.72        , 3           , 255         , 0           , 0
-0.147326514, 9.79628     , 0.127315566 , -0.0006151958, 7.375359E-05, -0.00129322126, -1.584193   , -0.0144020142, 6.00988969E-05, 918.0817    , 31.68443    , 824.0478    , 0.73        , 3           , 255         , 0           , 0
-0.14232716 , 9.796675    , 0.127062291 , -0.000705277256, 0.000201733666, -0.0008942333, -1.58420014 , -0.0144109819, 5.82011271E-05, 918.0817    , 31.68443    , 824.0479    , 0.74        , 3           , 255         , 0           , 0
-0.14469716 , 9.803036    , 0.124387205 , 4.46801423E-05, 0.000157763192, 0.000312395277, -1.58419955 , -0.01440788 , 5.65809278E-05, 918.0817    , 31.68443    , 824.048035  , 0.75        , 3           , 255         , 0           , 0
-0.14602001 , 9.793582    , 0.129016116 , 0.0001710545, -4.866015E-05, -0.000148181454, -1.58419788 , -0.014409354, 5.70871525E-05, 918.0817    , 31.68443    , 824.048157  , 0.76        , 3           , 255         , 0           , 0
-0.142835528, 9.794825    , 0.131649181 , 0.000435338472, -0.000363485655, 0.0005071415, -1.58419347 , -0.0144042345, 6.06535577E-05, 918.0817    , 31.68443    , 824.0483    , 0.77        , 3           , 255         , 0           , 0
-0.142310038, 9.787851    , 0.124944344 , 0.0002001957, -0.000183621945, -2.94449565E-05, -1.58419144 , -0.0144045046, 6.249358E-05, 918.0817    , 31.68443    , 824.0484    , 0.78        , 3           , 255         , 0           , 0
-0.146566942, 9.789854    , 0.125182137 , -0.000245521776, 9.047915E-06, -0.000472680375, -1.584194   , -0.014409231, 6.24661043E-05, 918.0817    , 31.68443    , 824.0485    , 0.79        , 3           , 255         , 0           , 0
-0.148194075, 9.7980175   , 0.122546077 , 5.07239E-06 , -1.23960781E-05, 0.0004048283, -1.584194   , -0.0144051835, 6.25359462E-05, 918.0817    , 31.68443    , 824.048645  , 0.8         , 3           , 255         , 0           , 0
-0.145938724, 9.79915     , 0.132799357 , -8.135993E-05, -5.93814766E-05, -0.000122738988, -1.58418465 , -0.0144152287, 6.3000276E-05, 918.0817    , 31.68443    , 824.085632  , 0.81        , 3           , 255         , 0           , 0
-0.132206783, 9.790781    , 0.114464089 , 5.27795637E-05, -0.0001006471, 0.000440419652, -1.584184   , -0.0144108124, 6.394753E-05, 918.0817    , 31.68443    , 824.085754  , 0.82        , 3           , 255         , 0           , 0
-0.140223652, 9.783798    , 0.1260827   , 0.0003582315, -0.000125173538, 0.0007141206, -1.58418059 , -0.0144036571, 6.510434E-05, 918.103638  , 31.68816    , 824.0859    , 0.83        , 3           , 255         , 0           , 0
-0.135943249, 9.7976      , 0.123053335 , 0.000122302532, -6.06694375E-05, 0.000542267459, -1.5841794  , -0.0143982265, 6.56389748E-05, 918.103638  , 31.68816    , 824.086     , 0.84        , 3           , 255         , 0           , 0
-0.1390599  , 9.797914    , 0.140639216 , 0.000133269757, -0.000121897669, 0.0006880193, -1.58417809 , -0.01439133 , 6.676552E-05, 918.103638  , 31.68816    , 824.0861    , 0.85        , 3           , 255         , 0           , 0
-0.151988134, 9.79420948  , 0.1285493   , -0.0002920978, -0.00031437428, 8.34203747E-05, -1.584181   , -0.0143904528, 6.989742E-05, 918.103638  , 31.68816    , 824.086243  , 0.86        , 3           , 255         , 0           , 0
-0.148335457, 9.796656    , 0.125274986 , -0.00047849433, -0.000202316151, 4.65921767E-06, -1.58418572 , -0.01439038 , 7.19199961E-05, 918.103638  , 31.68816    , 824.0864    , 0.87        , 3           , 255         , 0           , 0
-0.1365914  , 9.811833    , 0.134028524 , -0.00016568671, 0.000146373437, 0.000245853123, -1.58418739 , -0.0143879438, 7.042319E-05, 918.103638  , 31.68816    , 824.0866    , 0.88        , 3           , 255         , 0           , 0
-0.133664683, 9.799307    , 0.1428025   , 2.34728213E-06, 8.275907E-05, -0.000197089263, -1.58418739 , -0.0143899256, 6.962171E-05, 918.103638  , 31.68816    , 824.0868    , 0.89        , 3           , 255         , 0           , 0
-0.133566186, 9.795305    , 0.136829555 , 0.000381417078, 0.000107233529, -0.000528346747, -1.58418357 , -0.0143952211, 6.862044E-05, 918.103638  , 31.68816    , 824.087     , 0.9         , 3           , 255         , 0           , 0
-0.1426084  , 9.799207    , 0.134054616 , -0.000176058034, -0.000162266544, -0.00044303108, -1.58418369 , -0.0143964123, 7.02779E-05 , 918.103638  , 31.68816    , 824.091064  , 0.91        , 3           , 255         , 0           , 0
-0.147788763, 9.794085    , 0.127925351 , -1.751585E-05, -0.0003218269, 0.000460235984, -1.58418381 , -0.01439177 , 7.343401E-05, 918.103638  , 31.68816    , 824.091248  , 0.92        , 3           , 255         , 0           , 0
-0.151914492, 9.796514    , 0.128665358 , 0.000335294026, 1.985731E-05, -0.000207457473, -1.58418047 , -0.0143938465, 7.326309E-05, 918.0807    , 31.6899242  , 824.091431  , 0.93        , 3           , 255         , 0           , 0
-0.150729343, 9.786152    , 0.125054836 , 0.000158263458, 0.000447607221, -0.000465756631, -1.58417892 , -0.0143985637, 6.885004E-05, 918.0807    , 31.6899242  , 824.0916    , 0.94        , 3           , 255         , 0           , 0
-0.135376409, 9.786296    , 0.12483082  , -3.325066E-05, -7.89225451E-05, 0.000558824162, -1.58417928 , -0.0143929645, 6.956396E-05, 918.0807    , 31.6899242  , 824.0918    , 0.95        , 3           , 255         , 0           , 0
-0.138479844, 9.789099    , 0.125606224 , -0.000156337977, 8.020119E-05, -0.000255472434, -1.58418083 , -0.0143955294, 6.87960055E-05, 918.0807    , 31.6899242  , 824.092     , 0.96        , 3           , 255         , 0           , 0
-0.13053602 , 9.79517     , 0.114357509 , -9.276788E-06, 3.22354026E-06, -0.00016668516, -1.584181   , -0.0143971965, 6.878669E-05, 918.0807    , 31.6899242  , 824.092163  , 0.97        , 3           , 255         , 0           , 0
-0.1326326  , 9.791471    , 0.122809365 , 0.000227676035, 5.21696638E-05, -3.105047E-05, -1.58417869 , -0.0143975113, 6.82693E-05 , 918.0807    , 31.6899242  , 824.092346  , 0.98        , 3           , 255         , 0           , 0
-0.136803   , 9.79181     , 0.1276701   , 0.000125315419, -0.000458339346, -0.000681932142, -1.58417749 , -0.01440427 , 7.29440944E-05, 918.0807    , 31.6899242  , 824.0925    , 0.99        , 3           , 255         , 0           , 0
-0.148598209, 9.797719    , 0.131966919 , -0.000193345768, -0.000316880236, -0.000110517969, -1.58417952 , -0.0144053316, 7.612676E-05, 918.0807    , 31.6899242  , 824.0927    , 1           , 3           , 0           , 6.00123644  , 100
-0.148137361, 9.79672     , 0.130235672 , -2.00851355E-05, -0.0007429873, 0.000511436956, -1.58416486 , -0.0144018494, 8.327399E-05, 918.0807    , 31.6899242  , 824.1209    , 1.01        , 3           , 1           , 0           , 0
-0.144823432, 9.790362    , 0.131273314 , -0.000213443825, 0.000153799308, -0.00030571426, -1.584167   , -0.0144049246, 8.177674E-05, 918.0807    , 31.6899242  , 824.121155  , 1.02        , 3           , 2           , 0           , 0
-0.130662292, 9.794612    , 0.123349763 , 0.000160935742, 0.000213441934, 0.000309962459, -1.58416545 , -0.014401854, 7.960095E-05, 918.0617    , 31.692028   , 824.1214    , 1.03        , 3           , 3           , 0           , 0
-0.133921519, 9.793963    , 0.120662391 , 7.966545E-05, 4.0027604E-05, 0.000178742834, -1.58416462 , -0.0144000715, 7.91757557E-05, 918.0617    , 31.692028   , 824.121643  , 1.04        , 3           , 4           , 0           , 0
-0.130752027, 9.795054    , 0.124725893 , 0.000919388141, -0.00054119766, -0.000162283453, -1.58415544 , -0.014401623, 8.460965E-05, 918.0617    , 31.692028   , 824.1219    , 1.05        , 3           , 5           , 0           , 0
-0.135468483, 9.790665    , 0.13346158  , -3.00818938E-05, -0.0001171793, -6.545181E-05, -1.5841558  , -0.014402261, 8.579023E-05, 918.0617    , 31.692028   , 824.122131  , 1.06        , 3           , 6           , 0           , 0
-0.14472492 , 9.794948    , 0.134329811 , 0.000109933229, 4.2184256E-06, 6.507649E-05, -1.58415461 , -0.0144016119, 8.57394552E-05, 918.0617    , 31.692028   , 824.1224    , 1.07        , 3           , 7           , 0           , 0
-0.147650689, 9.794118    , 0.138683334 , 0.000690958 , -0.000338287267, 0.0008119666, -1.58414781 , -0.014393447, 8.90138544E-05, 918.0617    , 31.692028   , 824.1226    , 1.08        , 3           , 8           , 5           , 5
-0.141666889, 9.794418    , 0.1306049   , 0.000443971832, -0.000312977645, 0.000203243646, -1.5841434  , -0.0143913729, 9.21159444E-05, 918.0617    , 31.692028   , 824.122864  , 1.09        , 3           , 9           , 5           , 0.1
-0.143751174, 9.796423    , 0.122438729 , 0.0001566417, 0.000289724441, 0.000486875972, -1.58414173 , -0.014386544, 8.915496E-05, 918.0617    , 31.692028   , 824.1231    , 1.1         , 3           , 10          , 0.1         , 0.1
-0.14467752 , 9.799451    , 0.131719142 , -0.000255979132, 1.4682184E-05, 0.000262249727, -1.584139   , -0.0143814161, 8.889695E-05, 918.0617    , 31.692028   , 824.167053  , 1.11        , 3           , 11          , 0.009410617 , 0.009410616
-0.143425539, 9.790993    , 0.1329248   , -7.694587E-06, 0.000182189309, -0.000209878417, -1.584139   , -0.0143835405, 8.710258E-05, 918.0617    , 31.692028   , 824.1674    , 1.12        , 3           , 12          , 0.174642846 , 0
-0.142100543, 9.793777    , 0.135547131 , -9.36396536E-05, -1.16572483E-06, -0.000334073615, -1.58414    , -0.0143868793, 8.715894E-05, 918.0775    , 31.6964359  , 824.1678    , 1.13        , 3           , 13          , 0           , 0
-0.144472808, 9.796701    , 0.131341308 , 0.000225635682, 0.000260618515, -0.0003418317, -1.5841378  , -0.0143903308, 8.45989343E-05, 918.0775    , 31.6964359  , 824.168152  , 1.14        , 3           , 14          , -0.000572199759, -0.0006109215
-0.152506709, 9.790049    , 0.136122912 , -0.000300244777, 0.00049611245, -0.00019525447, -1.58414078 , -0.01439235 , 7.966521E-05, 918.0775    , 31.6964359  , 824.1685    , 1.15        , 3           , 15          , 0           , -0.000141572717
-0.148847863, 9.79204     , 0.127737954 , 4.189898E-05, -7.636263E-07, 0.000327495654, -1.58414042 , -0.0143890753, 7.962933E-05, 918.0775    , 31.6964359  , 824.1689    , 1.16        , 3           , 16          , 0           , 1.401298E-45
-0.140193313, 9.793933    , 0.1326069   , 5.78171457E-05, 0.000363832631, -3.88146873E-05, -1.58413982 , -0.0143895121, 7.59968E-05 , 918.0775    , 31.6964359  , 824.16925   , 1.17        , 3           , 20          , 0           , 0
-0.141794071, 9.793931    , 0.124175251 , -0.000438821677, 0.0001401903, -0.000269752461, -1.58414423 , -0.0143922279, 7.463088E-05, 918.0775    , 31.6964359  , 824.1696    , 1.18        , 3           , 21          , 0           , 0
-0.141908869, 9.788083    , 0.129366025 , 0.000380759331, -0.000137956871, 0.000318815932, -1.58414042 , -0.0143890223, 7.596746E-05, 918.0775    , 31.6964359  , 824.17      , 1.19        , 3           , 22          , 0           , 0
-0.1455271  , 9.785452    , 0.123981237 , 0.000571136945, 2.14522588E-05, 0.000403057027, -1.5841347  , -0.0143849952, 7.56992158E-05, 918.0775    , 31.6964359  , 824.170349  , 1.2         , 3           , 40          , 0           , 0
-0.140583679, 9.787092    , 0.123879328 , -0.000397379, -8.777133E-07, 0.0005381918, -1.58413827 , -0.0143903093, 7.56303E-05 , 918.0775    , 31.6964359  , 824.191833  , 1.21        , 3           , 41          , 0           , 0
-0.136134028, 9.796377    , 0.120858744 , -2.97348015E-06, 0.000309807 , 0.000294396217, -1.58413827 , -0.0143874073, 7.249281E-05, 918.0775    , 31.6964359  , 824.192261  , 1.22        , 3           , 42          , 0           , 0
-0.139840513, 9.79974651  , 0.125929    , 3.241608E-05, 0.000491888437, -7.2665E-05 , -1.58413792 , -0.0143882008, 6.758376E-05, 918.102     , 31.695488   , 824.1927    , 1.23        , 3           , 255         , 0           , 0
-0.138564914, 9.80190849  , 0.123477615 , 0.000377368036, -0.000249106844, -0.000120476441, -1.5841341  , -0.0143893724, 7.00906749E-05, 918.102     , 31.695488   , 824.1931    , 1.24        , 3           , 255         , 0           , 0
-0.137165159, 9.799416    , 0.125345588 , 0.000494595966, -0.000301166729, 0.000252960657, -1.58412921 , -0.0143868038, 7.306842E-05, 918.102     , 31.695488   , 824.1936    , 1.25        , 3           , 255         , 0           , 0
-0.144192621, 9.793672    , 0.1313715   , 0.000315384736, 0.000497376663, -9.46393E-05, -1.584126   , -0.0143878153, 6.810629E-05, 918.102     , 31.695488   , 824.1941    , 1.26        , 3           , 255         , 0           , 0
-0.142049044, 9.785379    , 0.124827072 , -0.000460645766, 8.806551E-05, 0.0001483278, -1.58413053 , -0.0143863438, 6.720607E-05, 918.102     , 31.695488   , 824.1946    , 1.27        , 3           , 255         , 0           , 0
-0.140405536, 9.79276848  , 0.1292605   , 6.020785E-05, -2.8503011E-05, 0.000129508771, -1.58412993 , -0.0143850455, 6.747339E-05, 918.102     , 31.695488   , 824.195068  , 1.28        , 3           , 255         , 0           , 0
-0.1438919  , 9.793667    , 0.125183314 , -0.000329618575, 0.000224854826, -2.38726061E-05, -1.58413315 , -0.0143853137, 6.522821E-05, 918.102     , 31.695488   , 824.195557  , 1.29        , 3           , 255         , 0           , 0
-0.13451013 , 9.79402     , 0.1382414   , -0.0007246308, 0.00021171695, 4.03816957E-05, -1.58414042 , -0.0143849375, 6.310597E-05, 918.102     , 31.695488   , 824.196045  , 1.3         , 3           , 255         , 0           , 0
-0.145067275, 9.793248    , 0.1384149   , -0.0008186843, -9.660376E-06, -0.0005212666, -1.58413887 , -0.0143870525, 6.313204E-05, 918.102     , 31.695488   , 824.189331  , 1.31        , 3           , 255         , 0           , 0
-0.15074414 , 9.807666    , 0.137845874 , -0.0006247835, -9.338278E-05, -0.00025393095, -1.58414519 , -0.0143895792, 6.41002553E-05, 918.102     , 31.695488   , 824.189758  , 1.32        , 3           , 255         , 0           , 0
-0.144834012, 9.789555    , 0.126849443 , -2.296915E-05, 0.000114588183, 8.8789966E-07, -1.58414531 , -0.0143895848, 6.295414E-05, 918.078369  , 31.69474    , 824.1902    , 1.33        , 3           , 255         , 0           , 0
-0.140872717, 9.799852    , 0.13700594  , 0.000392193964, -2.01544026E-06, 0.0009203027, -1.58414149 , -0.0143803824, 6.285168E-05, 918.078369  , 31.69474    , 824.1906    , 1.34        , 3           , 255         , 0           , 0
-0.139965132, 9.794146    , 0.119655982 , 0.000357298821, -0.000171634369, 8.222612E-05, -1.58413792 , -0.0143795377, 6.455711E-05, 918.078369  , 31.69474    , 824.19104   , 1.35        , 3           , 255         , 0           , 0
-0.143574968, 9.789339    , 0.132345751 , 0.000463375385, 0.000383982115, -0.000117139367, -1.58413327 , -0.0143807605, 6.07331676E-05, 918.078369  , 31.69474    , 824.191467  , 1.36        , 3           , 255         , 0           , 0
-0.139600143, 9.793584    , 0.139405265 , -8.149905E-05, 0.000111987581, -0.000158330542, -1.5841341  , -0.0143823586, 5.96354948E-05, 918.078369  , 31.69474    , 824.1919    , 1.37        , 3           , 255         , 0           , 0
-0.13696897 , 9.796698    , 0.13658084  , -1.99925853E-06, -4.72738757E-05, 0.000133666443, -1.5841341  , -0.0143810166, 6.00900239E-05, 918.078369  , 31.69474    , 824.1923    , 1.38        , 3           , 255         , 0           , 0
-0.135708734, 9.800468    , 0.120661758 , -0.000437946932, -0.000214630389, -0.000938203069, -1.58413851 , -0.0143903671, 6.236177E-05, 918.078369  , 31.69474    , 824.1928    , 1.39        , 3           , 255         , 0           , 0
-0.144135267, 9.789171    , 0.123706736 , -0.000264503935, -4.256307E-05, -0.000111403438, -1.58414125 , -0.0143914754, 6.28028E-05 , 918.078369  , 31.69474    , 824.1933    , 1.4         , 3           , 255         , 0           , 0
-0.141559139, 9.779465    , 0.126485854 , -0.0002535103, 0.000463279 , 0.0001647917, -1.584145   , -0.0143928714, 5.81671229E-05, 918.078369  , 31.69474    , 824.2115    , 1.41        , 3           , 255         , 0           , 0
-0.13620691 , 9.792162    , 0.128245324 , -0.0004154725, 0.000109173765, 0.0005997855, -1.58414912 , -0.0143868877, 5.699493E-05, 918.078369  , 31.69474    , 824.212036  , 1.42        , 3           , 255         , 0           , 0
-0.150665432, 9.799263    , 0.1306189   , -0.000503404357, 0.000282668683, 0.00046064824, -1.58415425 , -0.0143823214, 5.41070549E-05, 918.083862  , 31.6971836  , 824.2126    , 1.43        , 3           , 255         , 0           , 0
-0.142121911, 9.80102     , 0.120604672 , 3.20654362E-05, 0.000671103946, 0.0005224373, -1.58415377 , -0.0143771879, 4.732679E-05, 918.083862  , 31.6971836  , 824.213135  , 1.44        , 3           , 255         , 0           , 0
-0.139941946, 9.7929      , 0.128832251 , -1.76894828E-05, 0.000274656923, 0.000267447322, -1.58415389 , -0.01437455 , 4.45446422E-05, 918.083862  , 31.6971836  , 824.2137    , 1.45        , 3           , 255         , 0           , 0
-0.146223113, 9.794011    , 0.137174487 , -0.000272288453, 0.000353836745, 0.000146572755, -1.58415663 , -0.0143731311, 4.09861532E-05, 918.083862  , 31.6971836  , 824.214233  , 1.46        , 3           , 255         , 0           , 0
-0.152341336, 9.792093    , 0.1356994   , 0.000281372719, 0.000264426868, -0.0005989799, -1.58415377 , -0.0143791568, 3.84214945E-05, 918.083862  , 31.6971836  , 824.2148    , 1.47        , 3           , 255         , 0           , 0
-0.147332788, 9.799646    , 0.117827788 , 0.00018160831, 0.000303019973, -9.933012E-05, -1.58415186 , -0.01438019 , 3.54046279E-05, 918.083862  , 31.6971836  , 824.215332  , 1.48        , 3           , 255         , 0           , 0
-0.146035969, 9.77777     , 0.134873509 , 0.000400272984, -0.000180844218, 0.00106127537, -1.58414781 , -0.0143695539, 3.70709349E-05, 918.083862  , 31.6971836  , 824.2159    , 1.49        , 3           , 255         , 0           , 0
-0.137482643, 9.786098    , 0.129964    , -0.0006292668, -0.00022722641, 0.0007408832, -1.58415413 , -0.0143621191, 3.924485E-05, 918.083862  , 31.6971836  , 824.216431  , 1.5         , 3           , 255         , 0           , 0
-0.130596146, 9.792618    , 0.13473548  , -0.0003866959, -0.000245767471, -0.000179380237, -1.58415282 , -0.0143734207, 4.16521252E-05, 918.083862  , 31.6971836  , 824.2265    , 1.51        , 3           , 255         , 0           , 0
-0.136534527, 9.794014    , 0.131390154 , -0.000199603441, -8.127722E-05, -0.000233331084, -1.58415484 , -0.0143757453, 4.24959835E-05, 918.083862  , 31.6971836  , 824.2271    , 1.52        , 3           , 255         , 0           , 0
-0.144950688, 9.792574    , 0.140345633 , 0.000444395147, -5.67905954E-05, -0.0002884812, -1.58415031 , -0.01437862 , 4.31018743E-05, 918.11145   , 31.6982689  , 824.2277    , 1.53        , 3           , 255         , 0           , 0
-0.150629908, 9.799415    , 0.137512609 , 2.21477239E-05, -0.000335413148, 0.000333076779, -1.5841502  , -0.0143752452, 4.641167E-05, 918.11145   , 31.6982689  , 824.228333  , 1.54        , 3           , 255         , 0           , 0
-0.148327425, 9.796428    , 0.1360142   , -0.000887450238, 0.0002524375, -2.6767666E-05, -1.584159   , -0.0143755451, 4.389079E-05, 918.11145   , 31.6982689  , 824.228943  , 1.55        , 3           , 255         , 0           , 0
-0.146520332, 9.797392    , 0.137832552 , -9.424344E-05, -0.0004695644, 0.0007225175, -1.58416009 , -0.0143682575, 4.84896664E-05, 918.11145   , 31.6982689  , 824.229553  , 1.56        , 3           , 255         , 0           , 0
-0.143635318, 9.785311    , 0.129791975 , -0.00012367341, 0.000282906141, 0.000384085666, -1.58416128 , -0.0143644568, 4.56097077E-05, 918.11145   , 31.6982689  , 824.230164  , 1.57        , 3           , 255         , 0           , 0
-0.1400239  , 9.791776    , 0.133085117 , 0.000474314322, 0.0005310653, 5.80337073E-05, -1.58415651 , -0.0143639473, 4.029224E-05, 918.11145   , 31.6982689  , 824.2308    , 1.58        , 3           , 255         , 0           , 0
-0.146355316, 9.7981      , 0.137034655 , 0.000689289358, 0.000337896316, 0.0002766558, -1.5841496  , -0.0143612269, 3.68757974E-05, 918.11145   , 31.6982689  , 824.2314    , 1.59        , 3           , 255         , 0           , 0
-0.142647862, 9.791941    , 0.12434049  , 7.50630861E-05, -0.000232614286, 0.000615940138, -1.58414888 , -0.0143550383, 3.912051E-05, 918.11145   , 31.6982689  , 824.232     , 1.6         , 3           , 255         , 0           , 0
-0.150133878, 9.791858    , 0.133835286 , -0.000122378871, -0.000526960939, -0.00019981392, -1.5841583  , -0.0143623129, 4.4532062E-05, 918.11145   , 31.6982689  , 824.2109    , 1.61        , 3           , 255         , 0           , 0
-0.136532336, 9.798787    , 0.13310948  , 0.000331697083, 7.450243E-05, -0.000471554435, -1.584155   , -0.0143670375, 4.38498E-05 , 918.11145   , 31.6982689  , 824.211365  , 1.62        , 3           , 255         , 0           , 0
-0.137315348, 9.794106    , 0.131355137 , 0.000343738822, 0.000102758058, -0.000346814428, -1.58415151 , -0.01437052 , 4.286901E-05, 918.0782    , 31.7011185  , 824.211853  , 1.63        , 3           , 255         , 0           , 0
-0.137815341, 9.794106    , 0.139643416 , 0.000800809066, -0.0002972937, -0.000571329263, -1.58414352 , -0.0143761914, 4.59175535E-05, 918.0782    , 31.7011185  , 824.212341  , 1.64        , 3           , 255         , 0           , 0
-0.140994176, 9.786984    , 0.130755037 , 0.000419746939, -3.60363629E-05, -0.0005062885, -1.58413935 , -0.01438125 , 4.634507E-05, 918.0782    , 31.7011185  , 824.2128    , 1.65        , 3           , 255         , 0           , 0
-0.142222255, 9.792112    , 0.13112177  , 8.21345E-05 , 7.695379E-05, 0.000229089754, -1.58413839 , -0.0143789668, 4.55445261E-05, 918.0782    , 31.7011185  , 824.2133    , 1.66        , 3           , 255         , 0           , 0
-0.1467661  , 9.79035     , 0.127413362 , 2.187211E-05, 0.000541909656, -0.000288725743, -1.58413827 , -0.0143819265, 4.016465E-05, 918.0782    , 31.7011185  , 824.2138    , 1.67        , 3           , 255         , 0           , 0
-0.144842356, 9.80168     , 0.133099154 , 0.000399651355, 0.000472441 , 1.64820522E-05, -1.5841341  , -0.0143818241, 3.54381664E-05, 918.0782    , 31.7011185  , 824.2143    , 1.68        , 3           , 255         , 0           , 0
-0.141304791, 9.798033    , 0.127322674 , 0.00049763493, 3.24486755E-05, 0.0003615262, -1.5841291  , -0.0143782143, 3.50641967E-05, 918.0782    , 31.7011185  , 824.2148    , 1.69        , 3           , 255         , 0           , 0
-0.129135519, 9.79034     , 0.13117817  , -9.940402E-05, -7.978402E-05, 0.000391960581, -1.58413017 , -0.014374285, 3.58102625E-05, 918.0782    , 31.7011185  , 824.215332  , 1.7         , 3           , 255         , 0           , 0
-0.1390535  , 9.789581    , 0.1342673   , -0.000229764846, -0.000477831869, 0.000309222785, -1.58413541 , -0.0143707832, 4.05875071E-05, 918.0782    , 31.7011185  , 824.2321    , 1.71        , 3           , 255         , 0           , 0
-0.144028589, 9.795721    , 0.137934327 , 0.0004004354, -0.000678811164, 8.99445E-05 , -1.58413148 , -0.0143697951, 4.7363108E-05, 918.0782    , 31.7011185  , 824.2327    , 1.72        , 3           , 255         , 0           , 0
-0.140598148, 9.789411    , 0.125946641 , 0.000528204662, -0.000187229423, 0.0005662771, -1.58412611 , -0.0143641084, 4.91593419E-05, 918.107361  , 31.7000332  , 824.233337  , 1.73        , 3           , 255         , 0           , 0
-0.143521   , 9.79547     , 0.125148982 , 0.000113328133, -0.0005602561, 0.000126660962, -1.584125   , -0.0143627673, 5.474413E-05, 918.107361  , 31.7000332  , 824.233948  , 1.74        , 3           , 255         , 0           , 0
-0.149552256, 9.790941    , 0.128332034 , 0.000623125641, -0.000317193335, -1.0737509E-05, -1.58411884 , -0.0143628316, 5.791701E-05, 918.107361  , 31.7000332  , 824.234558  , 1.75        , 3           , 255         , 0           , 0
-0.153557867, 9.805087    , 0.134577364 , -0.000229399011, -0.000115154136, -0.000171262247, -1.58412123 , -0.0143645275, 5.90915261E-05, 918.107361  , 31.7000332  , 824.235168  , 1.76        , 3           , 255         , 0           , 0
-0.141375422, 9.796079    , 0.1284894   , -0.000139139418, 4.579575E-05, 0.000263859576, -1.58412254 , -0.0143618956, 5.85978742E-05, 918.107361  , 31.7000332  , 824.2358    , 1.77        , 3           , 255         , 0           , 0
-0.1413826  , 9.789751    , 0.13200663  , 2.724817E-06, 0.000193881307, 0.0006690492, -1.58412254 , -0.014355232, 5.65701739E-05, 918.107361  , 31.7000332  , 824.2364    , 1.78        , 3           , 255         , 0           , 0
-0.135897666, 9.780055    , 0.130950853 , 0.000574703037, -0.000163472549, -8.72754463E-05, -1.58411682 , -0.0143560814, 5.82155262E-05, 918.107361  , 31.7000332  , 824.237     , 1.79        , 3           , 255         , 0           , 0
-0.139246553, 9.779162    , 0.129545256 , 0.0005719208, 0.000243009621, -0.00017479065, -1.584111   , -0.014357863, 5.580921E-05, 918.107361  , 31.7000332  , 824.2376    , 1.8         , 3           , 255         , 0           , 0
-0.1445852  , 9.797462    , 0.123594984 , 3.3568358E-05, 0.000197803951, -0.000376862, -1.58411133 , -0.0143677937, 5.389049E-05, 918.107361  , 31.7000332  , 824.219238  , 1.81        , 3           , 255         , 0           , 0
-0.143541068, 9.79744148  , 0.124892972 , -3.90925561E-05, -5.292415E-05, -0.000135130438, -1.58411169 , -0.0143691385, 5.44377E-05 , 918.107361  , 31.7000332  , 824.2198    , 1.82        , 3           , 255         , 0           , 0
-0.14581123 , 9.80094     , 0.139566138 , -4.751794E-05, 0.000168722443, -0.000638555037, -1.58411217 , -0.0143755469, 5.28351957E-05, 918.111755  , 31.697998   , 824.220337  , 1.83        , 3           , 255         , 0           , 0
-0.142254531, 9.804706    , 0.135291442 , -0.000459518982, 0.000378022058, 0.0004249122, -1.5841167  , -0.0143713485, 4.89982122E-05, 918.111755  , 31.697998   , 824.2209    , 1.84        , 3           , 255         , 0           , 0
-0.134349555, 9.803759    , 0.129676849 , -1.51291606E-05, -0.000127223728, 0.000741414959, -1.58411682 , -0.0143639175, 5.01718E-05 , 918.111755  , 31.697998   , 824.221436  , 1.85        , 3           , 255         , 0           , 0
-0.135061949, 9.797892    , 0.126210451 , 0.000345304084, -0.000168812869, 0.000457558781, -1.58411336 , -0.0143593205, 5.17989829E-05, 918.111755  , 31.697998   , 824.222     , 1.86        , 3           , 255         , 0           , 0
-0.140865684, 9.790033    , 0.130630955 , -0.000172484957, -0.0005528237, 0.000188454491, -1.58411515 , -0.0143573629, 5.73018E-05 , 918.111755  , 31.697998   , 824.222534  , 1.87        , 3           , 255         , 0           , 0
-0.148997039, 9.800344    , 0.128981873 , -0.000185738434, -0.000154798792, -9.581457E-05, -1.58411694 , -0.0143583007, 5.88628573E-05, 918.111755  , 31.697998   , 824.2231    , 1.88        , 3           , 255         , 0           , 0
-0.140560091, 9.792683    , 0.134407565 , -0.000231723068, 0.00023419119, -0.0005557321, -1.58411932 , -0.0143638877, 5.65957853E-05, 918.111755  , 31.697998   , 824.223633  , 1.89        , 3           , 255         , 0           , 0
-0.145759672, 9.786131    , 0.1277737   , -0.000345841458, 0.00030365042, -0.000153835936, -1.58412278 , -0.0143654672, 5.35793952E-05, 918.111755  , 31.697998   , 824.2242    , 1.9         , 3           , 255         , 0           , 0
-0.132980466, 9.784055    , 0.13119337  , -0.000510345155, 0.000268900971, -0.000666081149, -1.58412707 , -0.0143748065, 5.09672427E-05, 918.111755  , 31.697998   , 824.2017    , 1.91        , 3           , 255         , 0           , 0
-0.128786966, 9.790196    , 0.129281774 , -0.00085440214, -0.000562556263, 0.000813432 , -1.58413553 , -0.0143665979, 5.64831025E-05, 918.111755  , 31.697998   , 824.202148  , 1.92        , 3           , 255         , 0           , 0
-0.136197731, 9.795108    , 0.132469267 , -0.0006807249, -0.0005186379, -0.00016641921, -1.58414233 , -0.0143681942, 6.169205E-05, 918.116943  , 31.7015934  , 824.2026    , 1.93        , 3           , 255         , 0           , 0
-0.142391309, 9.798562    , 0.131525755 , -0.0002185225, -0.000268583652, 0.000153001631, -1.58414459 , -0.0143666286, 6.435731E-05, 918.116943  , 31.7015934  , 824.203     , 1.94        , 3           , 255         , 0           , 0
-0.145023867, 9.795562    , 0.133811563 , 2.54397746E-05, -0.0004587457, -0.000478684553, -1.58414435 , -0.0143713513, 6.900882E-05, 918.116943  , 31.7015934  , 824.2034    , 1.95        , 3           , 255         , 0           , 0
-0.151558965, 9.788116    , 0.1356892   , -0.0004347759, -0.0004687503, -0.000657962, -1.58414876 , -0.0143778678, 7.37842E-05 , 918.116943  , 31.7015934  , 824.203857  , 1.96        , 3           , 255         , 0           , 0
-0.143696234, 9.795426    , 0.136985272 , 0.000180596049, -0.000309282739, 7.581738E-05, -1.584147   , -0.0143770687, 7.686627E-05, 918.116943  , 31.7015934  , 824.2043    , 1.97        , 3           , 255         , 0           , 0
-0.149431542, 9.804665    , 0.134436086 , -0.0004534048, -0.000178982038, -6.450899E-05, -1.58415151 , -0.0143776871, 7.866485E-05, 918.116943  , 31.7015934  , 824.2047    , 1.98        , 3           , 255         , 0           , 0
-0.135953218, 9.80042     , 0.134560689 , -7.79820257E-05, -0.0002955795, -6.45533146E-06, -1.58415246 , -0.0143777132, 8.16221E-05 , 918.116943  , 31.7015934  , 824.205139  , 1.99        , 3           , 255         , 0           , 0
-0.13720803 , 9.798085    , 0.130341187 , -0.000297286431, 0.00017636019, 0.000448577222, -1.58415544 , -0.0143732531, 7.979884E-05, 918.116943  , 31.7015934  , 824.205566  , 2           , 3           , 0           , 7.00123644  , 200
-0.141111925, 9.789869    , 0.128736    , 0.000153265311, -0.000215222477, 0.0004413331, -1.58415866 , -0.0143678756, 8.195972E-05, 918.116943  , 31.7015934  , 824.1782    , 2.01        , 3           , 1           , 0           , 0
-0.144376338, 9.792983    , 0.132132336 , 0.000105562853, 0.000239052577, 0.000246741867, -1.58415759 , -0.0143654412, 7.953618E-05, 918.116943  , 31.7015934  , 824.178467  , 2.02        , 3           , 2           , 0           , 0
-0.145777   , 9.793694    , 0.129591748 , -0.000340005732, -0.000151640328, -0.000259611872, -1.584161   , -0.0143680135, 8.1087E-05  , 918.1358    , 31.69983    , 824.1787    , 2.03        , 3           , 3           , 0           , 0
-0.143632725, 9.785554    , 0.138413966 , -0.0004671532, 1.69258565E-05, -0.0001152834, -1.58416569 , -0.0143691683, 8.09333142E-05, 918.1358    , 31.69983    , 824.178955  , 2.04        , 3           , 4           , 0           , 0
-0.140613109, 9.793703    , 0.135691911 , -0.000161339762, -6.124959E-05, 0.000291304081, -1.58416736 , -0.0143662477, 8.150753E-05, 918.1358    , 31.69983    , 824.1792    , 2.05        , 3           , 5           , 0           , 0
-0.140630081, 9.801747    , 0.1377339   , 0.000463524833, 0.000187448662, -8.806586E-05, -1.58416283 , -0.0143671529, 7.964422E-05, 918.1358    , 31.69983    , 824.179443  , 2.06        , 3           , 6           , 0           , 0
-0.14667055 , 9.799491    , 0.130051941 , -9.79624456E-05, -6.36115437E-05, -0.0006615248, -1.58416378 , -0.0143737588, 8.03698E-05 , 918.1358    , 31.69983    , 824.1797    , 2.07        , 3           , 7           , 0           , 0
-0.152013063, 9.791168    , 0.125458643 , 5.27256052E-05, 0.000453106826, -0.00110926083, -1.58416331 , -0.0143849095, 7.59879549E-05, 918.1358    , 31.69983    , 824.179932  , 2.08        , 3           , 8           , 5           , 5
-0.14723593 , 9.79264     , 0.125728413 , 9.744079E-05, 6.26742258E-05, 0.000483190641, -1.58416224 , -0.0143800881, 7.529543E-05, 918.1358    , 31.69983    , 824.1802    , 2.09        , 3           , 9           , 5           , 0.1
-0.143493578, 9.794943    , 0.12864098  , -0.000222802046, -0.0002139677, -0.000132131143, -1.5841645  , -0.014381377, 7.74526052E-05, 918.1358    , 31.69983    , 824.1804    , 2.1         , 3           , 10          , 0.1         , 0.1
-0.14524655 , 9.789614    , 0.125401288 , 0.000199460279, 0.000406446372, -0.000207087141, -1.584163   , -0.0143920211, 7.342516E-05, 918.1358    , 31.69983    , 824.1322    , 2.11        , 3           , 11          , 0.008321695 , 0.008321692
-0.14463833 , 9.797574    , 0.132216826 , -0.0009040138, 0.000328117952, -0.000747605343, -1.58417189 , -0.01439954 , 7.024391E-05, 918.1358    , 31.69983    , 824.132141  , 2.12        , 3           , 12          , 0.174643889 , 0
-0.14685078 , 9.792642    , 0.116102621 , -2.38573411E-05, 9.30716051E-05, -0.0003464589, -1.58417213 , -0.0144030172, 6.935906E-05, 918.118958  , 31.7022038  , 824.1321    , 2.13        , 3           , 13          , 0           , 0
-0.1465964  , 9.794916    , 0.121643767 , -0.00021499797, -0.0005088096, -0.000125369232, -1.58417428 , -0.0144042028, 7.44641657E-05, 918.118958  , 31.7022038  , 824.1321    , 2.14        , 3           , 14          , -0.0005721866, -0.000610922347
-0.141916722, 9.795056    , 0.119867131 , -8.086645E-05, -0.0003449822, 0.000243534712, -1.58417511 , -0.0144017218, 7.78815447E-05, 918.118958  , 31.7022038  , 824.1321    , 2.15        , 3           , 15          , 0           , -0.000141487486
-0.143005639, 9.79531     , 0.130591512 , 3.27192829E-05, -0.000223610958, 0.000371749862, -1.58417487 , -0.0143979732, 8.006757E-05, 918.118958  , 31.7022038  , 824.1321    , 2.16        , 3           , 16          , 0           , 1.401298E-45
-0.13906756 , 9.791303    , 0.1288639   , 3.92518123E-05, -0.00019082427, -6.03979861E-05, -1.58417451 , -0.0143985525, 8.198444E-05, 918.118958  , 31.7022038  , 824.1321    , 2.17        , 3           , 20          , 0           , 0
-0.142964318, 9.79116249  , 0.131549016 , 6.59390353E-05, 9.22365E-05 , -0.000598362763, -1.5841738  , -0.0144045493, 8.114245E-05, 918.118958  , 31.7022038  , 824.1321    , 2.18        , 3           , 21          , 0           , 0
-0.130422533, 9.778898    , 0.12738578  , -0.0001322187, 0.0003195871, -0.000191564817, -1.58417523 , -0.014406505, 7.79728362E-05, 918.118958  , 31.7022038  , 824.1321    , 2.19        , 3           , 22          , 0           , 0
-0.142363563, 9.794686    , 0.127039686 , 0.000266854942, -0.000421279459, 0.000268857548, -1.58417249 , -0.0144037623, 8.214977E-05, 918.118958  , 31.7022038  , 824.1321    , 2.2         , 3           , 40          , 0           , 0
-0.146302044, 9.792584    , 0.1350721   , 0.0003491245, -0.000161672127, 9.972653E-05, -1.584157   , -0.0144057814, 8.35795E-05 , 918.118958  , 31.7022038  , 824.11      , 2.21        , 3           , 41          , 0           , 0
-0.144530684, 9.794752    , 0.130148247 , -0.000217842287, -0.0002984188, -0.000293274061, -1.58415914 , -0.0144086713, 8.660291E-05, 918.118958  , 31.7022038  , 824.1098    , 2.22        , 3           , 42          , 0           , 0
-0.145688415, 9.79853     , 0.136197731 , 9.942008E-05, 0.000274863443, -0.000101683283, -1.58415806 , -0.0144097237, 8.386733E-05, 918.0902    , 31.7026787  , 824.1096    , 2.23        , 3           , 255         , 0           , 0
-0.1458182  , 9.786583    , 0.134259477 , 0.000147416577, -0.000207625271, 0.000438384362, -1.58415663 , -0.0144053148, 8.58843E-05 , 918.0902    , 31.7026787  , 824.109436  , 2.24        , 3           , 255         , 0           , 0
-0.128313392, 9.794039    , 0.141068742 , -0.0002484924, -0.0003786501, 0.00011192567, -1.58415914 , -0.0144041469, 8.965515E-05, 918.0902    , 31.7026787  , 824.1093    , 2.25        , 3           , 255         , 0           , 0
-0.140247509, 9.789492    , 0.132467777 , -0.000369068817, -0.000144505932, -0.000153615387, -1.58416283 , -0.0144056631, 9.112167E-05, 918.0902    , 31.7026787  , 824.1092    , 2.26        , 3           , 255         , 0           , 0
-0.1421612  , 9.798466    , 0.141893044 , -0.000130643661, -0.000232338556, 7.209099E-05, -1.58416414 , -0.0144049088, 9.343532E-05, 918.0902    , 31.7026787  , 824.1091    , 2.27        , 3           , 255         , 0           , 0
-0.147329643, 9.797252    , 0.133746535 , 0.000307250128, -0.000214779808, -0.0002188309, -1.58416128 , -0.0144070676, 9.561206E-05, 918.0902    , 31.7026787  , 824.108948  , 2.28        , 3           , 255         , 0           , 0
-0.146711439, 9.790689    , 0.134548932 , -0.0002767766, -0.000321377651, 8.44791939E-05, -1.584164   , -0.0144061828, 9.88151951E-05, 918.0902    , 31.7026787  , 824.1088    , 2.29        , 3           , 255         , 0           , 0
-0.1482662  , 9.786105    , 0.121388152 , 2.45659612E-05, -9.10972E-05, -0.000290449767, -1.5841639  , -0.0144090746, 9.976478E-05, 918.0902    , 31.7026787  , 824.1087    , 2.3         , 3           , 255         , 0           , 0
-0.1404454  , 9.79532051  , 0.136140779 , -0.000324896537, 7.096678E-05, -4.63485048E-05, -1.58417416 , -0.0144150238, 9.91640263E-05, 918.0902    , 31.7026787  , 824.1265    , 2.31        , 3           , 255         , 0           , 0
-0.136895567, 9.795301    , 0.1284208   , 0.0003864364, -0.000116706826, 1.1279044E-05, -1.58417034 , -0.0144148953, 0.0001003297, 918.0902    , 31.7026787  , 824.1265    , 2.32        , 3           , 255         , 0           , 0
-0.140740961, 9.793308    , 0.129002318 , 0.000107697968, -9.437435E-05, -0.000615564641, -1.58416939 , -0.0144210374, 0.000101356127, 918.155334  , 31.69888    , 824.1265    , 2.33        , 3           , 255         , 0           , 0
-0.143685549, 9.790154    , 0.125342757 , -3.97134572E-05, 0.000190834922, 0.0006046095, -1.58416963 , -0.0144150173, 9.93661452E-05, 918.155334  , 31.69888    , 824.1265    , 2.34        , 3           , 255         , 0           , 0
-0.142247766, 9.795461    , 0.121373869 , -0.000524068251, -0.000357297657, 0.000520971371, -1.58417487 , -0.0144097591, 0.0001028692, 918.155334  , 31.69888    , 824.1265    , 2.35        , 3           , 255         , 0           , 0
-0.1453981  , 9.79924     , 0.1259233   , -0.00027347682, -0.000375289063, 0.000461536372, -1.58417761 , -0.014405095, 0.000106560408, 918.155334  , 31.69888    , 824.1265    , 2.36        , 3           , 255         , 0           , 0
-0.130233482, 9.797735    , 0.131939486 , -0.000529888435, 0.000215602282, 0.000193498214, -1.584183   , -0.0144031895, 0.0001043781, 918.155334  , 31.69888    , 824.1265    , 2.37        , 3           , 255         , 0           , 0
-0.135053679, 9.794281    , 0.128934324 , -5.524326E-05, -8.76197E-05, -0.00026109707, -1.58418345 , -0.014405787, 0.000105289037, 918.155334  , 31.69888    , 824.1265    , 2.38        , 3           , 255         , 0           , 0
-0.132550344, 9.784738    , 0.124839082 , -0.000204916636, -0.000135121809, -0.0002469154, -1.58418548 , -0.0144082382, 0.000106672655, 918.155334  , 31.69888    , 824.1265    , 2.39        , 3           , 255         , 0           , 0
-0.142049283, 9.79452     , 0.12631391  , -8.498225E-05, -0.000170050072, -0.000195543078, -1.58418632 , -0.0144101707, 0.00010839905, 918.155334  , 31.69888    , 824.1265    , 2.4         , 3           , 255         , 0           , 0
-0.14735274 , 9.794725    , 0.123949289 , 0.00023729587, -9.402528E-05, 9.72001E-06 , -1.58417737 , -0.0144054731, 0.000109242894, 918.155334  , 31.69888    , 824.0563    , 2.41        , 3           , 255         , 0           , 0
-0.1486677  , 9.79619     , 0.13367337  , 0.000546262367, 0.000246858835, -0.0003458056, -1.58417177 , -0.0144089637, 0.000106820276, 918.155334  , 31.69888    , 824.0558    , 2.42        , 3           , 255         , 0           , 0
-0.148700163, 9.798956    , 0.136057526 , 0.000567205658, -5.953171E-05, 0.00021434066, -1.58416617 , -0.0144068105, 0.000107386593, 918.1153    , 31.6990147  , 824.055359  , 2.43        , 3           , 255         , 0           , 0
-0.140847236, 9.795496    , 0.131515533 , 2.50324956E-05, 0.000109562767, -0.000296149985, -1.584166   , -0.0144097861, 0.000106331296, 918.1153    , 31.6990147  , 824.054932  , 2.44        , 3           , 255         , 0           , 0
-0.137811512, 9.799839    , 0.12713185  , -4.586298E-06, -5.64879156E-05, -0.000200211289, -1.584166   , -0.014411781, 0.000106923217, 918.1153    , 31.6990147  , 824.0545    , 2.45        , 3           , 255         , 0           , 0
-0.136696309, 9.807365    , 0.128408149 , 0.0007409164, -0.0002265164, -9.400335E-05, -1.58415866 , -0.01441269 , 0.000109201465, 918.1153    , 31.6990147  , 824.0541    , 2.46        , 3           , 255         , 0           , 0
-0.144025281, 9.797717    , 0.117035106 , -2.59854132E-05, -0.000109923945, -0.0007834788, -1.584159   , -0.0144205112, 0.000110405796, 918.1153    , 31.6990147  , 824.05365   , 2.47        , 3           , 255         , 0           , 0
-0.145180792, 9.798003    , 0.130899832 , 0.000121488818, -0.000603594759, 8.498719E-05, -1.58415782 , -0.0144195808, 0.000116430216, 918.1153    , 31.6990147  , 824.0532    , 2.48        , 3           , 255         , 0           , 0
-0.14062421 , 9.793174    , 0.13110137  , -7.419032E-06, 0.000201078248, 0.000363333849, -1.58415782 , -0.0144159738, 0.000114371316, 918.1153    , 31.6990147  , 824.0528    , 2.49        , 3           , 255         , 0           , 0
-0.136363238, 9.794884    , 0.133156687 , -8.61563E-05, -3.61696584E-06, -0.000871753, -1.58415866 , -0.01442469 , 0.000114524075, 918.1153    , 31.6990147  , 824.052368  , 2.5         , 3           , 255         , 0           , 0
-0.135275215, 9.796044    , 0.129849    , 9.982518E-05, -0.000478411617, -0.000804411829, -1.58415484 , -0.0144349625, 0.000119375392, 918.1153    , 31.6990147  , 824.045     , 2.51        , 3           , 255         , 0           , 0
-0.13923049 , 9.793695    , 0.131043226 , 0.000100442267, -0.000391451118, -7.176907E-05, -1.58415389 , -0.0144356275, 0.000123299 , 918.1153    , 31.6990147  , 824.0445    , 2.52        , 3           , 255         , 0           , 0
-0.144697621, 9.790942    , 0.129639074 , -0.000163114863, -2.20717047E-05, 0.000276653736, -1.58415556 , -0.0144328587, 0.000123482954, 918.1375    , 31.700304   , 824.044     , 2.53        , 3           , 255         , 0           , 0
-0.1395474  , 9.790946    , 0.130202174 , 0.000143435667, -0.000362086168, -1.44053629E-05, -1.58415425 , -0.0144329518, 0.000127106192, 918.1375    , 31.700304   , 824.0435    , 2.54        , 3           , 255         , 0           , 0
-0.134696528, 9.789112    , 0.129647374 , 6.73992326E-06, -0.000127759646, 0.000316789083, -1.58415425 , -0.01442977 , 0.000128341213, 918.1375    , 31.700304   , 824.043     , 2.55        , 3           , 255         , 0           , 0
-0.139453813, 9.798617    , 0.124253407 , 9.461155E-05, -0.000234602485, -2.244937E-05, -1.58415318 , -0.0144299623, 0.0001306898, 918.1375    , 31.700304   , 824.042542  , 2.56        , 3           , 255         , 0           , 0
-0.144977018, 9.802479    , 0.123866484 , 0.000366938766, 0.000102894555, -0.0007058684, -1.58414948 , -0.014437031, 0.000129755615, 918.1375    , 31.700304   , 824.042053  , 2.57        , 3           , 255         , 0           , 0
-0.14543426 , 9.789896    , 0.132240087 , -0.000102559861, 0.000437064242, -0.000299858628, -1.58415043 , -0.0144400885, 0.000125425 , 918.1375    , 31.700304   , 824.041565  , 2.58        , 3           , 255         , 0           , 0
-0.138657689, 9.786232    , 0.135894492 , -4.508684E-05, 0.000565235561, -0.000301577616, -1.58415091 , -0.01444318 , 0.000119813187, 918.1375    , 31.700304   , 824.0411    , 2.59        , 3           , 255         , 0           , 0
-0.137863368, 9.787665    , 0.126605079 , -0.000195064524, 3.80066922E-06, -4.829392E-05, -1.58415294 , -0.0144436611, 0.000119781522, 918.1375    , 31.700304   , 824.0406    , 2.6         , 3           , 255         , 0           , 0
-0.14168784 , 9.787958    , 0.1360543   , -0.000146646169, -0.0007799065, -0.000344677625, -1.58415115 , -0.0144440616, 0.0001275789, 918.1375    , 31.700304   , 824.004456  , 2.61        , 3           , 255         , 0           , 0
-0.141531318, 9.788766    , 0.131837755 , -0.000221185677, -0.0006989195, -0.000548317446, -1.58415341 , -0.0144494511, 0.000134640926, 918.1375    , 31.700304   , 824.0038    , 2.62        , 3           , 255         , 0           , 0
-0.13735804 , 9.796953    , 0.129614547 , 0.000125122344, 0.000361107348, -0.0003797986, -1.58415222 , -0.0144532975, 0.000131080582, 918.1135    , 31.6980648  , 824.0031    , 2.63        , 3           , 255         , 0           , 0
-0.137663111, 9.790622    , 0.117877722 , 0.000106580934, 0.000216955843, -0.0005450286, -1.58415115 , -0.0144587727, 0.000128984451, 918.1135    , 31.6980648  , 824.002441  , 2.64        , 3           , 255         , 0           , 0
-0.150431722, 9.797539    , 0.11957778  , 3.78257828E-05, 4.60180454E-05, -0.000134002446, -1.58415091 , -0.0144601213, 0.000128542932, 918.1135    , 31.6980648  , 824.0018    , 2.65        , 3           , 255         , 0           , 0
-0.141130358, 9.800477    , 0.12310946  , 3.02455155E-05, 0.000291821372, -6.118705E-05, -1.58415043 , -0.0144607695, 0.000125632738, 918.1135    , 31.6980648  , 824.0011    , 2.66        , 3           , 255         , 0           , 0
-0.138256118, 9.797366    , 0.127313644 , -0.0004503316, 0.000383722334, -0.0001431535, -1.584155   , -0.0144622521, 0.0001218153, 918.1135    , 31.6980648  , 824.0004    , 2.67        , 3           , 255         , 0           , 0
-0.14080523 , 9.793742    , 0.125640258 , 0.000206324446, -0.000124722836, -0.000179998809, -1.584153   , -0.0144640356, 0.000123086225, 918.1135    , 31.6980648  , 823.999756  , 2.68        , 3           , 255         , 0           , 0
-0.143053   , 9.796715    , 0.13423638  , 0.000410785316, -0.000194424589, -0.000381722435, -1.58414888 , -0.014467827, 0.0001250818, 918.1135    , 31.6980648  , 823.9991    , 2.69        , 3           , 255         , 0           , 0
-0.149515972, 9.795977    , 0.128844053 , 0.0003165602, 0.00020216807, 0.000528703 , -1.58414567 , -0.0144625669, 0.000122988888, 918.1135    , 31.6980648  , 823.9984    , 2.7         , 3           , 255         , 0           , 0
-0.14041391 , 9.804891    , 0.1279664   , 0.0004910928, -0.000196443289, 0.0002553073, -1.58413458 , -0.0144609092, 0.000124828453, 918.1135    , 31.6980648  , 824.0009    , 2.71        , 3           , 255         , 0           , 0
-0.136016756, 9.790431    , 0.129690558 , -9.84246144E-05, 4.180486E-05, 0.000314703677, -1.58413553 , -0.0144577725, 0.000124369239, 918.1135    , 31.6980648  , 824.000244  , 2.72        , 3           , 255         , 0           , 0
-0.134046137, 9.787886    , 0.129364491 , -0.0006442631, 0.000214975153, 0.0006849497, -1.584142   , -0.0144509524, 0.000122127763, 918.0697    , 31.70139    , 823.9996    , 2.73        , 3           , 255         , 0           , 0
-0.143330231, 9.79742     , 0.135000348 , -0.0004171905, 6.878859E-05, 0.000586204929, -1.58414614 , -0.014445099, 0.000121361671, 918.0697    , 31.70139    , 823.9989    , 2.74        , 3           , 255         , 0           , 0
-0.138471752, 9.793829    , 0.12970379  , 3.5500736E-05, 8.522364E-05, -0.000126359941, -1.58414578 , -0.014446374, 0.000120526653, 918.0697    , 31.70139    , 823.9982    , 2.75        , 3           , 255         , 0           , 0
-0.135356992, 9.78815651  , 0.133010179 , 0.000142605422, -0.000437416427, 9.212129E-05, -1.58414447 , -0.0144453924, 0.000124889426, 918.0697    , 31.70139    , 823.997559  , 2.76        , 3           , 255         , 0           , 0
-0.135890782, 9.792589    , 0.1283755   , -0.0002629052, 0.0001612819, 7.898577E-05, -1.584147   , -0.0144446259, 0.000123265956, 918.0697    , 31.70139    , 823.9969    , 2.77        , 3           , 255         , 0           , 0
-0.14252004 , 9.795903    , 0.131632045 , -4.65127523E-05, 0.0001256303, -4.074139E-05, -1.58414757 , -0.0144450506, 0.000122015052, 918.0697    , 31.70139    , 823.9962    , 2.78        , 3           , 255         , 0           , 0
-0.145110339, 9.793119    , 0.128474042 , -0.000120221986, 0.000121919904, 0.000303079083, -1.58414865 , -0.014442035, 0.000120754834, 918.0697    , 31.70139    , 823.995544  , 2.79        , 3           , 255         , 0           , 0
-0.1385457  , 9.792213    , 0.129589126 , -0.000152836146, 0.0001822495, -0.000513737439, -1.5841502  , -0.0144471973, 0.000119001445, 918.0697    , 31.70139    , 823.9949    , 2.8         , 3           , 255         , 0           , 0
-0.142408252, 9.797182    , 0.124425076 , 0.000878765 , -0.000406762818, -0.000676941068, -1.58414054 , -0.0144489855, 0.000123146281, 918.0697    , 31.70139    , 824.0592    , 2.81        , 3           , 255         , 0           , 0
-0.13656804 , 9.802798    , 0.134399936 , 0.000170749292, -0.000332693569, -0.000372180715, -1.58413887 , -0.0144526623, 0.000126522209, 918.0697    , 31.70139    , 824.05896   , 2.82        , 3           , 255         , 0           , 0
-0.141399711, 9.780828    , 0.123533942 , 0.000414630747, 1.7016835E-05, 0.000247967546, -1.58413482 , -0.0144501859, 0.000126320083, 918.116455  , 31.7022038  , 824.0587    , 2.83        , 3           , 255         , 0           , 0
-0.145521566, 9.798639    , 0.128505081 , 0.000166253856, -0.0006983393, -0.0003683648, -1.58413315 , -0.0144537734, 0.0001333514, 918.116455  , 31.7022038  , 824.0585    , 2.84        , 3           , 255         , 0           , 0
-0.147234231, 9.799536    , 0.135144591 , -0.000450239924, -0.000525946147, -0.0005432271, -1.5841378  , -0.0144591359, 0.000138682852, 918.116455  , 31.7022038  , 824.0582    , 2.85        , 3           , 255         , 0           , 0
-0.138679892, 9.792123    , 0.127917022 , -0.000284641457, -0.000598914456, -8.612026E-05, -1.58414066 , -0.0144599173, 0.000144683509, 918.116455  , 31.7022038  , 824.058044  , 2.86        , 3           , 255         , 0           , 0
-0.142435119, 9.791453    , 0.135134369 , 0.000145314232, 5.66775561E-05, 0.000337891048, -1.58413911 , -0.0144565469, 0.000144070655, 918.116455  , 31.7022038  , 824.057861  , 2.87        , 3           , 255         , 0           , 0
-0.141924962, 9.796687    , 0.139398932 , -7.42980046E-05, -6.287068E-05, 0.000780160248, -1.58413982 , -0.0144487368, 0.000144595018, 918.116455  , 31.7022038  , 824.0577    , 2.88        , 3           , 255         , 0           , 0
-0.141275212, 9.79191     , 0.1307102   , 0.000144412712, 5.124556E-05, 0.000211400009, -1.58413827 , -0.014446632, 0.000144054779, 918.116455  , 31.7022038  , 824.0575    , 2.89        , 3           , 255         , 0           , 0
-0.141475439, 9.791572    , 0.132363677 , 0.000115438364, -0.000106888532, 9.77025338E-05, -1.58413708 , -0.0144456392, 0.000145109618, 918.116455  , 31.7022038  , 824.0573    , 2.9         , 3           , 255         , 0           , 0
-0.141868338, 9.790405    , 0.138661146 , -0.0003221989, -0.00031132414, -0.000249234319, -1.58414137 , -0.01444859 , 0.000148269944, 918.116455  , 31.7022038  , 824.047852  , 2.91        , 3           , 255         , 0           , 0
-0.140057117, 9.791383    , 0.1346266   , 0.0002999039, -2.50847661E-05, -0.0005512737, -1.58413839 , -0.0144540975, 0.000148593623, 918.116455  , 31.7022038  , 824.0476    , 2.92        , 3           , 255         , 0           , 0
-0.1409578  , 9.797335    , 0.132225677 , -1.56329479E-05, 6.38645142E-05, 0.00102087134, -1.58413851 , -0.0144438976, 0.00014781866, 918.114136  , 31.700983   , 824.047363  , 2.93        , 3           , 255         , 0           , 0
-0.139101639, 9.793772    , 0.130541369 , -9.205309E-06, -0.000245407748, 0.001177559 , -1.58413863 , -0.0144320913, 0.0001501155, 918.114136  , 31.700983   , 824.0471    , 2.94        , 3           , 255         , 0           , 0
-0.138988584, 9.795015    , 0.131379813 , -8.078886E-05, -0.000130188419, 0.0007549317, -1.58413959 , -0.014424528, 0.000151317014, 918.114136  , 31.700983   , 824.0469    , 2.95        , 3           , 255         , 0           , 0
-0.145082667, 9.791365    , 0.131852046 , -0.000296195969, 0.000332836964, 0.0006548123, -1.58414245 , -0.0144180246, 0.000147901956, 918.114136  , 31.700983   , 824.046631  , 2.96        , 3           , 255         , 0           , 0
-0.144118816, 9.798413    , 0.139500931 , 0.000445633748, 0.000102087623, -0.0004822341, -1.584138   , -0.0144228609, 0.000146945385, 918.114136  , 31.700983   , 824.0464    , 2.97        , 3           , 255         , 0           , 0
-0.145454332, 9.8016      , 0.126132742 , 0.000153331057, 1.90706342E-05, -0.0006863489, -1.58413649 , -0.0144297257, 0.000146846665, 918.114136  , 31.700983   , 824.046143  , 2.98        , 3           , 255         , 0           , 0
-0.140081316, 9.79057     , 0.132209465 , 0.0005986352, -8.191139E-05, 7.961999E-05, -1.58413053 , -0.0144289173, 0.000147655155, 918.114136  , 31.700983   , 824.0459    , 2.99        , 3           , 255         , 0           , 0
-0.142922118, 9.789929    , 0.125842065 , 0.000323306944, 0.000183806638, -0.0005411797, -1.58412731 , -0.0144343525, 0.000145890124, 918.114136  , 31.700983   , 824.045654  , 3           , 3           , 0           , 8.001237    , 300
-0.13294889 , 9.79221249  , 0.1228117   , 0.000180144649, 0.0001413612, 0.000202641138, -1.5841285  , -0.0144333309, 0.000144492529, 918.114136  , 31.700983   , 824.041138  , 3.01        , 3           , 1           , 0           , 0
-0.1296046  , 9.804555    , 0.124333933 , -0.000141996483, -5.25059877E-05, 0.000252618454, -1.58412981 , -0.0144307986, 0.000144982914, 918.114136  , 31.700983   , 824.0409    , 3.02        , 3           , 2           , 0           , 0
-0.146033525, 9.78488     , 0.12203034  , 0.0005228495, -2.93238554E-05, 8.091161E-05, -1.58412457 , -0.0144299846, 0.0001452656, 918.0988    , 31.70071    , 824.040649  , 3.03        , 3           , 3           , 0           , 0
-0.140176684, 9.79085     , 0.131281242 , 0.0007824289, -0.000316653226, 0.000739189447, -1.58411682 , -0.0144225517, 0.000148334148, 918.0988    , 31.70071    , 824.0404    , 3.04        , 3           , 4           , 0           , 0
-0.146917373, 9.795909    , 0.12733236  , -0.000198998663, -0.00015206344, 0.00021395371, -1.58411884 , -0.0144203929, 0.000149826752, 918.0988    , 31.70071    , 824.040161  , 3.05        , 3           , 5           , 0           , 0
-0.143293813, 9.795299    , 0.126801744 , -0.000273554819, -1.28157553E-05, 0.0007183398, -1.58412147 , -0.0144132106, 0.000149858839, 918.0988    , 31.70071    , 824.0399    , 3.06        , 3           , 6           , 0           , 0
-0.143016651, 9.795412    , 0.126150936 , -0.000243948249, -0.000100246747, -0.000840606051, -1.584124   , -0.0144216027, 0.0001509733, 918.0988    , 31.70071    , 824.0397    , 3.07        , 3           , 7           , 0           , 0
-0.142030835, 9.792203    , 0.140913531 , -0.000175589987, -0.000411661, -0.0005744827, -1.58412564 , -0.0144272884, 0.00015516518, 918.0988    , 31.70071    , 824.0394    , 3.08        , 3           , 8           , 5           , 5
-0.141618878, 9.781664    , 0.132789433 , 5.8839214E-06, -0.00028831372, -0.0007701729, -1.58412576 , -0.01443495 , 0.000158151321, 918.0988    , 31.70071    , 824.0392    , 3.09        , 3           , 9           , 5           , 0.1
-0.157344416, 9.79497     , 0.127468035 , -0.0002927436, -0.000169623527, -0.00017596074, -1.5841285  , -0.0144366883, 0.000159870266, 918.0988    , 31.70071    , 824.03894   , 3.1         , 3           , 10          , 0.1         , 0.1
-0.147808164, 9.79542351  , 0.127835244 , -0.000238377252, -0.000284967769, 0.000162936121, -1.58412659 , -0.0144370776, 0.000162634242, 918.0988    , 31.70071    , 824.057     , 3.11        , 3           , 11          , 0.007559367 , 0.00755936326
-0.143701792, 9.803587    , 0.136147469 , -0.00023690291, -7.762184E-05, 0.0007943654, -1.584129   , -0.0144291241, 0.000163303936, 918.0988    , 31.70071    , 824.0569    , 3.12        , 3           , 12          , 0.174645633 , 0
-0.137677252, 9.79058552  , 0.134730443 , -0.000318885723, -0.000430507818, -0.00012695769, -1.58413219 , -0.0144303367, 0.000167626189, 918.0569    , 31.6981335  , 824.056763  , 3.13        , 3           , 13          , 0           , 0
-0.137304574, 9.787596    , 0.142118469 , 0.000166467624, -0.000524119, -1.3961384E-05, -1.58413041 , -0.0144304065, 0.000172868225, 918.0569    , 31.6981335  , 824.056641  , 3.14        , 3           , 14          , -0.000572277, -0.00061092386
-0.131122559, 9.79684     , 0.1330547   , 0.000139476208, 0.000251558318, 0.000390737754, -1.5841291  , -0.0144265322, 0.000170301224, 918.0569    , 31.6981335  , 824.0565    , 3.15        , 3           , 15          , 0           , -0.000141479541
-0.138082772, 9.797903    , 0.1373851   , 0.00020463008, 2.66100978E-05, 0.000567922951, -1.58412707 , -0.01442086 , 0.000169960287, 918.0569    , 31.6981335  , 824.0564    , 3.16        , 3           , 16          , 0           , 1.401298E-45
-0.157573774, 9.802147    , 0.126164243 , 0.000338206242, 0.000130399683, -0.000233817, -1.58412373 , -0.0144232148, 0.000168687518, 918.0569    , 31.6981335  , 824.0563    , 3.17        , 3           , 20          , 0           , 0
-0.152641892, 9.794601    , 0.127325416 , 0.000519372232, 0.00010405411, -0.000817872, -1.58411849 , -0.0144314077, 0.000167755177, 918.0569    , 31.6981335  , 824.056152  , 3.18        , 3           , 21          , 0           , 0
-0.148571938, 9.795517    , 0.127168462 , -0.0001393666, -0.000162719574, -0.00036937918, -1.58411992 , -0.0144350752, 0.00016943083, 918.0569    , 31.6981335  , 824.056     , 3.19        , 3           , 22          , 0           , 0
-0.149420351, 9.799245    , 0.13050428  , 1.183094E-05, 0.000127516163, -0.000427290448, -1.58411968 , -0.0144393658, 0.00016821301, 918.0569    , 31.6981335  , 824.0559    , 3.2         , 3           , 40          , 0           , 0
-0.145853922, 9.79717     , 0.1291532   , -9.58953751E-05, 0.000214815082, 0.00019067277, -1.58412325 , -0.0144421374, 0.0001660768, 918.0569    , 31.6981335  , 824.131165  , 3.21        , 3           , 41          , 0           , 0
-0.141686767, 9.803896    , 0.131720856 , 0.000279201515, 6.965082E-05, -0.00012138953, -1.58412039 , -0.0144433593, 0.000165396385, 918.0569    , 31.6981335  , 824.131531  , 3.22        , 3           , 42          , 0           , 0
-0.1396006  , 9.804616    , 0.126068547 , -0.000210419414, 1.997687E-06, 0.0003715789, -1.58412254 , -0.0144396452, 0.000165326521, 918.0846    , 31.7001686  , 824.1319    , 3.23        , 3           , 255         , 0           , 0
-0.142448992, 9.7952      , 0.130162537 , -0.00029815163, 1.38047035E-05, 0.0005122268, -1.58412552 , -0.0144345248, 0.00016512115, 918.0846    , 31.7001686  , 824.132263  , 3.24        , 3           , 255         , 0           , 0
-0.143331021, 9.795302    , 0.134308457 , 0.000262772839, 8.981826E-05, -0.00034622266, -1.5841229  , -0.014438   , 0.000164268888, 918.0846    , 31.7001686  , 824.1326    , 3.25        , 3           , 255         , 0           , 0
-0.137008816, 9.792833    , 0.127301127 , 0.000110635359, 0.0002230792, -0.000340094033, -1.5841217  , -0.0144414278, 0.000162082884, 918.0846    , 31.7001686  , 824.133     , 3.26        , 3           , 255         , 0           , 0
-0.13624385 , 9.802958    , 0.130218789 , -0.000372700277, 0.000181367417, -0.000145178128, -1.5841254  , -0.014442903, 0.000160289434, 918.0846    , 31.7001686  , 824.133362  , 3.27        , 3           , 255         , 0           , 0
-0.138409048, 9.798893    , 0.125867888 , -0.0003544308, 0.000174981018, -0.000120022843, -1.584129   , -0.0144441277, 0.000158556053, 918.0846    , 31.7001686  , 824.1337    , 3.28        , 3           , 255         , 0           , 0
-0.140978619, 9.802629    , 0.124711491 , 0.0003370828, -0.000250223617, -5.436245E-05, -1.58412564 , -0.0144446371, 0.000161064832, 918.0846    , 31.7001686  , 824.1341    , 3.29        , 3           , 255         , 0           , 0
-0.145467341, 9.795779    , 0.127384186 , 0.000221095572, -8.139573E-05, -0.000610999, -1.58412349 , -0.0144507363, 0.000161959935, 918.0846    , 31.7001686  , 824.13446   , 3.3         , 3           , 255         , 0           , 0
-0.145463437, 9.798025    , 0.129358381 , -4.21947334E-07, 0.000153572648, -0.0006252068, -1.58412087 , -0.0144564984, 0.000160470154, 918.0846    , 31.7001686  , 824.159546  , 3.31        , 3           , 255         , 0           , 0
-0.148594782, 9.800147    , 0.126249075 , -0.000122874859, -0.0005163871, 0.000278553 , -1.58412206 , -0.0144536439, 0.000165595746, 918.0846    , 31.7001686  , 824.1601    , 3.32        , 3           , 255         , 0           , 0
-0.136602491, 9.791667    , 0.133577988 , -0.00034458912, -0.000153078523, -1.60543714E-05, -1.58412564 , -0.0144537827, 0.000167128412, 918.1292    , 31.702      , 824.160645  , 3.33        , 3           , 255         , 0           , 0
-0.138064489, 9.794314    , 0.129109174 , -0.000249419769, -0.0003308985, -0.0005040971, -1.58412814 , -0.0144587792, 0.00017050482, 918.1292    , 31.702      , 824.1612    , 3.34        , 3           , 255         , 0           , 0
-0.138864309, 9.783873    , 0.127082825 , 3.95317329E-05, 0.0003865293, -0.000566508039, -1.58412778 , -0.0144644957, 0.0001667158, 918.1292    , 31.702      , 824.161743  , 3.35        , 3           , 255         , 0           , 0
-0.144624218, 9.78706     , 0.128571749 , -0.000167504128, -0.0001837585, 0.000113142007, -1.58412945 , -0.01446334 , 0.000168537663, 918.1292    , 31.702      , 824.1623    , 3.36        , 3           , 255         , 0           , 0
-0.1425801  , 9.796242    , 0.12994203  , -0.000200657058, -6.691861E-05, -0.000438356423, -1.58413148 , -0.0144677116, 0.000169266059, 918.1292    , 31.702      , 824.162842  , 3.37        , 3           , 255         , 0           , 0
-0.1449031  , 9.79265     , 0.121987857 , -0.0006215201, 8.555222E-05, 0.000123223959, -1.5841378  , -0.0144664925, 0.000168394239, 918.1292    , 31.702      , 824.1634    , 3.38        , 3           , 255         , 0           , 0
-0.142861158, 9.795553    , 0.121394172 , 0.0006139898, 0.000278068183, 0.000654902833, -1.5841316  , -0.01445998 , 0.000165527308, 918.1292    , 31.702      , 824.16394   , 3.39        , 3           , 255         , 0           , 0
-0.140064448, 9.795419    , 0.124824323 , 0.000446499762, -0.0002474101, -0.000213758976, -1.58412707 , -0.0144620845, 0.000168028622, 918.1292    , 31.702      , 824.1645    , 3.4         , 3           , 255         , 0           , 0
-0.139938682, 9.793676    , 0.122757934 , -0.000460600015, 0.000218812085, -8.415348E-05, -1.58412576 , -0.0144640347, 0.00016576529, 918.1292    , 31.702      , 824.1215    , 3.41        , 3           , 255         , 0           , 0
-0.135322288, 9.796594    , 0.1334735   , -0.000245056348, -9.196263E-05, 0.0005706409, -1.58412826 , -0.0144583182, 0.000166609127, 918.1292    , 31.702      , 824.1218    , 3.42        , 3           , 255         , 0           , 0
-0.133749679, 9.806836    , 0.124739245 , -6.80933E-05, 4.809408E-06, -0.0002586752, -1.58412886 , -0.0144609017, 0.000166595652, 918.122131  , 31.7017288  , 824.122131  , 3.43        , 3           , 255         , 0           , 0
-0.131312713, 9.797478    , 0.138965175 , 0.000136097282, -7.7572884E-05, 0.000131624431, -1.58412743 , -0.0144595755, 0.000167353835, 918.122131  , 31.7017288  , 824.122437  , 3.44        , 3           , 255         , 0           , 0
-0.137585908, 9.792162    , 0.126836658 , 6.290374E-05, 3.421353E-05, -0.0002312735, -1.58412683 , -0.0144618927, 0.000167042264, 918.122131  , 31.7017288  , 824.122742  , 3.45        , 3           , 255         , 0           , 0
-0.1471039  , 9.800036    , 0.135312527 , -3.79862031E-05, -0.000141072087, 8.791962E-06, -1.58412719 , -0.0144617865, 0.000168451035, 918.122131  , 31.7017288  , 824.123047  , 3.46        , 3           , 255         , 0           , 0
-0.1384601  , 9.791014    , 0.133934334 , 4.44335747E-05, 3.294408E-05, 0.0005985288, -1.58412671 , -0.0144558093, 0.0001680412, 918.122131  , 31.7017288  , 824.123352  , 3.47        , 3           , 255         , 0           , 0
-0.138272792, 9.798574    , 0.13582617  , 0.0003198019, -0.000169972365, -0.0008588858, -1.58412349 , -0.0144643709, 0.000169855179, 918.122131  , 31.7017288  , 824.123657  , 3.48        , 3           , 255         , 0           , 0
-0.144246653, 9.799037    , 0.125474066 , 9.62480844E-05, 0.000223195617, -0.000241701928, -1.58412242 , -0.0144668166, 0.0001676547, 918.122131  , 31.7017288  , 824.123962  , 3.49        , 3           , 255         , 0           , 0
-0.143436581, 9.794275    , 0.136554867 , -0.000447329949, 0.000295668375, 7.224546E-05, -1.584127   , -0.0144661367, 0.000164689045, 918.122131  , 31.7017288  , 824.124268  , 3.5         , 3           , 255         , 0           , 0
-0.147933081, 9.794749    , 0.129822314 , -0.0002970972, -1.645775E-05, -0.000260174216, -1.58413112 , -0.0144647947, 0.000164905141, 918.122131  , 31.7017288  , 824.097351  , 3.51        , 3           , 255         , 0           , 0
-0.148251742, 9.793364    , 0.143551439 , 0.000119156379, 9.657099E-05, 0.0004398236, -1.58412993 , -0.0144604119, 0.000163880541, 918.122131  , 31.7017288  , 824.0975    , 3.52        , 3           , 255         , 0           , 0
-0.147145778, 9.780309    , 0.1299948   , 0.0003138368, -8.1017206E-05, 6.17626938E-05, -1.58412683 , -0.0144597823, 0.000164682511, 918.154236  , 31.70044    , 824.0976    , 3.53        , 3           , 255         , 0           , 0
-0.14213261 , 9.789905    , 0.12940754  , 4.51849774E-05, -0.000160973, 0.0003916836, -1.58412635 , -0.0144558465, 0.000166239362, 918.154236  , 31.70044    , 824.0977    , 3.54        , 3           , 255         , 0           , 0
-0.139696628, 9.800736    , 0.124146923 , -0.000236737193, -3.719871E-05, 0.000389749359, -1.58412874 , -0.0144519433, 0.000166559286, 918.154236  , 31.70044    , 824.097839  , 3.55        , 3           , 255         , 0           , 0
-0.15190281 , 9.79626     , 0.125821963 , 1.58495386E-05, 0.000332890369, 3.66512322E-05, -1.5841285  , -0.0144516211, 0.000163225268, 918.154236  , 31.70044    , 824.097961  , 3.56        , 3           , 255         , 0           , 0
-0.147378087, 9.794383    , 0.136211947 , 0.00017932654, 9.37860459E-05, -0.000387099863, -1.58412671 , -0.0144555056, 0.000162338576, 918.154236  , 31.70044    , 824.0981    , 3.57        , 3           , 255         , 0           , 0
-0.141219363, 9.791356    , 0.138178378 , -0.000278526568, 5.19121531E-05, -0.000333339733, -1.58412933 , -0.0144588444, 0.000161864038, 918.154236  , 31.70044    , 824.0982    , 3.58        , 3           , 255         , 0           , 0
-0.1410286  , 9.79001     , 0.132396489 , 2.56142812E-05, -0.000150557957, 0.000316757651, -1.5841291  , -0.0144556565, 0.000163326811, 918.154236  , 31.70044    , 824.0983    , 3.59        , 3           , 255         , 0           , 0
-0.145245552, 9.791489    , 0.126129836 , -3.331824E-05, -0.000334780372, -4.11189976E-05, -1.58412945 , -0.0144560235, 0.0001666804, 918.154236  , 31.70044    , 824.09845   , 3.6         , 3           , 255         , 0           , 0
-0.14034991 , 9.785208    , 0.127888292 , -4.20089345E-05, -1.52294524E-06, -0.00109085208, -1.58413172 , -0.0144737521, 0.000166867656, 918.154236  , 31.70044    , 824.0293    , 3.61        , 3           , 255         , 0           , 0
-0.1430479  , 9.80649948  , 0.130466148 , 0.000120237994, 0.000141225872, -0.0007542032, -1.58413053 , -0.0144813126, 0.0001655567, 918.154236  , 31.70044    , 824.029     , 3.62        , 3           , 255         , 0           , 0
-0.1446881  , 9.782331    , 0.131999552 , -0.0005808879, -0.000125699618, -0.00128594378, -1.58413637 , -0.0144941574, 0.0001669855, 918.124     , 31.70227    , 824.0287    , 3.63        , 3           , 255         , 0           , 0
-0.145737335, 9.784586    , 0.129015356 , -0.000227048586, 0.0005621528, -0.000299655541, -1.58413851 , -0.014497227, 0.000161404023, 918.124     , 31.70227    , 824.0284    , 3.64        , 3           , 255         , 0           , 0
-0.139700532, 9.791697    , 0.136057064 , 0.000230707112, 6.180629E-05, -0.000271860248, -1.58413625 , -0.0144999549, 0.000160822339, 918.124     , 31.70227    , 824.0281    , 3.65        , 3           , 255         , 0           , 0
-0.143684015, 9.797457    , 0.134759754 , -0.0002837812, -0.000294785248, -0.000155627436, -1.58413911 , -0.01450147 , 0.00016379077, 918.124     , 31.70227    , 824.0278    , 3.66        , 3           , 255         , 0           , 0
-0.142302811, 9.788181    , 0.135461733 , -0.000216204382, -4.771771E-05, 0.000384408137, -1.58414125 , -0.01449762 , 0.0001642169, 918.124     , 31.70227    , 824.027466  , 3.67        , 3           , 255         , 0           , 0
-0.14066422 , 9.791743    , 0.122179724 , -0.000219713489, 7.370039E-05, 0.000181307521, -1.58414352 , -0.014495817, 0.0001634559, 918.124     , 31.70227    , 824.027161  , 3.68        , 3           , 255         , 0           , 0
-0.143650651, 9.785997    , 0.131224155 , -0.0005025596, -0.000537986751, 0.000124920145, -1.58414853 , -0.0144944955, 0.000168819024, 918.124     , 31.70227    , 824.026855  , 3.69        , 3           , 255         , 0           , 0
-0.139277369, 9.7828      , 0.132748753 , -2.31449958E-05, -0.000487094861, 0.000241550384, -1.58414876 , -0.0144920154, 0.000173656357, 918.124     , 31.70227    , 824.02655   , 3.7         , 3           , 255         , 0           , 0
-0.134411365, 9.798826    , 0.141428426 , 0.0001695168, -0.000211259234, 0.0003276327, -1.58414853 , -0.0144895008, 0.000175743669, 918.124     , 31.70227    , 824.010742  , 3.71        , 3           , 255         , 0           , 0
-0.132699877, 9.791894    , 0.133271366 , -0.000189735962, 0.000232335326, 0.000229998812, -1.58415031 , -0.014487233, 0.00017338949, 918.124     , 31.70227    , 824.0104    , 3.72        , 3           , 255         , 0           , 0
-0.136255175, 9.797399    , 0.139720649 , -8.531299E-05, -0.0004622505, 4.546049E-05, -1.58415115 , -0.0144867171, 0.000178005619, 918.1477    , 31.70132    , 824.01      , 3.73        , 3           , 255         , 0           , 0
-0.1410747  , 9.785838    , 0.128058642 , 0.00017535084, -0.0001123189, 0.001269921 , -1.58414948 , -0.0144740045, 0.000178959817, 918.1477    , 31.70132    , 824.009644  , 3.74        , 3           , 255         , 0           , 0
-0.135788649, 9.79626     , 0.132730752 , 0.0003016979, 6.134261E-05, 0.00111239438, -1.5841465  , -0.0144628892, 0.0001781979, 918.1477    , 31.70132    , 824.0093    , 3.75        , 3           , 255         , 0           , 0
-0.132639036, 9.786647    , 0.126887143 , 0.0005478208, 1.41500495E-05, 0.000201491435, -1.584141   , -0.0144608757, 0.0001780293, 918.1477    , 31.70132    , 824.0089    , 3.76        , 3           , 255         , 0           , 0
