Acc X       , Acc Y       , Acc Z       , Gyro X      , Gyro Y      , Gyro Z      , Euler X     , Euler Y     , Euler Z     , Pres X      , Pres Y      , Pres Z      , Time        , Status      , LowRate X   , LowRate Y   , LowRate Z    
-0.158363879, -0.09391384 , 9.789097    , 0           , 0           , 0           , 3.13199925  , -0.0161754247, 0           , 923.1148    , 30.7169342  , 779.0245    , 0           , 2           , 0           , 5.46223164  , 0
-0.205403164, -0.1274764  , 9.871149    , 0.00583434  , 0.00259741442, 0.000179778988, 3.13205767  , -0.0162017439, -1.5493348E-06, 923.1148    , 30.7169342  , 779.0245    , 0.01        , 3           , 1           , 0           , 0
-0.18865779 , -0.118336938, 9.706164    , 0.00380412419, 4.695705E-05, -3.87064938E-06, 3.13209581  , -0.0162022132, -1.50610981E-06, 923.1148    , 30.7169342  , 779.0245    , 0.02        , 3           , 2           , 0           , 0
-0.151924282, -0.1244298  , 9.676573    , 0.0008007395, -0.000470017636, 0.000397232623, 3.13210368  , -0.0161975455, -5.52330766E-06, 923.084045  , 30.2887821  , 779.0245    , 0.03        , 3           , 3           , 0           , 0
-0.153435379, -0.125172824, 9.719404    , -0.00199419167, 0.0007862801, 0.00023382291, 3.132084    , -0.0162054338, -7.786989E-06, 923.084045  , 30.2887821  , 779.0245    , 0.04        , 3           , 4           , 0           , 0
-0.156284139, -0.1271285  , 9.807461    , -0.00352268084, 0.0004346242, -0.0005535621, 3.13204861  , -0.0162097253, -2.209664E-06, 923.084045  , 30.2887821  , 779.0245    , 0.05        , 3           , 5           , 0           , 0
-0.149799347, -0.134800479, 9.895521    , -0.00200101477, -0.000842766254, 0.000449215149, 3.13202858  , -0.01620134 , -6.78266542E-06, 923.084045  , 30.2887821  , 779.0245    , 0.06        , 3           , 6           , 0           , 0
-0.149015218, -0.126565844, 9.860697    , 0.00103740557, -0.002094575, 0.000301411172, 3.132039    , -0.016180424, -9.997223E-06, 923.084045  , 30.2887821  , 779.0245    , 0.07        , 3           , 7           , 0           , 0
-0.163923651, -0.09964618 , 9.729442    , 0.0007224374, -0.00100297283, 0.0009057777, 3.13204646  , -0.0161704831, -1.91513464E-05, 923.084045  , 30.2887821  , 779.0245    , 0.08        , 3           , 8           , 5           , 5
-0.163981721, -0.08470237 , 9.685919    , -0.00169005175, -0.0004011039, 0.0002085426, 3.13202953  , -0.0161664933, -2.12752038E-05, 923.084045  , 30.2887821  , 779.0245    , 0.09        , 3           , 9           , 5           , 0.1
-0.163839981, -0.09379406 , 9.809519    , -0.00272158626, 0.000395072217, -2.80290988E-05, 3.13200235  , -0.0161704384, -2.09570753E-05, 923.084045  , 30.2887821  , 779.0245    , 0.1         , 3           , 10          , 0.1         , 0.1
-0.157729432, -0.07106392 , 9.909366    , -0.0007829247, 0.000126939034, 0.00029521226, 3.131474    , -0.0163107142, -1.54056015E-05, 923.084045  , 30.2887821  , 779.2993    , 0.11        , 3           , 11          , 0.0109544508, 0.0109544508
-0.154417664, -0.0590997338, 9.85247     , 0.001398423 , -0.00031827722, -0.000294889964, 3.13148785  , -0.016307503, -1.24887156E-05, 923.084045  , 30.2887821  , 779.2993    , 0.12        , 3           , 12          , 0.174642488 , 0
-0.1430993  , -0.057513196, 9.78432751  , 0.00222763768, -0.0009003152, 9.081366E-05, 3.13151     , -0.0162985064, -1.34878073E-05, 923.08606   , 30.3273182  , 779.2993    , 0.13        , 3           , 13          , 0           , 0
-0.1406225  , -0.05763357 , 9.71089     , 0.000920546649, 0.0006920396, 0.000892841 , 3.13151956  , -0.0163055137, -2.23470015E-05, 923.08606   , 30.3273182  , 779.2993    , 0.14        , 3           , 14          , 0.0005431299, 0.0008170045
-0.150981218, -0.05904293 , 9.7310915   , -0.00104370411, 0.0006243959, 0.0006074263, 3.131509    , -0.016311815, -2.83587069E-05, 923.08606   , 30.3273182  , 779.2993    , 0.15        , 3           , 15          , 0           , 0.000155718662
-0.166598022, -0.07436616 , 9.83262348  , -0.00182679831, 0.0005588585, 0.0006814362, 3.131491    , -0.0163174756, -3.51170638E-05, 923.08606   , 30.3273182  , 779.2993    , 0.16        , 3           , 16          , 0           , 1.401298E-45
-0.163576126, -0.075923   , 9.866783    , 0.0003903155, -8.036062E-05, -0.000204581913, 3.13149476  , -0.01631665 , -3.30792464E-05, 923.08606   , 30.3273182  , 779.2993    , 0.17        , 3           , 20          , 0           , 0
-0.157299832, -0.0727390647, 9.796985    , 0.00114281708, -0.000696577, 0.0004915426, 3.13150644  , -0.0163097344, -3.806526E-05, 923.08606   , 30.3273182  , 779.2993    , 0.18        , 3           , 21          , 0           , 0
-0.156769559, -0.077004   , 9.739988    , 0.000337868 , -0.000396453834, 0.000591045362, 3.13150978  , -0.01630583 , -4.40160329E-05, 923.08606   , 30.3273182  , 779.2993    , 0.19        , 3           , 22          , 0           , 0
-0.153094366, -0.09900635 , 9.756656    , -0.00111675309, 9.017321E-05, -0.000301752239, 3.13149858  , -0.0163066983, -4.09892273E-05, 923.08606   , 30.3273182  , 779.2993    , 0.2         , 3           , 40          , 0           , 0
-0.160131544, -0.115851283, 9.817045    , -0.00137585471, 0.0008529233, -0.000674472656, 3.131552    , -0.0163023826, -3.525462E-05, 923.08606   , 30.3273182  , 779.291443  , 0.21        , 3           , 41          , 0           , 0
-0.173561439, -0.12750861 , 9.856371    , -0.000396129122, -0.00019940763, -0.0007800311, 3.131548    , -0.01630031 , -2.74738977E-05, 923.08606   , 30.3273182  , 779.2915    , 0.22        , 3           , 42          , 0           , 0
-0.162033767, -0.11630702 , 9.829497    , 0.000834807463, -0.000528797333, 0.000159984076, 3.13155627  , -0.0162950382, -2.91269353E-05, 923.097839  , 30.35303    , 779.291565  , 0.23        , 3           , 255         , 0           , 0
-0.157271653, -0.10508772 , 9.765145    , 0.0009276241, -0.0002969277, 0.0006929528, 3.13156581  , -0.016292138, -3.608667E-05, 923.097839  , 30.35303    , 779.2916    , 0.24        , 3           , 255         , 0           , 0
-0.153310761, -0.111798264, 9.749605    , -0.000594053534, 0.000504107738, -0.000414435082, 3.13155961  , -0.0162971336, -3.18915336E-05, 923.097839  , 30.35303    , 779.2917    , 0.25        , 3           , 255         , 0           , 0
-0.153632328, -0.111181162, 9.800167    , -0.00149251649, 0.000330367067, -0.000240247216, 3.13154483  , -0.0163004156, -2.945575E-05, 923.097839  , 30.35303    , 779.291748  , 0.26        , 3           , 255         , 0           , 0
-0.167940408, -0.1248183  , 9.852348    , -0.000594280369, 0.0004469463, -0.000282721827, 3.13153863  , -0.0163048562, -2.65834424E-05, 923.097839  , 30.35303    , 779.2918    , 0.27        , 3           , 255         , 0           , 0
-0.162886977, -0.1093045  , 9.831446    , 0.0005484189, -9.341922E-06, -0.00013501459, 3.131544    , -0.0163047481, -2.52341561E-05, 923.097839  , 30.35303    , 779.2919    , 0.28        , 3           , 255         , 0           , 0
-0.1606945  , -0.09887753 , 9.780198    , 0.00107391947, -1.59447081E-05, -0.000619297149, 3.13155484  , -0.0163045265, -1.90424362E-05, 923.097839  , 30.35303    , 779.291931  , 0.29        , 3           , 255         , 0           , 0
-0.160982385, -0.0916684642, 9.755186    , 0.0003316545, 0.000190890452, 0.0005733621, 3.13155818  , -0.01630649 , -2.475725E-05, 923.097839  , 30.35303    , 779.292     , 0.3         , 3           , 255         , 0           , 0
-0.163635522, -0.08135523 , 9.781561    , -0.000471467036, 0.00024404435, -0.000286530732, 3.13153076  , -0.0163114928, -2.1495418E-05, 923.097839  , 30.35303    , 779.253845  , 0.31        , 3           , 255         , 0           , 0
-0.151771575, -0.08397408 , 9.82073     , -0.0005354977, -0.00012116041, 9.44719359E-05, 3.13152528  , -0.0163102914, -2.24523919E-05, 923.097839  , 30.35303    , 779.2539    , 0.32        , 3           , 255         , 0           , 0
-0.153988972, -0.08130925 , 9.834046    , 0.0007892991, -0.000329713279, 0.000321228785, 3.13153338  , -0.0163070261, -2.569804E-05, 923.042847  , 30.3678875  , 779.253967  , 0.33        , 3           , 255         , 0           , 0
-0.1593099  , -0.07550979 , 9.787935    , 0.0006219085, -0.0005405826, -0.000207542122, 3.13153958  , -0.0163016  , -2.36768519E-05, 923.042847  , 30.3678875  , 779.254     , 0.34        , 3           , 255         , 0           , 0
-0.161479145, -0.07721764 , 9.759751    , 0.000195512723, 0.0002610142, 0.0001572117, 3.13154149  , -0.0163042266, -2.522282E-05, 923.042847  , 30.3678875  , 779.2541    , 0.35        , 3           , 255         , 0           , 0
-0.1653766  , -0.076759316, 9.769795    , 0.0001855045, 0.0009775785, 0.0005313949, 3.1315434   , -0.0163140558, -3.04388341E-05, 923.042847  , 30.3678875  , 779.25415   , 0.36        , 3           , 255         , 0           , 0
-0.163782418, -0.0830931738, 9.812105    , -0.000141690747, 0.0007536181, -0.0005037468, 3.131542    , -0.01632154 , -2.53253365E-05, 923.042847  , 30.3678875  , 779.2542    , 0.37        , 3           , 255         , 0           , 0
-0.158630848, -0.08468356 , 9.827993    , 0.000201228482, 0.000366801163, -0.00081947766, 3.13154387  , -0.0163251236, -1.7093218E-05, 923.042847  , 30.3678875  , 779.2543    , 0.38        , 3           , 255         , 0           , 0
-0.155081064, -0.08316399 , 9.805468    , 0.000222521543, 0.00018117216, 0.000373787829, 3.131546    , -0.0163269732, -2.081312E-05, 923.042847  , 30.3678875  , 779.254333  , 0.39        , 3           , 255         , 0           , 0
-0.1587818  , -0.08189414 , 9.774858    , 7.621263E-05, 0.00023655605, -0.0001220032, 3.13154674  , -0.01632933 , -1.95692373E-05, 923.042847  , 30.3678875  , 779.2544    , 0.4         , 3           , 255         , 0           , 0
-0.1521093  , -0.0914725  , 9.780508    , -0.000494386652, 9.38868E-05 , -0.000567121839, 3.131583    , -0.0163288917, -1.45598806E-05, 923.042847  , 30.3678875  , 779.3599    , 0.41        , 3           , 255         , 0           , 0
-0.163324192, -0.09553871 , 9.799796    , -0.000410980661, 0.0002903213, -0.000281875837, 3.13157868  , -0.0163317639, -1.17118816E-05, 923.042847  , 30.3678875  , 779.36      , 0.42        , 3           , 255         , 0           , 0
-0.168878   , -0.100649141, 9.823099    , -0.000312501448, 5.21456823E-05, -0.00039929038, 3.13157558  , -0.0163322464, -7.713529E-06, 923.069458  , 30.38003    , 779.360046  , 0.43        , 3           , 255         , 0           , 0
-0.16418305 , -0.110822834, 9.810655    , 0.000792146253, -0.000321881846, 4.60040319E-05, 3.13158345  , -0.0163290314, -8.205836E-06, 923.069458  , 30.38003    , 779.3601    , 0.44        , 3           , 255         , 0           , 0
-0.154770583, -0.102227747, 9.784877    , 0.000589176954, -0.000306464732, -0.00010542832, 3.13158941  , -0.0163259581, -7.182159E-06, 923.069458  , 30.38003    , 779.360168  , 0.45        , 3           , 255         , 0           , 0
-0.1474211  , -0.0988693237, 9.773346    , -0.000451363681, 0.000478481059, -0.0004233961, 3.131585    , -0.0163306966, -2.900096E-06, 923.069458  , 30.38003    , 779.3602    , 0.46        , 3           , 255         , 0           , 0
-0.149087936, -0.09201473 , 9.792056    , -0.000923564134, 0.0007267186, -0.000410382869, 3.13157558  , -0.01633792 , 1.27674446E-06, 923.069458  , 30.38003    , 779.3603    , 0.47        , 3           , 255         , 0           , 0
-0.154772907, -0.100545764, 9.806806    , 2.72928155E-05, 0.000306937378, 4.67567734E-05, 3.13157582  , -0.0163409933, 8.39888571E-07, 923.069458  , 30.38003    , 779.3604    , 0.48        , 3           , 255         , 0           , 0
-0.159012944, -0.0905862  , 9.815254    , 0.0005698993, 8.593005E-05, -0.000217531269, 3.13158131  , -0.0163418315, 3.02393528E-06, 923.069458  , 30.38003    , 779.360535  , 0.49        , 3           , 255         , 0           , 0
-0.163502857, -0.0919616148, 9.795809    , -2.05930555E-05, 0.000119434262, -0.0005898761, 3.131581    , -0.0163429677, 8.935E-06   , 923.069458  , 30.38003    , 779.360657  , 0.5         , 3           , 255         , 0           , 0
-0.172858939, -0.09247154 , 9.778069    , -0.0006146364, 0.000203301781, -2.64023111E-05, 3.1315763   , -0.0163399987, 9.199028E-06, 923.069458  , 30.38003    , 779.375549  , 0.51        , 3           , 255         , 0           , 0
-0.1635882  , -0.08082509 , 9.785761    , -0.0006294668, 0.000286614522, 0.000165168123, 3.13156986  , -0.0163428821, 7.57596763E-06, 923.069458  , 30.38003    , 779.3757    , 0.52        , 3           , 255         , 0           , 0
-0.150682837, -0.0827584863, 9.81772     , -0.0005734098, 0.000378319528, -0.000877174, 3.13156414  , -0.0163465738, 1.63861478E-05, 923.1032    , 30.3911572  , 779.3758    , 0.53        , 3           , 255         , 0           , 0
-0.149490684, -0.09482091 , 9.809128    , -0.000114112627, 5.258259E-05, -0.000198065143, 3.131563    , -0.0163470786, 1.83721822E-05, 923.1032    , 30.3911572  , 779.3759    , 0.54        , 3           , 255         , 0           , 0
-0.153233618, -0.09027402 , 9.784582    , 0.0008888066, 0.000234325416, 0.000306338654, 3.13157177  , -0.0163494535, 1.53321052E-05, 923.1032    , 30.3911572  , 779.376038  , 0.55        , 3           , 255         , 0           , 0
-0.153772682, -0.08661671 , 9.777679    , -0.000449938874, -0.0002021658, 0.001172388 , 3.13156748  , -0.0163475461, 3.587272E-06, 923.1032    , 30.3911572  , 779.37616   , 0.56        , 3           , 255         , 0           , 0
-0.159526348, -0.08750267 , 9.781       , -0.0010041768, -0.000362743333, -3.58125544E-06, 3.13155746  , -0.01634392 , 3.586682E-06, 923.1032    , 30.3911572  , 779.3763    , 0.57        , 3           , 255         , 0           , 0
-0.169272229, -0.08748029 , 9.801221    , -0.0009825298, -0.0002431072, -0.00024418885, 3.13154769  , -0.016341459, 6.00428939E-06, 923.1032    , 30.3911572  , 779.3764    , 0.58        , 3           , 255         , 0           , 0
-0.163816243, -0.08664496 , 9.81284     , -0.000104509731, -0.000370953756, 0.000264207658, 3.13154674  , -0.0163377766, 3.32479271E-06, 923.1032    , 30.3911572  , 779.3765    , 0.59        , 3           , 255         , 0           , 0
-0.157766312, -0.0876715556, 9.808735    , 0.000416605733, -4.31988155E-06, 0.000217075212, 3.13155079  , -0.0163377561, 1.15348064E-06, 923.1032    , 30.3911572  , 779.376648  , 0.6         , 3           , 255         , 0           , 0
-0.1569405  , -0.08945309 , 9.78152752  , 0.000260486035, -8.669443E-05, -0.0004808423, 3.13157916  , -0.0163349658, 5.532575E-06, 923.1032    , 30.3911572  , 779.3335    , 0.61        , 3           , 255         , 0           , 0
-0.155327916, -0.08465391 , 9.780512    , -0.0006265536, 0.000183292665, -0.0001072162, 3.13157272  , -0.0163367838, 6.6231546E-06, 923.1032    , 30.3911572  , 779.3336    , 0.62        , 3           , 255         , 0           , 0
-0.1603387  , -0.0937274843, 9.797209    , 0.0002591848, 0.000341351377, 0.0002608552, 3.13157558  , -0.0163402241, 4.048665E-06, 923.0872    , 30.3943443  , 779.33374   , 0.63        , 3           , 255         , 0           , 0
-0.171569869, -0.09800265 , 9.809863    , 0.0005434969, 1.540134E-05, 2.62486E-06 , 3.13158083  , -0.0163403787, 4.02397427E-06, 923.0872    , 30.3943443  , 779.333862  , 0.64        , 3           , 255         , 0           , 0
-0.167847008, -0.092227824, 9.805481    , 0.000123278645, -0.000119763659, -0.000175624169, 3.131582    , -0.0163391624, 5.768313E-06, 923.0872    , 30.3943443  , 779.334     , 0.65        , 3           , 255         , 0           , 0
-0.162458718, -0.09272782 , 9.78945     , 0.00037334807, 0.000149609928, -0.00014875007, 3.13158584  , -0.0163406432, 7.27086763E-06, 923.0872    , 30.3943443  , 779.3341    , 0.66        , 3           , 255         , 0           , 0
-0.162256435, -0.09568262 , 9.780524    , 0.000550380559, 0.000242407084, 0.0004537016, 3.13159132  , -0.0163431149, 2.757847E-06, 923.0872    , 30.3943443  , 779.3342    , 0.67        , 3           , 255         , 0           , 0
-0.155627459, -0.09338261 , 9.78566     , 0.00018826552, 1.42608187E-05, 0.000712752051, 3.13159347  , -0.01634333 , -4.368668E-06, 923.0872    , 30.3943443  , 779.334351  , 0.68        , 3           , 255         , 0           , 0
-0.153254777, -0.101303533, 9.796694    , -0.00025462333, -0.000102663063, 0.0006299938, 3.13159084  , -0.0163423661, -1.06792359E-05, 923.0872    , 30.3943443  , 779.3345    , 0.69        , 3           , 255         , 0           , 0
-0.162041962, -0.101278625, 9.798665    , 0.000157079427, -0.00107749831, 0.000223542578, 3.13159251  , -0.0163316131, -1.30225744E-05, 923.0872    , 30.3943443  , 779.3346    , 0.7         , 3           , 255         , 0           , 0
-0.15486443 , -0.103896722, 9.791749    , -4.351599E-05, -0.000273810176, 0.0002437218, 3.13160324  , -0.0163310431, -1.56671686E-05, 923.0872    , 30.3943443  , 779.325439  , 0.71        , 3           , 255         , 0           , 0
-0.163267791, -0.09734668 , 9.784685    , 0.000137090625, -0.000282864145, -9.144262E-05, 3.13160443  , -0.0163282044, -1.47809478E-05, 923.0872    , 30.3943443  , 779.325562  , 0.72        , 3           , 255         , 0           , 0
-0.160709   , -0.08860085 , 9.798689    , -0.0004376327, -1.879438E-05, 1.890435E-05, 3.13160014  , -0.01632802 , -1.49718717E-05, 923.0537    , 30.3957024  , 779.3257    , 0.73        , 3           , 255         , 0           , 0
-0.152889982, -0.08700618 , 9.803875    , 0.000106440915, -0.000133084657, 0.0008304301, 3.13160133  , -0.01632677 , -2.32899529E-05, 923.0537    , 30.3957024  , 779.3258    , 0.74        , 3           , 255         , 0           , 0
-0.160123318, -0.09016664 , 9.809776    , 7.914554E-05, 0.0002932931, -0.0001301592, 3.131602    , -0.0163296927, -2.19589965E-05, 923.0537    , 30.3957024  , 779.3259    , 0.75        , 3           , 255         , 0           , 0
-0.164061412, -0.08497505 , 9.796641    , -0.000634594238, 0.00020672736, -0.000970936031, 3.13159561  , -0.0163316652, -1.22284182E-05, 923.0537    , 30.3957024  , 779.32605   , 0.76        , 3           , 255         , 0           , 0
-0.157000169, -0.08976307 , 9.787417    , -0.00022393823, 0.000563921465, -0.000110287452, 3.13159347  , -0.0163372885, -1.10691108E-05, 923.0537    , 30.3957024  , 779.3262    , 0.77        , 3           , 255         , 0           , 0
-0.159181267, -0.09986486 , 9.790634    , -0.00020379317, 0.000414280279, 0.0008669244, 3.13159156  , -0.016341513, -1.96974324E-05, 923.0537    , 30.3957024  , 779.3263    , 0.78        , 3           , 255         , 0           , 0
-0.16857703 , -0.09776112 , 9.802462    , -0.00046207977, 0.000197790388, -0.000318198639, 3.13158679  , -0.0163434613, -1.64954818E-05, 923.0537    , 30.3957024  , 779.3264    , 0.79        , 3           , 255         , 0           , 0
-0.158906847, -0.08956207 , 9.805706    , -0.000208514743, 0.000462528144, 0.0006333167, 3.131585    , -0.0163481478, -2.27827459E-05, 923.0537    , 30.3957024  , 779.326538  , 0.8         , 3           , 255         , 0           , 0
-0.156833872, -0.0960371345, 9.800985    , 0.000449031417, 0.000259094581, 0.000308600138, 3.13160014  , -0.01635069 , -2.60178E-05, 923.0537    , 30.3957024  , 779.36084   , 0.81        , 3           , 255         , 0           , 0
-0.1597278  , -0.093594715, 9.796224    , -0.000143679965, 0.000115350646, -4.924222E-05, 3.13159871  , -0.01635184 , -2.5513822E-05, 923.0537    , 30.3957024  , 779.361     , 0.82        , 3           , 255         , 0           , 0
-0.158724859, -0.08941247 , 9.796619    , -0.000115738716, 0.000352309027, 0.0008398415, 3.13159752  , -0.0163554437, -3.38775135E-05, 923.095947  , 30.4001789  , 779.3612    , 0.83        , 3           , 255         , 0           , 0
-0.159167379, -0.09746393 , 9.789152    , -0.000353937678, 3.38273239E-05, 0.000384848332, 3.13159418  , -0.0163558219, -3.77228425E-05, 923.095947  , 30.4001789  , 779.3614    , 0.84        , 3           , 255         , 0           , 0
-0.1627442  , -0.09552542 , 9.793793    , -0.000194894645, -0.000211858656, 0.000298983126, 3.13159227  , -0.0163537357, -4.07340267E-05, 923.095947  , 30.4001789  , 779.3616    , 0.85        , 3           , 255         , 0           , 0
-0.1616084  , -0.08692067 , 9.803599    , -0.000102705322, 4.54313122E-05, 0.000587195449, 3.13159132  , -0.01635425 , -4.66017846E-05, 923.095947  , 30.4001789  , 779.361755  , 0.86        , 3           , 255         , 0           , 0
-0.1545361  , -0.0935205  , 9.798533    , -0.0006119292, 0.000373178 , 0.000136523726, 3.13158512  , -0.0163579956, -4.792976E-05, 923.095947  , 30.4001789  , 779.361938  , 0.87        , 3           , 255         , 0           , 0
-0.160100639, -0.0960121751, 9.787839    , 0.00021839788, 0.000109705608, -0.000138069867, 3.13158727  , -0.0163590778, -4.65380253E-05, 923.095947  , 30.4001789  , 779.3621    , 0.88        , 3           , 255         , 0           , 0
-0.1619946  , -0.09675884 , 9.788511    , 0.0005387683, 0.000122769619, 0.00023870838, 3.13159275  , -0.01636033 , -4.891296E-05, 923.095947  , 30.4001789  , 779.3623    , 0.89        , 3           , 255         , 0           , 0
-0.1592473  , -0.08963423 , 9.795784    , 8.983858E-05, 0.000461591233, -0.00028404867, 3.1315937   , -0.0163649153, -4.602615E-05, 923.095947  , 30.4001789  , 779.3625    , 0.9         , 3           , 255         , 0           , 0
-0.153525338, -0.09049957 , 9.794374    , 0.000130211469, 0.0006286881, 0.000859698746, 3.13160563  , -0.0163695253, -5.47328382E-05, 923.095947  , 30.4001789  , 779.341248  , 0.91        , 3           , 255         , 0           , 0
-0.164011315, -0.0958185941, 9.800001    , 0.000402200676, -0.0005855677, 0.0008865504, 3.13160968  , -0.0163637567, -6.365735E-05, 923.095947  , 30.4001789  , 779.341431  , 0.92        , 3           , 255         , 0           , 0
-0.160553291, -0.09006119 , 9.786218    , 3.1797972E-05, 0.000196792011, -7.39659663E-05, 3.13161016  , -0.0163657162, -6.28980051E-05, 923.063     , 30.4035034  , 779.3416    , 0.93        , 3           , 255         , 0           , 0
-0.1611916  , -0.09183748 , 9.790879    , -0.000529223, 0.000493133964, -0.000346585468, 3.13160467  , -0.016370615, -5.938271E-05, 923.063     , 30.4035034  , 779.3418    , 0.94        , 3           , 255         , 0           , 0
-0.148707181, -0.0913718  , 9.79581     , -0.0003933959, -0.000365102431, 1.56550523E-05, 3.13160086  , -0.0163669642, -5.95757556E-05, 923.063     , 30.4035034  , 779.342     , 0.95        , 3           , 255         , 0           , 0
-0.165489048, -0.09170566 , 9.796948    , -9.726966E-05, -0.000382913975, -0.00038405857, 3.13159966  , -0.0163630974, -5.57732E-05, 923.063     , 30.4035034  , 779.342163  , 0.96        , 3           , 255         , 0           , 0
-0.164786264, -0.0911868438, 9.78053951  , -0.0006789907, -0.000216831162, -4.07158877E-05, 3.131593    , -0.0163609255, -5.53876744E-05, 923.063     , 30.4035034  , 779.342346  , 0.97        , 3           , 255         , 0           , 0
-0.156524867, -0.08599992 , 9.792366    , 0.000136389863, 0.0004342051, -0.000229661324, 3.13159418  , -0.016365245, -5.30474936E-05, 923.063     , 30.4035034  , 779.3425    , 0.98        , 3           , 255         , 0           , 0
-0.1487945  , -0.09518571 , 9.797419    , 0.000405491272, 0.000296760758, 0.000510707 , 3.13159847  , -0.0163682625, -5.81252025E-05, 923.063     , 30.4035034  , 779.3427    , 0.99        , 3           , 255         , 0           , 0
-0.165003732, -0.09720422 , 9.80435     , 0.000148578489, -5.212793E-05, 7.971974E-05, 3.1316      , -0.0163677484, -5.89276569E-05, 923.063     , 30.4035034  , 779.3429    , 1           , 3           , 0           , 6.4622364   , 100
-0.1678496  , -0.0997347  , 9.795599    , -0.00023498357, -4.61122254E-05, 2.33449246E-05, 3.13161182  , -0.0163636338, -5.9399903E-05, 923.063     , 30.4035034  , 779.361145  , 1.01        , 3           , 1           , 0           , 0
-0.147646978, -0.09986015 , 9.802144    , -0.000360630336, 0.000202184019, -0.000153755173, 3.13160825  , -0.0163656361, -5.784207E-05, 923.063     , 30.4035034  , 779.3614    , 1.02        , 3           , 2           , 0           , 0
-0.158460811, -0.102703191, 9.788342    , -0.000268725562, -7.966912E-05, -0.000560478948, 3.13160539  , -0.016364783, -5.22449081E-05, 923.082764  , 30.4073715  , 779.361633  , 1.03        , 3           , 3           , 0           , 0
-0.158049747, -0.090794526, 9.791265    , 0.0002332324, 0.000364643463, 0.000198830341, 3.13160777  , -0.0163684487, -5.419692E-05, 923.082764  , 30.4073715  , 779.3619    , 1.04        , 3           , 4           , 0           , 0
-0.159302831, -0.07865597 , 9.790252    , 0.0002607092, -7.047475E-05, 0.000293322839, 3.13161039  , -0.0163677745, -5.7137353E-05, 923.082764  , 30.4073715  , 779.3621    , 1.05        , 3           , 5           , 0           , 0
-0.151808277, -0.0886087939, 9.797533    , -0.0009357118, 0.000125232444, 0.000444706529, 3.131601    , -0.016369069, -6.157217E-05, 923.082764  , 30.4073715  , 779.362366  , 1.06        , 3           , 6           , 0           , 0
-0.1544567  , -0.09668347 , 9.800032    , -0.000366625522, -8.284778E-05, 0.000205579956, 3.13159752  , -0.0163682625, -6.363637E-05, 923.082764  , 30.4073715  , 779.3626    , 1.07        , 3           , 7           , 0           , 0
-0.159698784, -0.08360992 , 9.794645    , 0.000416434079, 0.000152685388, 0.000387607375, 3.13160181  , -0.016369829, -6.749743E-05, 923.082764  , 30.4073715  , 779.362854  , 1.08        , 3           , 8           , 5           , 5
-0.156313181, -0.07781452 , 9.78918648  , -1.40987686E-05, 0.000499203859, -0.0005245821, 3.13160157  , -0.0163747668, -6.220142E-05, 923.082764  , 30.4073715  , 779.3631    , 1.09        , 3           , 9           , 5           , 0.1
-0.15196529 , -0.07652702 , 9.788733    , 0.000275355764, 8.164375E-05, -0.000156307535, 3.13160419  , -0.0163755678, -6.06301037E-05, 923.082764  , 30.4073715  , 779.363342  , 1.1         , 3           , 10          , 0.1         , 0.1
-0.16422224 , -0.09029739 , 9.790815    , -0.0002581648, 0.0004294552, -8.49104254E-07, 3.131622    , -0.0163706057, -6.091132E-05, 923.082764  , 30.4073715  , 779.3579    , 1.11        , 3           , 11          , 0.00872055  , 0.00872055
-0.152979091, -0.08836594 , 9.805191    , -2.211146E-05, 0.0005577954, -0.000441372715, 3.13162184  , -0.0163761415, -5.64417169E-05, 923.082764  , 30.4073715  , 779.358154  , 1.12        , 3           , 12          , 0.174642846 , 0
-0.1506332  , -0.08775391 , 9.806841    , 0.000177650712, 0.000134937465, -0.0004835031, 3.13162351  , -0.0163774434, -5.15929132E-05, 923.1056    , 30.4102879  , 779.3584    , 1.13        , 3           , 13          , 0           , 0
-0.163382113, -0.0931586  , 9.799337    , 0.000187744154, 0.000119510805, -0.000208298428, 3.13162518  , -0.0163786169, -4.94979E-05, 923.1056    , 30.4102879  , 779.358643  , 1.14        , 3           , 14          , 0.0005430053, 0.000817029853
-0.173506066, -0.104603052, 9.792425    , 0.000167103834, -5.72256977E-05, 0.0006559179, 3.131627    , -0.0163781084, -5.606317E-05, 923.1056    , 30.4102879  , 779.3589    , 1.15        , 3           , 15          , 0           , 0.000155716873
-0.169374675, -0.10170491 , 9.794912    , -3.71163478E-05, 0.000121726713, 0.000742365839, 3.13162684  , -0.0163794  , -6.347515E-05, 923.1056    , 30.4102879  , 779.359131  , 1.16        , 3           , 16          , 0           , 1.401298E-45
-0.164082825, -0.100150369, 9.800402    , -0.000350573042, 0.000151932472, 0.000790167949, 3.13162351  , -0.0163809974, -7.136214E-05, 923.1056    , 30.4102879  , 779.3594    , 1.17        , 3           , 20          , 0           , 0
-0.168603063, -0.106506154, 9.797928    , -5.706781E-05, -1.19872857E-05, 0.000953680952, 3.131623    , -0.01638097 , -8.09007E-05, 923.1056    , 30.4102879  , 779.3596    , 1.18        , 3           , 21          , 0           , 0
-0.162533224, -0.111603   , 9.793647    , 0.0005725301, -1.40368356E-05, 0.0003018081, 3.13162875  , -0.0163808633, -8.392037E-05, 923.1056    , 30.4102879  , 779.359863  , 1.19        , 3           , 22          , 0           , 0
-0.157964185, -0.118489072, 9.791002    , 0.0006134256, -0.000110666384, 0.000198622816, 3.131635    , -0.0163797736, -8.59177453E-05, 923.1056    , 30.4102879  , 779.3601    , 1.2         , 3           , 40          , 0           , 0
-0.160068512, -0.1129295  , 9.797911    , -0.0007636928, 0.000223080046, 0.000445180136, 3.13162231  , -0.0163863879, -9.026458E-05, 923.1056    , 30.4102879  , 779.3314    , 1.21        , 3           , 41          , 0           , 0
-0.161537036, -0.112299047, 9.797991    , -0.000513836, -0.000171855034, 0.000247834832, 3.13161731  , -0.0163846947, -9.276021E-05, 923.1056    , 30.4102879  , 779.331543  , 1.22        , 3           , 42          , 0           , 0
-0.160340577, -0.106214568, 9.78676     , -4.752708E-05, -5.232403E-06, -0.000154263224, 3.13161683  , -0.0163846277, -9.121802E-05, 923.071655  , 30.4118481  , 779.3317    , 1.23        , 3           , 255         , 0           , 0
-0.157293   , -0.09559898 , 9.795786    , -0.000271905446, -0.000188356964, -0.000455154426, 3.131614    , -0.016382698, -8.668499E-05, 923.071655  , 30.4118481  , 779.3319    , 1.24        , 3           , 255         , 0           , 0
-0.170004725, -0.09654432 , 9.789053    , -0.000584984431, -0.00010174606, 0.000223373645, 3.131608    , -0.0163817052, -8.89290241E-05, 923.071655  , 30.4118481  , 779.3321    , 1.25        , 3           , 255         , 0           , 0
-0.1672155  , -0.09152335 , 9.797882    , -0.00027610024, -0.0002890015, 0.0004266715, 3.13160539  , -0.0163788572, -9.32248659E-05, 923.071655  , 30.4118481  , 779.3323    , 1.26        , 3           , 255         , 0           , 0
-0.156571   , -0.09182395 , 9.795252    , 7.156632E-07, 4.75551933E-05, 0.000362216815, 3.13160539  , -0.01637937 , -9.68425E-05, 923.071655  , 30.4118481  , 779.332458  , 1.27        , 3           , 255         , 0           , 0
-0.1598117  , -0.08128625 , 9.794484    , -0.0001156776, 0.0003639469, -9.123884E-05, 3.13160443  , -0.0163829979, -9.58937162E-05, 923.071655  , 30.4118481  , 779.332642  , 1.28        , 3           , 255         , 0           , 0
-0.164875627, -0.07721229 , 9.799467    , 7.34559144E-05, -0.000178025046, 5.21810725E-05, 3.13160515  , -0.0163812246, -9.64333449E-05, 923.071655  , 30.4118481  , 779.3328    , 1.29        , 3           , 255         , 0           , 0
-0.157528326, -0.06844249 , 9.7955265   , 0.000642180268, 5.38298045E-05, 0.000697644544, 3.13161159  , -0.0163818318, -0.000103404847, 923.071655  , 30.4118481  , 779.333     , 1.3         , 3           , 255         , 0           , 0
-0.162743464, -0.0860128254, 9.795745    , 0.0004396825, -0.000243033923, 0.000193439773, 3.13162565  , -0.0163816717, -0.0001055193, 923.071655  , 30.4118481  , 779.342468  , 1.31        , 3           , 255         , 0           , 0
-0.167716965, -0.0933264643, 9.79772949  , 0.000429808744, -0.000147292332, 0.0004910066, 3.13163     , -0.0163802523, -0.000110444344, 923.071655  , 30.4118481  , 779.342651  , 1.32        , 3           , 255         , 0           , 0
-0.151713729, -0.0857326761, 9.791147    , 0.000886193 , 6.47468842E-05, 0.000823872455, 3.131639    , -0.0163809787, -0.000118677119, 923.0496    , 30.412323   , 779.342834  , 1.33        , 3           , 255         , 0           , 0
-0.155943185, -0.08951581 , 9.793974    , -2.507749E-05, 0.000362692 , 0.000672857452, 3.13163877  , -0.0163846742, -0.000125369988, 923.0496    , 30.412323   , 779.343     , 1.34        , 3           , 255         , 0           , 0
-0.166444808, -0.09604766 , 9.793039    , -4.66143829E-05, 0.000143880083, 0.000234100764, 3.13163829  , -0.0163861364, -0.000127696811, 923.0496    , 30.412323   , 779.3432    , 1.35        , 3           , 255         , 0           , 0
-0.161915392, -0.102873385, 9.796953    , -0.0001276866, -7.68314349E-05, 0.000171943422, 3.131637    , -0.0163853858, -0.000129424, 923.0496    , 30.412323   , 779.3434    , 1.36        , 3           , 255         , 0           , 0
-0.151832312, -0.108740255, 9.806892    , 0.000138828065, 7.28716841E-05, -5.89552365E-05, 3.13163853  , -0.0163861085, -0.000128827145, 923.0496    , 30.412323   , 779.3436    , 1.37        , 3           , 255         , 0           , 0
-0.153115839, -0.105324365, 9.799564    , 4.16915864E-05, -6.400258E-05, -0.0004214372, 3.13163877  , -0.0163854267, -0.0001246189, 923.0496    , 30.412323   , 779.3439    , 1.38        , 3           , 255         , 0           , 0
-0.15996705 , -0.108556904, 9.787069    , -8.677185E-05, -0.0002688379, 5.63853973E-05, 3.131638    , -0.01638274 , -0.000125209539, 923.0496    , 30.412323   , 779.3441    , 1.39        , 3           , 255         , 0           , 0
-0.154180124, -0.111994222, 9.788942    , -0.00106295291, 3.85240419E-05, -0.00045410372, 3.13162732  , -0.0163830779, -0.000120664394, 923.0496    , 30.412323   , 779.34436   , 1.4         , 3           , 255         , 0           , 0
-0.154566854, -0.113534726, 9.8052      , -0.0007512509, 0.000348899 , -0.000425508653, 3.13161683  , -0.016382385, -0.000116329145, 923.0496    , 30.412323   , 779.3752    , 1.41        , 3           , 255         , 0           , 0
-0.1560518  , -0.11212834 , 9.798758    , -3.9184E-05 , 0.000420294527, 0.000447465573, 3.13161659  , -0.0163866337, -0.000120762132, 923.0496    , 30.412323   , 779.375549  , 1.42        , 3           , 255         , 0           , 0
-0.163468763, -0.09760484 , 9.80111     , 0.0005959804, -1.05799991E-05, -0.000650386559, 3.13162255  , -0.0163864624, -0.000114258932, 923.0751    , 30.412323   , 779.3759    , 1.43        , 3           , 255         , 0           , 0
-0.157118335, -0.08733684 , 9.800205    , 0.0005078348, 5.693955E-05, 3.95904644E-05, 3.13162756  , -0.0163870361, -0.000114649185, 923.0751    , 30.412323   , 779.3763    , 1.44        , 3           , 255         , 0           , 0
-0.1584957  , -0.08626141 , 9.79211     , -6.42314553E-05, 0.0007436842, 0.000361666142, 3.13162684  , -0.0163945127, -0.000118191958, 923.0751    , 30.412323   , 779.376648  , 1.45        , 3           , 255         , 0           , 0
-0.164202079, -0.092063874, 9.791147    , 0.000325457251, 0.000672278868, 0.0009666821, 3.13163042  , -0.0164013281, -0.000127792373, 923.0751    , 30.412323   , 779.377     , 1.46        , 3           , 255         , 0           , 0
-0.153922811, -0.08135219 , 9.793076    , -6.606046E-05, 3.204902E-05, 0.000185429773, 3.13162971  , -0.0164016671, -0.0001296436, 923.0751    , 30.412323   , 779.3774    , 1.47        , 3           , 255         , 0           , 0
-0.156300664, -0.08722703 , 9.79262352  , 5.92242E-05 , -0.000250656332, 0.0004450715, 3.13163042  , -0.0163992047, -0.000134119546, 923.0751    , 30.412323   , 779.377747  , 1.48        , 3           , 255         , 0           , 0
-0.155854747, -0.0849038661, 9.792944    , 1.76963513E-05, -0.000278726162, 3.57666722E-05, 3.13163066  , -0.01639642 , -0.000134504982, 923.0751    , 30.412323   , 779.3781    , 1.49        , 3           , 255         , 0           , 0
-0.154343128, -0.0864472538, 9.802635    , -4.886312E-05, 0.0007659884, 0.000406757346, 3.13163018  , -0.01640412 , -0.000138496471, 923.0751    , 30.412323   , 779.3785    , 1.5         , 3           , 255         , 0           , 0
-0.148419559, -0.0808253661, 9.801201    , 0.000446292 , 0.0002737217, -0.000111838774, 3.13164353  , -0.0164009184, -0.000137496143, 923.0751    , 30.412323   , 779.3796    , 1.51        , 3           , 255         , 0           , 0
-0.14773719 , -0.08403711 , 9.79093552  , 8.24976E-05 , -0.000260161876, -0.000118300384, 3.13164425  , -0.0163983051, -0.00013633896, 923.0751    , 30.412323   , 779.379944  , 1.52        , 3           , 255         , 0           , 0
-0.155951   , -0.08742808 , 9.791173    , 7.93375657E-05, -5.63267968E-05, 6.925299E-05, 3.1316452   , -0.01639775 , -0.000137037146, 923.0384    , 30.4124584  , 779.3803    , 1.53        , 3           , 255         , 0           , 0
-0.151777536, -0.08637614 , 9.787783    , 4.78517031E-05, 0.0002863793, -4.226662E-06, 3.13164568  , -0.0164006129, -0.000136966381, 923.0384    , 30.4124584  , 779.3807    , 1.54        , 3           , 255         , 0           , 0
-0.152195454, -0.09910987 , 9.796991    , -0.000137039548, 0.000185321493, 0.000238332213, 3.13164425  , -0.0164024886, -0.000139331416, 923.0384    , 30.4124584  , 779.381042  , 1.55        , 3           , 255         , 0           , 0
-0.160849482, -0.09591022 , 9.8007555   , -0.0006394652, 0.000431602763, -0.0003283582, 3.13163781  , -0.0164067727, -0.000136004688, 923.0384    , 30.4124584  , 779.3814    , 1.56        , 3           , 255         , 0           , 0
-0.160973817, -0.0958621353, 9.795571    , -0.0005473054, 0.000109839777, 6.0704886E-05, 3.13163233  , -0.0164078735, -0.000136600836, 923.0384    , 30.4124584  , 779.3818    , 1.57        , 3           , 255         , 0           , 0
-0.155484825, -0.09554859 , 9.790356    , 6.60498044E-05, -9.45981E-05, -0.0005544174, 3.1316328   , -0.0164068714, -0.000131065754, 923.0384    , 30.4124584  , 779.382141  , 1.58        , 3           , 255         , 0           , 0
-0.160549134, -0.09645389 , 9.794325    , -0.000105948333, 0.000309088326, 1.82131334E-05, 3.13163185  , -0.0164099634, -0.000131217108, 923.0384    , 30.4124584  , 779.3825    , 1.59        , 3           , 255         , 0           , 0
-0.157796711, -0.09635967 , 9.794912    , 5.34128048E-05, 0.000339503342, 0.0003512631, 3.13163233  , -0.0164133962, -0.000134696122, 923.0384    , 30.4124584  , 779.3829    , 1.6         , 3           , 255         , 0           , 0
-0.1654785  , -0.103569113, 9.79917049  , 0.0003897911, 0.000613281969, 0.000130340559, 3.1316483   , -0.0164078157, -0.0001361363, 923.0384    , 30.4124584  , 779.423     , 1.61        , 3           , 255         , 0           , 0
-0.161996514, -0.105131887, 9.801352    , -0.000228167482, 0.000410133041, -4.995949E-06, 3.13164616  , -0.0164119173, -0.00013604555, 923.0384    , 30.4124584  , 779.4236    , 1.62        , 3           , 255         , 0           , 0
-0.156661078, -0.101114176, 9.802332    , 0.000215295819, 0.000142883975, 0.000226198943, 3.1316483   , -0.0164133683, -0.000138293457, 923.0474    , 30.4154434  , 779.4242    , 1.63        , 3           , 255         , 0           , 0
-0.165910885, -0.09557567 , 9.798576    , 6.690371E-05, -0.000255928724, 0.000911775569, 3.131649    , -0.0164108966, -0.000147437211, 923.0474    , 30.4154434  , 779.4248    , 1.64        , 3           , 255         , 0           , 0
-0.160891026, -0.09445722 , 9.799234    , -0.000853882462, 0.000128832471, 0.000496737834, 3.13164067  , -0.0164122321, -0.000152392066, 923.0474    , 30.4154434  , 779.4254    , 1.65        , 3           , 255         , 0           , 0
-0.1544553  , -0.0956044346, 9.808321    , -0.0001502771, 0.0003632789, -9.705653E-05, 3.13163924  , -0.0164158568, -0.000151385277, 923.0474    , 30.4154434  , 779.426     , 1.66        , 3           , 255         , 0           , 0
-0.161192581, -0.0793107748, 9.800177    , 5.17520821E-05, 0.0003152124, 0.000141018667, 3.13163972  , -0.0164190214, -0.000152764187, 923.0474    , 30.4154434  , 779.426636  , 1.67        , 3           , 255         , 0           , 0
-0.153126225, -0.0876639262, 9.798411    , 0.000461492 , -3.73593648E-05, 1.90719584E-05, 3.13164425  , -0.01641865 , -0.00015295863, 923.0474    , 30.4154434  , 779.427246  , 1.68        , 3           , 255         , 0           , 0
-0.157741755, -0.0839099661, 9.796741    , -3.94372619E-05, 1.04598585E-05, 0.000241600632, 3.131644    , -0.01641878 , -0.000155373738, 923.0474    , 30.4154434  , 779.427856  , 1.69        , 3           , 255         , 0           , 0
-0.156745285, -0.08964418 , 9.792806    , 2.897653E-05, -0.0002757904, 6.679341E-05, 3.13164425  , -0.0164160281, -0.000156069145, 923.0474    , 30.4154434  , 779.428467  , 1.7         , 3           , 255         , 0           , 0
-0.15756996 , -0.0883916  , 9.797789    , 0.000493440835, -1.02998456E-05, 0.000114509705, 3.13165522  , -0.0164136961, -0.000157315488, 923.0474    , 30.4154434  , 779.454468  , 1.71        , 3           , 255         , 0           , 0
-0.157382265, -0.09302212 , 9.790199    , 3.19283E-05 , -0.000150561449, 9.324071E-05, 3.13165569  , -0.0164122  , -0.0001582629, 923.0474    , 30.4154434  , 779.4552    , 1.72        , 3           , 255         , 0           , 0
-0.160063535, -0.08757652 , 9.789269    , 0.00016760797, -0.000212729792, 0.000329621136, 3.13165736  , -0.0164101068, -0.00016158045, 923.1213    , 30.4133415  , 779.455933  , 1.73        , 3           , 255         , 0           , 0
-0.15714094 , -0.103702866, 9.795751    , 8.515135E-05, 7.128285E-06, 0.000744484 , 3.13165832  , -0.01641025 , -0.00016902505, 923.1213    , 30.4133415  , 779.456665  , 1.74        , 3           , 255         , 0           , 0
-0.155237466, -0.0968513638, 9.799977    , 0.000262066955, 7.110409E-05, -0.000110623929, 3.131661    , -0.01641095 , -0.000167911669, 923.1213    , 30.4133415  , 779.4574    , 1.75        , 3           , 255         , 0           , 0
-0.1558856  , -0.09780423 , 9.793269    , 0.0005121264, -0.000127070409, 0.000282461871, 3.13166618  , -0.0164097082, -0.000170749045, 923.1213    , 30.4133415  , 779.4582    , 1.76        , 3           , 255         , 0           , 0
-0.161002815, -0.09808029 , 9.798502    , -3.21456464E-05, -2.74567283E-05, 0.000325302477, 3.131666    , -0.016409466, -0.000174005021, 923.1213    , 30.4133415  , 779.459     , 1.77        , 3           , 255         , 0           , 0
-0.157573417, -0.0940185338, 9.795418    , 0.000315970159, 0.000233525 , 0.0005786859, 3.131669    , -0.01641186 , -0.000179769049, 923.1213    , 30.4133415  , 779.4598    , 1.78        , 3           , 255         , 0           , 0
-0.1613541  , -0.08892461 , 9.79332     , 0.0003654714, 0.000434633519, -1.09007233E-05, 3.13167286  , -0.0164162014, -0.000179616909, 923.1213    , 30.4133415  , 779.4606    , 1.79        , 3           , 255         , 0           , 0
-0.16151312 , -0.104409479, 9.793993    , -0.0002895167, 0.000250437937, -0.000390958769, 3.13166976  , -0.0164186675, -0.000175682231, 923.1213    , 30.4133415  , 779.461365  , 1.8         , 3           , 255         , 0           , 0
-0.157072335, -0.0952622741, 9.794876    , -0.00019951709, 0.0004071371, -6.475987E-05, 3.131672    , -0.0164181385, -0.000175060544, 923.1213    , 30.4133415  , 779.400635  , 1.81        , 3           , 255         , 0           , 0
-0.161935881, -0.09882122 , 9.796887    , -0.000140202377, 0.000276110019, -8.89377552E-05, 3.13167048  , -0.0164208915, -0.000174143715, 923.1213    , 30.4133415  , 779.401062  , 1.82        , 3           , 255         , 0           , 0
-0.162610829, -0.09268785 , 9.788075    , -0.0008575172, 8.013932E-05, -3.67699831E-05, 3.131662    , -0.01642169 , -0.000173768014, 923.049133  , 30.41463    , 779.4015    , 1.83        , 3           , 255         , 0           , 0
-0.158538267, -0.09480127 , 9.795977    , -0.0007038388, -1.4314428E-06, 0.000114079 , 3.13165474  , -0.016421685, -0.000174909015, 923.049133  , 30.41463    , 779.4019    , 1.84        , 3           , 255         , 0           , 0
-0.158365414, -0.105213568, 9.788893    , -0.0006617837, 0.000214983942, -0.0003976036, 3.131648    , -0.0164237954, -0.000170911371, 923.049133  , 30.41463    , 779.402344  , 1.85        , 3           , 255         , 0           , 0
-0.1581683  , -0.0891535  , 9.788704    , -0.0002674184, 8.85630143E-05, 0.000187453712, 3.13164544  , -0.0164247  , -0.000172777218, 923.049133  , 30.41463    , 779.4028    , 1.86        , 3           , 255         , 0           , 0
-0.149680048, -0.09493216 , 9.800172    , -0.000300944783, 0.000280755 , 0.000439446361, 3.13164258  , -0.0164275486, -0.000177144, 923.049133  , 30.41463    , 779.4032    , 1.87        , 3           , 255         , 0           , 0
-0.164254263, -0.102599584, 9.798297    , 5.34545979E-05, -0.0001228255, 0.000717479445, 3.1316433   , -0.0164263938, -0.000184331424, 923.049133  , 30.41463    , 779.4036    , 1.88        , 3           , 255         , 0           , 0
-0.16571866 , -0.0986865  , 9.793089    , 0.000292028533, -0.000128987944, 0.000317252765, 3.13164616  , -0.0164251328, -0.000187516984, 923.049133  , 30.41463    , 779.404053  , 1.89        , 3           , 255         , 0           , 0
-0.16067493 , -0.0982786044, 9.795752    , 7.90979248E-05, 0.00024518487, 0.0007177412, 3.131647    , -0.0164276566, -0.000194670429, 923.049133  , 30.41463    , 779.4045    , 1.9         , 3           , 255         , 0           , 0
-0.151680782, -0.0911916941, 9.788496    , -2.27871351E-05, 3.42871645E-05, 0.00102102349, 3.13164759  , -0.0164257083, -0.000204888958, 923.049133  , 30.41463    , 779.4327    , 1.91        , 3           , 255         , 0           , 0
-0.159157947, -0.09388343 , 9.80112648  , 2.45817937E-05, 6.900448E-05, 0.000248603639, 3.131648    , -0.0164264236, -0.000207368314, 923.049133  , 30.41463    , 779.4333    , 1.92        , 3           , 255         , 0           , 0
-0.1483004  , -0.09504851 , 9.794296    , -0.000171254418, 0.000439073716, -0.000262110174, 3.13164616  , -0.016430784, -0.000204703363, 923.0665    , 30.4155788  , 779.4339    , 1.93        , 3           , 255         , 0           , 0
-0.147965938, -0.0893067  , 9.795237    , 0.000340210448, 0.000140532269, 0.000151689746, 3.13164973  , -0.0164322034, -0.0002062064, 923.0665    , 30.4155788  , 779.4345    , 1.94        , 3           , 255         , 0           , 0
-0.152451441, -0.0872568041, 9.808295    , 0.000365218148, 0.000282966357, 0.0007877267, 3.13165355  , -0.0164351109, -0.000214056, 923.0665    , 30.4155788  , 779.4351    , 1.95        , 3           , 255         , 0           , 0
-0.156740859, -0.0916706845, 9.801775    , -0.000270117569, 0.000154860492, 0.00123161834, 3.131651    , -0.016436778, -0.00022635753, 923.0665    , 30.4155788  , 779.4357    , 1.96        , 3           , 255         , 0           , 0
-0.15853408 , -0.08116677 , 9.800035    , -3.63055151E-05, -0.00048390837, 0.00114126178, 3.13165069  , -0.0164320562, -0.000237818967, 923.0665    , 30.4155788  , 779.43634   , 1.97        , 3           , 255         , 0           , 0
-0.149994776, -0.08432405 , 9.802517    , 0.0006187968, -0.000466212077, 0.000361131883, 3.13165712  , -0.01642743 , -0.000241476853, 923.0665    , 30.4155788  , 779.436951  , 1.98        , 3           , 255         , 0           , 0
-0.164409548, -0.09408418 , 9.797107    , 0.00076667557, 0.000131940527, 0.000449279236, 3.13166475  , -0.0164287966, -0.0002459568, 923.0665    , 30.4155788  , 779.437561  , 1.99        , 3           , 255         , 0           , 0
-0.161545113, -0.100979134, 9.789152    , 1.90513674E-05, 0.000317022728, 0.000671016634, 3.131665    , -0.016432032, -0.0002526359, 923.0665    , 30.4155788  , 779.4382    , 2           , 3           , 0           , 7.4622364   , 200
-0.152954221, -0.093430385, 9.791803    , 0.000181590149, 0.000118372263, 0.0003368942, 3.13167763  , -0.016423488, -0.000256168365, 923.0665    , 30.4155788  , 779.442261  , 2.01        , 3           , 1           , 0           , 0
-0.158291027, -0.09012616 , 9.791526    , -4.1829946E-05, 6.415753E-05, -0.000257277716, 3.13167715  , -0.0164241046, -0.000253589038, 923.0665    , 30.4155788  , 779.442932  , 2.02        , 3           , 2           , 0           , 0
-0.162303284, -0.09150715 , 9.792387    , -7.481512E-05, 0.0001512972, 0.0001884624, 3.13167644  , -0.0164256375, -0.000255458785, 923.0971    , 30.4161224  , 779.4436    , 2.03        , 3           , 3           , 0           , 0
-0.1625     , -0.104331993, 9.800835    , 0.000236274849, 0.000303967681, 0.00040608  , 3.13167882  , -0.0164287165, -0.000259489665, 923.0971    , 30.4161224  , 779.4443    , 2.04        , 3           , 4           , 0           , 0
-0.1474036  , -0.105305515, 9.801909    , -0.000220299291, -0.0001808437, 0.0004085432, 3.13167667  , -0.01642695 , -0.000263593276, 923.0971    , 30.4161224  , 779.444946  , 2.05        , 3           , 5           , 0           , 0
-0.157649368, -0.100424923, 9.801183    , -0.000243986986, -9.642285E-05, 0.000112326554, 3.13167429  , -0.016425997, -0.0002647262, 923.0971    , 30.4161224  , 779.4456    , 2.06        , 3           , 6           , 0           , 0
-0.177891165, -0.08703132 , 9.796133    , 2.96952785E-05, 2.38122884E-05, 0.000157795963, 3.13167453  , -0.01642625 , -0.000266301853, 923.0971    , 30.4161224  , 779.4463    , 2.07        , 3           , 7           , 0           , 0
-0.160040349, -0.09618324 , 9.78964     , 5.43419155E-05, 0.0005703705, -0.000201939023, 3.131675    , -0.0164319314, -0.00026422576, 923.0971    , 30.4161224  , 779.44696   , 2.08        , 3           , 8           , 5           , 5
-0.152010992, -0.0996659  , 9.796322    , -0.000266242743, 0.00014875608, -0.0002815586, 3.13167238  , -0.0164333917, -0.000261395267, 923.0971    , 30.4161224  , 779.447632  , 2.09        , 3           , 9           , 5           , 0.1
-0.159637153, -0.09251499 , 9.795482    , -0.00053969695, -3.04355053E-05, 0.000219867623, 3.13166714  , -0.01643311 , -0.0002635971, 923.0971    , 30.4161224  , 779.4483    , 2.1         , 3           , 10          , 0.1         , 0.1
-0.156657487, -0.09143683 , 9.805473    , 0.0002273182, -0.000195304165, 0.000239388275, 3.13167119  , -0.0164278168, -0.000266042218, 923.0971    , 30.4161224  , 779.4134    , 2.11        , 3           , 11          , 0.00792159  , 0.007921589
-0.1532236  , -0.09479513 , 9.795387    , -5.076517E-05, 0.000329218979, 0.0006816442, 3.131671    , -0.0164311752, -0.0002728264, 923.0971    , 30.4161224  , 779.4138    , 2.12        , 3           , 12          , 0.174643889 , 0
-0.1597434  , -0.08689487 , 9.783527    , 6.262126E-05, 0.000367945 , 0.0002446985, 3.13167167  , -0.0164348781, -0.000275236962, 923.053955  , 30.414156   , 779.414246  , 2.13        , 3           , 13          , 0           , 0
-0.164425284, -0.0832222  , 9.78508949  , 0.000214681029, 0.0002741586, 0.000449999643, 3.13167381  , -0.0164376628, -0.000279710075, 923.053955  , 30.414156   , 779.4147    , 2.14        , 3           , 14          , 0.0005428871, 0.000817132939
-0.155344456, -0.08760484 , 9.795889    , -0.000522665447, 0.000203673553, 0.0007359394, 3.13166857  , -0.0164397713, -0.0002870497, 923.053955  , 30.414156   , 779.4151    , 2.15        , 3           , 15          , 0           , 0.000155715956
-0.153706729, -0.0903921351, 9.796216    , 0.000158330076, -0.00012966682, 0.000373030955, 3.13167024  , -0.01643851 , -0.0002907931, 923.053955  , 30.414156   , 779.4155    , 2.16        , 3           , 16          , 0           , 1.401298E-45
-0.1618464  , -0.09322541 , 9.79645252  , 0.000550809 , -0.000189163431, 0.0006881854, 3.131676    , -0.0164366867, -0.000297694147, 923.053955  , 30.414156   , 779.415955  , 2.17        , 3           , 20          , 0           , 0
-0.1589901  , -0.09371909 , 9.793843    , 9.47754E-05 , 0.000197607733, 0.000152591019, 3.131677    , -0.016438676, -0.0002992006, 923.053955  , 30.414156   , 779.4164    , 2.18        , 3           , 21          , 0           , 0
-0.15611732 , -0.08614443 , 9.7993145   , -0.000695226132, 9.471213E-05, 0.000742485165, 3.13167     , -0.0164397  , -0.000306616479, 923.053955  , 30.414156   , 779.4169    , 2.19        , 3           , 22          , 0           , 0
-0.158304691, -0.0866161138, 9.801661    , -0.000153822068, 0.000120057084, 0.000518798246, 3.13166857  , -0.01644095 , -0.000311792857, 923.053955  , 30.414156   , 779.417358  , 2.2         , 3           , 40          , 0           , 0
-0.157227948, -0.0949937552, 9.799652    , -0.000301124528, -0.0001267796, -0.00022200642, 3.13167977  , -0.01643382 , -0.000309818046, 923.053955  , 30.414156   , 779.4401    , 2.21        , 3           , 41          , 0           , 0
-0.1539988  , -0.094238   , 9.812763    , 0.00048384635, 8.982897E-05, 0.0002498718, 3.13168454  , -0.0164347421, -0.000312308024, 923.053955  , 30.414156   , 779.440735  , 2.22        , 3           , 42          , 0           , 0
-0.161844552, -0.101771474, 9.803254    , 0.000226067088, -0.0001439228, -0.000268276839, 3.131687    , -0.0164332762, -0.000309639348, 923.1028    , 30.4182262  , 779.441345  , 2.23        , 3           , 255         , 0           , 0
-0.156135947, -0.102829717, 9.796399    , 0.0001357437, -4.27095219E-05, -0.000205439253, 3.131688    , -0.0164328273, -0.000307589042, 923.1028    , 30.4182262  , 779.441956  , 2.24        , 3           , 255         , 0           , 0
-0.158177376, -0.0953835845, 9.799003    , 6.118312E-05, 0.000135743816, 0.000305419235, 3.13168883  , -0.016434215, -0.000310629955, 923.1028    , 30.4182262  , 779.442566  , 2.25        , 3           , 255         , 0           , 0
-0.158679679, -0.09822907 , 9.790804    , -0.000131225155, 0.000299527484, 0.0004158515, 3.13168764  , -0.0164372511, -0.000314759061, 923.1028    , 30.4182262  , 779.4432    , 2.26        , 3           , 255         , 0           , 0
-0.158349425, -0.105490044, 9.787797    , 9.108888E-05, 0.000237209664, -0.000860446133, 3.13168836  , -0.01643954 , -0.000306130562, 923.1028    , 30.4182262  , 779.4438    , 2.27        , 3           , 255         , 0           , 0
-0.166624755, -0.110267065, 9.792992    , 1.12770358E-05, 0.000310062256, -0.000124212442, 3.13168836  , -0.0164426267, -0.0003048576, 923.1028    , 30.4182262  , 779.4444    , 2.28        , 3           , 255         , 0           , 0
-0.162123173, -0.102164648, 9.795729    , 3.70736234E-05, 0.000459318 , 0.0003595753, 3.13168883  , -0.0164472554, -0.000308408082, 923.1028    , 30.4182262  , 779.445     , 2.29        , 3           , 255         , 0           , 0
-0.16590333 , -0.0980162546, 9.801229    , -0.000453811372, 3.04618152E-06, 0.0007351204, 3.13168454  , -0.0164473578, -0.000315759418, 923.1028    , 30.4182262  , 779.4456    , 2.3         , 3           , 255         , 0           , 0
-0.165011615, -0.09556235 , 9.801435    , 0.000171885011, -0.000144022866, 0.000143453086, 3.1316812   , -0.0164441932, -0.000317125261, 923.1028    , 30.4182262  , 779.4021    , 2.31        , 3           , 255         , 0           , 0
-0.151434809, -0.09702434 , 9.80429649  , 0.000186361489, 0.000472958782, -4.22945232E-05, 3.131683    , -0.0164489169, -0.0003166554, 923.1028    , 30.4182262  , 779.402466  , 2.32        , 3           , 255         , 0           , 0
-0.145864055, -0.086089015, 9.803915    , -0.000346885732, 0.000341639272, -0.000334606273, 3.13167953  , -0.0164523013, -0.0003132753, 923.0903    , 30.4163933  , 779.402832  , 2.33        , 3           , 255         , 0           , 0
-0.161652967, -0.08148885 , 9.801549    , 4.85522323E-05, -0.00010903232, 0.000141859826, 3.13168     , -0.0164512265, -0.000314704783, 923.0903    , 30.4163933  , 779.4032    , 2.34        , 3           , 255         , 0           , 0
-0.157850772, -0.08586061 , 9.804949    , 6.979046E-05, -5.25044743E-05, -4.08235064E-05, 3.13168073  , -0.0164506957, -0.000314301753, 923.0903    , 30.4163933  , 779.403564  , 2.35        , 3           , 255         , 0           , 0
-0.167715669, -0.0772739947, 9.801034    , -5.94127923E-05, 0.000305538066, 0.000494245964, 3.13168025  , -0.0164538026, -0.000319214218, 923.0903    , 30.4163933  , 779.403931  , 2.36        , 3           , 255         , 0           , 0
-0.167344764, -0.08340708 , 9.792102    , 4.790665E-06, 7.19242962E-06, -0.0004254384, 3.13168025  , -0.01645383 , -0.00031495883, 923.0903    , 30.4163933  , 779.4043    , 2.37        , 3           , 255         , 0           , 0
-0.166296273, -0.09494857 , 9.800696    , -3.2997923E-05, 0.000278887921, -0.000217297638, 3.13167977  , -0.0164565947, -0.000312758057, 923.0903    , 30.4163933  , 779.404663  , 2.38        , 3           , 255         , 0           , 0
-0.153958872, -0.0903064162, 9.799504    , -0.000287798932, 0.000120429555, 0.000468000071, 3.131677    , -0.0164578445, -0.0003174264, 923.0903    , 30.4163933  , 779.405     , 2.39        , 3           , 255         , 0           , 0
-0.155738115, -0.08985059 , 9.794158    , 4.90812236E-05, -9.972777E-05, -0.000347687834, 3.13167739  , -0.0164568126, -0.0003139592, 923.0903    , 30.4163933  , 779.4054    , 2.4         , 3           , 255         , 0           , 0
-0.1599411  , -0.08517032 , 9.794104    , 0.000115467235, 0.0002072918, 0.000413750531, 3.13169074  , -0.0164562725, -0.000318276434, 923.0903    , 30.4163933  , 779.3826    , 2.41        , 3           , 255         , 0           , 0
-0.156000376, -0.0943801552, 9.800077    , -0.000861135, -3.85196763E-05, 0.0005557602, 3.13168216  , -0.01645594 , -0.000323838176, 923.0903    , 30.4163933  , 779.3829    , 2.42        , 3           , 255         , 0           , 0
-0.157319963, -0.09760108 , 9.784522    , -0.0009859607, -0.00012424757, 0.0004018196, 3.13167238  , -0.01645474 , -0.00032786894, 923.0899    , 30.4200573  , 779.3831    , 2.43        , 3           , 255         , 0           , 0
-0.158892959, -0.0997029841, 9.802042    , -1.00757461E-07, 0.0003663908, 2.22426752E-05, 3.13167238  , -0.0164584015, -0.00032805503, 923.0899    , 30.4200573  , 779.383362  , 2.44        , 3           , 255         , 0           , 0
-0.157745674, -0.112555206, 9.797722    , 0.000310190953, 0.000157913018, 0.0005481831, 3.13167572  , -0.016460035, -0.000333521515, 923.0899    , 30.4200573  , 779.3836    , 2.45        , 3           , 255         , 0           , 0
-0.167991   , -0.106913209, 9.797313    , -0.0007179753, 7.036555E-05, 6.437722E-05, 3.13166857  , -0.0164607465, -0.000334158336, 923.0899    , 30.4200573  , 779.38385   , 2.46        , 3           , 255         , 0           , 0
-0.153934211, -0.102296069, 9.799888    , -6.952032E-06, 0.000303313951, 0.0005550887, 3.13166857  , -0.0164638348, -0.000339679449, 923.0899    , 30.4200573  , 779.3841    , 2.47        , 3           , 255         , 0           , 0
-0.1558125  , -0.103764869, 9.799259    , -0.0005945614, 9.627774E-05, 0.00011110901, 3.13166261  , -0.0164648052, -0.000340781058, 923.0899    , 30.4200573  , 779.384338  , 2.48        , 3           , 255         , 0           , 0
-0.158064589, -0.101311766, 9.798488    , 0.00054517237, 5.39548928E-05, -0.000368608133, 3.131668    , -0.0164653063, -0.000337089383, 923.0899    , 30.4200573  , 779.3846    , 2.49        , 3           , 255         , 0           , 0
-0.168598026, -0.09852084 , 9.801346    , 0.0008129843, 0.000319006969, -0.0005262183, 3.131676    , -0.0164684467, -0.000331795221, 923.0899    , 30.4200573  , 779.3848    , 2.5         , 3           , 255         , 0           , 0
-0.157115445, -0.09558909 , 9.799948    , 0.00070637255, -4.232803E-06, 0.000218516172, 3.13167858  , -0.0164655838, -0.000333904172, 923.0899    , 30.4200573  , 779.3652    , 2.51        , 3           , 255         , 0           , 0
-0.157359034, -0.09239178 , 9.799712    , 0.0005242636, -0.000193147571, 0.000381362217, 3.13168383  , -0.0164636914, -0.000337737176, 923.0899    , 30.4200573  , 779.3653    , 2.52        , 3           , 255         , 0           , 0
-0.154245138, -0.09126389 , 9.803851    , -0.000357321085, 4.88440273E-05, 0.0008170329, 3.13168025  , -0.0164642613, -0.000345903158, 923.1158    , 30.4198532  , 779.3654    , 2.53        , 3           , 255         , 0           , 0
-0.154499635, -0.0951338  , 9.805497    , -0.000105384504, 0.0001353579, 0.000145150276, 3.1316793   , -0.0164656285, -0.000347341353, 923.1158    , 30.4198532  , 779.36554   , 2.54        , 3           , 255         , 0           , 0
-0.1609213  , -0.0935527459, 9.802191    , 0.000353156 , -0.000211841951, 0.00051797874, 3.13168287  , -0.016463561, -0.0003525424, 923.1158    , 30.4198532  , 779.365662  , 2.55        , 3           , 255         , 0           , 0
-0.170620278, -0.09323313 , 9.796289    , 0.000146396109, -0.0002557012, -0.000220844333, 3.1316843   , -0.0164609831, -0.0003503592, 923.1158    , 30.4198532  , 779.3658    , 2.56        , 3           , 255         , 0           , 0
-0.160788924, -0.08729293 , 9.80419     , -8.79576E-06, -0.000103471859, -2.379468E-05, 3.1316843   , -0.0164599456, -0.000350131479, 923.1158    , 30.4198532  , 779.3659    , 2.57        , 3           , 255         , 0           , 0
-0.1636664  , -0.09239237 , 9.797257    , 0.000284031266, 0.0001887061, -3.50131959E-05, 3.13168716  , -0.0164618287, -0.000349762617, 923.1158    , 30.4198532  , 779.366     , 2.58        , 3           , 255         , 0           , 0
-0.16685608 , -0.08862984 , 9.800916    , 0.000517234 , 0.0007071644, 0.000342845044, 3.13169241  , -0.0164689347, -0.0003531212, 923.1158    , 30.4198532  , 779.36615   , 2.59        , 3           , 255         , 0           , 0
-0.161176115, -0.09577128 , 9.796465    , 0.000686275656, 0.000452718115, 0.000261646579, 3.13169932  , -0.016473487, -0.000355693017, 923.1158    , 30.4198532  , 779.3663    , 2.6         , 3           , 255         , 0           , 0
-0.15823777 , -0.0909549147, 9.805423    , 0.000534433057, 0.0006101094, 0.0003802278, 3.13171053  , -0.0164787676, -0.000359534024, 923.1158    , 30.4198532  , 779.3138    , 2.61        , 3           , 255         , 0           , 0
-0.1579712  , -0.09077691 , 9.800498    , 0.0007178328, 0.0002943687, 0.0003920744, 3.131718    , -0.0164817516, -0.000363425963, 923.1158    , 30.4198532  , 779.3136    , 2.62        , 3           , 255         , 0           , 0
-0.158082575, -0.09464445 , 9.792353    , 0.000406972831, -0.000117116724, 0.0004459669, 3.131722    , -0.0164806265, -0.000367897475, 923.057068  , 30.4208717  , 779.3134    , 2.63        , 3           , 255         , 0           , 0
-0.156636983, -0.096869126, 9.790244    , 0.000815959647, -0.000282512745, 0.00029723125, 3.13173032  , -0.01647783 , -0.000370897847, 923.057068  , 30.4208717  , 779.313232  , 2.64        , 3           , 255         , 0           , 0
-0.156933829, -0.09853955 , 9.797711    , 0.0008231747, 0.000131286739, -1.691305E-05, 3.13173842  , -0.01647914 , -0.0003707158, 923.057068  , 30.4208717  , 779.313049  , 2.65        , 3           , 255         , 0           , 0
-0.160022527, -0.09684888 , 9.796737    , 0.0006677959, 8.035521E-05, 6.28583948E-05, 3.131745    , -0.0164799485, -0.000371336529, 923.057068  , 30.4208717  , 779.312866  , 2.66        , 3           , 255         , 0           , 0
-0.157426745, -0.08928119 , 9.787884    , 0.0008701612, 0.000115534174, -1.58060284E-05, 3.131754    , -0.0164811052, -0.0003711671, 923.057068  , 30.4208717  , 779.3127    , 2.67        , 3           , 255         , 0           , 0
-0.155420229, -0.08713917 , 9.79539     , 0.0007124385, 0.000236037187, -0.0003663066, 3.13176084  , -0.0164834317, -0.000367480563, 923.057068  , 30.4208717  , 779.3125    , 2.68        , 3           , 255         , 0           , 0
-0.1630415  , -0.08198056 , 9.796182    , 0.000177536742, 1.35098817E-05, -0.000166791622, 3.13176274  , -0.0164835453, -0.000365811225, 923.057068  , 30.4208717  , 779.3123    , 2.69        , 3           , 255         , 0           , 0
-0.166701674, -0.0881566554, 9.788244    , 0.000165008241, -3.748818E-05, 0.000212059589, 3.13176441  , -0.0164831933, -0.00036793566, 923.057068  , 30.4208717  , 779.312134  , 2.7         , 3           , 255         , 0           , 0
-0.1613079  , -0.08880486 , 9.78947449  , 0.0004086407, -8.649408E-05, 0.00016549135, 3.131777    , -0.01647826 , -0.000369741669, 923.057068  , 30.4208717  , 779.3469    , 2.71        , 3           , 255         , 0           , 0
-0.1559464  , -0.08687461 , 9.793125    , -3.01763066E-05, 1.83547381E-05, 0.000113939794, 3.13177681  , -0.016478451, -0.0003708793, 923.057068  , 30.4208717  , 779.347     , 2.72        , 3           , 255         , 0           , 0
-0.1619417  , -0.08479048 , 9.789428    , -0.000145399186, 0.000560324232, -0.000527899771, 3.13177538  , -0.0164840035, -0.000365544984, 923.097168  , 30.4203968  , 779.347046  , 2.73        , 3           , 255         , 0           , 0
-0.1572961  , -0.08968772 , 9.795557    , 0.000138608913, 0.000149418309, 1.13786955E-05, 3.13177657  , -0.0164855  , -0.0003656441, 923.097168  , 30.4203968  , 779.3471    , 2.74        , 3           , 255         , 0           , 0
-0.1540675  , -0.09376757 , 9.792548    , 0.000293579884, 4.684343E-05, 0.000204957891, 3.13177967  , -0.0164859872, -0.000367689267, 923.097168  , 30.4203968  , 779.347168  , 2.75        , 3           , 255         , 0           , 0
-0.157768652, -0.08943983 , 9.79241848  , -4.833564E-06, -0.000171177322, 0.0001114201, 3.13177967  , -0.0164842866, -0.0003688203, 923.097168  , 30.4203968  , 779.3472    , 2.76        , 3           , 255         , 0           , 0
-0.165640727, -0.09043976 , 9.795965    , 0.0005641707, -0.000526405638, 0.0009795309, 3.13178539  , -0.0164791178, -0.000378667959, 923.097168  , 30.4203968  , 779.3473    , 2.77        , 3           , 255         , 0           , 0
-0.156405851, -0.09091152 , 9.794548    , -0.000128191226, -0.000278681051, 0.000304130837, 3.1317842   , -0.0164763629, -0.000381736754, 923.097168  , 30.4203968  , 779.347351  , 2.78        , 3           , 255         , 0           , 0
-0.158349827, -0.0954350457, 9.796904    , 6.554817E-05, 0.00034994568, -4.57707356E-05, 3.131785    , -0.0164798535, -0.0003812447, 923.097168  , 30.4203968  , 779.3474    , 2.79        , 3           , 255         , 0           , 0
-0.160879821, -0.09084879 , 9.789338    , 2.29968573E-05, -4.053244E-05, 0.000231538652, 3.13178515  , -0.0164794717, -0.0003835642, 923.097168  , 30.4203968  , 779.3475    , 2.8         , 3           , 255         , 0           , 0
-0.160329565, -0.0953704342, 9.800625    , -0.00024313305, -0.0002685305, 0.000109264249, 3.13179445  , -0.016471941, -0.000384875428, 923.097168  , 30.4203968  , 779.3222    , 2.81        , 3           , 255         , 0           , 0
-0.157139629, -0.09920491 , 9.8045845   , 0.0001604156, -5.42198541E-05, -2.10126163E-05, 3.131796    , -0.0164713971, -0.000384670566, 923.097168  , 30.4203968  , 779.3221    , 2.82        , 3           , 255         , 0           , 0
-0.160196468, -0.09462966 , 9.801964    , 0.000319163664, 0.000298066938, 0.00083756703, 3.13179922  , -0.0164744612, -0.000393017574, 923.0974    , 30.4205322  , 779.32196   , 2.83        , 3           , 255         , 0           , 0
-0.158450708, -0.08966833 , 9.794686    , -0.000172876, 0.000306393544, 0.000381940132, 3.13179755  , -0.0164775625, -0.000396807183, 923.0974    , 30.4205322  , 779.321838  , 2.84        , 3           , 255         , 0           , 0
-0.157997876, -0.09047265 , 9.797266    , -0.000610516756, -0.000208785059, -3.316815E-05, 3.13179159  , -0.0164754726, -0.000396495947, 923.0974    , 30.4205322  , 779.3217    , 2.85        , 3           , 255         , 0           , 0
-0.159301519, -0.09946471 , 9.794705    , -0.000178744522, 0.000133115042, -0.000589686155, 3.13178968  , -0.0164767466, -0.000390585657, 923.0974    , 30.4205322  , 779.3216    , 2.86        , 3           , 255         , 0           , 0
-0.167679578, -0.09169154 , 9.798105    , 0.000308455958, 0.000246431271, -0.00016499417, 3.13179278  , -0.0164791923, -0.00038891146, 923.0974    , 30.4205322  , 779.321533  , 2.87        , 3           , 255         , 0           , 0
-0.1621111  , -0.08110729 , 9.796738    , 0.000314667064, -9.514048E-05, -0.000101440841, 3.131796    , -0.016478233, -0.0003879063, 923.0974    , 30.4205322  , 779.3215    , 2.88        , 3           , 255         , 0           , 0
-0.152577072, -0.08782594 , 9.787428    , 0.000772447966, 0.000402841659, -0.000322320557, 3.13180351  , -0.0164822284, -0.000384643441, 923.0974    , 30.4205322  , 779.3214    , 2.89        , 3           , 255         , 0           , 0
-0.160514578, -0.08933524 , 9.794488    , -0.000155355461, 0.000137515774, 7.435212E-05, 3.13180184  , -0.01648361 , -0.00038537354, 923.0974    , 30.4205322  , 779.32135   , 2.9         , 3           , 255         , 0           , 0
-0.154909581, -0.08876532 , 9.79113     , -0.000211478327, -5.644007E-05, -0.000113713286, 3.131806    , -0.0164803527, -0.000384342624, 923.0974    , 30.4205322  , 779.2992    , 2.91        , 3           , 255         , 0           , 0
-0.147628844, -0.09613019 , 9.787547    , -0.00010236731, -0.00016315456, 0.0005237914, 3.131805    , -0.0164787713, -0.000389596826, 923.0974    , 30.4205322  , 779.29895   , 2.92        , 3           , 255         , 0           , 0
-0.1488032  , -0.09618416 , 9.786194    , -0.000423951482, -0.000108914217, 0.000613783835, 3.131801    , -0.016477745, -0.000395745679, 923.0979    , 30.4208031  , 779.2987    , 2.93        , 3           , 255         , 0           , 0
-0.153597981, -0.09267761 , 9.787161    , 1.8218474E-05, -6.610103E-05, 0.00039431933, 3.13180113  , -0.0164771229, -0.000399695622, 923.0979    , 30.4208031  , 779.298462  , 2.94        , 3           , 255         , 0           , 0
-0.1508745  , -0.09126613 , 9.806369    , -0.000441587268, 9.147538E-05, 0.000413688977, 3.13179684  , -0.0164780766, -0.0004038238, 923.0979    , 30.4208031  , 779.2982    , 2.95        , 3           , 255         , 0           , 0
-0.147857845, -0.0964546  , 9.800145    , -0.0007351347, 4.824187E-05, 0.000658169971, 3.13178945  , -0.01647862 , -0.000410401175, 923.0979    , 30.4208031  , 779.298     , 2.96        , 3           , 255         , 0           , 0
-0.159358889, -0.0938309  , 9.802557    , -0.000492826162, -6.107974E-05, 0.000554752653, 3.13178468  , -0.0164780635, -0.000415954943, 923.0979    , 30.4208031  , 779.2977    , 2.97        , 3           , 255         , 0           , 0
-0.162995517, -0.0921145156, 9.797999    , 3.003038E-05, 0.000338593672, 0.000272236735, 3.131785    , -0.0164814778, -0.000418644282, 923.0979    , 30.4208031  , 779.297546  , 2.98        , 3           , 255         , 0           , 0
-0.159918681, -0.0991621763, 9.800764    , -0.000106951833, -2.09251884E-05, 0.0001303911, 3.131784    , -0.0164812822, -0.0004199503, 923.0979    , 30.4208031  , 779.297363  , 2.99        , 3           , 255         , 0           , 0
-0.161533624, -0.09387009 , 9.802564    , -9.54961E-05, 0.0003575561, 9.495579E-05, 3.131783    , -0.0164848678, -0.000420864817, 923.0979    , 30.4208031  , 779.2972    , 3           , 3           , 0           , 8.462236    , 300
-0.158551633, -0.08891575 , 9.79911     , 0.000111116969, 9.285123E-05, 0.000236232445, 3.131787    , -0.01647555 , -0.000423266349, 923.0979    , 30.4208031  , 779.2776    , 3.01        , 3           , 1           , 0           , 0
-0.156252474, -0.0930521563, 9.796068    , 0.000206332246, -6.20653736E-05, 0.0007079922, 3.13178921  , -0.016475   , -0.000430352782, 923.0979    , 30.4208031  , 779.2773    , 3.02        , 3           , 2           , 0           , 0
-0.15872173 , -0.08809852 , 9.790584    , -0.000193196, 0.000537531159, 3.6646E-05  , 3.1317873   , -0.01648038 , -0.0004306665, 923.0979    , 30.4212112  , 779.277     , 3.03        , 3           , 3           , 0           , 0
-0.163883239, -0.09082112 , 9.792505    , 0.000361441344, 0.0005048111, -0.000307733018, 3.13179088  , -0.0164853968, -0.000427539431, 923.0979    , 30.4212112  , 779.2767    , 3.04        , 3           , 4           , 0           , 0
-0.162212759, -0.09213416 , 9.798834    , -0.000130960136, 0.000479648646, 2.18920031E-05, 3.13178968  , -0.0164901949, -0.000427711348, 923.0979    , 30.4212112  , 779.276367  , 3.05        , 3           , 5           , 0           , 0
-0.15644677 , -0.09748326 , 9.799421    , -5.362963E-05, 0.0005551427, 0.0004347082, 3.13178921  , -0.0164957866, -0.000432004221, 923.0979    , 30.4212112  , 779.276062  , 3.06        , 3           , 6           , 0           , 0
-0.147292331, -0.08577962 , 9.797657    , 0.0001063798, -0.000273477752, 0.000611898548, 3.1317904   , -0.01649311 , -0.000438150368, 923.0979    , 30.4212112  , 779.275757  , 3.07        , 3           , 7           , 0           , 0
-0.160561621, -0.0857330263, 9.813707    , -1.17076561E-05, -0.000179983559, 0.000606832 , 3.13179016  , -0.01649137 , -0.000444236735, 923.0979    , 30.4212112  , 779.275452  , 3.08        , 3           , 8           , 5           , 5
-0.161480784, -0.0944435149, 9.801279    , 5.150173E-05, -1.76581088E-05, 0.000324049732, 3.13179088  , -0.016491225, -0.000447479135, 923.0979    , 30.4212112  , 779.275146  , 3.09        , 3           , 9           , 5           , 0.1
-0.155581743, -0.095619604, 9.788739    , 0.000265070063, 0.0002281969, -0.000160275813, 3.1317935   , -0.0164934918, -0.000445853948, 923.0979    , 30.4212112  , 779.274841  , 3.1         , 3           , 10          , 0.1         , 0.1
-0.15708679 , -0.103125431, 9.795195    , 0.0006493918, 0.000482931326, 0.0002318482, 3.13180661  , -0.01649352 , -0.000448236155, 923.0979    , 30.4212112  , 779.2584    , 3.11        , 3           , 11          , 0.007351687 , 0.007351686
-0.156156808, -0.09630344 , 9.804143    , 0.0011422747, -0.000127176987, -3.91333742E-05, 3.131818    , -0.0164922439, -0.000447857223, 923.0979    , 30.4212112  , 779.258     , 3.12        , 3           , 12          , 0.174645633 , 0
-0.16263178 , -0.09781663 , 9.7787      , 0.000423308637, -0.000154219859, 0.000794934 , 3.13182259  , -0.01649078 , -0.000455822068, 923.1033    , 30.4218884  , 779.257568  , 3.13        , 3           , 13          , 0           , 0
-0.164192945, -0.100194   , 9.785909    , -0.0003178277, 0.000232747348, 0.000602224667, 3.13181949  , -0.0164931659, -0.000461821939, 923.1033    , 30.4218884  , 779.257141  , 3.14        , 3           , 14          , 0.0005426287, 0.0008173177
-0.1608024  , -0.100136496, 9.804034    , -0.0002714609, 2.64814E-05 , 0.0003162424, 3.13181686  , -0.01649346 , -0.000464982, 923.1033    , 30.4218884  , 779.2567    , 3.15        , 3           , 15          , 0           , 0.00015571354
-0.162128866, -0.09978146 , 9.793838    , -9.214107E-05, -4.78678267E-05, 0.0001567054, 3.131816    , -0.0164929964, -0.0004665538, 923.1033    , 30.4218884  , 779.2563    , 3.16        , 3           , 16          , 0           , 1.401298E-45
-0.157258138, -0.0956712961, 9.794837    , 0.000464700744, 4.693988E-05, 0.000249861332, 3.13182044  , -0.01649349 , -0.000469048042, 923.1033    , 30.4218884  , 779.255859  , 3.17        , 3           , 20          , 0           , 0
-0.152231008, -0.08698079 , 9.792223    , 7.5544056E-05, -8.585956E-05, 0.0005166295, 3.13182139  , -0.0164926834, -0.000474223, 923.1033    , 30.4218884  , 779.255432  , 3.18        , 3           , 21          , 0           , 0
-0.1567205  , -0.08678808 , 9.795802    , 5.830382E-05, 0.000156007183, 0.0007171113, 3.131822    , -0.0164943133, -0.000481379335, 923.1033    , 30.4218884  , 779.255066  , 3.19        , 3           , 22          , 0           , 0
-0.15264836 , -0.08301628 , 9.789502    , -0.000662222737, 0.000291053846, -0.000207808436, 3.13181543  , -0.0164972041, -0.000479272625, 923.1033    , 30.4218884  , 779.2547    , 3.2         , 3           , 40          , 0           , 0
-0.156469017, -0.08807839 , 9.799571    , -0.000576053455, 0.000192424573, -5.631311E-05, 3.131811    , -0.016493177, -0.00047871258, 923.1033    , 30.4218884  , 779.2337    , 3.21        , 3           , 41          , 0           , 0
-0.155914873, -0.08986117 , 9.790312    , -2.77119689E-05, 7.28969462E-05, -0.0001196697, 3.13181067  , -0.0164938942, -0.000477508671, 923.1033    , 30.4218884  , 779.233154  , 3.22        , 3           , 42          , 0           , 0
-0.155526787, -0.0873107761, 9.797378    , -0.000470893428, 9.746535E-05, 0.0001789039, 3.131806    , -0.0164948888, -0.000479288225, 923.091858  , 30.4257565  , 779.232666  , 3.23        , 3           , 255         , 0           , 0
-0.158875272, -0.0944862142, 9.787523    , -0.0009856108, -0.00034120155, -0.000281735265, 3.13179612  , -0.0164914429, -0.000476504123, 923.091858  , 30.4257565  , 779.2322    , 3.24        , 3           , 255         , 0           , 0
-0.1618189  , -0.0939974338, 9.792399    , -0.000814068248, -6.24528038E-05, -0.000190352235, 3.131788    , -0.0164908  , -0.0004746066, 923.091858  , 30.4257565  , 779.2317    , 3.25        , 3           , 255         , 0           , 0
-0.160910338, -0.08863833 , 9.807478    , -0.0003686851, -3.34512442E-05, 0.00110275135, 3.13178444  , -0.0164905768, -0.000485638069, 923.091858  , 30.4257565  , 779.2312    , 3.26        , 3           , 255         , 0           , 0
-0.1649984  , -0.09286352 , 9.799731    , 0.000419145857, -0.000292394136, 0.000742126256, 3.13178873  , -0.0164877269, -0.000493088446, 923.091858  , 30.4257565  , 779.2307    , 3.27        , 3           , 255         , 0           , 0
-0.155443877, -0.09622071 , 9.791766    , 0.000393497758, 0.000235806743, 0.000693966635, 3.13179278  , -0.0164901521, -0.000500005437, 923.091858  , 30.4257565  , 779.2302    , 3.28        , 3           , 255         , 0           , 0
-0.15757829 , -0.100371465, 9.784814    , -0.000167916383, 3.47762252E-05, -0.0005423423, 3.131791    , -0.0164904464, -0.0004945783, 923.091858  , 30.4257565  , 779.229736  , 3.29        , 3           , 255         , 0           , 0
-0.167511851, -0.101263307, 9.789092    , -0.0003446991, 0.000127952022, -0.000303738372, 3.13178754  , -0.0164916925, -0.000491528132, 923.091858  , 30.4257565  , 779.229248  , 3.3         , 3           , 255         , 0           , 0
-0.159188777, -0.100930929, 9.802469    , -0.000177806651, 0.000271843455, 0.000470343279, 3.1317904   , -0.0164910574, -0.0004962795, 923.091858  , 30.4257565  , 779.2282    , 3.31        , 3           , 255         , 0           , 0
-0.15541622 , -0.102949485, 9.80933     , 0.000210309168, -0.0002556676, 0.00035238167, 3.13179255  , -0.0164885353, -0.0004998286, 923.091858  , 30.4257565  , 779.2277    , 3.32        , 3           , 255         , 0           , 0
-0.166930348, -0.102459051, 9.783495    , -0.0002667626, 0.00011218962, 0.0010236993, 3.13179     , -0.01648976 , -0.0005100552, 923.0491    , 30.4227028  , 779.227234  , 3.33        , 3           , 255         , 0           , 0
-0.1635396  , -0.100514218, 9.77944     , -0.000513555831, 0.000656640565, 0.00013254465, 3.131785    , -0.016496338, -0.0005113163, 923.0491    , 30.4227028  , 779.226746  , 3.34        , 3           , 255         , 0           , 0
-0.151900291, -0.09585866 , 9.789119    , -0.000571497949, 0.0003003042, 0.00013349879, 3.13177919  , -0.01649935 , -0.000512621948, 923.0491    , 30.4227028  , 779.226257  , 3.35        , 3           , 255         , 0           , 0
-0.156000584, -0.0814690739, 9.794696    , -8.64981557E-05, -8.816016E-06, 0.0005285805, 3.13177848  , -0.0164993126, -0.0005179089, 923.0491    , 30.4227028  , 779.225769  , 3.36        , 3           , 255         , 0           , 0
-0.136076823, -0.0733707547, 9.727365    , -0.00163653807, -0.00130752462, -0.000153535133, 3.131762    , -0.0164862238, -0.0005165018, 923.0491    , 30.4227028  , 779.2253    , 3.37        , 3           , 255         , 0           , 0
-0.07251854 , -0.0605571568, 9.882752    , -0.00128365727, 0.000164795259, -0.000555650156, 3.13174915  , -0.0164878145, -0.0005109286, 923.0491    , 30.4227028  , 779.2248    , 3.38        , 3           , 255         , 0           , 0
-0.160522833, -0.0476747863, 9.948942    , 0.00419662055, 0.00425015949, -0.0010977966, 3.13179088  , -0.0165302064, -0.000499532267, 923.0491    , 30.4227028  , 779.2243    , 3.39        , 3           , 255         , 0           , 0
-0.2553754  , -0.0873607248, 9.664014    , 0.00246049045, -0.0005380695, -0.000151000524, 3.13181543  , -0.0165248122, -0.0004980748, 923.0491    , 30.4227028  , 779.2238    , 3.4         , 3           , 255         , 0           , 0
-0.263548344, -0.116587445, 9.698906    , -7.104757E-05, -0.00298536685, 0.000177205977, 3.131829    , -0.0164898355, -0.000500372436, 923.0491    , 30.4227028  , 779.2841    , 3.41        , 3           , 255         , 0           , 0
-0.1870298  , -0.132347316, 9.783427    , -0.00160534913, 0.00116460887, 0.000124193961, 3.13181281  , -0.0165014938, -0.0005015006, 923.0491    , 30.4227028  , 779.284     , 3.42        , 3           , 255         , 0           , 0
-0.1336945  , -0.107368968, 9.790481    , -0.0007676602, 0.00284766965, 0.000384014973, 3.13180518  , -0.0165300071, -0.0005050624, 923.0813    , 30.4245358  , 779.2839    , 3.43        , 3           , 255         , 0           , 0
-0.100634441, -0.103486791, 9.893419    , -0.00118257874, -0.00130184181, 0.0007741328, 3.1317935   , -0.0165170636, -0.000512931671, 923.0813    , 30.4245358  , 779.283752  , 3.44        , 3           , 255         , 0           , 0
-0.09362955 , -0.107355639, 9.854002    , 0.0008233529, -0.00229749619, 0.000364152074, 3.13180184  , -0.0164941233, -0.000516798638, 923.0813    , 30.4245358  , 779.2837    , 3.45        , 3           , 255         , 0           , 0
-0.145766288, -0.0935542  , 9.774467    , 0.00307221548, 0.0006558245, -0.000219831854, 3.1318326   , -0.01650066 , -0.0005145361, 923.0813    , 30.4245358  , 779.2836    , 3.46        , 3           , 255         , 0           , 0
-0.181756049, -0.08214002 , 9.662019    , -0.000286776747, 0.00106499041, -8.96892743E-07, 3.13182974  , -0.01651131 , -0.000514423242, 923.0813    , 30.4245358  , 779.2835    , 3.47        , 3           , 255         , 0           , 0
-0.19920972 , -0.1264008  , 9.805061    , -0.00277269725, -0.0006042826, 0.000217194553, 3.131802    , -0.0165052842, -0.000516654341, 923.0813    , 30.4245358  , 779.2834    , 3.48        , 3           , 255         , 0           , 0
-0.182761371, -0.139054462, 9.91503     , -0.000401050667, 0.000333235541, 0.000170816085, 3.131798    , -0.0165086351, -0.0005183299, 923.0813    , 30.4245358  , 779.2833    , 3.49        , 3           , 255         , 0           , 0
-0.173043221, -0.105992   , 9.798963    , 0.0016205525, 0.000268268224, 0.000117591262, 3.13181424  , -0.01651133 , -0.000519479567, 923.0813    , 30.4245358  , 779.283264  , 3.5         , 3           , 255         , 0           , 0
-0.148057982, -0.097402975, 9.756554    , 0.0009644654, -0.00107441843, 0.000511356746, 3.13180375  , -0.0165063683, -0.0005243648, 923.0813    , 30.4245358  , 779.289734  , 3.51        , 3           , 255         , 0           , 0
-0.12921086 , -0.100225069, 9.763208    , -0.000278216059, -0.000374246971, 0.000819542 , 3.13180113  , -0.01650271 , -0.000532597362, 923.0813    , 30.4245358  , 779.2897    , 3.52        , 3           , 255         , 0           , 0
-0.127771586, -0.09404334 , 9.767528    , -0.00143323909, 0.000947232067, 0.000622169464, 3.13178682  , -0.0165122412, -0.0005387266, 923.1269    , 30.4239235  , 779.2896    , 3.53        , 3           , 255         , 0           , 0
-0.1403203  , -0.09744057 , 9.803803    , -0.0021397993, 0.000398216 , 0.000908283633, 3.1317656   , -0.0165163111, -0.000547771, 923.1269    , 30.4239235  , 779.289551  , 3.54        , 3           , 255         , 0           , 0
-0.16121383 , -0.0965652242, 9.863873    , -0.0005026536, -0.000533381, 0.000968404 , 3.13176084  , -0.01651107 , -0.0005575081, 923.1269    , 30.4239235  , 779.2895    , 3.55        , 3           , 255         , 0           , 0
-0.175618783, -0.0877764449, 9.797892    , 0.00103115826, 0.000101142039, 0.00019130591, 3.131771    , -0.0165121015, -0.0005594113, 923.1269    , 30.4239235  , 779.2894    , 3.56        , 3           , 255         , 0           , 0
-0.167550236, -0.07939248 , 9.739694    , -1.03443745E-05, 0.000167883991, 4.14232927E-05, 3.131771    , -0.0165137835, -0.000559809036, 923.1269    , 30.4239235  , 779.289368  , 3.57        , 3           , 255         , 0           , 0
-0.161705464, -0.0962921157, 9.770191    , -0.0014928102, 0.000171627558, -0.000114464681, 3.131756    , -0.0165154878, -0.0005586474, 923.1269    , 30.4239235  , 779.2893    , 3.58        , 3           , 255         , 0           , 0
-0.150952071, -0.1049124  , 9.82529449  , -0.00100673211, -2.52124737E-05, -0.000202408468, 3.131746    , -0.0165152159, -0.0005566256, 923.1269    , 30.4239235  , 779.289246  , 3.59        , 3           , 255         , 0           , 0
-0.157566637, -0.104012944, 9.819013    , -0.0004369147, 0.0006437136, 3.406999E-05, 3.13174152  , -0.0165216532, -0.00055690296, 923.1269    , 30.4239235  , 779.289246  , 3.6         , 3           , 255         , 0           , 0
-0.1782082  , -0.103487894, 9.807918    , 0.000568776566, -0.000106112566, 4.115382E-05, 3.1317482   , -0.01650063 , -0.0005573399, 923.1269    , 30.4239235  , 779.2302    , 3.61        , 3           , 255         , 0           , 0
-0.197195888, -0.09510653 , 9.782936    , 0.0007845532, 0.000164863421, -2.56276689E-05, 3.131756    , -0.01650228 , -0.0005570673, 923.1269    , 30.4239235  , 779.229858  , 3.62        , 3           , 255         , 0           , 0
-0.1915382  , -0.0874093  , 9.749455    , 4.528818E-05, 0.0009755709, -8.566129E-05, 3.13175654  , -0.0165120233, -0.00055611477, 923.074158  , 30.4250774  , 779.2295    , 3.63        , 3           , 255         , 0           , 0
-0.178192765, -0.07935679 , 9.788235    , -0.0006747012, 0.000303077977, -0.000263418, 3.13174963  , -0.01651503 , -0.000553450547, 923.074158  , 30.4250774  , 779.2291    , 3.64        , 3           , 255         , 0           , 0
-0.162843034, -0.0788248  , 9.824411    , 1.34990551E-05, -3.19676474E-06, 0.0003791473, 3.13174987  , -0.0165150352, -0.0005572426, 923.074158  , 30.4250774  , 779.22876   , 3.65        , 3           , 255         , 0           , 0
-0.141844675, -0.0730615854, 9.815489    , 0.0004172342, 0.000129562628, 7.19572854E-05, 3.13175416  , -0.0165163372, -0.0005579495, 923.074158  , 30.4250774  , 779.2284    , 3.66        , 3           , 255         , 0           , 0
-0.1507697  , -0.05576058 , 9.787211    , 0.000308899675, -0.000232002058, 0.000582427368, 3.13175726  , -0.0165140741, -0.000563796959, 923.074158  , 30.4250774  , 779.228     , 3.67        , 3           , 255         , 0           , 0
-0.1578013  , -0.0563224033, 9.777399    , -0.0008450411, -0.000257969135, 0.0002996663, 3.131749    , -0.0165115241, -0.000566819159, 923.074158  , 30.4250774  , 779.227661  , 3.68        , 3           , 255         , 0           , 0
-0.150413454, -0.0522723421, 9.781531    , -0.000185707031, 2.98762461E-05, -0.000141197874, 3.131747    , -0.01651181 , -0.000565404131, 923.074158  , 30.4250774  , 779.2273    , 3.69        , 3           , 255         , 0           , 0
-0.144330919, -0.05937907 , 9.804635    , 0.000157112314, -0.000447334547, 0.0006550381, 3.13174868  , -0.0165073983, -0.000571999, 923.074158  , 30.4250774  , 779.2269    , 3.7         , 3           , 255         , 0           , 0
-0.140217826, -0.0566086657, 9.814739    , -0.0001081652, -0.000353383337, 0.0006185174, 3.13178849  , -0.0165104922, -0.0005788942, 923.074158  , 30.4250774  , 779.2516    , 3.71        , 3           , 255         , 0           , 0
-0.1487817  , -0.07022707 , 9.799403    , -0.000292738056, 8.29066848E-05, 0.000632533338, 3.13178587  , -0.0165113825, -0.000585211848, 923.074158  , 30.4250774  , 779.251343  , 3.72        , 3           , 255         , 0           , 0
-0.151961446, -0.07666554 , 9.775206    , 0.0004280206, 0.0004102015, 0.000342129468, 3.13179016  , -0.01651552 , -0.000588593, 923.0881    , 30.4241962  , 779.2511    , 3.73        , 3           , 255         , 0           , 0
-0.157726973, -0.07761304 , 9.781238    , 3.0551746E-05, -0.000215416541, 6.744376E-07, 3.1317904   , -0.0165133663, -0.0005886209, 923.0881    , 30.4241962  , 779.250854  , 3.74        , 3           , 255         , 0           , 0
-0.1673226  , -0.0877554  , 9.80032349  , -0.000812797749, 0.000124679 , 0.0007180498, 3.13178229  , -0.0165146813, -0.0005957897, 923.0881    , 30.4241962  , 779.2506    , 3.75        , 3           , 255         , 0           , 0
-0.1632839  , -0.0961147845, 9.808491    , -0.000299510866, 0.000176032889, -0.000175501948, 3.13177943  , -0.0165164229, -0.00059401727, 923.0881    , 30.4241962  , 779.2504    , 3.76        , 3           , 255         , 0           , 0
-0.152321279, -0.09636377 , 9.799209    , -0.000317084574, 1.664483E-05, 0.0009785923, 3.13177633  , -0.0165166836, -0.0006038022, 923.0881    , 30.4241962  , 779.250244  , 3.77        , 3           , 255         , 0           , 0
-0.135628372, -0.113496557, 9.804186    , 0.000291202043, 8.264714E-05, 3.81000573E-05, 3.13177919  , -0.0165175144, -0.0006041751, 923.0881    , 30.4241962  , 779.250061  , 3.78        , 3           , 255         , 0           , 0
-0.1443781  , -0.123895541, 9.804464    , 0.000761964649, 0.000322909676, 2.25455151E-05, 3.13178682  , -0.0165207479, -0.000604368863, 923.0881    , 30.4241962  , 779.2499    , 3.79        , 3           , 255         , 0           , 0
-0.160268769, -0.124655046, 9.805117    , 0.0007499741, 0.000404112157, -5.87745E-05, 3.13179445  , -0.01652478 , -0.0006037415, 923.0881    , 30.4241962  , 779.2497    , 3.8         , 3           , 255         , 0           , 0
-0.166185781, -0.117167309, 9.803957    , 0.000719722069, 0.000214562635, 0.000469898223, 3.13180614  , -0.016515648, -0.000608492643, 923.0881    , 30.4241962  , 779.2516    , 3.81        , 3           , 255         , 0           , 0
-0.1663678  , -0.118343949, 9.797787    , 0.0009776196, 0.000297673861, 0.0007695025, 3.131816    , -0.016518699, -0.000616158941, 923.0881    , 30.4241962  , 779.2514    , 3.82        , 3           , 255         , 0           , 0
-0.1624025  , -0.109116182, 9.786796    , 0.00123947253, 2.4630921E-05, 0.00116661529, 3.13182855  , -0.0165190566, -0.0006278235, 923.077454  , 30.4263668  , 779.2512    , 3.83        , 3           , 255         , 0           , 0
