Acc X       , Acc Y       , Acc Z       , Gyro X      , Gyro Y      , Gyro Z      , Euler X     , Euler Y     , Euler Z     , Pres X      , Pres Y      , Pres Z      , Time        , Status      , LowRate X   , LowRate Y   , LowRate Z    
-0.143672749, 0.147041231 , -9.784158   , 0           , 0           , 0           , -0.01502737 , -0.0146815088, 0           , 921.113953  , 32.345005   , 797.0055    , 0           , 2           , 0           , 5.01423168  , 0
-0.140553087, 0.1508638   , -9.792395   , 0.00106684444, -0.000292233366, 7.22789555E-05, -0.0150168473, -0.0146843661, 7.666776E-07, 921.113953  , 32.345005   , 797.0055    , 0.01        , 3           , 1           , 0           , 0
-0.14647004 , 0.149175256 , -9.78759    , 0.00072526955, -0.000403941784, -0.000117164411, -0.0150095792, -0.0146884238, -3.44291749E-07, 921.113953  , 32.345005   , 797.0055    , 0.02        , 3           , 2           , 0           , 0
-0.148092955, 0.149454877 , -9.797415   , 0.0004932269, -0.0001519536, 0.000363474828, -0.0150047  , -0.014689886, 3.313152E-06, 921.1187    , 31.9112244  , 797.0055    , 0.03        , 3           , 3           , 0           , 0
-0.151278108, 0.154341742 , -9.806779   , 0.000582518463, -0.000432747824, 0.000319821353, -0.014998924, -0.0146941645, 6.57618239E-06, 921.1187    , 31.9112244  , 797.0055    , 0.04        , 3           , 4           , 0           , 0
-0.144603282, 0.150298387 , -9.799224   , 0.0002231666, 0.000103505619, -0.0005003593, -0.014996618, -0.0146932043, 1.55722307E-06, 921.1187    , 31.9112244  , 797.0055    , 0.05        , 3           , 5           , 0           , 0
-0.139067635, 0.154917076 , -9.792334   , 0.000145524507, -0.000233398983, -0.000389862515, -0.0149951065, -0.0146955969, -2.30629848E-06, 921.1187    , 31.9112244  , 797.0055    , 0.06        , 3           , 6           , 0           , 0
-0.137881011, 0.155143708 , -9.793509   , 0.000381686375, -0.000241324014, -0.0003473807, -0.01499124 , -0.0146980612, -5.743818E-06, 921.1187    , 31.9112244  , 797.0055    , 0.07        , 3           , 7           , 0           , 0
-0.140024945, 0.14691861  , -9.78997    , 0.0005986099, 0.000136479153, 0.000299756648, -0.0149852978, -0.0146966549, -2.76679225E-06, 921.1187    , 31.9112244  , 797.0055    , 0.08        , 3           , 8           , 5           , 5
-0.138753176, 0.146894455 , -9.786816   , 0.00112934643, -0.000402087637, -0.0003155379, -0.0149739571, -0.0147007219, -5.861839E-06, 921.1187    , 31.9112244  , 797.0055    , 0.09        , 3           , 9           , 5           , 0.1
-0.143097788, 0.149859071 , -9.784289   , 0.000535759842, 1.78677146E-05, -0.000435770431, -0.0149685387, -0.0147006074, -1.02220929E-05, 921.1187    , 31.9112244  , 797.0055    , 0.1         , 3           , 10          , 0.1         , 0.1
-0.1375875  , 0.159588084 , -9.794317   , 0.0007303407, 4.111789E-06, -0.000350499264, -0.0149762845, -0.0146969818, -1.35056662E-05, 921.1187    , 31.9112244  , 796.960754  , 0.11        , 3           , 11          , 0.0109544508, 0.0109544508
-0.138152152, 0.153183311 , -9.798268   , 0.0007695048, -0.0006595586, -0.0005607073, -0.0149685089, -0.0147036621, -1.901382E-05, 921.1187    , 31.9112244  , 796.960754  , 0.12        , 3           , 12          , 0.174642488 , 0
-0.144473568, 0.152565688 , -9.798997   , 0.000691239955, -0.00082825264, -0.0006632325, -0.0149615007, -0.014712044, -2.55219747E-05, 921.1005    , 31.9524727  , 796.960754  , 0.13        , 3           , 13          , 0           , 0
-0.134119809, 0.150347829 , -9.791724   , 0.00129394047, -0.000364087231, -1.226741E-06, -0.0149485618, -0.0147156827, -2.54797869E-05, 921.1005    , 31.9524727  , 796.960754  , 0.14        , 3           , 14          , -0.001027467, -0.0005995083
-0.143477961, 0.152780563 , -9.794725   , 0.00121347758, -0.000177740119, 0.0007333404, -0.0149365356, -0.0147173489, -1.81200212E-05, 921.1005    , 31.9524727  , 796.960754  , 0.15        , 3           , 15          , 0           , -0.000139008713
-0.142336652, 0.14805831  , -9.785002   , 0.000560670858, -0.000237317814, 0.001249333 , -0.0149311135, -0.0147195365, -5.591597E-06, 921.1005    , 31.9524727  , 796.960754  , 0.16        , 3           , 16          , 0           , 1.401298E-45
-0.1457399  , 0.15920493  , -9.783743   , 0.0005480171, -0.000210300321, 0.000892157434, -0.0149257639, -0.0147215063, 3.3611143E-06, 921.1005    , 31.9524727  , 796.960754  , 0.17        , 3           , 20          , 0           , 0
-0.1505572  , 0.151752353 , -9.786274   , 0.00010635017, -0.0007556189, -0.000198157009, -0.0149246724, -0.014729091, 1.49236621E-06, 921.1005    , 31.9524727  , 796.960754  , 0.18        , 3           , 21          , 0           , 0
-0.154014051, 0.139873192 , -9.795654   , 0.00028309098, -0.00044648035, -0.000134864153, -0.0149218226, -0.0147335744, 2.10392585E-07, 921.1005    , 31.9524727  , 796.9608    , 0.19        , 3           , 22          , 0           , 0
-0.141257361, 0.142407224 , -9.793024   , 0.000460284529, -0.0005532076, -0.000446678052, -0.0149171548, -0.0147391716, -4.17373167E-06, 921.1005    , 31.9524727  , 796.9609    , 0.2         , 3           , 40          , 0           , 0
-0.136333749, 0.144959137 , -9.793459   , 0.000432031229, -0.000553516031, 0.000229710888, -0.01493124 , -0.0147408657, -1.52329983E-06, 921.1005    , 31.9524727  , 797.043     , 0.21        , 3           , 41          , 0           , 0
-0.138005853, 0.139231548 , -9.801661   , 0.000583259 , -0.000662061444, 0.0003342796, -0.0149254585, -0.0147474352, 1.918231E-06, 921.1005    , 31.9524727  , 797.0431    , 0.22        , 3           , 42          , 0           , 0
-0.1398561  , 0.14786759  , -9.781645   , 0.000164873374, -0.0006699219, -2.306202E-05, -0.0149238063, -0.014754137, 1.78759183E-06, 921.120239  , 31.976963   , 797.043152  , 0.23        , 3           , 255         , 0           , 0
-0.153591871, 0.153274745 , -9.795497   , 0.000151418848, -0.000447225815, 0.000278122374, -0.0149223348, -0.0147585655, 4.635472E-06, 921.120239  , 31.976963   , 797.0432    , 0.24        , 3           , 255         , 0           , 0
-0.143381044, 0.148373634 , -9.79387951 , 0.0008347305, -0.000330315379, -0.0007057463, -0.014913884, -0.0147619722, -2.372512E-06, 921.120239  , 31.976963   , 797.0433    , 0.25        , 3           , 255         , 0           , 0
-0.140275389, 0.149359971 , -9.793105   , 0.0003147283, -7.56175723E-06, 0.000398335163, -0.0149107948, -0.0147619881, 1.61186586E-06, 921.120239  , 31.976963   , 797.043335  , 0.26        , 3           , 255         , 0           , 0
-0.15379028 , 0.1458      , -9.794342   , 0.0005433707, -0.000206457858, 0.00114865485, -0.0149055328, -0.0147638824, 1.31288807E-05, 921.120239  , 31.976963   , 797.0434    , 0.27        , 3           , 255         , 0           , 0
-0.15127328 , 0.1449596   , -9.791395   , 0.000214170548, -0.00021458132, 0.000530040939, -0.01490347 , -0.014765949, 1.84611235E-05, 921.120239  , 31.976963   , 797.043457  , 0.28        , 3           , 255         , 0           , 0
-0.146414012, 0.146964014 , -9.787874   , 0.0002556331, -0.0005748374, 0.0005976398, -0.0149010019, -0.0147716068, 2.45230312E-05, 921.120239  , 31.976963   , 797.0435    , 0.29        , 3           , 255         , 0           , 0
-0.1519187  , 0.1456792   , -9.789182   , 0.00113049615, -3.339484E-05, 0.0002217388, -0.0148897292, -0.0147719067, 2.674533E-05, 921.120239  , 31.976963   , 797.0436    , 0.3         , 3           , 255         , 0           , 0
-0.145969078, 0.1571104   , -9.78659    , 0.000534054067, 0.000111250381, -0.00015812456, -0.014886504, -0.0147743039, 2.51791862E-05, 921.120239  , 31.976963   , 797.0115    , 0.31        , 3           , 255         , 0           , 0
-0.134159341, 0.154196    , -9.792013   , 0.00066132  , -0.000122460537, 0.00043358386, -0.0148799568, -0.0147754624, 2.953313E-05, 921.120239  , 31.976963   , 797.011536  , 0.32        , 3           , 255         , 0           , 0
-0.136068389, 0.150622025 , -9.7904     , 0.0005267508, -0.000178198621, 0.00084945804, -0.0148748141, -0.0147771193, 3.80539932E-05, 921.136169  , 31.9951458  , 797.0116    , 0.33        , 3           , 255         , 0           , 0
-0.134020463, 0.145731851 , -9.797458   , 0.000673557457, -0.000524249859, 7.779969E-05, -0.0148680918, -0.01478235 , 3.89099259E-05, 921.136169  , 31.9951458  , 797.011658  , 0.34        , 3           , 255         , 0           , 0
-0.13275376 , 0.13898851  , -9.789987   , 0.0009958805, -0.000275028753, -0.0005905187, -0.0148580447, -0.0147851855, 3.304577E-05, 921.136169  , 31.9951458  , 797.0117    , 0.35        , 3           , 255         , 0           , 0
-0.137677878, 0.1378889   , -9.781987   , 0.0004746986, 7.65599543E-05, -0.00158985751, -0.014853064, -0.0147846574, 1.71362371E-05, 921.136169  , 31.9951458  , 797.0118    , 0.36        , 3           , 255         , 0           , 0
-0.138541773, 0.146663144 , -9.791574   , 0.00103104766, 0.000203073723, -0.000515810447, -0.014842676, -0.0147827026, 1.19481238E-05, 921.136169  , 31.9951458  , 797.011841  , 0.37        , 3           , 255         , 0           , 0
-0.1326797  , 0.144042745 , -9.789232   , 0.000837937463, 0.000178727467, 0.000680160767, -0.0148343975, -0.0147808166, 1.87230235E-05, 921.136169  , 31.9951458  , 797.0119    , 0.38        , 3           , 255         , 0           , 0
-0.1368485  , 0.147236586 , -9.798284   , 0.000477064343, -9.505625E-05, 0.000488268444, -0.014829699, -0.0147816949, 2.36196829E-05, 921.136169  , 31.9951458  , 797.011963  , 0.39        , 3           , 255         , 0           , 0
-0.1348468  , 0.151795655 , -9.79984    , 0.00103360007, -0.000175688881, 0.000188354636, -0.0148193911, -0.0147834206, 2.55292289E-05, 921.136169  , 31.9951458  , 797.012     , 0.4         , 3           , 255         , 0           , 0
-0.143178061, 0.149250954 , -9.786799   , 0.00025537482, -1.34783331E-05, 0.0003796573, -0.0148241138, -0.014751316, 2.94342171E-05, 921.136169  , 31.9951458  , 796.9596    , 0.41        , 3           , 255         , 0           , 0
-0.146646827, 0.156803891 , -9.782594   , 0.00023812108, 0.00016782782, 0.0007961746, -0.0148218479, -0.0147495195, 3.737087E-05, 921.136169  , 31.9951458  , 796.959656  , 0.42        , 3           , 255         , 0           , 0
-0.145780236, 0.158111364 , -9.78521252 , 0.0004929021, 2.90244352E-05, 0.0005088447, -0.0148169957, -0.0147491535, 4.245489E-05, 921.1581    , 32.0079     , 796.9597    , 0.43        , 3           , 255         , 0           , 0
-0.14701739 , 0.154626012 , -9.790011   , 0.0011471007, -0.000391171779, -0.000489469268, -0.014805452, -0.0147531368, 3.76182543E-05, 921.1581    , 32.0079     , 796.9598    , 0.44        , 3           , 255         , 0           , 0
-0.149565175, 0.149440736 , -9.79141    , 0.000398776436, -0.000411274959, -0.000589968055, -0.0148013784, -0.0147573361, 3.17796075E-05, 921.1581    , 32.0079     , 796.959839  , 0.45        , 3           , 255         , 0           , 0
-0.148021534, 0.15308325  , -9.79044    , 0.000572473 , -0.0002344501, -0.0005976327, -0.0147955688, -0.0147597725, 2.58381442E-05, 921.1581    , 32.0079     , 796.9599    , 0.46        , 3           , 255         , 0           , 0
-0.146974891, 0.143735841 , -9.782211   , 0.0009675497, -8.083164E-05, -0.0006067307, -0.0147858029, -0.0147606693, 1.97829431E-05, 921.1581    , 32.0079     , 796.959961  , 0.47        , 3           , 255         , 0           , 0
-0.137474909, 0.155948073 , -9.786985   , -9.213446E-05, -0.000288187468, 0.000365183747, -0.014786778, -0.014763495, 2.34773015E-05, 921.1581    , 32.0079     , 796.96      , 0.48        , 3           , 255         , 0           , 0
-0.14196156 , 0.140100747 , -9.79256248 , 0.0003611542, -0.000228692079, 0.0003682448, -0.01478322 , -0.0147657255, 2.71934659E-05, 921.1581    , 32.0079     , 796.9601    , 0.49        , 3           , 255         , 0           , 0
-0.1348705  , 0.139781    , -9.796465   , 0.000769050443, 0.000136170158, 0.000832457 , -0.0147756534, -0.0147642428, 3.54977128E-05, 921.1581    , 32.0079     , 796.960144  , 0.5         , 3           , 255         , 0           , 0
-0.133774683, 0.135716185 , -9.789991   , 0.00059576903, -0.0003699524, 4.80852032E-06, -0.0147942342, -0.0147664519, 3.59627775E-05, 921.1581    , 32.0079     , 796.887634  , 0.51        , 3           , 255         , 0           , 0
-0.1409549  , 0.144539922 , -9.790606   , 0.0005074106, 1.42230419E-06, -2.87656585E-05, -0.0147891557, -0.0147664454, 3.56749224E-05, 921.1581    , 32.0079     , 796.8877    , 0.52        , 3           , 255         , 0           , 0
-0.1350921  , 0.145913675 , -9.787272   , 0.0004196057, -2.08070851E-05, -0.000860811851, -0.0147848334, -0.0147667788, 2.70701039E-05, 921.1333    , 32.01387    , 796.887756  , 0.53        , 3           , 255         , 0           , 0
-0.139686167, 0.140114814 , -9.789447   , -5.07012E-06, -0.000160446682, 0.00046064012, -0.0147849526, -0.0147683145, 3.17001031E-05, 921.1333    , 32.01387    , 796.8878    , 0.54        , 3           , 255         , 0           , 0
-0.1490459  , 0.146599442 , -9.792382   , 0.000572323333, 8.271198E-05, 0.0003506901, -0.0147792818, -0.0147674354, 3.51946946E-05, 921.1333    , 32.01387    , 796.8879    , 0.55        , 3           , 255         , 0           , 0
-0.1516874  , 0.1551298   , -9.784202   , 0.00084373093, -0.0003608385, 0.0005415298, -0.0147709232, -0.0147709623, 4.06631625E-05, 921.1333    , 32.01387    , 796.887939  , 0.56        , 3           , 255         , 0           , 0
-0.1519971  , 0.156868085 , -9.788879   , 0.00102780014, 1.13199931E-05, 2.805677E-05, -0.0147606507, -0.0147708459, 4.094205E-05, 921.1333    , 32.01387    , 796.888     , 0.57        , 3           , 255         , 0           , 0
-0.150786728, 0.151423261 , -9.78895    , 0.0005535298, -0.000334886543, -0.000440752367, -0.0147550507, -0.0147742592, 3.658405E-05, 921.1333    , 32.01387    , 796.888062  , 0.58        , 3           , 255         , 0           , 0
-0.145787477, 0.145262435 , -9.782843   , 7.635483E-05, -0.000210859929, -0.0005642743, -0.0147542031, -0.0147764506, 3.09725547E-05, 921.1333    , 32.01387    , 796.8881    , 0.59        , 3           , 255         , 0           , 0
-0.1420953  , 0.149526641 , -9.784868   , 0.0003375857, -0.0003613095, 7.888423E-05, -0.0147508392, -0.0147800511, 3.18146776E-05, 921.1333    , 32.01387    , 796.8882    , 0.6         , 3           , 255         , 0           , 0
-0.14163886 , 0.151447967 , -9.787876   , 0.000236267515, -0.000344898319, -0.0002770306, -0.0147599978, -0.0147812348, 2.9266188E-05, 921.1333    , 32.01387    , 796.8784    , 0.61        , 3           , 255         , 0           , 0
-0.150164872, 0.142402425 , -9.794619   , 0.000267040217, -5.627278E-05, -0.0005895428, -0.0147572393, -0.0147818848, 2.33792161E-05, 921.1333    , 32.01387    , 796.8785    , 0.62        , 3           , 255         , 0           , 0
-0.1421816  , 0.144798845 , -9.790526   , 0.00112736924, -0.00012621138, 0.0003692386, -0.0147460205, -0.0147830909, 2.7090131E-05, 921.0667    , 32.01821    , 796.87854   , 0.63        , 3           , 255         , 0           , 0
-0.1359897  , 0.140231848 , -9.790441   , 0.000569633034, -1.34357251E-05, 0.00019719245, -0.0147403544, -0.0147832  , 2.90639964E-05, 921.0667    , 32.01821    , 796.8786    , 0.64        , 3           , 255         , 0           , 0
-0.143087611, 0.146184832 , -9.795874   , 0.0006447992, -0.000234876992, -8.12208164E-05, -0.0147338947, -0.014785558, 2.82864221E-05, 921.0667    , 32.01821    , 796.878662  , 0.65        , 3           , 255         , 0           , 0
-0.141681284, 0.145859733 , -9.790973   , 0.0009902689, -0.00016337767, -0.0002203302, -0.01472396 , -0.0147872232, 2.61072546E-05, 921.0667    , 32.01821    , 796.8787    , 0.66        , 3           , 255         , 0           , 0
-0.153450847, 0.148081511 , -9.791979   , 0.00118783372, 0.0002676421, -2.28638382E-05, -0.0147120785, -0.0147845522, 2.58392174E-05, 921.0667    , 32.01821    , 796.8788    , 0.67        , 3           , 255         , 0           , 0
-0.1565406  , 0.149329752 , -9.785929   , 0.001086409 , -0.000599653751, -0.0006096128, -0.0147011252, -0.0147906365, 1.98314247E-05, 921.0667    , 32.01821    , 796.878845  , 0.68        , 3           , 255         , 0           , 0
-0.14330931 , 0.148545757 , -9.787376   , 0.000836107065, -0.000546120747, -0.0006614125, -0.014692666, -0.0147961918, 1.32977084E-05, 921.0667    , 32.01821    , 796.8789    , 0.69        , 3           , 255         , 0           , 0
-0.140442669, 0.153373212 , -9.792409   , 0.00049422757, -0.000590327254, 0.000212631712, -0.014687757, -0.0148020629, 1.55107E-05 , 921.0667    , 32.01821    , 796.878967  , 0.7         , 3           , 255         , 0           , 0
-0.146573037, 0.153552815 , -9.783381   , 0.0003048377, -6.339443E-05, 0.00020095837, -0.01469449 , -0.01480291 , 1.76738777E-05, 921.0667    , 32.01821    , 796.9634    , 0.71        , 3           , 255         , 0           , 0
-0.1393786  , 0.148188859 , -9.78393    , 0.000386274885, 0.000429902924, 0.000231708284, -0.0146906609, -0.0147985807, 1.99277474E-05, 921.0667    , 32.01821    , 796.9635    , 0.72        , 3           , 255         , 0           , 0
-0.152706921, 0.147320062 , -9.7919445  , 0.0006344686, -0.000494891545, -0.000271731522, -0.0146842776, -0.0148035679, 1.72831878E-05, 921.115662  , 32.02357    , 796.9636    , 0.73        , 3           , 255         , 0           , 0
-0.152667657, 0.156051129 , -9.789585   , 0.0005617938, -0.0001870715, -0.000152533758, -0.0146786366, -0.01480546 , 1.57853483E-05, 921.115662  , 32.02357    , 796.963745  , 0.74        , 3           , 255         , 0           , 0
-0.148194268, 0.1492602   , -9.793308   , 0.0006816285, -0.000291968463, 7.8560086E-05, -0.0146718342, -0.0148083679, 1.6613787E-05, 921.115662  , 32.02357    , 796.963867  , 0.75        , 3           , 255         , 0           , 0
-0.153256848, 0.143915236 , -9.78188    , 0.0009990981, -5.65924E-06, -0.000409947184, -0.0146617815, -0.0148084862, 1.25152328E-05, 921.115662  , 32.02357    , 796.964     , 0.76        , 3           , 255         , 0           , 0
-0.140446112, 0.150647432 , -9.786748   , -5.549763E-05, 0.000283996633, 0.000353882962, -0.0146623887, -0.0148055926, 1.60123473E-05, 921.115662  , 32.02357    , 796.9641    , 0.77        , 3           , 255         , 0           , 0
-0.135085136, 0.14196606  , -9.792669   , 0.000252802973, -0.000154028181, 0.000271800847, -0.0146599  , -0.014807093, 1.87528767E-05, 921.115662  , 32.02357    , 796.964233  , 0.78        , 3           , 255         , 0           , 0
-0.150364682, 0.13299647  , -9.794359   , 0.000130064553, -0.000278513646, 5.393871E-06, -0.014658602, -0.0148098767, 1.88476424E-05, 921.115662  , 32.02357    , 796.964355  , 0.79        , 3           , 255         , 0           , 0
-0.1435856  , 0.144158334 , -9.787125   , 0.000280303881, -9.5256546E-05, 1.12287089E-05, -0.0146558005, -0.0148108266, 1.89738876E-05, 921.115662  , 32.02357    , 796.9645    , 0.8         , 3           , 255         , 0           , 0
-0.143927887, 0.15181981  , -9.788911   , 0.0004432986, -0.000338708051, -0.00060108566, -0.0146644628, -0.0148195615, 1.32081868E-05, 921.115662  , 32.02357    , 796.9683    , 0.81        , 3           , 255         , 0           , 0
-0.146297663, 0.151714    , -9.792621   , 0.0006747037, 0.000213114341, 0.000237661283, -0.0146577517, -0.014817399, 1.55535054E-05, 921.115662  , 32.02357    , 796.9685    , 0.82        , 3           , 255         , 0           , 0
-0.1444926  , 0.161301464 , -9.790133   , 0.000945690146, 0.0008083732, 0.0007127466, -0.0146483993, -0.01480921 , 2.25623517E-05, 921.10144   , 32.02432    , 796.9687    , 0.83        , 3           , 255         , 0           , 0
-0.138199717, 0.157322243 , -9.786702   , 0.000340081984, 0.00011365267, 1.36699673E-05, -0.014645   , -0.0148080708, 2.2682405E-05, 921.10144   , 32.02432    , 796.9689    , 0.84        , 3           , 255         , 0           , 0
-0.142080739, 0.15381965  , -9.793277   , -2.34466279E-05, -0.0001377493, -6.166901E-05, -0.0146452263, -0.0148094576, 2.20859074E-05, 921.10144   , 32.02432    , 796.969055  , 0.85        , 3           , 255         , 0           , 0
-0.150987029, 0.15318206  , -9.794482   , -0.000354084419, -0.00041018473, -0.000138231961, -0.0146487467, -0.01481358 , 2.07636986E-05, 921.10144   , 32.02432    , 796.969238  , 0.86        , 3           , 255         , 0           , 0
-0.140843138, 0.151281953 , -9.796872   , 0.000677436532, -0.000380099635, -0.000202002935, -0.0146419434, -0.0148174092, 1.87993846E-05, 921.10144   , 32.02432    , 796.9694    , 0.87        , 3           , 255         , 0           , 0
-0.146002442, 0.160167724 , -9.799571   , 8.44571041E-05, -0.000414802344, 5.86255337E-05, -0.014641108, -0.0148215489, 1.9446361E-05, 921.10144   , 32.02432    , 796.9696    , 0.88        , 3           , 255         , 0           , 0
-0.1471108  , 0.1530284   , -9.79048    , 2.8490671E-05, -0.0006554349, 0.0004034108, -0.0146408845, -0.01482804 , 2.35763382E-05, 921.10144   , 32.02432    , 796.9698    , 0.89        , 3           , 255         , 0           , 0
-0.142368719, 0.150987059 , -9.789957   , 0.000265066454, -0.000322309323, -1.99697388E-05, -0.0146382311, -0.0148312664, 2.342382E-05, 921.10144   , 32.02432    , 796.97      , 0.9         , 3           , 255         , 0           , 0
-0.137455076, 0.143999726 , -9.788552   , 0.000288478856, -7.649715E-05, 0.000483221782, -0.0146679878, -0.0148295686, 2.87501443E-05, 921.10144   , 32.02432    , 796.989136  , 0.91        , 3           , 255         , 0           , 0
-0.142125368, 0.142364413 , -9.790754   , 0.0007945162, -0.0002142745, -0.000531103, -0.0146599654, -0.01483179 , 2.34706677E-05, 921.10144   , 32.02432    , 796.9893    , 0.92        , 3           , 255         , 0           , 0
-0.138444975, 0.143833086 , -9.798026   , 0.000599874649, -0.000371705159, -0.000442002842, -0.0146539034, -0.0148355709, 1.91052168E-05, 921.0712    , 32.0244522  , 796.9895    , 0.93        , 3           , 255         , 0           , 0
-0.143223286, 0.144219935 , -9.79846    , 0.00100428623, -0.000245585572, -1.25248625E-05, -0.0146438563, -0.0148380278, 1.90159553E-05, 921.0712    , 32.0244522  , 796.9897    , 0.94        , 3           , 255         , 0           , 0
-0.145431682, 0.140220046 , -9.797719   , 0.0006133125, 0.0002242793, -0.000577990664, -0.0146376388, -0.0148358708, 1.32033274E-05, 921.0712    , 32.0244522  , 796.989868  , 0.95        , 3           , 255         , 0           , 0
-0.143746346, 0.148235112 , -9.798822   , 0.000473833759, -6.595894E-05, -0.0005300473, -0.014632822, -0.0148366066, 7.912631E-06, 921.0712    , 32.0244522  , 796.990051  , 0.96        , 3           , 255         , 0           , 0
-0.142038748, 0.150566533 , -9.784365   , 0.000791275757, -0.000262672373, 3.98139964E-05, -0.0146249151, -0.0148392264, 8.349172E-06, 921.0712    , 32.0244522  , 796.990234  , 0.97        , 3           , 255         , 0           , 0
-0.139731154, 0.147593439 , -9.783782   , 0.000926428358, -0.00119558175, 0.000117398915, -0.0146156717, -0.0148511641, 9.697934E-06, 921.0712    , 32.0244522  , 796.9904    , 0.98        , 3           , 255         , 0           , 0
-0.136502564, 0.146693453 , -9.77872    , -4.347472E-05, -0.000499709859, 8.44661045E-05, -0.0146161206, -0.0148561485, 1.06156149E-05, 921.0712    , 32.0244522  , 796.990662  , 0.99        , 3           , 255         , 0           , 0
-0.1355178  , 0.15830496  , -9.784403   , 0.000146768114, -0.000108633831, 0.000163619639, -0.014614678, -0.0148572112, 1.22676656E-05, 921.0712    , 32.0244522  , 796.9909    , 1           , 3           , 0           , 6.01423645  , 100
-0.147577792, 0.159681782 , -9.79026    , 0.000539094035, -0.000246658456, -0.0005302612, -0.0146201355, -0.0148434592, 7.163417E-06, 921.0712    , 32.0244522  , 797.0397    , 1.01        , 3           , 1           , 0           , 0
-0.152958646, 0.148910433 , -9.788225   , 0.0004688265, -5.350384E-05, -0.000411742076, -0.0146153877, -0.0148440544, 3.05390336E-06, 921.0712    , 32.0244522  , 797.04      , 1.02        , 3           , 2           , 0           , 0
-0.1417511  , 0.15313673  , -9.795397   , 0.000455259928, -0.0001354753, -0.0004533686, -0.0146107674, -0.0148454774, -1.45989247E-06, 921.0958    , 32.0269623  , 797.0403    , 1.03        , 3           , 3           , 0           , 0
-0.141809911, 0.15722701  , -9.795928   , 7.422618E-05, -8.71864E-05, 4.65986E-05 , -0.0146100326, -0.0148463408, -9.811764E-07, 921.0958    , 32.0269623  , 797.0406    , 1.04        , 3           , 4           , 0           , 0
-0.1404608  , 0.144677117 , -9.793727   , 0.000649521942, -0.000245064148, -0.000281505228, -0.0146034965, -0.0148488311, -3.76037519E-06, 921.0958    , 32.0269623  , 797.0409    , 1.05        , 3           , 5           , 0           , 0
-0.14607808 , 0.1393214   , -9.803701   , 0.0003691524, -0.0002931098, 0.00029967248, -0.01459985 , -0.0148517173, -7.20908645E-07, 921.0958    , 32.0269623  , 797.0412    , 1.06        , 3           , 6           , 0           , 0
-0.144190416, 0.1386108   , -9.792132   , 0.000350120128, -0.00014692574, 0.000702109945, -0.0145964548, -0.0148530835, 6.321482E-06, 921.0958    , 32.0269623  , 797.0415    , 1.07        , 3           , 7           , 0           , 0
-0.141010672, 0.142514586 , -9.790962   , 0.0008359699, -1.653959E-05, -0.0005790109, -0.0145880086, -0.014853335, 5.339031E-07, 921.0958    , 32.0269623  , 797.0418    , 1.08        , 3           , 8           , 5           , 5
-0.137927845, 0.143451408 , -9.78439    , 0.000729224063, -0.000110786408, -0.000549688062, -0.0145806354, -0.0148545215, -4.946698E-06, 921.0958    , 32.0269623  , 797.0421    , 1.09        , 3           , 9           , 5           , 0.1
-0.139325589, 0.148730129 , -9.784952   , 0.00026607106, -0.000162007811, -3.56545061E-05, -0.01457797 , -0.0148561466, -5.279625E-06, 921.0958    , 32.0269623  , 797.0424    , 1.1         , 3           , 10          , 0.1         , 0.1
-0.142355531, 0.14757289  , -9.792732   , 0.000182875083, -0.0003357996, -0.000459667674, -0.0145892333, -0.0148535324, -9.631767E-06, 921.0958    , 32.0269623  , 797.0577    , 1.11        , 3           , 11          , 0.009023622 , 0.009023622
-0.15170005 , 0.151297092 , -9.782463   , -0.000153995119, -0.00020285981, -0.000126575876, -0.0145907551, -0.01485558 , -1.08679069E-05, 921.0958    , 32.0269623  , 797.058044  , 1.12        , 3           , 12          , 0.174642846 , 0
-0.143780872, 0.155611843 , -9.78894    , 0.000431175169, -4.241016E-05, 3.745716E-05, -0.01458645 , -0.0148559986, -1.04871515E-05, 921.11      , 32.0300827  , 797.0584    , 1.13        , 3           , 13          , 0           , 0
-0.143303066, 0.155747056 , -9.791133   , 0.000291045755, 0.000362530584, 0.000205995442, -0.01458357 , -0.0148523422, -8.480119E-06, 921.11      , 32.0300827  , 797.0588    , 1.14        , 3           , 14          , -0.00102735916, -0.000599546765
-0.131476551, 0.161439583 , -9.788271   , 0.0007614575, -0.000360009784, 0.000316755642, -0.0145760039, -0.0148558952, -5.26015265E-06, 921.11      , 32.0300827  , 797.059143  , 1.15        , 3           , 15          , 0           , -0.000139010866
-0.143051937, 0.153098121 , -9.795282   , 0.0007129443, -0.000444482837, 0.000622421154, -0.0145689668, -0.01486025 , 1.02870843E-06, 921.11      , 32.0300827  , 797.0595    , 1.16        , 3           , 16          , 0           , 1.401298E-45
-0.149177924, 0.158752635 , -9.791056   , 0.000293484656, -5.87615068E-05, 0.000153543035, -0.0145660555, -0.0148608144, 2.5726697E-06, 921.11      , 32.0300827  , 797.0599    , 1.17        , 3           , 20          , 0           , 0
-0.13620995 , 0.1513404   , -9.787389   , 0.0007697489, 7.043179E-05, 0.000201138711, -0.0145583889, -0.0148600806, 4.57375745E-06, 921.11      , 32.0300827  , 797.060242  , 1.18        , 3           , 21          , 0           , 0
-0.141998217, 0.1513575   , -9.797928   , 0.000955887546, -0.000110228895, 0.000162727782, -0.014548854, -0.0148611581, 6.21705431E-06, 921.11      , 32.0300827  , 797.0606    , 1.19        , 3           , 22          , 0           , 0
-0.144441113, 0.13949421  , -9.788117   , 0.000862222048, 0.000197649963, 0.0003410934, -0.0145402821, -0.0148591315, 9.599169E-06, 921.11      , 32.0300827  , 797.061     , 1.2         , 3           , 40          , 0           , 0
-0.1315768  , 0.140526682 , -9.78733    , 0.0002206057, 0.0002682709, -0.0002548609, -0.0145688467, -0.0148479957, 7.46906335E-06, 921.11      , 32.0300827  , 797.0593    , 1.21        , 3           , 41          , 0           , 0
-0.140429482, 0.14183937  , -9.796595   , 0.0004644271, -0.000289075833, 0.0006193047, -0.0145642962, -0.0148507943, 1.370409E-05, 921.11      , 32.0300827  , 797.0597    , 1.22        , 3           , 42          , 0           , 0
-0.139956266, 0.1413891   , -9.78569    , -5.35852741E-05, -5.437294E-05, 0.000156857568, -0.014564856, -0.0148513159, 1.52805642E-05, 921.144     , 32.0328     , 797.060059  , 1.23        , 3           , 255         , 0           , 0
-0.1395312  , 0.139958337 , -9.794464   , 0.000152438472, -9.815034E-05, -0.000352868461, -0.0145632774, -0.0148523487, 1.17662457E-05, 921.144     , 32.0328     , 797.0604    , 1.24        , 3           , 255         , 0           , 0
-0.139632329, 0.135694355 , -9.790998   , 0.00074991287, -0.000177634065, -0.000249939563, -0.014555743, -0.0148541611, 9.292773E-06, 921.144     , 32.0328     , 797.0608    , 1.25        , 3           , 255         , 0           , 0
-0.138269663, 0.141899139 , -9.780064   , 0.000597631151, 0.000230900187, -9.357318E-06, -0.0145497648, -0.014851856, 9.165596E-06, 921.144     , 32.0328     , 797.061157  , 1.26        , 3           , 255         , 0           , 0
-0.148080811, 0.141324729 , -9.793901   , 0.000127906445, 0.000169637438, -1.064493E-05, -0.0145484842, -0.014850162, 9.034476E-06, 921.144     , 32.0328     , 797.0615    , 1.27        , 3           , 255         , 0           , 0
-0.147420257, 0.1469095   , -9.788893   , 5.20139E-05 , 0.000154557521, -0.000305711263, -0.0145479189, -0.0148486607, 5.954929E-06, 921.144     , 32.0328     , 797.0619    , 1.28        , 3           , 255         , 0           , 0
-0.148406684, 0.155047983 , -9.788      , 0.0009779526, 4.74217231E-05, 0.0003490466, -0.0145381913, -0.0148481354, 9.438439E-06, 921.144     , 32.0328     , 797.062256  , 1.29        , 3           , 255         , 0           , 0
-0.136799291, 0.157278329 , -9.791666   , 0.000888612354, 0.000253593025, 0.00059174234, -0.0145293921, -0.0148455156, 1.53188648E-05, 921.144     , 32.0328     , 797.0626    , 1.3         , 3           , 255         , 0           , 0
-0.13925    , 0.149079591 , -9.791919   , 0.0008175872, -0.0006315528, 0.000185308527, -0.0145265721, -0.0148375072, 1.73426779E-05, 921.144     , 32.0328     , 797.0258    , 1.31        , 3           , 255         , 0           , 0
-0.151112869, 0.151524574 , -9.793036   , 0.000924155756, -0.0003662997, -0.00104961207, -0.014517175, -0.0148413237, 6.899968E-06, 921.144     , 32.0328     , 797.026062  , 1.32        , 3           , 255         , 0           , 0
-0.152157336, 0.152365372 , -9.786808   , 0.0006925774, 6.51046867E-06, 0.0001098223, -0.0145102646, -0.0148412418, 7.997223E-06, 921.091248  , 32.0323219  , 797.0263    , 1.33        , 3           , 255         , 0           , 0
-0.1455417  , 0.14018406  , -9.78958    , 0.000721982855, 0.000456576439, 0.000222578252, -0.0145030785, -0.0148366448, 1.01567393E-05, 921.091248  , 32.0323219  , 797.02655   , 1.34        , 3           , 255         , 0           , 0
-0.141564652, 0.151466742 , -9.787932   , 0.0005274242, 0.0004627372, 0.000144913749, -0.0144978268, -0.0148319965, 1.15387566E-05, 921.091248  , 32.0323219  , 797.0268    , 1.35        , 3           , 255         , 0           , 0
-0.140483469, 0.152041063 , -9.786577   , 0.000123783946, -0.0002446919, -0.000567278359, -0.0144965053, -0.0148345251, 5.90155332E-06, 921.091248  , 32.0323219  , 797.027039  , 1.36        , 3           , 255         , 0           , 0
-0.1368488  , 0.1446939   , -9.791322   , 0.000327015237, -0.000195043744, -0.000765978533, -0.0144931208, -0.0148365861, -1.72980936E-06, 921.091248  , 32.0323219  , 797.0273    , 1.37        , 3           , 255         , 0           , 0
-0.141225144, 0.152537912 , -9.793282   , 8.28888151E-05, -0.000218870584, -0.0004787887, -0.0144922221, -0.0148388436, -6.48587775E-06, 921.091248  , 32.0323219  , 797.0275    , 1.38        , 3           , 255         , 0           , 0
-0.143831268, 0.146614209 , -9.788326   , 0.000244016934, -4.05771425E-06, 0.0008317567, -0.014489905, -0.0148387635, 1.83211341E-06, 921.091248  , 32.0323219  , 797.0278    , 1.39        , 3           , 255         , 0           , 0
-0.1439446  , 0.138291568 , -9.790499   , 0.000650479 , -0.0006547045, 4.25899925E-05, -0.0144834071, -0.0148453033, 2.352853E-06, 921.091248  , 32.0323219  , 797.028     , 1.4         , 3           , 255         , 0           , 0
-0.145824939, 0.140859082 , -9.783727   , 0.0004410582, -9.386032E-05, 2.1596541E-05, -0.0144971237, -0.0148411766, 2.85137639E-06, 921.091248  , 32.0323219  , 797.0494    , 1.41        , 3           , 255         , 0           , 0
-0.143561557, 0.144135058 , -9.784914   , 0.00110918924, -0.0003267803, 0.000403653656, -0.0144860912, -0.014844384, 6.935189E-06, 921.091248  , 32.0323219  , 797.049744  , 1.42        , 3           , 255         , 0           , 0
-0.143127546, 0.150073081 , -9.788786   , 0.00112924655, -1.33269932E-05, 0.000740593765, -0.0144749088, -0.014844412, 1.43429061E-05, 921.121948  , 32.03246    , 797.0501    , 1.43        , 3           , 255         , 0           , 0
-0.145317838, 0.141314387 , -9.796583   , 0.000357538753, -0.0006440624, 0.000319320825, -0.0144713819, -0.0148508046, 1.76292688E-05, 921.121948  , 32.03246    , 797.0505    , 1.44        , 3           , 255         , 0           , 0
-0.140159935, 0.150713071 , -9.791281   , 0.000108044536, -0.00052986003, 0.000134053218, -0.014470323, -0.0148560824, 1.90464416E-05, 921.121948  , 32.03246    , 797.050842  , 1.45        , 3           , 255         , 0           , 0
-0.14410159 , 0.150821835 , -9.79168    , 0.000445829239, -0.000125139777, -0.000189831844, -0.0144658368, -0.01485736 , 1.7166265E-05, 921.121948  , 32.03246    , 797.0512    , 1.46        , 3           , 255         , 0           , 0
-0.141849369, 0.152827948 , -9.790083   , 0.000196943642, 0.000407796237, -4.44964971E-05, -0.0144638577, -0.0148532894, 1.666232E-05, 921.121948  , 32.03246    , 797.0516    , 1.47        , 3           , 255         , 0           , 0
-0.135376543, 0.149743289 , -9.796424   , 0.0007510481, -3.27492E-05, 1.54472946E-05, -0.01445635 , -0.0148536162, 1.68215247E-05, 921.121948  , 32.03246    , 797.051941  , 1.48        , 3           , 255         , 0           , 0
-0.141425222, 0.150174215 , -9.791911   , 0.000972136739, 0.00012917741, 0.00110745942, -0.0144467941, -0.0148521634, 2.78772168E-05, 921.121948  , 32.03246    , 797.0523    , 1.49        , 3           , 255         , 0           , 0
-0.143796027, 0.142825454 , -9.789765   , 0.000638285652, -0.000178267481, 0.000210458733, -0.0144404424, -0.0148539143, 3.00075244E-05, 921.121948  , 32.03246    , 797.0527    , 1.5         , 3           , 255         , 0           , 0
-0.143121138, 0.143805921 , -9.787275   , 0.000328965951, 0.000210071681, -0.0005800277, -0.0144531662, -0.0148433652, 2.44160037E-05, 921.121948  , 32.03246    , 797.0393    , 1.51        , 3           , 255         , 0           , 0
-0.136827648, 0.150449082 , -9.796809   , 0.000490633538, 0.000574056641, 0.000274459 , -0.0144482991, -0.0148375882, 2.70775818E-05, 921.121948  , 32.03246    , 797.0396    , 1.52        , 3           , 255         , 0           , 0
-0.1353676  , 0.145313442 , -9.793572   , 0.0003841247, -0.000112284441, 0.0002740353, -0.0144445  , -0.0148386713, 2.98341074E-05, 921.165344  , 32.0344925  , 797.0399    , 1.53        , 3           , 255         , 0           , 0
-0.136479378, 0.1436769   , -9.784914   , 0.0006647066, -2.63683032E-05, 1.96472538E-05, -0.0144378562, -0.0148389312, 3.00343872E-05, 921.165344  , 32.0344925  , 797.0402    , 1.54        , 3           , 255         , 0           , 0
-0.137144044, 0.155728608 , -9.788529   , 0.000127330655, -0.000321863277, -0.000548602955, -0.014436502, -0.014842229, 2.45949213E-05, 921.165344  , 32.0344925  , 797.0405    , 1.55        , 3           , 255         , 0           , 0
-0.141165778, 0.139531076 , -9.786546   , 0.000140286691, -7.953204E-05, -1.4366844E-05, -0.0144350976, -0.0148430262, 2.44627463E-05, 921.165344  , 32.0344925  , 797.040833  , 1.56        , 3           , 255         , 0           , 0
-0.144817814, 0.1493804   , -9.795937   , 0.0006612375, -5.06146462E-05, 0.0002702651, -0.0144285271, -0.0148434918, 2.71726567E-05, 921.165344  , 32.0344925  , 797.041138  , 1.57        , 3           , 255         , 0           , 0
-0.141826168, 0.146689817 , -9.796804   , 0.0007784485, -0.0001527603, -7.602907E-05, -0.0144207319, -0.0148450295, 2.64344162E-05, 921.165344  , 32.0344925  , 797.041443  , 1.58        , 3           , 255         , 0           , 0
-0.140837759, 0.148768976 , -9.795131   , 0.000780771545, -0.000405854371, 9.47615044E-05, -0.01441294 , -0.0148490742, 2.744052E-05, 921.165344  , 32.0344925  , 797.041748  , 1.59        , 3           , 255         , 0           , 0
-0.143188044, 0.136738852 , -9.785487   , 0.000542850466, -0.000438586634, 0.000278873544, -0.0144075546, -0.0148534207, 3.02924054E-05, 921.165344  , 32.0344925  , 797.042053  , 1.6         , 3           , 255         , 0           , 0
-0.141347   , 0.140174657 , -9.792081   , 0.0003336625, -0.0007126496, 0.0006413698, -0.0144166453, -0.0148464879, 3.69917361E-05, 921.165344  , 32.0344925  , 796.983154  , 1.61        , 3           , 255         , 0           , 0
-0.143484175, 0.1475302   , -9.790629   , 0.0003956154, -0.00011149951, -5.0393588E-05, -0.0144126825, -0.0148476129, 3.65038832E-05, 921.165344  , 32.0344925  , 796.983154  , 1.62        , 3           , 255         , 0           , 0
-0.133796245, 0.156653836 , -9.802619   , 6.43935055E-05, 0.000139231561, -1.58667535E-05, -0.0144120362, -0.0148462215, 3.632516E-05, 921.1137    , 32.0328636  , 796.983154  , 1.63        , 3           , 255         , 0           , 0
-0.138003141, 0.154483825 , -9.797913   , 0.000820989429, -8.702773E-05, -0.0004150808, -0.0144037651, -0.01484715 , 3.2186952E-05, 921.1137    , 32.0328636  , 796.983154  , 1.64        , 3           , 255         , 0           , 0
-0.133167267, 0.154506832 , -9.789154   , 0.0008911446, -0.0008940831, -0.000238945664, -0.0143948207, -0.0148561252, 2.99262956E-05, 921.1137    , 32.0328636  , 796.983154  , 1.65        , 3           , 255         , 0           , 0
-0.144900024, 0.150023982 , -9.78395    , 0.0004851973, -0.000273932528, 4.658782E-05, -0.0143899759, -0.0148588577, 3.04316036E-05, 921.1137    , 32.0328636  , 796.983154  , 1.66        , 3           , 255         , 0           , 0
-0.142189026, 0.1468888   , -9.785635   , 0.0008215399, 0.000233390921, 0.0003399985, -0.01438181 , -0.0148564745, 3.37979582E-05, 921.1137    , 32.0328636  , 796.983154  , 1.67        , 3           , 255         , 0           , 0
-0.1431629  , 0.157057747 , -9.78683949 , 0.000961319369, -5.84387453E-06, -0.000167466162, -0.0143721737, -0.0148565555, 3.21241532E-05, 921.1137    , 32.0328636  , 796.983154  , 1.68        , 3           , 255         , 0           , 0
-0.134308025, 0.1428803   , -9.79397    , 0.000549793651, -0.0004672084, 0.001178898 , -0.0143668521, -0.0148610584, 4.39800569E-05, 921.1137    , 32.0328636  , 796.9832    , 1.69        , 3           , 255         , 0           , 0
-0.135406449, 0.1492379   , -9.786039   , 0.0006678519, -0.000384380866, -0.000429786218, -0.0143601112, -0.0148649635, 3.97374861E-05, 921.1137    , 32.0328636  , 796.9833    , 1.7         , 3           , 255         , 0           , 0
-0.131749421, 0.147888988 , -9.788205   , 0.0005328731, -0.0005010977, 0.0002999186, -0.0143783456, -0.0148529476, 4.315786E-05, 921.1137    , 32.0328636  , 796.9861    , 1.71        , 3           , 255         , 0           , 0
-0.135741815, 0.1518953   , -9.785902   , 0.0006777487, -0.0005867702, 0.000451945263, -0.0143716354, -0.0148587478, 4.77615868E-05, 921.1137    , 32.0328636  , 796.986145  , 1.72        , 3           , 255         , 0           , 0
-0.143429711, 0.145914838 , -9.791432   , 0.0005113185, -0.000375238422, -7.356572E-05, -0.0143665122, -0.01486251 , 4.707985E-05, 921.0946    , 32.0328     , 796.9862    , 1.73        , 3           , 255         , 0           , 0
-0.144718021, 0.144025967 , -9.786565   , 0.0004920094, -1.58674084E-06, -0.00020208006, -0.0143615631, -0.0148625588, 4.50593252E-05, 921.0946    , 32.0328     , 796.986267  , 1.74        , 3           , 255         , 0           , 0
-0.142355442, 0.151126832 , -9.777023   , 0.000895607867, -0.000192484, -0.000163440534, -0.0143525833, -0.0148645053, 4.34525828E-05, 921.0946    , 32.0328     , 796.9863    , 1.75        , 3           , 255         , 0           , 0
-0.140770361, 0.1531466   , -9.782133   , 4.11123037E-05, 0.000180071715, 0.000330862444, -0.014352221, -0.0148626575, 4.67353057E-05, 921.0946    , 32.0328     , 796.9864    , 1.76        , 3           , 255         , 0           , 0
-0.139821738, 0.155559808 , -9.788986   , 0.0002665046, -8.397648E-05, 0.000473875843, -0.0143496273, -0.0148634287, 5.1486033E-05, 921.0946    , 32.0328     , 796.98645   , 1.77        , 3           , 255         , 0           , 0
-0.14547585 , 0.144985214 , -9.792191   , 0.000222935458, -0.000126488856, 0.00065249583, -0.0143474946, -0.0148645993, 5.802903E-05, 921.0946    , 32.0328     , 796.9865    , 1.78        , 3           , 255         , 0           , 0
-0.136752009, 0.147196472 , -9.796854   , 0.0007163011, -0.000832066929, -0.0001485218, -0.0143403113, -0.0148729412, 5.66632E-05 , 921.0946    , 32.0328     , 796.9866    , 1.79        , 3           , 255         , 0           , 0
-0.132097855, 0.150645375 , -9.808395   , 0.000942545652, -0.0002954849, -0.0006683532, -0.0143307867, -0.0148759894, 5.00221322E-05, 921.0946    , 32.0328     , 796.986633  , 1.8         , 3           , 255         , 0           , 0
-0.146865219, 0.14951095  , -9.797029   , 0.000471159816, -0.000298044819, 0.000343481835, -0.01435046 , -0.0148614142, 5.38612221E-05, 921.0946    , 32.0328     , 797.0108    , 1.81        , 3           , 255         , 0           , 0
-0.143505782, 0.147718579 , -9.791819   , 0.0005205908, -0.0006560851, 0.000310937641, -0.0143453013, -0.0148679288, 5.7064688E-05, 921.0946    , 32.0328     , 797.011     , 1.82        , 3           , 255         , 0           , 0
-0.146016717, 0.146902651 , -9.785069   , 0.000497242669, 4.32481174E-05, 4.50705265E-05, -0.0143403364, -0.0148674892, 5.75091872E-05, 921.095337  , 32.03273    , 797.011169  , 1.83        , 3           , 255         , 0           , 0
-0.147889912, 0.149291635 , -9.790484   , 0.0005781984, -5.768065E-05, -0.000240866808, -0.01433452 , -0.0148681  , 5.51088342E-05, 921.095337  , 32.03273    , 797.011353  , 1.84        , 3           , 255         , 0           , 0
-0.143248037, 0.1574014   , -9.791149   , 0.0006138946, -8.89783259E-05, 0.000406147679, -0.0143284407, -0.0148689309, 5.918299E-05, 921.095337  , 32.03273    , 797.011536  , 1.85        , 3           , 255         , 0           , 0
-0.131417125, 0.155825168 , -9.787763   , 0.000273995276, 8.336839E-05, 7.870272E-06, -0.0143257035, -0.0148680992, 5.92497454E-05, 921.095337  , 32.03273    , 797.0117    , 1.86        , 3           , 255         , 0           , 0
-0.142983392, 0.147791713 , -9.79102    , 0.000732398 , -0.00022093422, -0.0003676531, -0.0143183256, -0.0148703586, 5.560492E-05, 921.095337  , 32.03273    , 797.0119    , 1.87        , 3           , 255         , 0           , 0
-0.151661232, 0.145424247 , -9.782809   , 0.000236318272, -0.000204910524, 0.000142956109, -0.0143159851, -0.014872388, 5.70638E-05 , 921.095337  , 32.03273    , 797.0121    , 1.88        , 3           , 255         , 0           , 0
-0.1541145  , 0.14175877  , -9.790838   , 0.000409797416, 7.334631E-05, 0.000304022 , -0.014311932, -0.01487161 , 6.009347E-05, 921.095337  , 32.03273    , 797.012268  , 1.89        , 3           , 255         , 0           , 0
-0.144581228, 0.145690024 , -9.791095   , 0.0008529404, -0.000364669424, 0.000137466152, -0.0143034235, -0.0148752369, 6.15202662E-05, 921.095337  , 32.03273    , 797.012451  , 1.9         , 3           , 255         , 0           , 0
-0.142987788, 0.145656154 , -9.800705   , 0.0004891265, -0.000518486951, -0.000475367648, -0.0143210357, -0.0148795228, 5.71767E-05 , 921.095337  , 32.03273    , 797.0337    , 1.91        , 3           , 255         , 0           , 0
-0.138659269, 0.145125985 , -9.794252   , 0.00095964293, -0.00048487063, 0.000304148271, -0.0143114841, -0.0148843238, 6.02875371E-05, 921.095337  , 32.03273    , 797.034058  , 1.92        , 3           , 255         , 0           , 0
-0.14171043 , 0.145090967 , -9.787852   , 0.0007960483, -0.000179757946, -0.0002417878, -0.0143034887, -0.0148861557, 5.789542E-05, 921.086365  , 32.0353737  , 797.0344    , 1.93        , 3           , 255         , 0           , 0
-0.1468813  , 0.151109248 , -9.788198   , 6.86266E-05 , -0.000163376913, -0.000194711771, -0.0143027734, -0.0148878181, 5.597171E-05, 921.086365  , 32.0353737  , 797.0348    , 1.94        , 3           , 255         , 0           , 0
-0.144488215, 0.144522041 , -9.78374    , 0.000262027723, -0.000106021645, 0.000137150681, -0.0143001741, -0.0148888584, 5.73583529E-05, 921.086365  , 32.0353737  , 797.035156  , 1.95        , 3           , 255         , 0           , 0
-0.1512275  , 0.150767952 , -9.786905   , 0.000226402888, 0.0001717376, 0.000506917 , -0.0142979855, -0.0148870675, 6.240288E-05, 921.086365  , 32.0353737  , 797.0355    , 1.96        , 3           , 255         , 0           , 0
-0.138288945, 0.149515152 , -9.78655052 , 0.000276085339, -0.000324277149, 0.00054570596, -0.0142953061, -0.0148902331, 6.790622E-05, 921.086365  , 32.0353737  , 797.0359    , 1.97        , 3           , 255         , 0           , 0
-0.140601009, 0.15020667  , -9.789331   , 0.0002911539, -0.0003861196, 0.000219466223, -0.0142924283, -0.0148940617, 7.015604E-05, 921.086365  , 32.0353737  , 797.036255  , 1.98        , 3           , 255         , 0           , 0
-0.144322246, 0.148552746 , -9.791109   , 0.000378660276, -0.000264955568, -0.000685859, -0.01428854 , -0.01489681 , 6.333543E-05, 921.086365  , 32.0353737  , 797.0366    , 1.99        , 3           , 255         , 0           , 0
-0.152086318, 0.146680087 , -9.796667   , 0.000692786649, -0.000448995968, -0.000264724367, -0.0142815737, -0.0149013354, 6.075237E-05, 921.086365  , 32.0353737  , 797.037     , 2           , 3           , 0           , 7.01423645  , 200
-0.139152378, 0.148016572 , -9.790213   , 0.000903483829, -0.000208863872, 0.000234157633, -0.014291741, -0.01489924 , 6.34092939E-05, 921.086365  , 32.0353737  , 797.066467  , 2.01        , 3           , 1           , 0           , 0
-0.133548349, 0.150333881 , -9.793658   , 0.000389070774, -0.0002149404, -0.000482629926, -0.0142877782, -0.0149014564, 5.861379E-05, 921.086365  , 32.0353737  , 797.067     , 2.02        , 3           , 2           , 0           , 0
-0.1347512  , 0.148379773 , -9.784295   , 0.0004098059, 0.000158864219, 0.000371434173, -0.0142837362, -0.0148998145, 6.23053857E-05, 921.0973    , 32.035038   , 797.067566  , 2.03        , 3           , 3           , 0           , 0
-0.136280984, 0.1569834   , -9.792597   , 0.0005777473, -0.000107219967, 0.0007856381, -0.0142780757, -0.0149007756, 7.017695E-05, 921.0973    , 32.035038   , 797.0681    , 2.04        , 3           , 4           , 0           , 0
-0.148106083, 0.1515126   , -9.794846   , 0.0007086441, -0.000139035285, 0.000526051852, -0.0142710693, -0.0149020907, 7.545725E-05, 921.0973    , 32.035038   , 797.068665  , 2.05        , 3           , 5           , 0           , 0
-0.15549472 , 0.15753904  , -9.782496   , 0.000388629618, 0.0005655086, -2.64240662E-05, -0.0142671792, -0.01489644 , 7.511231E-05, 921.0973    , 32.035038   , 797.0692    , 2.06        , 3           , 6           , 0           , 0
-0.143496454, 0.149494275 , -9.787726   , 0.0005326909, -0.00019002537, 0.000128588945, -0.0142618725, -0.0148983235, 7.642529E-05, 921.0973    , 32.035038   , 797.069763  , 2.07        , 3           , 7           , 0           , 0
-0.140470982, 0.1538115   , -9.788748   , 0.000130274915, -0.000512925, -1.46921666E-05, -0.0142605687, -0.0149034522, 7.635151E-05, 921.0973    , 32.035038   , 797.0703    , 2.08        , 3           , 8           , 5           , 5
-0.142107427, 0.149887532 , -9.797243   , -2.041983E-05, 6.81238E-05 , -0.000275827479, -0.0142607316, -0.0149028106, 7.358357E-05, 921.0973    , 32.035038   , 797.070862  , 2.09        , 3           , 9           , 5           , 0.1
-0.1382293  , 0.154693276 , -9.791614   , 0.00103161973, 0.000262371061, -8.41737638E-05, -0.0142504005, -0.0149001973, 7.270443E-05, 921.0973    , 32.035038   , 797.0714    , 2.1         , 3           , 10          , 0.1         , 0.1
-0.1411434  , 0.148722619 , -9.790949   , 0.000684055 , 0.000120557146, -5.579251E-05, -0.0142738884, -0.01488728 , 7.258096E-05, 921.0973    , 32.035038   , 797.0839    , 2.11        , 3           , 11          , 0.007855168 , 0.007855166
-0.151463866, 0.145430565 , -9.785689   , 0.000358133751, -7.40618E-05, -0.0005767632, -0.0142702218, -0.0148881068, 6.682399E-05, 921.0973    , 32.035038   , 797.084534  , 2.12        , 3           , 12          , 0.174643889 , 0
-0.137251258, 0.133799762 , -9.790581   , 0.000130511587, -9.198947E-05, -0.000263235183, -0.0142688779, -0.0148890624, 6.420481E-05, 921.109436  , 32.0353737  , 797.085144  , 2.13        , 3           , 13          , 0           , 0
-0.140999   , 0.13456808  , -9.79514    , 0.0007266577, 3.00593674E-05, 5.47659947E-05, -0.01426162 , -0.0148887532, 6.474817E-05, 921.109436  , 32.0353737  , 797.085754  , 2.14        , 3           , 14          , -0.00102689152, -0.000599771331
-0.146180347, 0.143347889 , -9.791728   , 5.8082107E-05, -2.80675013E-05, -9.73826245E-05, -0.0142610241, -0.0148890484, 6.377837E-05, 921.109436  , 32.0353737  , 797.086365  , 2.15        , 3           , 15          , 0           , -0.000139021067
-0.139656335, 0.143372744 , -9.791856   , 0.0004950326, -0.0002573126, 0.000120380893, -0.0142560918, -0.014891603, 6.50188449E-05, 921.109436  , 32.0353737  , 797.087     , 2.16        , 3           , 16          , 0           , 1.401298E-45
-0.137642592, 0.1455963   , -9.796464   , 0.0006393557, -0.000137870491, 9.51356E-05 , -0.0142497141, -0.0148929711, 6.5989836E-05, 921.109436  , 32.0353737  , 797.0876    , 2.17        , 3           , 20          , 0           , 0
-0.149506718, 0.1496403   , -9.797819   , 0.0005774871, -0.0004584173, 0.000176933856, -0.0142439678, -0.0148975272, 6.7824476E-05, 921.109436  , 32.0353737  , 797.0882    , 2.18        , 3           , 21          , 0           , 0
-0.1373882  , 0.149729043 , -9.790585   , 0.000741573051, -0.0007285539, -0.0007129731, -0.0142364474, -0.0149049154, 6.07986076E-05, 921.109436  , 32.0353737  , 797.0888    , 2.19        , 3           , 22          , 0           , 0
-0.143906742, 0.152377635 , -9.780251   , 0.00046163128, -0.0004972369, 9.739046E-05, -0.0142318457, -0.0149098709, 6.1843275E-05, 921.109436  , 32.0353737  , 797.0894    , 2.2         , 3           , 40          , 0           , 0
-0.143798232, 0.158695132 , -9.787912   , 0.000166250044, -0.0004213921, 0.000118857846, -0.0142416675, -0.0149065433, 6.326269E-05, 921.109436  , 32.0353737  , 797.0847    , 2.21        , 3           , 41          , 0           , 0
-0.145098343, 0.145551458 , -9.804826   , 0.0005216347, 0.000147775456, -0.000176808666, -0.014236425, -0.0149050942, 6.14736E-05 , 921.109436  , 32.0353737  , 797.0853    , 2.22        , 3           , 42          , 0           , 0
-0.143358588, 0.156078666 , -9.79851    , 0.000482855132, 5.142059E-05, -0.0009094168, -0.01423146 , -0.0149047067, 5.237224E-05, 921.109131  , 32.03565    , 797.085938  , 2.23        , 3           , 255         , 0           , 0
-0.15109393 , 0.148309857 , -9.793452   , 0.0005071857, -7.390615E-05, -0.000131291352, -0.01422637 , -0.0149054648, 5.10698665E-05, 921.109131  , 32.03565    , 797.086548  , 2.24        , 3           , 255         , 0           , 0
-0.149852544, 0.147348255 , -9.79524    , 0.0008943002, -0.000219166337, 0.0003682627, -0.014217481, -0.0149076059, 5.47836E-05 , 921.109131  , 32.03565    , 797.087158  , 2.25        , 3           , 255         , 0           , 0
-0.139976263, 0.143768609 , -9.785852   , 0.000402187055, -0.00014712062, -0.0005715982, -0.0142133739, -0.0149091557, 4.90886159E-05, 921.109131  , 32.03565    , 797.087769  , 2.26        , 3           , 255         , 0           , 0
-0.140751809, 0.145287067 , -9.783506   , -6.10044226E-05, -0.000399976445, -0.000349348062, -0.0142139327, -0.0149132051, 4.56520429E-05, 921.109131  , 32.03565    , 797.0884    , 2.27        , 3           , 255         , 0           , 0
-0.145991564, 0.15003714  , -9.781866   , -3.40247061E-06, -1.56998867E-05, -1.18079479E-05, -0.0142139653, -0.0149133634, 4.55361951E-05, 921.109131  , 32.03565    , 797.089     , 2.28        , 3           , 255         , 0           , 0
-0.143648788, 0.149215966 , -9.796776   , 0.00026482594, 0.000454360619, -0.000428673928, -0.0142112542, -0.01490888 , 4.11849251E-05, 921.109131  , 32.03565    , 797.0896    , 2.29        , 3           , 255         , 0           , 0
-0.142004415, 0.142558217 , -9.794434   , 0.0005942994, -0.0005126164, -0.0001399314, -0.0142052909, -0.0149140256, 3.98584634E-05, 921.109131  , 32.03565    , 797.0902    , 2.3         , 3           , 255         , 0           , 0
-0.140804052, 0.142735884 , -9.790052   , 0.000144287536, -0.0005209733, 3.03802663E-05, -0.0142231332, -0.0149162812, 4.052386E-05, 921.109131  , 32.03565    , 797.085632  , 2.31        , 3           , 255         , 0           , 0
-0.146589369, 0.1527096   , -9.797671   , 0.000649574737, -0.000216928078, 0.0004487611, -0.0142167043, -0.014918386, 4.50422558E-05, 921.109131  , 32.03565    , 797.086243  , 2.32        , 3           , 255         , 0           , 0
-0.151788756, 0.146942943 , -9.78903    , 0.0005674228, 1.47653045E-05, 0.0005193052, -0.01421111 , -0.0149181634, 5.023314E-05, 921.0935    , 32.03565    , 797.086853  , 2.33        , 3           , 255         , 0           , 0
-0.147046879, 0.138382554 , -9.782186   , 0.0002366153, -0.000223261013, -8.601944E-05, -0.0142087322, -0.0149204088, 4.940469E-05, 921.0935    , 32.03565    , 797.087463  , 2.34        , 3           , 255         , 0           , 0
-0.141318977, 0.142247558 , -9.787896   , 0.000522403 , 0.000140643679, 0.000623103755, -0.0142036015, -0.0149189169, 5.561566E-05, 921.0935    , 32.03565    , 797.0881    , 2.35        , 3           , 255         , 0           , 0
-0.142893463, 0.150358513 , -9.791796   , 0.0002192306, -6.16415055E-05, 4.00292629E-05, -0.0142014148, -0.0149195259, 5.60247063E-05, 921.0935    , 32.03565    , 797.0887    , 2.36        , 3           , 255         , 0           , 0
-0.138117462, 0.148378283 , -9.78504848 , 0.000800313661, 7.393153E-05, -2.609026E-05, -0.0141934091, -0.0149187893, 5.575332E-05, 921.0935    , 32.03565    , 797.0893    , 2.37        , 3           , 255         , 0           , 0
-0.136355489, 0.144314125 , -9.787329   , 0.0009837067, 0.00059119967, -7.624537E-05, -0.0141835585, -0.01491289 , 5.49069846E-05, 921.0935    , 32.03565    , 797.0899    , 2.38        , 3           , 255         , 0           , 0
-0.144662887, 0.149489239 , -9.785866   , 0.000487041136, 0.000217454857, -0.000115227493, -0.0141786709, -0.0149107324, 5.372389E-05, 921.0935    , 32.03565    , 797.0905    , 2.39        , 3           , 255         , 0           , 0
-0.150390789, 0.152276084 , -9.779008   , -0.0001530766, -0.0005956855, -8.295577E-05, -0.014180189, -0.0149167  , 5.29788122E-05, 921.0935    , 32.03565    , 797.0911    , 2.4         , 3           , 255         , 0           , 0
-0.138902813, 0.1485674   , -9.786905   , 7.157546E-05, -0.000225395022, 0.000165966485, -0.0142025482, -0.0149128046, 5.501412E-05, 921.0935    , 32.03565    , 797.10675   , 2.41        , 3           , 255         , 0           , 0
-0.139485389, 0.1421063   , -9.790595   , 8.196454E-06, 0.000245929637, 4.57759743E-05, -0.0142024718, -0.0149103384, 5.543694E-05, 921.0935    , 32.03565    , 797.1074    , 2.42        , 3           , 255         , 0           , 0
-0.15503493 , 0.153137475 , -9.792764   , 0.00111968815, 0.000442061835, 0.000295924779, -0.0141913192, -0.0149058737, 5.833338E-05, 921.079     , 32.03409    , 797.1081    , 2.43        , 3           , 255         , 0           , 0
-0.147512928, 0.167156816 , -9.800334   , 0.00137491175, -0.000288421521, 0.0002950678, -0.0141776139, -0.0149087179, 6.132493E-05, 921.079     , 32.03409    , 797.108765  , 2.44        , 3           , 255         , 0           , 0
-0.144966736, 0.1546413   , -9.787582   , 0.0011154192, -0.000227796147, -0.0001420353, -0.01416644 , -0.0149110137, 5.99368723E-05, 921.079     , 32.03409    , 797.109436  , 2.45        , 3           , 255         , 0           , 0
-0.149214268, 0.149164334 , -9.79237652 , 0.000389051042, 5.395204E-05, 0.0006149855, -0.01416264 , -0.0149103869, 6.60789956E-05, 921.079     , 32.03409    , 797.110168  , 2.46        , 3           , 255         , 0           , 0
-0.140697241, 0.141548321 , -9.799698   , 0.000369161367, -0.0005675048, 0.000514381449, -0.0141590256, -0.0149159888, 7.13031041E-05, 921.079     , 32.03409    , 797.1109    , 2.47        , 3           , 255         , 0           , 0
-0.147211358, 0.147723421 , -9.78696    , 0.0004608304, -0.000593472156, -0.000166782833, -0.0141543942, -0.0149219474, 6.97193245E-05, 921.079     , 32.03409    , 797.111633  , 2.48        , 3           , 255         , 0           , 0
-0.151925087, 0.141095281 , -9.792555   , 0.000375705 , -0.0006151907, -0.00016436381, -0.0141506149, -0.0149281221, 6.816277E-05, 921.079     , 32.03409    , 797.112366  , 2.49        , 3           , 255         , 0           , 0
-0.140627623, 0.140142918 , -9.794332   , 0.000263596652, -0.000114895636, 0.000427015824, -0.0141480416, -0.0149292089, 7.244914E-05, 921.079     , 32.03409    , 797.1131    , 2.5         , 3           , 255         , 0           , 0
-0.141359717, 0.143476874 , -9.78912    , 0.000173736888, 0.0006083299, 0.000131962268, -0.0141651174, -0.0149221914, 7.396312E-05, 921.079     , 32.03409    , 797.1457    , 2.51        , 3           , 255         , 0           , 0
-0.144124508, 0.143170357 , -9.794762   , 0.0005340078, 0.000233429571, 0.000415867253, -0.01415984 , -0.014919797, 7.80886839E-05, 921.079     , 32.03409    , 797.1466    , 2.52        , 3           , 255         , 0           , 0
-0.142994732, 0.15384528  , -9.779506   , 0.0006071859, 0.000264059083, -0.0003682961, -0.0141537124, -0.0149172125, 7.43684E-05 , 921.133667  , 32.03816    , 797.1475    , 2.53        , 3           , 255         , 0           , 0
-0.15008077 , 0.1492689   , -9.789476   , 0.0002042785, 1.23815844E-05, 0.000712365552, -0.0141517781, -0.0149169862, 8.14902E-05 , 921.133667  , 32.03816    , 797.148438  , 2.54        , 3           , 255         , 0           , 0
-0.155840218, 0.152810052 , -9.787726   , 0.000558151864, 7.25297141E-05, -5.861516E-05, -0.0141461873, -0.0149162691, 8.08938057E-05, 921.133667  , 32.03816    , 797.149353  , 2.55        , 3           , 255         , 0           , 0
-0.141278267, 0.143619508 , -9.7862215  , 5.6744786E-05, -1.24337967E-05, 0.000179620329, -0.0141456453, -0.0149163678, 8.269173E-05, 921.133667  , 32.03816    , 797.150269  , 2.56        , 3           , 255         , 0           , 0
-0.139908344, 0.147601813 , -9.787795   , 0.000137757976, 0.00012395042, -0.000267753261, -0.0141442288, -0.0149151674, 7.999671E-05, 921.133667  , 32.03816    , 797.1512    , 2.57        , 3           , 255         , 0           , 0
-0.149099424, 0.155253425 , -9.797511   , 0.000282839464, 0.000334494951, 2.85621572E-05, -0.014141405, -0.01491182 , 8.023502E-05, 921.133667  , 32.03816    , 797.1521    , 2.58        , 3           , 255         , 0           , 0
-0.139948323, 0.1460037   , -9.796736   , 0.000754997134, 0.000150885142, -0.000222150251, -0.0141338212, -0.0149103431, 7.799221E-05, 921.133667  , 32.03816    , 797.153     , 2.59        , 3           , 255         , 0           , 0
-0.13678    , 0.1405181   , -9.794284   , 0.000149255968, -0.0003498415, 0.000237225991, -0.0141323665, -0.0149138076, 8.04139054E-05, 921.133667  , 32.03816    , 797.153931  , 2.6         , 3           , 255         , 0           , 0
-0.139162138, 0.149362743 , -9.793925   , 0.0006231932, -0.000343776424, 6.630294E-05, -0.0141461771, -0.0149129694, 8.142425E-05, 921.133667  , 32.03816    , 797.1066    , 2.61        , 3           , 255         , 0           , 0
-0.140966445, 0.147448391 , -9.79478    , 0.000561736233, 0.0005413672, 9.69335742E-05, -0.0141405743, -0.0149075417, 8.2317E-05  , 921.133667  , 32.03816    , 797.107239  , 2.62        , 3           , 255         , 0           , 0
-0.147686034, 0.14373675  , -9.791686   , -7.331127E-05, 0.000237211643, -0.0003177909, -0.0141412606, -0.0149052152, 7.91056E-05 , 921.11      , 32.03653    , 797.107849  , 2.63        , 3           , 255         , 0           , 0
-0.152271822, 0.152941227 , -9.795427   , 2.88579613E-05, -0.000400255783, -0.000218269866, -0.0141409393, -0.0149092479, 7.697953E-05, 921.11      , 32.03653    , 797.108459  , 2.64        , 3           , 255         , 0           , 0
-0.142007232, 0.1515722   , -9.794006   , 0.000224628428, -0.000492141, -0.0003778388, -0.0141386362, -0.0149142221, 7.327079E-05, 921.11      , 32.03653    , 797.1091    , 2.65        , 3           , 255         , 0           , 0
-0.141613156, 0.14952293  , -9.800385   , 0.000209067308, -0.000409182627, -9.41928E-06, -0.0141365454, -0.0149183143, 7.323445E-05, 921.11      , 32.03653    , 797.1097    , 2.66        , 3           , 255         , 0           , 0
-0.1511217  , 0.1437867   , -9.790433   , 0.0005341992, -0.000274666934, 0.000184159348, -0.0141312322, -0.0149210347, 7.511485E-05, 921.11      , 32.03653    , 797.1103    , 2.67        , 3           , 255         , 0           , 0
-0.144794032, 0.1498219   , -9.793761   , -8.179026E-05, -0.000265557261, 0.000410297769, -0.0141321132, -0.0149236331, 7.92553E-05 , 921.11      , 32.03653    , 797.1109    , 2.68        , 3           , 255         , 0           , 0
-0.142865166, 0.147730321 , -9.788327   , 0.0004446553, -0.000216407178, -0.0003878189, -0.0141276084, -0.0149258515, 7.540774E-05, 921.11      , 32.03653    , 797.1115    , 2.69        , 3           , 255         , 0           , 0
-0.136198431, 0.147853345 , -9.790853   , 0.0005551041, -0.0006042357, 2.16676781E-05, -0.0141220614, -0.0149318893, 7.570976E-05, 921.11      , 32.03653    , 797.1121    , 2.7         , 3           , 255         , 0           , 0
-0.140162855, 0.14625369  , -9.800767   , 0.00040216028, -0.000578988867, 0.00018172375, -0.0141353207, -0.0149338171, 7.786636E-05, 921.11      , 32.03653    , 797.102661  , 2.71        , 3           , 255         , 0           , 0
-0.144462153, 0.148728281 , -9.795047   , -0.000178592978, -0.00020997884, 1.69321283E-05, -0.0141371088, -0.0149359144, 7.80653645E-05, 921.11      , 32.03653    , 797.1032    , 2.72        , 3           , 255         , 0           , 0
-0.144620076, 0.150185317 , -9.798518   , 0.00029975432, -0.000422369863, 0.000121058525, -0.01413413 , -0.0149401212, 7.93356448E-05, 921.1099    , 32.0369377  , 797.10376   , 2.73        , 3           , 255         , 0           , 0
-0.143223211, 0.14567174  , -9.790652   , 0.0008643725, -0.0003166406, 0.0005075957, -0.0141255641, -0.0149432141, 8.44562746E-05, 921.1099    , 32.0369377  , 797.1044    , 2.74        , 3           , 255         , 0           , 0
-0.144029528, 0.147275    , -9.79323    , 0.000621112238, 7.045799E-05, 0.0005239799, -0.01411943 , -0.0149424355, 8.968606E-05, 921.1099    , 32.0369377  , 797.105     , 2.75        , 3           , 255         , 0           , 0
-0.149678826, 0.147565871 , -9.792602   , 0.00083293207, -0.0001770304, -0.0005269995, -0.0141110243, -0.0149442814, 8.444112E-05, 921.1099    , 32.0369377  , 797.1056    , 2.76        , 3           , 255         , 0           , 0
-0.146054775, 0.147904128 , -9.792778   , 0.000320160645, -0.000336125551, -0.000152952736, -0.014107801, -0.0149476631, 8.295904E-05, 921.1099    , 32.0369377  , 797.1062    , 2.77        , 3           , 255         , 0           , 0
-0.132750839, 0.144762    , -9.795344   , 0.00034364406, -3.152684E-05, -0.000324902358, -0.0141043151, -0.0149480244, 7.9714504E-05, 921.1099    , 32.0369377  , 797.1068    , 2.78        , 3           , 255         , 0           , 0
-0.1386191  , 0.147706121 , -9.792593   , -2.7794973E-05, 0.00032730776, 8.57036648E-05, -0.0141046047, -0.0149447387, 8.052536E-05, 921.1099    , 32.0369377  , 797.1074    , 2.79        , 3           , 255         , 0           , 0
-0.125556022, 0.145661876 , -9.787111   , 0.00106129528, -6.97081559E-05, 0.000410365348, -0.0140940547, -0.0149453785, 8.463878E-05, 921.1099    , 32.0369377  , 797.108032  , 2.8         , 3           , 255         , 0           , 0
-0.135427386, 0.14373748  , -9.79547    , 0.000857037 , -0.000126561266, -9.322001E-06, -0.01410025 , -0.01493754 , 8.478398E-05, 921.1099    , 32.0369377  , 797.099     , 2.81        , 3           , 255         , 0           , 0
-0.152687043, 0.151871175 , -9.790634   , 0.00051095977, -0.00018987892, 0.000123352991, -0.01409516 , -0.0149394218, 8.604427E-05, 921.1099    , 32.0369377  , 797.099548  , 2.82        , 3           , 255         , 0           , 0
-0.151696175, 0.1546171   , -9.787845   , 0.0006427634, 3.18867387E-06, 3.844923E-05, -0.0140887368, -0.0149393836, 8.64283138E-05, 921.11      , 32.03653    , 797.1001    , 2.83        , 3           , 255         , 0           , 0
-0.150300592, 0.148355454 , -9.788325   , 0.000685044448, -7.485307E-05, 0.000725825434, -0.0140819959, -0.0149400318, 9.369701E-05, 921.11      , 32.03653    , 797.100647  , 2.84        , 3           , 255         , 0           , 0
-0.150251091, 0.1544579   , -9.782274   , 0.000148484367, -0.000310230767, 0.000495508 , -0.0140805868, -0.0149430633, 9.869573E-05, 921.11      , 32.03653    , 797.1012    , 2.85        , 3           , 255         , 0           , 0
-0.140810788, 0.159204036 , -9.789925   , 0.0002709428, 1.71425636E-05, 0.000224502321, -0.0140779112, -0.01494286 , 0.00010093832, 921.11      , 32.03653    , 797.101746  , 2.86        , 3           , 255         , 0           , 0
-0.137301564, 0.1543239   , -9.792341   , 2.38236971E-05, -5.55948354E-05, 0.000244627357, -0.01407771 , -0.0149433818, 0.000103392384, 921.11      , 32.03653    , 797.1023    , 2.87        , 3           , 255         , 0           , 0
-0.142464429, 0.149946243 , -9.798784   , -3.52920033E-05, 0.000112681795, 0.000121850935, -0.01407808 , -0.0149422372, 0.000104595005, 921.11      , 32.03653    , 797.102844  , 2.88        , 3           , 255         , 0           , 0
-0.140751436, 0.156021148 , -9.796547   , 0.000197811285, 5.78460749E-05, -0.0003627332, -0.0140760485, -0.01494171 , 0.000100959573, 921.11      , 32.03653    , 797.1034    , 2.89        , 3           , 255         , 0           , 0
-0.138791561, 0.157409489 , -9.793018   , 0.00030623877, 0.000128059939, -0.0004289691, -0.0140729221, -0.0149404891, 9.66519146E-05, 921.11      , 32.03653    , 797.103943  , 2.9         , 3           , 255         , 0           , 0
-0.147415057, 0.1506743   , -9.79366    , 0.0007730034, -0.0002492186, -0.0007085201, -0.0140939262, -0.0149387242, 9.003267E-05, 921.11      , 32.03653    , 797.095337  , 2.91        , 3           , 255         , 0           , 0
-0.142253548, 0.146803379 , -9.789203   , 0.000472377054, -0.000355647644, -2.19596841E-05, -0.0140891979, -0.0149422828, 8.986319E-05, 921.11      , 32.03653    , 797.0958    , 2.92        , 3           , 255         , 0           , 0
-0.138810068, 0.145905465 , -9.8025     , 2.24828254E-05, -0.0003151386, -5.539639E-05, -0.014088966, -0.0149454391, 8.935365E-05, 921.1094    , 32.03707    , 797.0963    , 2.93        , 3           , 255         , 0           , 0
-0.1472988  , 0.142532066 , -9.793158   , 0.000702657446, -0.000129811, -0.00016843318, -0.0140819149, -0.0149467615, 8.76876147E-05, 921.1094    , 32.03707    , 797.0968    , 2.94        , 3           , 255         , 0           , 0
-0.151039973, 0.1479027   , -9.79425049 , 0.000172988279, -0.000241452188, 0.000267742318, -0.0140802255, -0.0149491373, 9.0399E-05  , 921.1094    , 32.03707    , 797.0973    , 2.95        , 3           , 255         , 0           , 0
-0.145690426, 0.150029033 , -9.795412   , 0.0008160047, 3.504654E-05, 0.000107971035, -0.0140720829, -0.014948776, 9.147379E-05, 921.1094    , 32.03707    , 797.0978    , 2.96        , 3           , 255         , 0           , 0
-0.145528063, 0.148103639 , -9.790215   , 0.000956636737, -4.42049932E-05, 0.00114483607, -0.0140626868, -0.0149490554, 0.000102928214, 921.1094    , 32.03707    , 797.098267  , 2.97        , 3           , 255         , 0           , 0
-0.151659623, 0.143315524 , -9.80511    , 0.000540371 , -0.0002684272, 0.000416642142, -0.0140573476, -0.0149516808, 0.000107132328, 921.1094    , 32.03707    , 797.098755  , 2.98        , 3           , 255         , 0           , 0
-0.150493979, 0.146578    , -9.791674   , 0.00029909  , 6.929488E-05, -0.000193012063, -0.0140543273, -0.0149510149, 0.000105192506, 921.1094    , 32.03707    , 797.099243  , 2.99        , 3           , 255         , 0           , 0
-0.14795211 , 0.15019156  , -9.78541    , 0.0005434733, 0.000110534136, -0.000139959971, -0.0140488716, -0.014949929, 0.000103777384, 921.1094    , 32.03707    , 797.099731  , 3           , 3           , 0           , 8.014236    , 300
-0.140929788, 0.154007822 , -9.793856   , 0.0005161969, 0.000138524279, 0.0002577097, -0.0140584754, -0.014949115, 0.000106555148, 921.1094    , 32.03707    , 797.0924    , 3.01        , 3           , 1           , 0           , 0
-0.142030522, 0.154251814 , -9.79545    , 0.0007503811, 2.07177945E-05, -0.0005115227, -0.0140508953, -0.0149489827, 0.000101437072, 921.1094    , 32.03707    , 797.0929    , 3.02        , 3           , 2           , 0           , 0
-0.134393662, 0.158181727 , -9.795889   , 0.0007119292, -0.000169318286, 3.76546523E-05, -0.0140437828, -0.01495067 , 0.0001018374, 921.1158    , 32.03999    , 797.0934    , 3.03        , 3           , 3           , 0           , 0
-0.139359623, 0.150283009 , -9.798475   , 0.000629283139, -0.00031385792, 6.63256942E-05, -0.0140375011, -0.0149537986, 0.00010254472, 921.1158    , 32.03999    , 797.0939    , 3.04        , 3           , 4           , 0           , 0
-0.145081386, 0.154012173 , -9.788959   , 0.000237965141, 0.0001602302, -0.000401342637, -0.01403506 , -0.0149522526, 9.850886E-05, 921.1158    , 32.03999    , 797.09436   , 3.05        , 3           , 5           , 0           , 0
-0.149109766, 0.148206875 , -9.787864   , 0.000480217743, 0.000144845864, 0.000195096014, -0.014030287, -0.0149507765, 0.000100439473, 921.1158    , 32.03999    , 797.094849  , 3.06        , 3           , 6           , 0           , 0
-0.145446628, 0.152944565 , -9.794032   , 0.0008532949, -0.000190922117, -2.57620413E-05, -0.0140217515, -0.01495269 , 0.000100208636, 921.1158    , 32.03999    , 797.095337  , 3.07        , 3           , 7           , 0           , 0
-0.133449465, 0.149476737 , -9.783869   , 0.000193561078, -0.000182924792, -0.000618818565, -0.014019724, -0.014954607, 9.404617E-05, 921.1158    , 32.03999    , 797.0958    , 3.08        , 3           , 8           , 5           , 5
-0.135789528, 0.158479258 , -9.796554   , 0.0003128781, 0.000372622017, 1.27554231E-05, -0.0140165966, -0.014950878, 9.412149E-05, 921.1158    , 32.03999    , 797.0963    , 3.09        , 3           , 9           , 5           , 0.1
-0.142842129, 0.146054238 , -9.786806   , 0.0006975624, -9.195029E-05, -0.000289614167, -0.01400958 , -0.0149518382, 9.123827E-05, 921.1158    , 32.03999    , 797.0968    , 3.1         , 3           , 10          , 0.1         , 0.1
-0.1376126  , 0.144768983 , -9.791988   , 0.0002489051, -0.00032922125, 0.0001680426, -0.0140339127, -0.0149451829, 9.33652555E-05, 921.1158    , 32.03999    , 797.08075   , 3.11        , 3           , 11          , 0.00711571472, 0.00711571146
-0.139506146, 0.163136154 , -9.802889   , -0.000201141927, -0.000470788451, 3.549752E-05, -0.01403593 , -0.0149498861, 9.378631E-05, 921.1158    , 32.03999    , 797.0811    , 3.12        , 3           , 12          , 0.174645633 , 0
-0.140082911, 0.146806374 , -9.798407   , 6.303226E-05, -0.000303526875, -0.000188357546, -0.0140352715, -0.0149529474, 9.194536E-05, 921.0898    , 32.03972    , 797.0815    , 3.13        , 3           , 13          , 0           , 0
-0.132912546, 0.143642172 , -9.793265   , 0.0004051606, 0.000206404366, 0.0003053211, -0.0140312659, -0.0149508407, 9.4969575E-05, 921.0898    , 32.03972    , 797.081848  , 3.14        , 3           , 14          , -0.001026053, -0.00059997756
-0.1459451  , 0.137479588 , -9.802871   , 0.000264321745, 0.000211591512, 0.000341201376, -0.0140286731, -0.0149486773, 9.83518548E-05, 921.0898    , 32.03972    , 797.0822    , 3.15        , 3           , 15          , 0           , -0.0001390365
-0.154602155, 0.15392977  , -9.79803848 , 0.000151876826, -0.000150590029, 0.0003832023, -0.0140272118, -0.0149501292, 0.000102204969, 921.0898    , 32.03972    , 797.0826    , 3.16        , 3           , 16          , 0           , 1.401298E-45
-0.142599314, 0.144601628 , -9.794113   , 0.000906179 , -0.000272379082, -0.000206243974, -0.01401812 , -0.0149528841, 0.00010018074, 921.0898    , 32.03972    , 797.082947  , 3.17        , 3           , 20          , 0           , 0
-0.134749815, 0.154101387 , -9.782741   , 0.0004143687, -0.000550400349, -0.000864711648, -0.0140138492, -0.0149585065, 9.161086E-05, 921.0898    , 32.03972    , 797.0833    , 3.18        , 3           , 21          , 0           , 0
-0.1405311  , 0.1570296   , -9.789948   , 0.000449472456, -0.000428965082, -0.000187710975, -0.0140093258, -0.0149628213, 8.979388E-05, 921.0898    , 32.03972    , 797.0837    , 3.19        , 3           , 22          , 0           , 0
-0.139629036, 0.149719819 , -9.787234   , 2.28285789E-05, -0.000100921607, -2.125997E-05, -0.0140090948, -0.0149638336, 8.959542E-05, 921.0898    , 32.03972    , 797.084045  , 3.2         , 3           , 40          , 0           , 0
-0.13783136 , 0.148237064 , -9.797182   , 0.0001450195, 0.000257763022, 0.000350740738, -0.0140262721, -0.0149525683, 9.33444462E-05, 921.0898    , 32.03972    , 797.10675   , 3.21        , 3           , 41          , 0           , 0
-0.144904166, 0.153664172 , -9.800054   , 0.0003514929, 0.000237907545, -0.000208742145, -0.0140227275, -0.0149502177, 9.122367E-05, 921.0898    , 32.03972    , 797.1073    , 3.22        , 3           , 42          , 0           , 0
-0.140922308, 0.153685525 , -9.790883   , 0.0006423121, -0.000205272459, 0.000698254735, -0.0140164085, -0.0149521735, 9.823492E-05, 921.101868  , 32.03531    , 797.107849  , 3.23        , 3           , 255         , 0           , 0
-0.144701079, 0.147671789 , -9.779069   , 0.000894888653, -0.000482415315, 0.000205275661, -0.0140074911, -0.0149569679, 0.000100355239, 921.101868  , 32.03531    , 797.1084    , 3.24        , 3           , 255         , 0           , 0
-0.142310232, 0.150613144 , -9.788918   , 0.0006179928, -0.000440727337, -0.0003852481, -0.0140012549, -0.0149614271, 9.656452E-05, 921.101868  , 32.03531    , 797.108948  , 3.25        , 3           , 255         , 0           , 0
-0.14783296 , 0.149625108 , -9.789946   , 0.000208016718, 0.000152542925, -7.27942243E-05, -0.013999165, -0.0149599127, 9.5815245E-05, 921.101868  , 32.03531    , 797.1095    , 3.26        , 3           , 255         , 0           , 0
-0.140618041, 0.147975653 , -9.789094   , 0.000837345957, -5.43803326E-05, 0.0005300941, -0.0139908716, -0.014960384, 0.000101123747, 921.101868  , 32.03531    , 797.110046  , 3.27        , 3           , 255         , 0           , 0
-0.148829967, 0.14760913  , -9.79509449 , 0.000400857534, -0.000163136458, 0.000425668433, -0.0139869256, -0.0149619551, 0.0001054032, 921.101868  , 32.03531    , 797.1106    , 3.28        , 3           , 255         , 0           , 0
-0.144855618, 0.149789691 , -9.796122   , 0.000586855633, 0.000201224786, 0.000211424223, -0.01398109 , -0.0149599137, 0.0001074893, 921.101868  , 32.03531    , 797.111145  , 3.29        , 3           , 255         , 0           , 0
-0.14388217 , 0.147403762 , -9.801275   , 0.000205068674, 7.328275E-05, 0.0006081894, -0.0139791295, -0.014959096, 0.000113560884, 921.101868  , 32.03531    , 797.1117    , 3.3         , 3           , 255         , 0           , 0
-0.146364689, 0.14692986  , -9.798018   , 0.0006148361, 0.000194765977, -0.0002928039, -0.0139935454, -0.0149524771, 0.000110913796, 921.101868  , 32.03531    , 797.1134    , 3.31        , 3           , 255         , 0           , 0
-0.1367491  , 0.149869561 , -9.795213   , 0.0005685917, 0.000198924827, 0.000233696992, -0.0139878942, -0.0149504552, 0.000113222915, 921.101868  , 32.03531    , 797.113953  , 3.32        , 3           , 255         , 0           , 0
-0.1421623  , 0.151261687 , -9.796646   , 0.000257092877, 0.000118354568, 0.0005706917, -0.0139854085, -0.0149491951, 0.000118913224, 921.1416    , 32.03714    , 797.1145    , 3.33        , 3           , 255         , 0           , 0
-0.152389079, 0.150960535 , -9.790564   , -5.41373156E-05, -0.000391666021, -1.20308541E-05, -0.0139859486, -0.0149531113, 0.000118847689, 921.1416    , 32.03714    , 797.115051  , 3.34        , 3           , 255         , 0           , 0
-0.142784163, 0.158907562 , -9.791222   , 0.000199724338, -3.501121E-05, -0.00079613633, -0.0139838327, -0.0149535723, 0.000110891313, 921.1416    , 32.03714    , 797.1156    , 3.35        , 3           , 255         , 0           , 0
-0.137846321, 0.157415271 , -9.786591   , 0.0006580252, -0.000285443675, 0.0002039371, -0.0139772845, -0.0149563989, 0.000112970563, 921.1416    , 32.03714    , 797.11615   , 3.36        , 3           , 255         , 0           , 0
-0.139189392, 0.146049425 , -9.78295    , 0.000460205134, -0.000349957671, 0.00021581602, -0.0139727155, -0.0149598662, 0.000115177609, 921.1416    , 32.03714    , 797.1167    , 3.37        , 3           , 255         , 0           , 0
-0.14271602 , 0.141840026 , -9.789157   , 0.000805525458, 2.77704676E-05, -0.0006210768, -0.0139645664, -0.0149596762, 0.000108963024, 921.1416    , 32.03714    , 797.117249  , 3.38        , 3           , 255         , 0           , 0
-0.1408652  , 0.148314625 , -9.791266   , 0.000365925254, 1.11019472E-05, -0.0005421364, -0.0139608262, -0.0149596408, 0.00010354018, 921.1416    , 32.03714    , 797.1178    , 3.39        , 3           , 255         , 0           , 0
-0.140952513, 0.144147664 , -9.789714   , 0.0005503448, -0.000281003478, -0.000352838222, -0.0139552709, -0.014962499, 0.000100051046, 921.1416    , 32.03714    , 797.118347  , 3.4         , 3           , 255         , 0           , 0
-0.153457522, 0.143014759 , -9.795557   , 0.00032875553, -0.0003066375, -0.000155853049, -0.0139750857, -0.014957834, 9.888121E-05, 921.1416    , 32.03714    , 797.0623    , 3.41        , 3           , 255         , 0           , 0
-0.1524329  , 0.147337854 , -9.808948   , 3.36723169E-05, 9.970495E-05, 0.000741332769, -0.0139748594, -0.0149567341, 0.000106280524, 921.1416    , 32.03714    , 797.062561  , 3.42        , 3           , 255         , 0           , 0
-0.142061681, 0.1489749   , -9.778868   , 0.00045659428, -0.000402499, 0.00116151117, -0.0139704682, -0.0149605963, 0.000117951771, 921.067444  , 32.04182    , 797.0628    , 3.43        , 3           , 255         , 0           , 0
-0.140617222, 0.145392269 , -9.78921    , 0.000603708962, -0.000515480759, 0.0005616144, -0.0139645161, -0.0149656711, 0.000123639838, 921.067444  , 32.04182    , 797.063049  , 3.44        , 3           , 255         , 0           , 0
-0.144409209, 0.153489932 , -9.78782749 , 0.000869726762, -0.000504115364, 0.000571871 , -0.013955906, -0.01497063 , 0.000129428867, 921.067444  , 32.04182    , 797.0633    , 3.45        , 3           , 255         , 0           , 0
-0.147129968, 0.149034053 , -9.791399   , 0.0007173094, 0.000244039926, 0.0005954667, -0.0139488224, -0.0149681084, 0.00013534943, 921.067444  , 32.04182    , 797.063538  , 3.46        , 3           , 255         , 0           , 0
-0.142584473, 0.147914767 , -9.787527   , 0.000364738051, -0.000150522334, 0.0006447339, -0.0139452713, -0.014969524, 0.000141817713, 921.067444  , 32.04182    , 797.0638    , 3.47        , 3           , 255         , 0           , 0
-0.140397266, 0.1415118   , -9.791132   , 0.000391780224, -0.000622763764, 8.97767241E-05, -0.01394137 , -0.0149757387, 0.000142802324, 921.067444  , 32.04182    , 797.064     , 3.48        , 3           , 255         , 0           , 0
-0.142906517, 0.1543088   , -9.796394   , 0.000873070967, -0.000202858471, 9.54334537E-05, -0.0139326528, -0.0149777541, 0.000143784913, 921.067444  , 32.04182    , 797.0643    , 3.49        , 3           , 255         , 0           , 0
-0.141603485, 0.149660662 , -9.803972   , 0.000252398429, -0.000252571772, 8.085262E-05, -0.013930141, -0.0149802677, 0.0001446286, 921.067444  , 32.04182    , 797.0645    , 3.5         , 3           , 255         , 0           , 0
-0.142704   , 0.159664422 , -9.78873    , 0.000153087021, 0.000113123417, 0.000171433159, -0.0139464224, -0.0149762006, 0.0001465935, 921.067444  , 32.04182    , 797.121765  , 3.51        , 3           , 255         , 0           , 0
-0.1438029  , 0.147664875 , -9.784182   , 0.000675683434, 0.000351760245, 0.000219649664, -0.0139396973, -0.0149726579, 0.000148740932, 921.067444  , 32.04182    , 797.1224    , 3.52        , 3           , 255         , 0           , 0
-0.142775849, 0.142902568 , -9.790622   , 0.0004940767, 1.88151025E-05, -0.000149920888, -0.0139347333, -0.01497249 , 0.00014723913, 921.0874    , 32.0384979  , 797.123     , 3.53        , 3           , 255         , 0           , 0
-0.14705357 , 0.14694877  , -9.798462   , 0.000471472275, -0.0002396786, 0.0003822028, -0.0139300777, -0.0149748325, 0.000151094515, 921.0874    , 32.0384979  , 797.1236    , 3.54        , 3           , 255         , 0           , 0
-0.146997333, 0.150515884 , -9.797657   , 0.000228521472, -1.685822E-05, 0.000487466925, -0.0139278648, -0.014974934, 0.000155971487, 921.0874    , 32.0384979  , 797.1242    , 3.55        , 3           , 255         , 0           , 0
-0.143304661, 0.147145629 , -9.793268   , 0.000170611718, 5.95319434E-05, -0.000110297828, -0.0139261419, -0.0149743538, 0.000154860245, 921.0874    , 32.0384979  , 797.1248    , 3.56        , 3           , 255         , 0           , 0
-0.136624023, 0.1469223   , -9.790239   , 0.0005825049, -0.000199173344, 0.000411977526, -0.0139203789, -0.0149762882, 0.0001590077, 921.0874    , 32.0384979  , 797.1254    , 3.57        , 3           , 255         , 0           , 0
-0.140351966, 0.14204368  , -9.78775    , 0.00056431134, -0.000201275747, -0.00028720015, -0.0139146941, -0.01497834 , 0.000156163733, 921.0874    , 32.0384979  , 797.126038  , 3.58        , 3           , 255         , 0           , 0
-0.1379622  , 0.149856657 , -9.789673   , 0.000385917141, -0.00015397463, -0.000232506354, -0.0139107993, -0.0149799129, 0.000153860135, 921.0874    , 32.0384979  , 797.126648  , 3.59        , 3           , 255         , 0           , 0
-0.141766027, 0.142635569 , -9.795734   , 8.347392E-05, 4.617963E-05, 2.79871674E-05, -0.0139099695, -0.0149794463, 0.000154133581, 921.0874    , 32.0384979  , 797.127258  , 3.6         , 3           , 255         , 0           , 0
-0.1431865  , 0.152467519 , -9.804724   , 0.000821120862, -0.000142306671, -0.000142793171, -0.0139209963, -0.0149734849, 0.000153013811, 921.0874    , 32.0384979  , 797.147156  , 3.61        , 3           , 255         , 0           , 0
-0.145117491, 0.1541547   , -9.803563   , 0.0011730101, 0.0002478024, -0.000464948534, -0.0139091965, -0.0149710737, 0.000148329884, 921.0874    , 32.0384979  , 797.1479    , 3.62        , 3           , 255         , 0           , 0
-0.142145917, 0.151802421 , -9.797443   , 0.0001232829, -0.000415425515, 0.000401189172, -0.0139080239, -0.01497517 , 0.000152399516, 921.1889    , 32.03992    , 797.1486    , 3.63        , 3           , 255         , 0           , 0
-0.142806172, 0.1481338   , -9.79447651 , 0.000461985241, -7.69090839E-05, 0.0008976644, -0.0139035387, -0.014975816, 0.000161386764, 921.1889    , 32.03992    , 797.149353  , 3.64        , 3           , 255         , 0           , 0
-0.140161663, 0.144750223 , -9.793021   , 0.000672542 , -0.0003197349, 0.000280613225, -0.0138968574, -0.0149789732, 0.000164237324, 921.1889    , 32.03992    , 797.1501    , 3.65        , 3           , 255         , 0           , 0
-0.1351467  , 0.14908734  , -9.793787   , 0.000313483644, 0.000290435448, 6.130741E-05, -0.0138937309, -0.0149760609, 0.000164810044, 921.1889    , 32.03992    , 797.1508    , 3.66        , 3           , 255         , 0           , 0
-0.1345356  , 0.141397536 , -9.796053   , 0.000666186563, 0.000234437379, -0.0004983651, -0.0138869938, -0.0149737857, 0.000159793883, 921.1889    , 32.03992    , 797.15155   , 3.67        , 3           , 255         , 0           , 0
-0.147701323, 0.150067285 , -9.79678249 , 0.00117001776, 2.45037372E-05, -0.000768457656, -0.013875179, -0.01497365 , 0.00015210596, 921.1889    , 32.03992    , 797.1523    , 3.68        , 3           , 255         , 0           , 0
-0.142714709, 0.14117001  , -9.78875    , 0.000390040921, 3.78435361E-05, 0.000565218157, -0.0138713624, -0.0149731915, 0.000157752831, 921.1889    , 32.03992    , 797.153     , 3.69        , 3           , 255         , 0           , 0
-0.143883   , 0.1433405   , -9.787256   , 0.0003054897, -0.000303398585, 0.0004953569, -0.0138683822, -0.0149761569, 0.00016274846, 921.1889    , 32.03992    , 797.153748  , 3.7         , 3           , 255         , 0           , 0
-0.145607322, 0.149838373 , -9.784376   , 0.0009712962, 0.000146627222, -0.000334217184, -0.013873646, -0.0149681894, 0.0001596109, 921.1889    , 32.03992    , 797.0257    , 3.71        , 3           , 255         , 0           , 0
-0.138706   , 0.144170567 , -9.790759   , 0.00039483665, -0.000290355936, -0.0003608639, -0.0138696451, -0.0149711408, 0.000156042574, 921.1889    , 32.03992    , 797.025635  , 3.72        , 3           , 255         , 0           , 0
-0.1418618  , 0.137790963 , -9.79019    , 0.00058114517, -0.000393960334, -8.123809E-05, -0.0138638206, -0.0149750924, 0.000155284841, 921.091553  , 32.04067    , 797.0256    , 3.73        , 3           , 255         , 0           , 0
-0.14775376 , 0.151107475 , -9.787732   , 0.0006836329, 5.12951519E-05, -0.0005641129, -0.0138569018, -0.0149746574, 0.00014963666, 921.091553  , 32.04067    , 797.0255    , 3.74        , 3           , 255         , 0           , 0
-0.1391439  , 0.153118923 , -9.785891   , 0.000609508657, -0.000636420154, -0.0002952013, -0.0138507625, -0.0149810622, 0.000146772858, 921.091553  , 32.04067    , 797.025452  , 3.75        , 3           , 255         , 0           , 0
-0.142447352, 0.157846868 , -9.7905     , 0.000487199344, -0.000377348682, 0.000158385388, -0.0138459159, -0.0149848135, 0.000148408944, 921.091553  , 32.04067    , 797.0254    , 3.76        , 3           , 255         , 0           , 0
-0.146940529, 0.140669942 , -9.791415   , 0.000614654331, 5.98953338E-05, -0.000204477, -0.0138397394, -0.0149842426, 0.000146355931, 921.091553  , 32.04067    , 797.0253    , 3.77        , 3           , 255         , 0           , 0
-0.1545625  , 0.142073289 , -9.799086   , 0.000631179544, -0.000165988866, -0.00115508807, -0.0138332546, -0.0149860643, 0.0001348281, 921.091553  , 32.04067    , 797.025269  , 3.78        , 3           , 255         , 0           , 0
-0.143845439, 0.147367015 , -9.801461   , 0.000717202958, -0.000390695815, 8.550813E-05, -0.0138260983, -0.0149899581, 0.000135737209, 921.091553  , 32.04067    , 797.0252    , 3.79        , 3           , 255         , 0           , 0
-0.140972242, 0.146173909 , -9.789822   , 0.0006058183, -0.000182676886, -3.24946159E-05, -0.0138200354, -0.0149917891, 0.000135437527, 921.091553  , 32.04067    , 797.025146  , 3.8         , 3           , 255         , 0           , 0
-0.1315665  , 0.15313141  , -9.788492   , 0.000756032357, -0.0001289376, 0.000225044729, -0.0138321938, -0.0149887195, 0.000138000833, 921.091553  , 32.04067    , 797.05365   , 3.81        , 3           , 255         , 0           , 0
-0.1408596  , 0.142456964 , -9.790014   , 0.000349849463, 9.340636E-05, -0.000369293382, -0.01382864 , -0.0149878366, 0.000134295 , 921.091553  , 32.04067    , 797.0538    , 3.82        , 3           , 255         , 0           , 0
-0.141522139, 0.149471492 , -9.79364    , 0.0004981048, -0.0001696524, -0.000311690441, -0.0138236117, -0.0149895791, 0.0001312016, 921.054     , 32.0369377  , 797.0539    , 3.83        , 3           , 255         , 0           , 0
-0.137402609, 0.152788624 , -9.795893   , 0.00110238278, -0.000567296753, -0.00013816345, -0.01381257 , -0.0149952676, 0.00012989837, 921.054     , 32.0369377  , 797.054     , 3.84        , 3           , 255         , 0           , 0
-0.135509655, 0.154781058 , -9.796766   , 0.000839615 , -0.000287374482, -0.000196212466, -0.0138041452, -0.0149981687, 0.000127975945, 921.054     , 32.0369377  , 797.054138  , 3.85        , 3           , 255         , 0           , 0
-0.1467807  , 0.1465691   , -9.785886   , 0.000715988339, -0.000341181061, -9.949607E-05, -0.0137969712, -0.0150015932, 0.000127028077, 921.054     , 32.0369377  , 797.05426   , 3.86        , 3           , 255         , 0           , 0
-0.142470151, 0.152071923 , -9.793205   , 0.0007111569, -0.0005331709, 0.000275136379, -0.0137899024, -0.0150068859, 0.000129852968, 921.054     , 32.0369377  , 797.0544    , 3.87        , 3           , 255         , 0           , 0
-0.138036743, 0.1558371   , -9.796238   , 4.05358151E-05, -0.0003255193, -0.000636898039, -0.0137894023, -0.0150102284, 0.000123528924, 921.054     , 32.0369377  , 797.0545    , 3.88        , 3           , 255         , 0           , 0
-0.1434463  , 0.149868175 , -9.797463   , 0.000131897279, 1.50203705E-05, -0.0006613252, -0.0137879848, -0.01501017 , 0.000116913652, 921.054     , 32.0369377  , 797.0546    , 3.89        , 3           , 255         , 0           , 0
-0.143631428, 0.144518763 , -9.790561   , 0.000684516737, 2.95937643E-05, -0.0006297149, -0.0137810456, -0.0150099639, 0.000110612484, 921.054     , 32.0369377  , 797.054749  , 3.9         , 3           , 255         , 0           , 0
-0.143977359, 0.1412606   , -9.788188   , 0.000890282332, -5.62364E-05, -0.00024937166, -0.0137946708, -0.0150003275, 0.000108465 , 921.054     , 32.0369377  , 797.132446  , 3.91        , 3           , 255         , 0           , 0
-0.144198269, 0.147854656 , -9.786186   , 0.000702093763, -0.000241168484, -0.000168498489, -0.0137876254, -0.015002762, 0.000106813284, 921.054     , 32.0369377  , 797.133057  , 3.92        , 3           , 255         , 0           , 0
-0.137158543, 0.144985527 , -9.788737   , 0.000259358319, -0.0002833855, 5.975105E-05, -0.0137850409, -0.0150055876, 0.000107449865, 921.1495    , 32.03653    , 797.133667  , 3.93        , 3           , 255         , 0           , 0
-0.134483144, 0.151585147 , -9.788098   , 0.0009043876, -6.08986E-05, -0.000245291681, -0.0137759605, -0.01500623 , 0.000105005347, 921.1495    , 32.03653    , 797.1343    , 3.94        , 3           , 255         , 0           , 0
-0.141509548, 0.14836441  , -9.788737   , 9.60269244E-05, -0.000191117811, 4.243599E-05, -0.0137750069, -0.0150081357, 0.000105456027, 921.1495    , 32.03653    , 797.1349    , 3.95        , 3           , 255         , 0           , 0
-0.138880551, 0.159208313 , -9.7911005  , -0.0002001503, -0.000731916749, 7.044431E-05, -0.01377702 , -0.0150154429, 0.0001062613, 921.1495    , 32.03653    , 797.1355    , 3.96        , 3           , 255         , 0           , 0
-0.130830839, 0.155811891 , -9.798745   , 0.0004738515, -0.0005546381, 6.984156E-05, -0.0137722921, -0.01502098 , 0.000107036118, 921.1495    , 32.03653    , 797.1361    , 3.97        , 3           , 255         , 0           , 0
-0.15197812 , 0.146964371 , -9.79044151 , 0.0006337357, -0.00062315457, 0.0003565512, -0.0137660122, -0.0150271617, 0.000110687419, 921.1495    , 32.03653    , 797.1368    , 3.98        , 3           , 255         , 0           , 0
-0.147457212, 0.153969854 , -9.787578   , 0.000275533122, 0.000400248333, -0.0006055453, -0.0137631651, -0.0150232418, 0.00010457691, 921.1495    , 32.03653    , 797.137451  , 3.99        , 3           , 255         , 0           , 0
-0.141215086, 0.155093387 , -9.788761   , 0.000249635254, 6.28989656E-05, 0.000469948776, -0.01376074 , -0.0150225479, 0.000109267719, 921.1495    , 32.03653    , 797.1381    , 4           , 3           , 0           , 9.014236    , 400
-0.140597314, 0.154179737 , -9.787148   , 0.0007308466, 0.0001017201, 0.000686707732, -0.0137831438, -0.0150105059, 0.000116565177, 921.1495    , 32.03653    , 797.068359  , 4.01        , 3           , 1           , 0           , 0
-0.144311145, 0.152458519 , -9.800985   , 0.000167473743, 0.000400370976, -5.496606E-05, -0.0137814591, -0.01500651 , 0.000115960349, 921.1495    , 32.03653    , 797.068542  , 4.02        , 3           , 2           , 0           , 0
-0.14108336 , 0.142698914 , -9.790255   , 3.15407524E-05, 0.00015434355, 0.000245398172, -0.01378118 , -0.0150049338, 0.000118393036, 921.1314    , 32.03999    , 797.0687    , 4.03        , 3           , 3           , 0           , 0
-0.143940628, 0.152780965 , -9.786382   , 9.58252349E-05, -0.000311575481, 2.53632315E-05, -0.013780226, -0.0150080444, 0.000118689612, 921.1314    , 32.03999    , 797.0689    , 4.04        , 3           , 4           , 0           , 0
-0.146473557, 0.152761742 , -9.795926   , 0.0005112099, -0.000361685932, 0.000344599044, -0.0137751661, -0.0150116133, 0.0001221854, 921.1314    , 32.03999    , 797.069153  , 4.05        , 3           , 5           , 0           , 0
-0.137130409, 0.149657041 , -9.791589   , 0.000605453155, -0.000232763123, -0.000448293868, -0.0137690464, -0.015014003, 0.000117734569, 921.1314    , 32.03999    , 797.0694    , 4.06        , 3           , 6           , 0           , 0
-0.141137913, 0.145054936 , -9.796884   , 0.0009422448, -6.02148357E-05, 0.00018800894, -0.0137596531, -0.0150145814, 0.000119622928, 921.1314    , 32.03999    , 797.069641  , 4.07        , 3           , 7           , 0           , 0
-0.149549484, 0.144519418 , -9.793445   , 0.001149854 , 2.9926945E-05, -0.00036377582, -0.0137480991, -0.0150143318, 0.000115981078, 921.1314    , 32.03999    , 797.0699    , 4.08        , 3           , 8           , 5           , 5
-0.144861668, 0.1458238   , -9.784201   , 0.000685686246, -1.80072966E-05, -1.95600733E-05, -0.013741239, -0.0150145143, 0.000115787952, 921.1314    , 32.03999    , 797.0701    , 4.09        , 3           , 9           , 5           , 0.1
-0.1448051  , 0.142813116 , -9.784393   , 0.000402797246, -0.000241703354, 0.000456661073, -0.013737279, -0.0150168678, 0.000120387747, 921.1314    , 32.03999    , 797.0704    , 4.1         , 3           , 10          , 0.1         , 0.1
-0.145209581, 0.148160115 , -9.781668   , 0.000259205233, -0.00026674557, 0.000159322051, -0.01375683 , -0.0150135495, 0.000122349651, 921.1314    , 32.03999    , 797.0357    , 4.11        , 3           , 11          , 0.00660170056, 0.006601697
-0.137554452, 0.151121527 , -9.789931   , 0.00019134488, 0.000290711876, 0.000143439669, -0.0137549378, -0.0150106223, 0.000123744059, 921.1314    , 32.03999    , 797.0357    , 4.12        , 3           , 12          , 0.174648076 , 0
-0.135528117, 0.154560536 , -9.789223   , 0.000156677852, -0.000365614018, 0.000230799254, -0.0137534076, -0.0150142461, 0.000126102343, 921.0962    , 32.04006    , 797.0357    , 4.13        , 3           , 13          , 0           , 0
-0.1404373  , 0.151117772 , -9.798155   , 0.000516521744, -0.0004209993, -0.0007592903, -0.0137481308, -0.0150185619, 0.000118567375, 921.0962    , 32.04006    , 797.0357    , 4.14        , 3           , 14          , -0.0010246638, -0.000600440835
-0.1472071  , 0.14715974  , -9.792851   , 0.000574046455, -0.0004045447, -0.00029555228, -0.0137423463, -0.0150226466, 0.000115667477, 921.0962    , 32.04006    , 797.0357    , 4.15        , 3           , 15          , 0           , -0.000139063835
-0.144837648, 0.142400339 , -9.782591   , 0.0004980129, -0.000142008881, -0.000354406337, -0.0137373125, -0.0150241153, 0.000112142952, 921.0962    , 32.04006    , 797.0357    , 4.16        , 3           , 16          , 0           , 1.401298E-45
-0.142168015, 0.145639256 , -9.792402   , 0.000683496 , -0.000381168735, 0.0005042633, -0.0137305548, -0.0150278565, 0.0001172379, 921.0962    , 32.04006    , 797.0357    , 4.17        , 3           , 20          , 0           , 0
-0.142035276, 0.145191178 , -9.791418   , 0.000688127 , -3.65473679E-05, 8.17329346E-05, -0.0137236873, -0.01502821 , 0.000118060256, 921.0962    , 32.04006    , 797.0357    , 4.18        , 3           , 21          , 0           , 0
-0.136140585, 0.145417556 , -9.79043    , 0.00144873094, 0.000216169283, 0.0004447465, -0.0137092676, -0.01502599 , 0.000122478043, 921.0962    , 32.04006    , 797.0357    , 4.19        , 3           , 22          , 0           , 0
-0.14827016 , 0.142814    , -9.79505    , 0.0006275219, -6.210798E-05, 0.0002609705, -0.0137030333, -0.015026575, 0.000125096252, 921.0962    , 32.04006    , 797.0357    , 4.2         , 3           , 40          , 0           , 0
-0.145071536, 0.1490587   , -9.793354   , 0.0003775856, -0.0001691471, 0.000392337417, -0.0137214791, -0.0150192827, 0.000129375621, 921.0962    , 32.04006    , 797.055969  , 4.21        , 3           , 41          , 0           , 0
-0.150373653, 0.154281452 , -9.786771   , 0.00046490645, 8.860591E-05, 0.0001441536, -0.0137168514, -0.0150183765, 0.000130805 , 921.0962    , 32.04006    , 797.0561    , 4.22        , 3           , 42          , 0           , 0
-0.143409222, 0.155946717 , -9.788922   , 0.000658131146, -0.000243900635, -0.000144432386, -0.0137102492, -0.0150208352, 0.000129394131, 921.1257    , 32.0387     , 797.0562    , 4.23        , 3           , 255         , 0           , 0
-0.14240773 , 0.159201175 , -9.78927    , 0.0004974226, -0.0006939643, -0.000166276965, -0.0137052527, -0.0150277959, 0.0001278265, 921.1257    , 32.0387     , 797.056335  , 4.24        , 3           , 255         , 0           , 0
-0.142654136, 0.155523509 , -9.799366   , 0.0009494337, -2.59199878E-05, -7.665281E-05, -0.0136957457, -0.015028066, 0.000127063526, 921.1257    , 32.0387     , 797.0565    , 4.25        , 3           , 255         , 0           , 0
-0.150442377, 0.157172531 , -9.791522   , 0.000458279275, 0.000341902 , 0.000130306362, -0.0136911822, -0.01502463 , 0.000128319793, 921.1257    , 32.0387     , 797.0567    , 4.26        , 3           , 255         , 0           , 0
-0.14328    , 0.156860635 , -9.781599   , 0.000588558265, -4.43092431E-05, -0.0009183502, -0.0136851612, -0.0150252  , 0.000119142409, 921.1257    , 32.0387     , 797.0569    , 4.27        , 3           , 255         , 0           , 0
-0.147702157, 0.149736136 , -9.789649   , 0.0007124654, -0.000232877326, -0.0002516467, -0.013678   , -0.0150275631, 0.000116657815, 921.1257    , 32.0387     , 797.057068  , 4.28        , 3           , 255         , 0           , 0
-0.143435434, 0.146105573 , -9.793717   , 0.000920482446, -0.0005664531, -2.72717589E-05, -0.0136687914, -0.01503323 , 0.000116462557, 921.1257    , 32.0387     , 797.057251  , 4.29        , 3           , 255         , 0           , 0
-0.13542    , 0.14947252  , -9.791481   , 0.000479662442, -0.0002001499, -0.000120192039, -0.0136639774, -0.0150352484, 0.000115287992, 921.1257    , 32.0387     , 797.057434  , 4.3         , 3           , 255         , 0           , 0
-0.140906453, 0.1515697   , -9.792356   , 0.00141373556, -0.000143320358, 0.000172209213, -0.01368182 , -0.0150320977, 0.000117509975, 921.1257    , 32.0387     , 797.0326    , 4.31        , 3           , 255         , 0           , 0
-0.140447825, 0.139853612 , -9.789316   , 0.000699523138, -0.000650804, 0.000459535775, -0.0136748953, -0.0150385415, 0.000122194338, 921.1257    , 32.0387     , 797.0326    , 4.32        , 3           , 255         , 0           , 0
-0.139644474, 0.140185282 , -9.787607   , 0.00035053672, -0.0005423977, -6.3513E-05 , -0.0136713814, -0.0150439721, 0.000121633377, 921.154541  , 32.0391731  , 797.0326    , 4.33        , 3           , 255         , 0           , 0
-0.136181116, 0.1401064   , -9.792707   , 0.000377576565, 4.21446748E-06, 6.279023E-05, -0.0136676151, -0.0150439208, 0.0001222607, 921.154541  , 32.0391731  , 797.0326    , 4.34        , 3           , 255         , 0           , 0
-0.149838239, 0.145961016 , -9.789688   , 0.0003409441, -0.000294079538, 0.000143992685, -0.0136642288, -0.0150468424, 0.000123740829, 921.154541  , 32.0391731  , 797.0326    , 4.35        , 3           , 255         , 0           , 0
-0.133003071, 0.1498645   , -9.791208   , 0.00145594729, -0.0006073492, 0.0005167102, -0.0136497477, -0.0150528476, 0.00012899084, 921.154541  , 32.0391731  , 797.0326    , 4.36        , 3           , 255         , 0           , 0
-0.130987138, 0.14337191  , -9.796448   , 0.00121719087, -0.000342710875, -0.0005064319, -0.0136375008, -0.0150563419, 0.00012397331, 921.154541  , 32.0391731  , 797.0326    , 4.37        , 3           , 255         , 0           , 0
-0.141149923, 0.144605935 , -9.786777   , 0.0008657992, -1.66150276E-05, -0.000537995249, -0.0136287622, -0.0150565831, 0.00011859565, 921.154541  , 32.0391731  , 797.0326    , 4.38        , 3           , 255         , 0           , 0
-0.135209471, 0.145045355 , -9.789801   , 0.000953662442, 4.48246137E-05, -0.000142769335, -0.0136192041, -0.0150561528, 0.000117161857, 921.154541  , 32.0391731  , 797.0326    , 4.39        , 3           , 255         , 0           , 0
-0.133953869, 0.142693967 , -9.793599   , 0.000478011847, 3.03438865E-05, -0.0001557254, -0.0136144  , -0.0150558706, 0.000115600473, 921.154541  , 32.0391731  , 797.0326    , 4.4         , 3           , 255         , 0           , 0
-0.140097588, 0.151705667 , -9.803507   , 0.0007354639, 0.000217313413, 0.000280407723, -0.0136241326, -0.0150387445, 0.000118631229, 921.154541  , 32.0391731  , 796.9705    , 4.41        , 3           , 255         , 0           , 0
-0.143049777, 0.1544712   , -9.794165   , 0.0003579856, -0.000422346464, -0.000521940936, -0.0136204744, -0.0150430379, 0.000113469374, 921.154541  , 32.0391731  , 796.970154  , 4.42        , 3           , 255         , 0           , 0
-0.139162391, 0.1471333   , -9.794413   , 0.000349024776, 3.814377E-05, -1.795942E-05, -0.0136169819, -0.01504266 , 0.000113284594, 921.1148    , 32.04033    , 796.9698    , 4.43        , 3           , 255         , 0           , 0
-0.147579819, 0.142310709 , -9.794086   , 0.000153039233, -2.02005613E-05, -0.000209863458, -0.01361542 , -0.01504289 , 0.000111188732, 921.1148    , 32.04033    , 796.9694    , 4.44        , 3           , 255         , 0           , 0
-0.1484428  , 0.143842965 , -9.789511   , 0.000275780738, 0.000173004344, -0.0006303011, -0.0136125665, -0.0150412461, 0.000104862193, 921.1148    , 32.04033    , 796.969055  , 4.45        , 3           , 255         , 0           , 0
-0.144931346, 0.145740226 , -9.797374   , 0.0005352249, 6.15499448E-06, -6.220507E-07, -0.0136072151, -0.0150411883, 0.000104855135, 921.1148    , 32.04033    , 796.9687    , 4.46        , 3           , 255         , 0           , 0
-0.140162662, 0.148408875 , -9.800317   , 0.000434176822, 9.092019E-05, 0.0004651012, -0.013602945, -0.0150402151, 0.000109493776, 921.1148    , 32.04033    , 796.9683    , 4.47        , 3           , 255         , 0           , 0
-0.14354074 , 0.146190464 , -9.798716   , 0.00069510343, -1.03108468E-05, -0.000173560591, -0.0135959676, -0.0150403418, 0.000107759573, 921.1148    , 32.04033    , 796.967957  , 4.48        , 3           , 255         , 0           , 0
-0.134510145, 0.140855387 , -9.785835   , 0.000915692537, 0.000183761673, -0.000444779464, -0.0135867447, -0.0150385629, 0.000103286817, 921.1148    , 32.04033    , 796.9676    , 4.49        , 3           , 255         , 0           , 0
-0.141992435, 0.150574714 , -9.788193   , 0.0003630559, -0.0001947839, -9.135743E-05, -0.0135831013, -0.0150405224, 0.00010239971, 921.1148    , 32.04033    , 796.9672    , 4.5         , 3           , 255         , 0           , 0
-0.139021367, 0.158790022 , -9.795504   , 0.0007246566, 5.81402E-05 , 0.000212368323, -0.0135929063, -0.0150337247, 0.000104771352, 921.1148    , 32.04033    , 796.9711    , 4.51        , 3           , 255         , 0           , 0
-0.148982257, 0.1494887   , -9.796223   , 0.000675268355, 4.66656638E-05, 0.000418541837, -0.0135862166, -0.0150332041, 0.000108950408, 921.1148    , 32.04033    , 796.9708    , 4.52        , 3           , 255         , 0           , 0
-0.14482452 , 0.148496866 , -9.791275   , 0.0008893636, -0.000560697459, 0.000199401664, -0.0135773541, -0.01503878 , 0.000111020563, 921.067932  , 32.03992    , 796.9705    , 4.53        , 3           , 255         , 0           , 0
-0.14424023 , 0.1566659   , -9.786596   , -5.323207E-05, -0.000217519759, 0.000210665588, -0.0135779185, -0.0150409266, 0.000113156741, 921.067932  , 32.03992    , 796.9702    , 4.54        , 3           , 255         , 0           , 0
-0.142668217, 0.152920946 , -9.790472   , -0.000212895684, -0.000205651915, 3.799505E-08, -0.0135800475, -0.015042983, 0.000113185051, 921.067932  , 32.03992    , 796.9699    , 4.55        , 3           , 255         , 0           , 0
-0.145185381, 0.148630679 , -9.801901   , 0.00045499875, -9.13958647E-05, 0.000126465573, -0.0135755166, -0.0150438789, 0.000114462106, 921.067932  , 32.03992    , 796.9696    , 4.56        , 3           , 255         , 0           , 0
-0.136818916, 0.149345323 , -9.793467   , 0.0007986433, -0.000342010753, 0.001065178 , -0.0135676917, -0.0150471563, 0.000125160266, 921.067932  , 32.03992    , 796.9693    , 4.57        , 3           , 255         , 0           , 0
-0.131644636, 0.150626257 , -9.790467   , 6.28454145E-05, -0.0004887096, 0.0007818612, -0.0135671813, -0.0150519349, 0.000133045149, 921.067932  , 32.03992    , 796.969     , 4.58        , 3           , 255         , 0           , 0
-0.145651564, 0.1508849   , -9.78705    , 0.000141748 , 0.000192279113, -0.000158734256, -0.01356574 , -0.0150500331, 0.00013143172, 921.067932  , 32.03992    , 796.9687    , 4.59        , 3           , 255         , 0           , 0
-0.146533042, 0.1430473   , -9.799123   , 0.00052416  , 4.990975E-05, -0.00012881709, -0.0135604786, -0.0150495525, 0.000130136788, 921.067932  , 32.03992    , 796.9684    , 4.6         , 3           , 255         , 0           , 0
-0.13442494 , 0.147344157 , -9.795372   , 0.00102969853, 6.520044E-05, 0.0008843005, -0.013574129, -0.01504242 , 0.000139329117, 921.067932  , 32.03992    , 797.038269  , 4.61        , 3           , 255         , 0           , 0
-0.143593878, 0.144720271 , -9.7979     , 0.0005457875, -0.000143343408, 0.000112274218, -0.0135686873, -0.0150438352, 0.000140471311, 921.067932  , 32.03992    , 797.0384    , 4.62        , 3           , 255         , 0           , 0
-0.149937063, 0.138130143 , -9.77837    , 0.000443798781, -0.000278518826, 0.000156784954, -0.0135642756, -0.0150466  , 0.000142076955, 921.114     , 32.04121    , 797.0385    , 4.63        , 3           , 255         , 0           , 0
-0.141788214, 0.145929977 , -9.789095   , 0.000742709846, -0.0003461202, 0.000154645619, -0.0135568716, -0.01505004 , 0.000143670346, 921.114     , 32.04121    , 797.038635  , 4.64        , 3           , 255         , 0           , 0
-0.141659826, 0.143553287 , -9.790216   , 0.000808853132, -4.30677319E-05, -0.000333571574, -0.0135487337, -0.0150505193, 0.000140340489, 921.114     , 32.04121    , 797.038757  , 4.65        , 3           , 255         , 0           , 0
-0.145549387, 0.1466381   , -9.79157448 , 0.0008378925, 2.46462878E-06, 1.66159589E-05, -0.0135403583, -0.0150504913, 0.000140506323, 921.114     , 32.04121    , 797.0389    , 4.66        , 3           , 255         , 0           , 0
