Acc X       , Acc Y       , Acc Z       , Gyro X      , Gyro Y      , Gyro Z      , Euler X     , Euler Y     , Euler Z     , Pres X      , Pres Y      , Pres Z      , Time        , Status      , LowRate X   , LowRate Y   , LowRate Z    
-0.135497257, 9.786427    , 0.1108429   , 0           , 0           , 0           , -1.58212209 , -0.0138436547, 2.18614054  , 918.6387    , 30.982399   , 819.290833  , 0           , 2           , 0           , 5.058232    , 0
-0.135904923, 9.797953    , 0.108505204 , 0.00057401706, -5.9475773E-05, 0.000441389973, -1.58211637 , -0.0138396565, 2.186141    , 918.6387    , 30.982399   , 819.290833  , 0.01        , 7           , 1           , 0           , 0
-0.130502686, 9.792837    , 0.112383008 , 0.000217199267, -0.000105392915, -0.0004266825, -1.58211422 , -0.0138439192, 2.18614221  , 918.6387    , 30.982399   , 819.290833  , 0.02        , 7           , 2           , 0           , 0
-0.1303318  , 9.798723    , 0.107322216 , 0.00011159631, 0.000216754444, 0.0003800447, -1.582113   , -0.0138401035, 2.18614     , 918.6339    , 30.5376949  , 819.290833  , 0.03        , 7           , 3           , 0           , 0
-0.1309739  , 9.796001    , 0.110291123 , 0.000356680946, 0.0002124082, 0.0004687808, -1.58210933 , -0.0138354246, 2.18613768  , 918.6339    , 30.5376949  , 819.290833  , 0.04        , 7           , 4           , 0           , 0
-0.132550672, 9.79951     , 0.1197228   , 0.000470739527, 0.000132412417, 0.0005089978, -1.58210468 , -0.0138303572, 2.18613648  , 918.6339    , 30.5376949  , 819.290833  , 0.05        , 7           , 5           , 0           , 0
-0.135760337, 9.79188251  , 0.113323256 , 0.0007176711, -9.36769648E-05, 0.0005852598, -1.58209753 , -0.0138245458, 2.1861372   , 918.6339    , 30.5376949  , 819.290833  , 0.06        , 7           , 6           , 0           , 0
-0.149794221, 9.78945351  , 0.112870321 , 0.0005126315, -0.0004067459, -0.0002263883, -1.5820924  , -0.0138267512, 2.18614125  , 918.6339    , 30.5376949  , 819.290833  , 0.07        , 7           , 7           , 0           , 0
-0.133151561, 9.788182    , 0.115297183 , 0.000243830786, 7.386628E-05, 0.0006304187, -1.58209    , -0.0138204321, 2.18614054  , 918.6339    , 30.5376949  , 819.290833  , 0.08        , 7           , 8           , 5           , 5
-0.136152074, 9.791329    , 0.1201794   , 0.00022558  , 0.0003895528, 0.0009117707, -1.58208764 , -0.0138112819, 2.18613648  , 918.6339    , 30.5376949  , 819.290833  , 0.09        , 7           , 9           , 5           , 0.1
-0.133296937, 9.794236    , 0.11768844  , 0.000324186927, 0.000231252052, -0.000308831484, -1.58208442 , -0.0138144419, 2.186134    , 918.6339    , 30.5376949  , 819.290833  , 0.1         , 7           , 10          , 0.1         , 0.1
-0.135331914, 9.788202    , 0.113035843 , 0.0005046186, 0.000252007972, 0.000229143014, -1.58209062 , -0.0138097918, 2.18613172  , 918.6339    , 30.5376949  , 819.333252  , 0.11        , 7           , 11          , 0.0109544508, 0.0109544508
-0.133293554, 9.79997     , 0.104991063 , 0.000423264049, 3.173371E-05, 5.45533258E-05, -1.58208644 , -0.0138092553, 2.18613148  , 918.6339    , 30.5376949  , 819.333252  , 0.12        , 7           , 12          , 0.0346410163, 0
-0.13272965 , 9.799965    , 0.1075352   , 0.0004922555, 0.000111226516, -4.73526161E-05, -1.58208144 , -0.0138097024, 2.18613029  , 918.603149  , 30.5769081  , 819.333252  , 0.13        , 7           , 13          , 0           , 0
-0.13427946 , 9.797132    , 0.119257674 , 4.49716463E-05, -0.000181686948, -4.59195726E-05, -1.58208108 , -0.0138101494, 2.18613219  , 918.603149  , 30.5769081  , 819.333252  , 0.14        , 7           , 14          , -0.00055628136, 0.000539466157
-0.147870362, 9.793366    , 0.109789193 , 5.52987331E-05, 0.000559610664, -0.000455259316, -1.58208036 , -0.01381477 , 2.18612671  , 918.603149  , 30.5769081  , 819.333252  , 0.15        , 7           , 15          , 0           , 0.0002823625
-0.14011775 , 9.800618    , 0.111642852 , 0.000175237772, -0.00010791223, -0.0005349723, -1.58207858 , -0.0138201043, 2.186128    , 918.603149  , 30.5769081  , 819.333252  , 0.16        , 7           , 16          , 0           , 1.401298E-45
-0.129866153, 9.795489    , 0.107147135 , 0.0003599067, -9.678432E-05, -0.000651113631, -1.582075   , -0.0138265723, 2.18612885  , 918.603149  , 30.5769081  , 819.3333    , 0.17        , 7           , 20          , 0           , 0
-0.130894154, 9.789361    , 0.103792474 , 0.000332915923, -5.47885429E-06, -0.000155603091, -1.58207166 , -0.0138281221, 2.186129    , 918.603149  , 30.5769081  , 819.3334    , 0.18        , 7           , 21          , 0           , 0
-0.137518525, 9.789992    , 0.101023279 , 0.000410610373, -0.0001039331, -0.0003367135, -1.58206761 , -0.0138314907, 2.18613     , 918.603149  , 30.5769081  , 819.333435  , 0.19        , 7           , 22          , 0           , 0
-0.132697538, 9.790474    , 0.103836462 , 4.93300031E-05, -3.180001E-05, -0.0008521631, -1.582067   , -0.0138400439, 2.18613052  , 918.603149  , 30.5769081  , 819.3335    , 0.2         , 7           , 40          , 0           , 0
-0.142616361, 9.788898    , 0.106440805 , 0.0001903573, -0.000386501255, -0.0001844404, -1.582057   , -0.01384234 , 2.18613434  , 918.603149  , 30.5769081  , 819.472534  , 0.21        , 7           , 41          , 0           , 0
-0.143661022, 9.80126     , 0.114588834 , 0.000134044356, 2.51784222E-05, 0.000159101619, -1.58205557 , -0.0138407  , 2.186134    , 918.603149  , 30.5769081  , 819.4726    , 0.22        , 7           , 42          , 1           , 0
-0.133067086, 9.786945    , 0.119177796 , 0.000418959069, -0.0001948716, -0.0005394084, -1.58205152 , -0.0138460351, 2.186136    , 918.6168    , 30.6011963  , 819.472656  , 0.23        , 7           , 255         , 0           , 0
-0.1320673  , 9.793747    , 0.103693008 , 6.264384E-05, 0.00038421416, -0.000373423216, -1.5820508  , -0.01384979 , 2.18613219  , 918.6168    , 30.6011963  , 819.4727    , 0.24        , 7           , 255         , 0           , 0
-0.126100391, 9.790949    , 0.110825852 , 0.000940955244, -0.000449563231, -0.000600500032, -1.5820415  , -0.0138557814, 2.18613672  , 918.6168    , 30.6011963  , 819.4728    , 0.25        , 7           , 255         , 0           , 0
-0.123828627, 9.787563    , 0.104347028 , 0.000469967 , -6.25842949E-05, -7.44022545E-05, -1.58203673 , -0.0138565265, 2.18613744  , 918.6168    , 30.6011963  , 819.472839  , 0.26        , 7           , 255         , 0           , 0
-0.127280086, 9.803553    , 0.109498538 , 0.000145960948, 0.00029182178, 4.97934234E-05, -1.58203518 , -0.0138561092, 2.18613458  , 918.6168    , 30.6011963  , 819.4729    , 0.27        , 7           , 255         , 0           , 0
-0.136444658, 9.801463    , 0.1088297   , 0.000605934067, -0.0001067681, 4.604456E-05, -1.58202922 , -0.0138556324, 2.18613577  , 918.6168    , 30.6011963  , 819.472961  , 0.28        , 7           , 255         , 0           , 0
-0.138459444, 9.800728    , 0.113274023 , 0.000202970958, -0.000407409476, -7.613674E-05, -1.5820272  , -0.0138563178, 2.18613958  , 918.6168    , 30.6011963  , 819.473     , 0.29        , 7           , 255         , 0           , 0
-0.138145387, 9.793558    , 0.111251667 , 0.000254973915, 0.000135842711, -0.000298875442, -1.58202457 , -0.0138592981, 2.18613839  , 918.6168    , 30.6011963  , 819.4731    , 0.3         , 7           , 255         , 0           , 0
-0.138629451, 9.797589    , 0.111632846 , 0.0003994709, 4.40913718E-05, -0.0007675772, -1.58202064 , -0.0138618322, 2.18613815  , 918.6168    , 30.6011963  , 819.478638  , 0.31        , 7           , 255         , 0           , 0
-0.138418078, 9.802969    , 0.107834414 , 0.000132930349, -0.000332095864, -0.0005942456, -1.58201921 , -0.0138677033, 2.18614149  , 918.6168    , 30.6011963  , 819.4787    , 0.32        , 7           , 255         , 0           , 0
-0.132808685, 9.794896    , 0.104756355 , 0.0004969659, 0.000159836723, 0.000435793248, -1.58201432 , -0.0138633819, 2.18613958  , 918.6763    , 30.61897    , 819.47876   , 0.33        , 7           , 255         , 0           , 0
-0.134262875, 9.796764    , 0.1259088   , 2.32508173E-05, 0.000154477078, -0.0002078377, -1.58201408 , -0.0138654383, 2.18613815  , 918.6763    , 30.61897    , 819.4788    , 0.34        , 7           , 255         , 0           , 0
-0.135973647, 9.793528    , 0.117545031 , 0.0004418621, -4.53181565E-05, -0.0002728712, -1.58200967 , -0.01386821 , 2.18613863  , 918.6763    , 30.61897    , 819.4789    , 0.35        , 7           , 255         , 0           , 0
-0.1391277  , 9.783579    , 0.118201241 , 0.000227939861, -2.94970232E-05, -0.000108657987, -1.58200741 , -0.0138692828, 2.186139    , 918.6763    , 30.61897    , 819.478943  , 0.36        , 7           , 255         , 0           , 0
-0.139329836, 9.793162    , 0.113279127 , 0.000501997652, 0.000379964 , -0.0007896778, -1.5820024  , -0.0138772111, 2.18613553  , 918.6763    , 30.61897    , 819.479     , 0.37        , 7           , 255         , 0           , 0
-0.139478549, 9.783744    , 0.119168662 , -9.07958E-05, 0.000122428231, -3.264603E-05, -1.58200336 , -0.0138775092, 2.18613434  , 918.6763    , 30.61897    , 819.479065  , 0.38        , 7           , 255         , 0           , 0
-0.133320972, 9.803976    , 0.117169835 , 0.000724889 , 0.0001615074, -0.0002296863, -1.58199608 , -0.0138798049, 2.18613267  , 918.6763    , 30.61897    , 819.4791    , 0.39        , 7           , 255         , 0           , 0
-0.132866576, 9.797247    , 0.126891077 , 0.000925442262, 4.8324815E-05, -0.000125761522, -1.5819869  , -0.0138810566, 2.18613219  , 918.6763    , 30.61897    , 819.4792    , 0.4         , 7           , 255         , 0           , 0
-0.1403369  , 9.790884    , 0.126599342 , 0.000687928754, -8.278107E-05, 0.000437733164, -1.58200073 , -0.0138784926, 2.18613315  , 918.6763    , 30.61897    , 819.345764  , 0.41        , 7           , 255         , 0           , 0
-0.137634113, 9.793345    , 0.115021847 , 0.000341655 , 0.000337421079, -0.000108494729, -1.58199728 , -0.0138796251, 2.18613     , 918.6763    , 30.61897    , 819.3458    , 0.42        , 7           , 255         , 0           , 0
-0.1470658  , 9.797264    , 0.112600945 , 8.976963E-05, 7.18071242E-05, -0.000390095258, -1.58199644 , -0.01388359 , 2.18612933  , 918.6866    , 30.6281967  , 819.3459    , 0.43        , 7           , 255         , 0           , 0
-0.141548216, 9.79192     , 0.110457823 , 0.000161500415, 0.0001482736, -0.000571061159, -1.58199477 , -0.0138894022, 2.186128    , 918.6866    , 30.6281967  , 819.345947  , 0.44        , 7           , 255         , 0           , 0
-0.140536219, 9.793624    , 0.11410065  , 0.000314850971, 4.22186E-06 , -0.000330080744, -1.58199155 , -0.0138926506, 2.186128    , 918.6866    , 30.6281967  , 819.346     , 0.45        , 7           , 255         , 0           , 0
-0.126518115, 9.790141    , 0.114652872 , 0.00050696783, 0.00031958957, 1.1940574E-05, -1.58198643 , -0.0138926208, 2.1861248   , 918.6866    , 30.6281967  , 819.346069  , 0.46        , 7           , 255         , 0           , 0
-0.125838548, 9.790948    , 0.111475512 , 0.000122964266, 5.971035E-05, -0.0002683387, -1.58198524 , -0.0138953626, 2.18612432  , 918.6866    , 30.6281967  , 819.3461    , 0.47        , 7           , 255         , 0           , 0
-0.1310631  , 9.794475    , 0.11153309  , 0.00016254303, 2.67631258E-05, -0.0008832773, -1.58198357 , -0.013904185, 2.186124    , 918.6866    , 30.6281967  , 819.3462    , 0.48        , 7           , 255         , 0           , 0
-0.136489511, 9.790383    , 0.118859038 , 0.0006044449, -4.19734279E-05, -6.282171E-05, -1.58197749 , -0.0139048109, 2.18612456  , 918.6866    , 30.6281967  , 819.346252  , 0.49        , 7           , 255         , 0           , 0
-0.135043487, 9.791851    , 0.10250739  , 0.000232045772, -0.000249861216, -0.000856049359, -1.58197522 , -0.0139133353, 2.18612719  , 918.6866    , 30.6281967  , 819.3463    , 0.5         , 7           , 255         , 0           , 0
-0.13337858 , 9.80052     , 0.108299792 , -9.671989E-05, -8.01312854E-05, -0.00102654577, -1.58199131 , -0.0139240948, 2.18612838  , 918.6866    , 30.6281967  , 819.2466    , 0.51        , 7           , 255         , 0           , 0
-0.137083143, 9.800543    , 0.113567486 , 6.251893E-05, -0.000243759365, -0.00054900907, -1.58199072 , -0.01392949 , 2.18613076  , 918.6866    , 30.6281967  , 819.246643  , 0.52        , 7           , 255         , 0           , 0
-0.134692   , 9.796481    , 0.110152796 , 0.0002970162, 0.000184057571, -0.000142531, -1.58198774 , -0.01393095 , 2.18612885  , 918.6143    , 30.6350479  , 819.2467    , 0.53        , 7           , 255         , 0           , 0
-0.134828478, 9.793959    , 0.107137822 , -8.73243E-05, 0.000284511363, -1.31986744E-05, -1.58198869 , -0.0139310695, 2.186126    , 918.6143    , 30.6350479  , 819.246765  , 0.54        , 7           , 255         , 0           , 0
-0.139515445, 9.79039     , 0.105377    , 4.030025E-05, 0.000112626643, -0.000904742163, -1.58198833 , -0.0139401006, 2.186125    , 918.6143    , 30.6350479  , 819.2468    , 0.55        , 7           , 255         , 0           , 0
-0.137631744, 9.788309    , 0.115104295 , 1.78877381E-05, -0.000277157262, -0.00055777 , -1.58198822 , -0.0139456736, 2.186128    , 918.6143    , 30.6350479  , 819.2469    , 0.56        , 7           , 255         , 0           , 0
-0.143062964, 9.795958    , 0.107459918 , 0.000575970567, -0.000342965242, -0.000706590945, -1.58198249 , -0.0139527675, 2.18613148  , 918.6143    , 30.6350479  , 819.246948  , 0.57        , 7           , 255         , 0           , 0
-0.1382877  , 9.797194    , 0.114474036 , 0.000159180549, 3.306358E-05, 0.0003558386, -1.581981   , -0.0139492806, 2.186131    , 918.6143    , 30.6350479  , 819.247     , 0.58        , 7           , 255         , 0           , 0
-0.136078611, 9.796378    , 0.105640933 , 0.0003218501, -0.000137075054, 0.00032683133, -1.58197773 , -0.013945912, 2.18613219  , 918.6143    , 30.6350479  , 819.2471    , 0.59        , 7           , 255         , 0           , 0
-0.143899783, 9.79139     , 0.114048719 , 0.0008859377, 3.76503449E-05, -0.000655100448, -1.5819689  , -0.0139524993, 2.186132    , 918.6143    , 30.6350479  , 819.247131  , 0.6         , 7           , 255         , 0           , 0
-0.13508521 , 9.79736     , 0.116677448 , 0.0006171087, 0.000245240342, -0.000100675286, -1.58196425 , -0.013957507, 2.18612957  , 918.6143    , 30.6350479  , 819.2933    , 0.61        , 7           , 255         , 0           , 0
-0.131569177, 9.799978    , 0.110783949 , 0.0007594435, 0.00012499583, 0.000903944834, -1.58195651 , -0.0139485057, 2.18612814  , 918.6143    , 30.6350479  , 819.2934    , 0.62        , 7           , 255         , 0           , 0
-0.1282156  , 9.791315    , 0.112429872 , 0.0008849172, -0.0005585273, 0.000218128 , -1.58194768 , -0.01394624 , 2.18613362  , 918.6086    , 30.638916   , 819.2935    , 0.63        , 7           , 255         , 0           , 0
-0.138635635, 9.79334     , 0.108391    , 0.000283748581, -0.000135596376, 0.0005880451, -1.58194482 , -0.0139403688, 2.186135    , 918.6086    , 30.638916   , 819.29364   , 0.64        , 7           , 255         , 0           , 0
-0.136373013, 9.796117    , 0.11433693  , 0.000191948522, 0.000214972359, -0.000588026945, -1.58194292 , -0.0139462994, 2.186133    , 918.6086    , 30.638916   , 819.293762  , 0.65        , 7           , 255         , 0           , 0
-0.137811363, 9.797979    , 0.111798838 , 0.0005359969, 0.00024158723, -0.0006012679, -1.58193767 , -0.01395238 , 2.18613076  , 918.6086    , 30.638916   , 819.2939    , 0.66        , 7           , 255         , 0           , 0
-0.137097746, 9.795282    , 0.12180648  , 0.0005037187, -0.000264319882, -0.000466359954, -1.58193266 , -0.01395709 , 2.18613338  , 918.6086    , 30.638916   , 819.294     , 0.67        , 7           , 255         , 0           , 0
-0.126684576, 9.79315     , 0.115514234 , 0.0002788933, -0.000202423951, 4.28138E-05 , -1.58192992 , -0.0139565822, 2.18613529  , 918.6086    , 30.638916   , 819.2941    , 0.68        , 7           , 255         , 0           , 0
-0.132572934, 9.796855    , 0.11024116  , -4.38976567E-05, 0.000177446229, -4.55406844E-05, -1.58193016 , -0.01395706 , 2.18613362  , 918.6086    , 30.638916   , 819.29425   , 0.69        , 7           , 255         , 0           , 0
-0.136202112, 9.795202    , 0.108110048 , 0.000969325367, 3.0456169E-05, 4.867831E-05, -1.5819205  , -0.0139565524, 2.18613315  , 918.6086    , 30.638916   , 819.2944    , 0.7         , 7           , 255         , 0           , 0
-0.136494234, 9.79319     , 0.109908953 , 0.0009861959, -0.0001650629, -5.22104528E-05, -1.58192134 , -0.0139497574, 2.186135    , 918.6086    , 30.638916   , 819.3358    , 0.71        , 7           , 255         , 0           , 0
-0.14046979 , 9.805299    , 0.112916932 , 0.000307443726, 0.0005807602, -0.000112361682, -1.58191812 , -0.01395095 , 2.18612933  , 918.6086    , 30.638916   , 819.335938  , 0.72        , 7           , 255         , 0           , 0
-0.13967672 , 9.793175    , 0.115825579 , 0.000433182577, 0.000221909489, 7.81190756E-05, -1.58191383 , -0.0139502045, 2.186127    , 918.6409    , 30.6463776  , 819.33606   , 0.73        , 7           , 255         , 0           , 0
-0.130924791, 9.790213    , 0.114125229 , 0.00061858265, -0.000119453296, 0.000179538358, -1.58190763 , -0.0139483567, 2.18612814  , 918.6409    , 30.6463776  , 819.3362    , 0.74        , 7           , 255         , 0           , 0
-0.12496531 , 9.790444    , 0.103705525 , 0.000408536376, -0.000197689427, -3.58143E-06, -1.58190358 , -0.0139483865, 2.18613029  , 918.6409    , 30.6463776  , 819.336365  , 0.75        , 7           , 255         , 0           , 0
-0.138814852, 9.790937    , 0.1106719   , 0.000339931663, 0.0002675312, 0.0001327176, -1.58190024 , -0.0139470454, 2.18612766  , 918.6409    , 30.6463776  , 819.336548  , 0.76        , 7           , 255         , 0           , 0
-0.1366642  , 9.790219    , 0.108305261 , 0.0004950185, 0.000178419228, -0.0005614471, -1.58189523 , -0.0139526781, 2.18612576  , 918.6409    , 30.6463776  , 819.336731  , 0.77        , 7           , 255         , 0           , 0
-0.141305387, 9.792161    , 0.110977985 , 0.0001938843, -0.000361934246, -0.0006364968, -1.58189332 , -0.0139590269, 2.18612957  , 918.6409    , 30.6463776  , 819.3369    , 0.78        , 7           , 255         , 0           , 0
-0.133968472, 9.792822    , 0.108954228 , 0.000250675948, -0.0005375007, -0.000271289871, -1.58189082 , -0.0139616793, 2.186135    , 918.6409    , 30.6463776  , 819.3371    , 0.79        , 7           , 255         , 0           , 0
-0.137083143, 9.796752    , 0.112909317 , 0.000554241 , -0.000607769, -0.0005258256, -1.58188546 , -0.013966836, 2.186141    , 918.6409    , 30.6463776  , 819.3373    , 0.8         , 7           , 255         , 0           , 0
-0.141374439, 9.795499    , 0.106172659 , 0.0003105158, 9.543076E-05, 7.63993E-05 , -1.58188868 , -0.0139643019, 2.18614     , 918.6409    , 30.6463776  , 819.3283    , 0.81        , 7           , 255         , 0           , 0
-0.136681467, 9.796202    , 0.109878495 , -0.000241443573, 0.000412117864, 0.000144014281, -1.58189106 , -0.0139629608, 2.186136    , 918.6409    , 30.6463776  , 819.3285    , 0.82        , 7           , 255         , 0           , 0
-0.134091824, 9.78774452  , 0.110820673 , 0.000357550161, -0.000347490131, 6.89883E-06 , -1.58188748 , -0.013962782, 2.18613958  , 918.660339  , 30.6479378  , 819.3287    , 0.83        , 7           , 255         , 0           , 0
-0.135173365, 9.790311    , 0.109862506 , 0.0004924051, -0.0004247488, -0.0005572334, -1.5818826  , -0.0139683262, 2.18614388  , 918.660339  , 30.6479378  , 819.328857  , 0.84        , 7           , 255         , 0           , 0
-0.147267967, 9.792879    , 0.120303392 , 0.000502821757, -0.0004189678, -0.0006169705, -1.58187771 , -0.0139744356, 2.18614817  , 918.660339  , 30.6479378  , 819.329041  , 0.85        , 7           , 255         , 0           , 0
-0.1479998  , 9.805666    , 0.112193346 , 0.0009225116, -0.00015561498, -0.000388845277, -1.58186853 , -0.0139782811, 2.1861496   , 918.660339  , 30.6479378  , 819.3292    , 0.86        , 7           , 255         , 0           , 0
-0.136143282, 9.794752    , 0.109279558 , 0.000688835 , -0.000272569654, -0.000636970042, -1.58186173 , -0.013984629, 2.18615246  , 918.660339  , 30.6479378  , 819.3294    , 0.87        , 7           , 255         , 0           , 0
-0.13212423 , 9.79464149  , 0.110904358 , 0.000928045367, 0.000640972 , -0.000122365775, -1.58185232 , -0.0139859412, 2.18614626  , 918.660339  , 30.6479378  , 819.3296    , 0.88        , 7           , 255         , 0           , 0
-0.126428336, 9.792265    , 0.121271789 , 0.001227061 , 0.0007726701, -0.00027543027, -1.58184    , -0.0139887128, 2.18613839  , 918.660339  , 30.6479378  , 819.3298    , 0.89        , 7           , 255         , 0           , 0
-0.138369471, 9.788582    , 0.117503628 , 0.000448752748, 0.000286178023, 0.000448832347, -1.58183551 , -0.0139842415, 2.18613553  , 918.660339  , 30.6479378  , 819.329956  , 0.9         , 7           , 255         , 0           , 0
-0.13624382 , 9.788725    , 0.1202114   , -0.000441031472, 0.000315726618, 0.0003860045, -1.58185256 , -0.0139825428, 2.18613243  , 918.660339  , 30.6479378  , 819.300232  , 0.91        , 7           , 255         , 0           , 0
-0.143163547, 9.787755    , 0.110471822 , 0.0006324658, -5.72320423E-05, -0.000117907926, -1.58184624 , -0.0139837349, 2.18613315  , 918.660339  , 30.6479378  , 819.300354  , 0.92        , 7           , 255         , 0           , 0
-0.137923047, 9.792632    , 0.118328467 , 0.00125379814, 0.000309945433, -0.0007109196, -1.58183372 , -0.0139909182, 2.18613029  , 918.6181    , 30.6503124  , 819.3005    , 0.93        , 7           , 255         , 0           , 0
-0.134969249, 9.785037    , 0.11633575  , 0.000140518328, -0.0002920199, -0.0008214297, -1.58183229 , -0.0139990849, 2.18613315  , 918.6181    , 30.6503124  , 819.3006    , 0.94        , 7           , 255         , 0           , 0
-0.13579528 , 9.795358    , 0.122342214 , 7.144862E-05, 2.41555972E-06, -0.000203910109, -1.58183157 , -0.0140011413, 2.18613315  , 918.6181    , 30.6503124  , 819.3007    , 0.95        , 7           , 255         , 0           , 0
-0.128686771, 9.798792    , 0.118633926 , 0.000305477821, 0.0005748086, -0.000187905767, -1.58182836 , -0.0140030785, 2.18612742  , 918.6181    , 30.6503124  , 819.300842  , 0.96        , 7           , 255         , 0           , 0
-0.1322962  , 9.792453    , 0.1086334   , 0.00037171485, -7.827187E-05, -0.00037119753, -1.58182466 , -0.0140067749, 2.18612838  , 918.6181    , 30.6503124  , 819.300964  , 0.97        , 7           , 255         , 0           , 0
-0.1323836  , 9.790943    , 0.110618629 , 0.0005878796, -8.943619E-05, -0.000108514767, -1.5818187  , -0.0140077583, 2.18612933  , 918.6181    , 30.6503124  , 819.3011    , 0.98        , 7           , 255         , 0           , 0
-0.1356448  , 9.796673    , 0.11576698  , 0.000591279 , -0.000164709811, -0.0004078141, -1.58181274 , -0.0140118115, 2.186131    , 918.6181    , 30.6503124  , 819.3012    , 0.99        , 7           , 255         , 0           , 0
-0.136071607, 9.792084    , 0.115256861 , 0.000325137429, -0.000219472917, -0.000944549742, -1.58180964 , -0.0140213193, 2.18613315  , 918.6181    , 30.6503124  , 819.301331  , 1           , 7           , 0           , 6.0582366   , 100
-0.141511887, 9.806154    , 0.112586871 , 0.0005143702, 0.000193383254, -0.000316088554, -1.58182907 , -0.0140186371, 2.18613148  , 918.6181    , 30.6503124  , 819.3228    , 1.01        , 7           , 1           , 0           , 0
-0.137608126, 9.792686    , 0.110375211 , -0.0001981947, 0.0003412334, -0.000404196617, -1.5818311  , -0.01402269 , 2.18612814  , 918.6181    , 30.6503124  , 819.323     , 1.02        , 7           , 2           , 0           , 0
-0.131821916, 9.800249    , 0.113869563 , 0.0002890183, -0.000221624388, 0.000117168849, -1.58182824 , -0.0140214982, 2.18613052  , 918.6712    , 30.6488876  , 819.3232    , 1.03        , 7           , 3           , 0           , 0
-0.123614356, 9.797886    , 0.110109344 , 0.0006825008, 2.10289145E-05, 0.000193053333, -1.58182132 , -0.014019561, 2.18613     , 918.6712    , 30.6488876  , 819.323364  , 1.04        , 7           , 4           , 0           , 0
-0.127280235, 9.798555    , 0.108577713 , 0.000147894927, 0.000118146127, 0.000109979446, -1.58181977 , -0.0140184881, 2.18612885  , 918.6712    , 30.6488876  , 819.323547  , 1.05        , 7           , 5           , 0           , 0
-0.127945989, 9.79578     , 0.1019403   , 0.000121616264, 0.0004678106, -0.000461251359, -1.58181858 , -0.0140231969, 2.18612432  , 918.6712    , 30.6488876  , 819.3237    , 1.06        , 7           , 6           , 0           , 0
-0.1362724  , 9.792707    , 0.109331384 , 0.0004485029, 0.000105827407, 0.0003274779, -1.581814   , -0.0140199484, 2.18612337  , 918.6712    , 30.6488876  , 819.3239    , 1.07        , 7           , 7           , 0           , 0
-0.132813677, 9.799718    , 0.11862763  , 0.000780783244, -0.00017714969, 0.000239636021, -1.58180618 , -0.0140174748, 2.186125    , 918.6712    , 30.6488876  , 819.3241    , 1.08        , 7           , 8           , 5           , 5
-0.133303374, 9.792144    , 0.12225499  , 0.000352334057, 0.0001698751, 0.000158984592, -1.58180273 , -0.0140158655, 2.18612337  , 918.6712    , 30.6488876  , 819.3243    , 1.09        , 7           , 9           , 5           , 0.1
-0.133641809, 9.789187    , 0.105118237 , 0.000235398911, 0.000178198563, -0.000106737745, -1.58180034 , -0.0140169086, 2.18612146  , 918.6712    , 30.6488876  , 819.324463  , 1.1         , 7           , 10          , 0.1         , 0.1
-0.126284808, 9.796503    , 0.112380028 , 0.000321173749, 0.0002535152, 0.000164955272, -1.581805   , -0.0140039427, 2.186119    , 918.6712    , 30.6488876  , 819.2866    , 1.11        , 7           , 11          , 0.009315866 , 0.009315866
-0.129965171, 9.788027    , 0.110922396 , 0.000694851566, 0.000174376764, 0.0002370943, -1.581798   , -0.0140015883, 2.18611717  , 918.6712    , 30.6488876  , 819.286743  , 1.12        , 7           , 12          , 0.0346428268, 0
-0.139239743, 9.790321    , 0.11163789  , 0.000683337 , 1.64547819E-05, -0.000172930188, -1.58179116 , -0.0140033467, 2.18611717  , 918.5752    , 30.650177   , 819.286865  , 1.13        , 7           , 13          , 0           , 0
-0.147872448, 9.786921    , 0.107824862 , -4.632387E-05, 5.836261E-05, 0.000158179115, -1.58179164 , -0.0140016777, 2.1861167   , 918.5752    , 30.650177   , 819.287     , 1.14        , 7           , 14          , -0.0005562027, 0.000539467437
-0.135612726, 9.784973    , 0.111673459 , 1.83525844E-05, -3.550196E-05, -0.000530033838, -1.5817914  , -0.0140069537, 2.186117    , 918.5752    , 30.650177   , 819.2871    , 1.15        , 7           , 15          , 0           , 0.000282338646
-0.132225186, 9.794575    , 0.107652828 , 0.000107790926, 4.8357062E-05, -0.000438714284, -1.58179033 , -0.0140113644, 2.18611646  , 918.5752    , 30.650177   , 819.287231  , 1.16        , 7           , 16          , 0           , 1.401298E-45
-0.130571872, 9.793127    , 0.106995359 , -7.094449E-05, 0.000211377221, -2.73049518E-05, -1.581791   , -0.0140116923, 2.18611431  , 918.5752    , 30.650177   , 819.287354  , 1.17        , 7           , 20          , 0           , 0
-0.131181762, 9.789707    , 0.115351155 , 0.0003464235, 8.925563E-06, 0.000113788323, -1.58178759 , -0.01401056 , 2.18611431  , 918.5752    , 30.650177   , 819.2875    , 1.18        , 7           , 21          , 0           , 0
-0.1361691  , 9.783035    , 0.104312852 , 0.0006599928, 0.000216061017, -7.378249E-05, -1.581781   , -0.0140113346, 2.18611217  , 918.5752    , 30.650177   , 819.2876    , 1.19        , 7           , 22          , 0           , 0
-0.140396982, 9.779773    , 0.115390837 , 3.9705832E-05, 0.000171788211, -0.000401064259, -1.58178067 , -0.0140153887, 2.1861105   , 918.5752    , 30.650177   , 819.2877    , 1.2         , 7           , 40          , 0           , 0
-0.148151338, 9.799985    , 0.117588952 , 0.00043479845, -0.000451967644, 0.0001414484, -1.58178782 , -0.0140051953, 2.186115    , 918.5752    , 30.650177   , 819.3541    , 1.21        , 7           , 41          , 0           , 0
-0.1398304  , 9.797065    , 0.122021422 , 0.00111585762, 0.000102773833, 0.000223703508, -1.58177662 , -0.0140029294, 2.186114    , 918.5752    , 30.650177   , 819.354431  , 1.22        , 7           , 42          , 1           , 0
-0.13899152 , 9.790317    , 0.114294313 , 0.0005189226, -0.000151078042, -0.0006700342, -1.58177137 , -0.0140096061, 2.1861155   , 918.629456  , 30.65323    , 819.354736  , 1.23        , 7           , 255         , 0           , 0
-0.135983691, 9.788538    , 0.112610817 , 0.000251685065, -4.983181E-05, -0.00090858055, -1.58176887 , -0.0140187265, 2.18611622  , 918.629456  , 30.65323    , 819.355042  , 1.24        , 7           , 255         , 0           , 0
-0.133043617, 9.795057    , 0.107507244 , 0.000148090825, -0.000210340047, -0.000104578474, -1.58176744 , -0.01401977 , 2.18611836  , 918.629456  , 30.65323    , 819.355347  , 1.25        , 7           , 255         , 0           , 0
-0.13607046 , 9.804546    , 0.11035876  , 0.000523754163, -0.000239089859, -0.0008692094, -1.58176231 , -0.0140284728, 2.18612075  , 918.629456  , 30.65323    , 819.3557    , 1.26        , 7           , 255         , 0           , 0
-0.127887577, 9.801338    , 0.119045988 , 0.000750106236, -0.0002264234, -0.0002856159, -1.5817548  , -0.0140313338, 2.186123    , 918.629456  , 30.65323    , 819.3561    , 1.27        , 7           , 255         , 0           , 0
-0.136788443, 9.791703    , 0.118472338 , 0.000282486581, 0.000163375167, -0.000288892625, -1.581752   , -0.0140341958, 2.18612146  , 918.629456  , 30.65323    , 819.356445  , 1.28        , 7           , 255         , 0           , 0
-0.142273113, 9.800764    , 0.112001613 , 0.000286286173, 0.000121917052, -0.00112398015, -1.58174908 , -0.0140454024, 2.18612051  , 918.629456  , 30.65323    , 819.3568    , 1.29        , 7           , 255         , 0           , 0
-0.140655488, 9.789728    , 0.110283829 , 0.0003546833, 0.0003026729, -0.0007391807, -1.58174551 , -0.0140528241, 2.18611741  , 918.629456  , 30.65323    , 819.3572    , 1.3         , 7           , 255         , 0           , 0
-0.141201586, 9.79544     , 0.115945578 , 0.0003874721, 0.000400700315, -0.00051193306, -1.58175743 , -0.0140593806, 2.1861136   , 918.629456  , 30.65323    , 819.3597    , 1.31        , 7           , 255         , 0           , 0
-0.132221386, 9.803412    , 0.103193179 , 8.43202E-06 , 6.14632154E-05, 0.0007021442, -1.58175731 , -0.0140523771, 2.18611288  , 918.629456  , 30.65323    , 819.360046  , 1.32        , 7           , 255         , 0           , 0
-0.1331825  , 9.791036    , 0.110788047 , -9.695912E-05, 7.139117E-05, -0.0005795874, -1.58175826 , -0.0140582481, 2.1861124   , 918.671143  , 30.6544514  , 819.3604    , 1.33        , 7           , 255         , 0           , 0
-0.1412982  , 9.789814    , 0.1134815   , 0.000776534667, -0.0003454864, -0.00053286 , -1.58175051 , -0.0140635539, 2.186116    , 918.671143  , 30.6544514  , 819.3608    , 1.34        , 7           , 255         , 0           , 0
-0.137209743, 9.800261    , 0.114942193 , -0.000480150862, -0.000277290819, -0.000320609543, -1.5817554  , -0.0140667129, 2.18611884  , 918.671143  , 30.6544514  , 819.361145  , 1.35        , 7           , 255         , 0           , 0
-0.147537   , 9.79569     , 0.109700263 , 0.000156699243, 0.0002454439, -7.846496E-05, -1.58175373 , -0.014067458, 2.18611622  , 918.671143  , 30.6544514  , 819.3615    , 1.36        , 7           , 255         , 0           , 0
-0.135575324, 9.790822    , 0.105256543 , 8.846479E-05, 0.0002430082, 0.000341476029, -1.58175278 , -0.0140640605, 2.18611383  , 918.671143  , 30.6544514  , 819.3619    , 1.37        , 7           , 255         , 0           , 0
-0.134551957, 9.785882    , 0.112341583 , 6.044749E-05, 5.92910219E-05, -9.841572E-05, -1.58175218 , -0.0140650142, 2.18611336  , 918.671143  , 30.6544514  , 819.362244  , 1.38        , 7           , 255         , 0           , 0
-0.134768292, 9.785464    , 0.107454516 , 0.0005182635, -0.000110360881, 0.000490634935, -1.58174694 , -0.0140601257, 2.18611431  , 918.671143  , 30.6544514  , 819.3626    , 1.39        , 7           , 255         , 0           , 0
-0.128782615, 9.78454     , 0.107456185 , -6.2090985E-05, 9.58392047E-05, -0.0002510908, -1.58174753 , -0.01406266 , 2.18611336  , 918.671143  , 30.6544514  , 819.363     , 1.4         , 7           , 255         , 0           , 0
-0.13393037 , 9.800738    , 0.110698543 , 0.000182459917, 0.000160301977, 0.000112932874, -1.58175361 , -0.0140583673, 2.186112    , 918.671143  , 30.6544514  , 819.3217    , 1.41        , 7           , 255         , 0           , 0
-0.125894517, 9.790969    , 0.1189266   , 0.0005306626, 0.0001830972, -0.000586041133, -1.58174837 , -0.0140642393, 2.18611     , 918.671143  , 30.6544514  , 819.3219    , 1.42        , 7           , 255         , 0           , 0
-0.1253843  , 9.795865    , 0.115628079 , 0.000158386421, -5.04176132E-05, -0.00039901206, -1.5817467  , -0.0140682328, 2.1861105   , 918.689758  , 30.6543159  , 819.3221    , 1.43        , 7           , 255         , 0           , 0
-0.126100928, 9.785622    , 0.1247504   , -2.73747719E-05, -0.000212177343, -4.75811539E-05, -1.581747   , -0.01406862 , 2.18611264  , 918.689758  , 30.6543159  , 819.322266  , 1.44        , 7           , 255         , 0           , 0
-0.135518789, 9.791623    , 0.1132292   , 0.000194108317, 0.0004130957, 0.00059623085, -1.581745   , -0.0140628088, 2.18610859  , 918.689758  , 30.6543159  , 819.322449  , 1.45        , 7           , 255         , 0           , 0
-0.123367645, 9.795131    , 0.111682378 , 0.000226166332, 0.000283978647, 0.0007085268, -1.58174264 , -0.0140556851, 2.18610549  , 918.689758  , 30.6543159  , 819.322632  , 1.46        , 7           , 255         , 0           , 0
-0.125209451, 9.800036    , 0.11188297  , 0.000722448167, -2.835656E-05, -1.83972588E-05, -1.58173537 , -0.0140558342, 2.186106    , 918.689758  , 30.6543159  , 819.3228    , 1.47        , 7           , 255         , 0           , 0
-0.130805165, 9.788382    , 0.10955026  , 0.000379182922, 0.000383136678, -6.92265749E-05, -1.58173156 , -0.0140565494, 2.186102    , 918.689758  , 30.6543159  , 819.323     , 1.48        , 7           , 255         , 0           , 0
-0.129815623, 9.780336    , 0.117465094 , 0.000578400155, 0.000146977254, -5.55781153E-05, -1.58172572 , -0.0140571455, 2.18610048  , 918.689758  , 30.6543159  , 819.3232    , 1.49        , 7           , 255         , 0           , 0
-0.138335034, 9.795512    , 0.110067025 , 0.000890050142, 2.283603E-05, 9.272047E-05, -1.5817169  , -0.0140562514, 2.18610048  , 918.689758  , 30.6543159  , 819.323364  , 1.5         , 7           , 255         , 0           , 0
-0.141390666, 9.79572     , 0.107176505 , 4.77051362E-05, 0.000213024963, 0.000258392043, -1.58173609 , -0.0140308272, 2.18609858  , 918.689758  , 30.6543159  , 819.2663    , 1.51        , 7           , 255         , 0           , 0
-0.14074482 , 9.793664    , 0.112429    , 0.000175887049, 0.0004709657, -0.000320693944, -1.5817343  , -0.0140341064, 2.18609381  , 918.689758  , 30.6543159  , 819.266235  , 1.52        , 7           , 255         , 0           , 0
-0.13091746 , 9.787027    , 0.116534114 , 0.000237776228, -0.0002682095, 0.000319875748, -1.58173192 , -0.0140308868, 2.18609643  , 918.637756  , 30.6562824  , 819.2662    , 1.53        , 7           , 255         , 0           , 0
-0.12759535 , 9.792607    , 0.107897282 , 0.000173820648, 0.000269247277, 0.000217891735, -1.58173013 , -0.0140287708, 2.18609381  , 918.637756  , 30.6562824  , 819.2661    , 1.54        , 7           , 255         , 0           , 0
-0.129065856, 9.790657    , 0.106726326 , -0.000220472226, -8.883583E-05, -0.000439573254, -1.58173239 , -0.0140331527, 2.18609476  , 918.637756  , 30.6562824  , 819.266052  , 1.55        , 7           , 255         , 0           , 0
-0.126086175, 9.794576    , 0.109681323 , 0.000212629471, -0.000103181694, -7.289702E-05, -1.58173025 , -0.0140339276, 2.18609571  , 918.637756  , 30.6562824  , 819.266     , 1.56        , 7           , 255         , 0           , 0
-0.130026087, 9.79368     , 0.109819412 , 0.0006938939, -0.000201774325, -0.000187109312, -1.58172333 , -0.0140358945, 2.18609786  , 918.637756  , 30.6562824  , 819.2659    , 1.57        , 7           , 255         , 0           , 0
-0.139105484, 9.796152    , 0.114325285 , 0.0003967164, -0.000198000751, -0.000677503063, -1.5817194  , -0.0140426308, 2.1861      , 918.637756  , 30.6562824  , 819.265869  , 1.58        , 7           , 255         , 0           , 0
-0.1330258  , 9.79532051  , 0.114772819 , -4.61709569E-05, -0.000177402369, -0.0007302875, -1.58171988 , -0.0140499622, 2.18610168  , 918.637756  , 30.6562824  , 819.2658    , 1.59        , 7           , 255         , 0           , 0
-0.130506217, 9.795237    , 0.111366048 , 0.000538919063, 0.000128133048, -0.0005684829, -1.58171451 , -0.0140556255, 2.18610072  , 918.637756  , 30.6562824  , 819.265747  , 1.6         , 7           , 255         , 0           , 0
-0.136228323, 9.784622    , 0.118251875 , 0.000279039377, 9.758276E-05, -0.0009365332, -1.58172166 , -0.0140535394, 2.18609977  , 918.637756  , 30.6562824  , 819.2696    , 1.61        , 7           , 255         , 0           , 0
-0.140454322, 9.798355    , 0.117975056 , 0.0006382109, -0.000132429879, -0.000358547637, -1.58171523 , -0.0140571455, 2.1861012   , 918.637756  , 30.6562824  , 819.2696    , 1.62        , 7           , 255         , 0           , 0
-0.129674479, 9.793904    , 0.109224416 , 0.0002463856, 0.000189021055, 0.00011060902, -1.58171284 , -0.014056013, 2.18609929  , 918.6716    , 30.6546555  , 819.2696    , 1.63        , 7           , 255         , 0           , 0
-0.126370177, 9.793449    , 0.114919484 , 0.000331177347, 0.0004908456, -0.000434430345, -1.58170938 , -0.0140604237, 2.18609452  , 918.6716    , 30.6546555  , 819.2696    , 1.64        , 7           , 255         , 0           , 0
-0.126916215, 9.803969    , 0.106376909 , 0.0004735972, 3.90890054E-05, -0.0001679145, -1.58170474 , -0.0140620936, 2.186094    , 918.6716    , 30.6546555  , 819.2696    , 1.65        , 7           , 255         , 0           , 0
-0.137575492, 9.785483    , 0.114819586 , -0.0001871821, -0.000444661, -0.00010959449, -1.58170664 , -0.0140631665, 2.18609858  , 918.6716    , 30.6546555  , 819.2696    , 1.66        , 7           , 255         , 0           , 0
-0.13334471 , 9.794912    , 0.105984069 , 0.0004921824, 0.000411211571, 0.000296730868, -1.58170164 , -0.0140602449, 2.18609428  , 918.6716    , 30.6546555  , 819.2696    , 1.67        , 7           , 255         , 0           , 0
-0.134550631, 9.796578    , 0.0996730849, 0.000306594244, 0.0003583607, 0.000271713274, -1.58169854 , -0.0140576223, 2.18609071  , 918.6716    , 30.6546555  , 819.2696    , 1.68        , 7           , 255         , 0           , 0
-0.123927332, 9.799205    , 0.119087376 , 0.000283416564, -0.0001913039, 4.585358E-05, -1.5816958  , -0.0140571455, 2.18609262  , 918.6716    , 30.6546555  , 819.2696    , 1.69        , 7           , 255         , 0           , 0
-0.135697156, 9.795942    , 0.109485291 , 0.0003130271, -1.08775566E-05, 0.0006520484, -1.5816927  , -0.0140506774, 2.18609262  , 918.6716    , 30.6546555  , 819.2696    , 1.7         , 7           , 255         , 0           , 0
-0.144219369, 9.793958    , 0.1130329   , 0.000378332363, -0.000449360465, 0.0003857994, -1.58169949 , -0.014034762, 2.18609738  , 918.6716    , 30.6546555  , 819.2359    , 1.71        , 7           , 255         , 0           , 0
-0.137495562, 9.799372    , 0.104424357 , 0.000440108561, -0.000253565522, -0.000695698254, -1.5816952  , -0.0140416762, 2.1861      , 918.6716    , 30.6546555  , 819.2357    , 1.72        , 7           , 255         , 0           , 0
-0.138312429, 9.807156    , 0.10617055  , -0.000101607235, 0.000229798432, 0.000213528983, -1.58169615 , -0.01403959 , 2.18609762  , 918.6083    , 30.6545868  , 819.235535  , 1.73        , 7           , 255         , 0           , 0
-0.135141417, 9.788884    , 0.107499704 , 7.584266E-05, 0.000103029888, 0.0002337292, -1.58169532 , -0.0140372356, 2.18609643  , 918.6083    , 30.6545868  , 819.235352  , 1.74        , 7           , 255         , 0           , 0
-0.140883341, 9.788675    , 0.115689218 , 0.000245066447, 0.000123106875, -0.0001857235, -1.58169293 , -0.0140390238, 2.18609524  , 918.6083    , 30.6545868  , 819.235168  , 1.75        , 7           , 255         , 0           , 0
-0.135371849, 9.79809     , 0.113632441 , 0.0005797352, -3.141066E-05, -0.0004649547, -1.58168709 , -0.0140437037, 2.18609571  , 918.6083    , 30.6545868  , 819.235     , 1.76        , 7           , 255         , 0           , 0
-0.135105744, 9.807264    , 0.117608488 , 0.00116148381, 0.000166569022, 0.000215015665, -1.58167541 , -0.0140415868, 2.186094    , 918.6083    , 30.6545868  , 819.2348    , 1.77        , 7           , 255         , 0           , 0
-0.132625371, 9.798396    , 0.119386218 , 0.000452362379, 0.000140548858, -0.0004096334, -1.58167088 , -0.0140457  , 2.18609262  , 918.6083    , 30.6545868  , 819.2346    , 1.78        , 7           , 255         , 0           , 0
-0.136599332, 9.798629    , 0.11345081  , 0.000171312888, -0.000222994626, -0.000399655284, -1.58166921 , -0.0140496343, 2.18609476  , 918.6083    , 30.6545868  , 819.234436  , 1.79        , 7           , 255         , 0           , 0
-0.129902035, 9.79476452  , 0.1150797   , -1.7393264E-05, 0.0002665053, -0.00085172226, -1.58166933 , -0.0140581885, 2.18609238  , 918.6083    , 30.6545868  , 819.234253  , 1.8         , 7           , 255         , 0           , 0
-0.138615876, 9.787712    , 0.1154214   , 0.0002447353, 0.000123560312, 0.000160950556, -1.58167779 , -0.0140547017, 2.18609118  , 918.6083    , 30.6545868  , 819.2757    , 1.81        , 7           , 255         , 0           , 0
-0.1392168  , 9.796431    , 0.1144562   , 0.000585048867, 0.000257766 , 0.0005541977, -1.581672   , -0.0140491575, 2.18608832  , 918.6083    , 30.6545868  , 819.275757  , 1.82        , 7           , 255         , 0           , 0
-0.137082011, 9.789746    , 0.112151548 , 0.0002764617, 6.00196654E-06, 0.0006117269, -1.58166921 , -0.014043048, 2.18608832  , 918.619751  , 30.6545868  , 819.2758    , 1.83        , 7           , 255         , 0           , 0
-0.137866229, 9.785459    , 0.117514476 , 7.619581E-05, 0.0001915638, -6.48477E-05, -1.58166838 , -0.0140436739, 2.18608642  , 918.619751  , 30.6545868  , 819.2759    , 1.84        , 7           , 255         , 0           , 0
-0.134512424, 9.796189    , 0.107550427 , -3.349519E-05, 0.00011366664, -0.000503980438, -1.58166885 , -0.0140488  , 2.18608522  , 918.619751  , 30.6545868  , 819.27594   , 1.85        , 7           , 255         , 0           , 0
-0.127932116, 9.803055    , 0.116355442 , 0.0005041081, 0.000211204984, 0.000346951449, -1.58166373 , -0.0140453428, 2.186083    , 918.619751  , 30.6545868  , 819.276     , 1.86        , 7           , 255         , 0           , 0
-0.126747355, 9.802632    , 0.114307716 , 0.00014868335, -0.000284583977, -6.00326021E-05, -1.5816623  , -0.0140458792, 2.186086    , 918.619751  , 30.6545868  , 819.276062  , 1.87        , 7           , 255         , 0           , 0
-0.1341151  , 9.795627    , 0.110279642 , 8.826106E-05, -0.000340814353, -0.0005167703, -1.58166134 , -0.0140510052, 2.18608952  , 918.619751  , 30.6545868  , 819.2761    , 1.88        , 7           , 255         , 0           , 0
-0.132718831, 9.787674    , 0.109795138 , 4.96358844E-05, -0.000173414912, -0.000429928477, -1.58166075 , -0.0140552977, 2.18609118  , 918.619751  , 30.6545868  , 819.276245  , 1.89        , 7           , 255         , 0           , 0
-0.133296415, 9.786184    , 0.101450726 , 0.000283648726, 0.000189776649, -0.0002302139, -1.58165789 , -0.0140575329, 2.18608952  , 918.619751  , 30.6545868  , 819.276367  , 1.9         , 7           , 255         , 0           , 0
-0.133784354, 9.791638    , 0.11556606  , 0.00070076267, -0.0001034679, 0.0002721375, -1.581664   , -0.0140467435, 2.18609071  , 918.619751  , 30.6545868  , 819.3008    , 1.91        , 7           , 255         , 0           , 0
-0.135263011, 9.794675    , 0.111952819 , 0.00100387889, -0.000355324533, 0.00073714857, -1.581654   , -0.0140393516, 2.186094    , 918.619751  , 30.6545868  , 819.301     , 1.92        , 7           , 255         , 0           , 0
-0.132654518, 9.789079    , 0.113495469 , 0.0006139438, -0.00012428913, 6.784589E-05, -1.58164787 , -0.014038696, 2.18609548  , 918.6598    , 30.6558075  , 819.3013    , 1.93        , 7           , 255         , 0           , 0
-0.14020969 , 9.792498    , 0.110641479 , 0.0007840821, -0.000125970982, 8.512579E-06, -1.58164012 , -0.0140385469, 2.18609667  , 918.6598    , 30.6558075  , 819.3015    , 1.94        , 7           , 255         , 0           , 0
-0.13908565 , 9.799978    , 0.115485169 , 1.03223138E-05, 0.000115083589, -0.0003447267, -1.58163989 , -0.0140420338, 2.18609548  , 918.6598    , 30.6558075  , 819.301758  , 1.95        , 7           , 255         , 0           , 0
-0.1342906  , 9.79328     , 0.121609487 , 0.0005386468, 0.00044349127, -0.000101444573, -1.5816344  , -0.0140431374, 2.186091    , 918.6598    , 30.6558075  , 819.302     , 1.96        , 7           , 255         , 0           , 0
-0.134007722, 9.796299    , 0.108719982 , 0.000295122125, 0.000157783215, -9.73023853E-05, -1.58163142 , -0.0140441209, 2.18608952  , 918.6598    , 30.6558075  , 819.302246  , 1.97        , 7           , 255         , 0           , 0
-0.135131031, 9.799275    , 0.0984538049, 0.000177634385, 0.0004698413, -0.0002854868, -1.58162963 , -0.0140470713, 2.186085    , 918.6598    , 30.6558075  , 819.3025    , 1.98        , 7           , 255         , 0           , 0
-0.131942511, 9.792303    , 0.101292789 , -2.85096467E-05, 0.000141314114, -0.000838315231, -1.58162987 , -0.0140554169, 2.18608356  , 918.6598    , 30.6558075  , 819.302734  , 1.99        , 7           , 255         , 0           , 0
-0.13106665 , 9.794515    , 0.11010246  , 0.000508871744, -0.000144567282, -0.000156335183, -1.58162475 , -0.0140569666, 2.186085    , 918.6598    , 30.6558075  , 819.303     , 2           , 7           , 0           , 7.0582366   , 200
-0.145742312, 9.790777    , 0.112992965 , 0.000520634349, 0.000177602516, -0.000304817484, -1.5816294  , -0.0140540162, 2.18608332  , 918.6598    , 30.6558075  , 819.27655   , 2.01        , 7           , 1           , 0           , 0
-0.146158516, 9.787869    , 0.117075756 , -5.039235E-05, -7.406931E-05, 1.2909004E-06, -1.58162987 , -0.0140540162, 2.186084    , 918.6598    , 30.6558075  , 819.2767    , 2.02        , 7           , 2           , 0           , 0
-0.14347139 , 9.790925    , 0.114325404 , 7.993786E-05, -4.88037476E-05, -4.103029E-06, -1.58162916 , -0.0140540162, 2.18608451  , 918.6452    , 30.65547    , 819.2768    , 2.03        , 7           , 3           , 0           , 0
-0.137759179, 9.78615     , 0.115824796 , 0.000823717157, -4.32275119E-05, 0.0006216628, -1.58162093 , -0.0140477866, 2.18608475  , 918.6452    , 30.65547    , 819.2769    , 2.04        , 7           , 4           , 0           , 0
-0.1367509  , 9.787204    , 0.110305965 , 0.000655386364, 0.000155355316, 3.817203E-05, -1.58161438 , -0.014047429, 2.18608332  , 918.6452    , 30.65547    , 819.277039  , 2.05        , 7           , 5           , 0           , 0
-0.1339706  , 9.794481    , 0.115906879 , 0.000395142037, -9.570856E-05, -0.000295525242, -1.58161044 , -0.0140503794, 2.18608427  , 918.6452    , 30.65547    , 819.277161  , 2.06        , 7           , 6           , 0           , 0
-0.1344623  , 9.792094    , 0.119619325 , 0.0006942049, -0.000133942231, 0.000237001717, -1.58160353 , -0.014048025, 2.18608546  , 918.6452    , 30.65547    , 819.2773    , 2.07        , 7           , 7           , 0           , 0
-0.141329333, 9.787638    , 0.123083331 , -9.91128E-05, -0.0001279419, -3.38259269E-06, -1.5816046  , -0.014048025, 2.186087    , 918.6452    , 30.65547    , 819.2774    , 2.08        , 7           , 8           , 5           , 5
-0.14093861 , 9.795217    , 0.117022142 , -0.000142385019, -0.000255458872, 4.16550029E-05, -1.581606   , -0.0140476078, 2.18608952  , 918.6452    , 30.65547    , 819.2775    , 2.09        , 7           , 9           , 5           , 0.1
-0.148620322, 9.792702    , 0.107058324 , 6.71792077E-06, 2.96408543E-05, 8.387794E-05, -1.58160591 , -0.0140467435, 2.18608928  , 918.6452    , 30.65547    , 819.277649  , 2.1         , 7           , 10          , 0.1         , 0.1
-0.140588716, 9.789513    , 0.107180215 , 0.0003608027, 0.000131208275, -0.000330471, -1.5816282  , -0.014059321, 2.186088    , 918.6452    , 30.65547    , 819.2717    , 2.11        , 7           , 11          , 0.008220416 , 0.008220417
-0.129018977, 9.795145    , 0.111436449 , 0.0011244365, -9.092549E-05, -0.00026473013, -1.581617   , -0.0140619446, 2.186089    , 918.6452    , 30.65547    , 819.2718    , 2.12        , 7           , 12          , 0.0346481539, 0
-0.130594149, 9.800138    , 0.11423786  , 0.0007050488, 3.158138E-05, 0.000645249034, -1.58161    , -0.0140555063, 2.1860888   , 918.6915    , 30.65737    , 819.271851  , 2.13        , 7           , 13          , 0           , 0
-0.134876385, 9.79748249  , 0.110935725 , 0.0006444323, 0.0005812343, 0.0004724146, -1.58160341 , -0.0140508264, 2.18608284  , 918.6915    , 30.65737    , 819.2719    , 2.14        , 7           , 14          , -0.000555906445, 0.000539472967
-0.1419982  , 9.797815    , 0.117438957 , 0.0006298789, 0.000216096523, -2.20948132E-05, -1.58159709 , -0.014051035, 2.18608069  , 918.6915    , 30.65737    , 819.272     , 2.15        , 7           , 15          , 0           , 0.0002822157
-0.135692462, 9.797277    , 0.111624837 , 0.0007083786, 7.94123043E-05, -0.000358417456, -1.58159    , -0.0140546123, 2.18608     , 918.6915    , 30.65737    , 819.272034  , 2.16        , 7           , 16          , 0           , 1.401298E-45
-0.127448127, 9.788394    , 0.114094153 , 0.0008478451, 0.000100482546, 4.119065E-07, -1.58158147 , -0.0140546719, 2.186079    , 918.6915    , 30.65737    , 819.2721    , 2.17        , 7           , 20          , 0           , 0
-0.1339247  , 9.792037    , 0.111498058 , 0.00094931596, 0.0003612041, -0.000224360745, -1.58157194 , -0.0140568474, 2.18607545  , 918.6915    , 30.65737    , 819.272156  , 2.18        , 7           , 21          , 0           , 0
-0.139069408, 9.799278    , 0.121949777 , 0.000245207862, -0.000117252988, -0.000115628151, -1.58156943 , -0.01405795 , 2.18607664  , 918.6915    , 30.65737    , 819.2722    , 2.19        , 7           , 22          , 0           , 0
-0.134355068, 9.796742    , 0.118681058 , 0.000292523677, -7.197284E-05, 2.95815989E-05, -1.58156657 , -0.0140576819, 2.18607736  , 918.6915    , 30.65737    , 819.2723    , 2.2         , 7           , 40          , 0           , 0
-0.127562374, 9.789862    , 0.105717555 , -0.000148529187, 0.0001265892, 6.244867E-05, -1.58158374 , -0.0140514225, 2.18607616  , 918.6915    , 30.65737    , 819.2081    , 2.21        , 7           , 41          , 0           , 0
-0.13832587 , 9.795167    , 0.106182896 , 9.711753E-05, 1.74233573E-05, -0.0008174636, -1.5815829  , -0.014059619, 2.18607616  , 918.6915    , 30.65737    , 819.2078    , 2.22        , 7           , 42          , 1           , 0
-0.141045779, 9.803401    , 0.105147682 , 0.0005409551, 0.0007387657, -0.000230037534, -1.58157742 , -0.0140620042, 2.18606877  , 918.601     , 30.6585217  , 819.2075    , 2.23        , 7           , 255         , 0           , 0
-0.136239678, 9.802191    , 0.116690353 , 0.000831210869, -3.67942848E-05, 0.000616379431, -1.58156908 , -0.0140558938, 2.186069    , 918.601     , 30.6585217  , 819.2072    , 2.24        , 7           , 255         , 0           , 0
-0.138562575, 9.800479    , 0.116636895 , 0.000141606317, -0.0004699636, 0.0008984664, -1.58156776 , -0.0140468925, 2.18607378  , 918.601     , 30.6585217  , 819.2069    , 2.25        , 7           , 255         , 0           , 0
-0.134076327, 9.794624    , 0.118285775 , 0.000114733324, -0.000328354858, 4.65746562E-05, -1.58156669 , -0.0140463859, 2.18607688  , 918.601     , 30.6585217  , 819.2066    , 2.26        , 7           , 255         , 0           , 0
-0.129488513, 9.792213    , 0.108960316 , 0.0002695629, -0.000264836941, -0.000249854143, -1.58156407 , -0.0140488893, 2.18607974  , 918.601     , 30.6585217  , 819.2063    , 2.27        , 7           , 255         , 0           , 0
-0.135534   , 9.790876    , 0.114472605 , 0.00027329204, -0.0005704765, 2.28991848E-06, -1.58156145 , -0.0140488595, 2.18608546  , 918.601     , 30.6585217  , 819.206     , 2.28        , 7           , 255         , 0           , 0
-0.148454517, 9.795471    , 0.106933579 , 0.0005262387, 0.0004897468, -6.273898E-05, -1.58155608 , -0.0140495747, 2.18608046  , 918.601     , 30.6585217  , 819.2057    , 2.29        , 7           , 255         , 0           , 0
-0.143229559, 9.790737    , 0.106836341 , 0.0003197962, 0.000202976167, 0.000444968522, -1.58155274 , -0.0140451342, 2.18607855  , 918.601     , 30.6585217  , 819.2054    , 2.3         , 7           , 255         , 0           , 0
-0.133619547, 9.78576851  , 0.113546766 , 0.0005029102, 0.000171478488, -5.35923755E-05, -1.58155715 , -0.0140449554, 2.186077    , 918.601     , 30.6585217  , 819.266     , 2.31        , 7           , 255         , 0           , 0
-0.14127183 , 9.790176    , 0.10917145  , 2.877327E-05, -1.36999879E-05, 3.34512151E-05, -1.5815568  , -0.0140446275, 2.186077    , 918.601     , 30.6585217  , 819.2661    , 2.32        , 7           , 255         , 0           , 0
-0.132954866, 9.789194    , 0.11985109  , 0.000388497254, 0.000406365725, -0.000202606519, -1.58155286 , -0.0140467137, 2.186073    , 918.6132    , 30.6580467  , 819.266235  , 2.33        , 7           , 255         , 0           , 0
-0.14238371 , 9.803846    , 0.11291872  , 0.0003199027, -5.88985276E-05, -0.000725829159, -1.58154964 , -0.0140539268, 2.18607354  , 918.6132    , 30.6580467  , 819.266357  , 2.34        , 7           , 255         , 0           , 0
-0.134304926, 9.791935    , 0.115568    , 9.899918E-05, 0.0005634917, -0.0006425271, -1.58154869 , -0.0140603641, 2.186068    , 918.6132    , 30.6580467  , 819.2665    , 2.35        , 7           , 255         , 0           , 0
-0.1287669  , 9.792087    , 0.107601836 , -0.0001918156, 0.00036424282, 0.000190930237, -1.58155048 , -0.0140585462, 2.18606448  , 918.6132    , 30.6580467  , 819.2666    , 2.36        , 7           , 255         , 0           , 0
-0.136852115, 9.794459    , 0.115746833 , 0.000291597942, 0.000411568442, 0.000261876819, -1.5815475  , -0.014056013, 2.18606019  , 918.6132    , 30.6580467  , 819.2667    , 2.37        , 7           , 255         , 0           , 0
-0.142484218, 9.789865    , 0.11495246  , 0.0002564145, 0.0005859509, 0.000317684055, -1.58154488 , -0.0140528539, 2.18605423  , 918.6132    , 30.6580467  , 819.266846  , 2.38        , 7           , 255         , 0           , 0
-0.137257844, 9.794903    , 0.117123745 , 0.0006262615, 7.449533E-05, 0.000410567765, -1.58153856 , -0.01404871 , 2.18605351  , 918.6132    , 30.6580467  , 819.266968  , 2.39        , 7           , 255         , 0           , 0
-0.135248512, 9.801831    , 0.111540258 , 0.00111952075, 4.334183E-05, 0.000410585344, -1.58152735 , -0.0140446275, 2.186053    , 918.6132    , 30.6580467  , 819.2671    , 2.4         , 7           , 255         , 0           , 0
-0.132649884, 9.789459    , 0.100378215 , 0.000416008232, 0.000347549736, -0.000459162926, -1.58154106 , -0.0140466839, 2.18605     , 918.6132    , 30.6580467  , 819.304565  , 2.41        , 7           , 255         , 0           , 0
-0.140391961, 9.79491     , 0.112523593 , 0.00040294166, -0.000341008621, -0.000428655, -1.581537   , -0.0140509754, 2.18605328  , 918.6132    , 30.6580467  , 819.304932  , 2.42        , 7           , 255         , 0           , 0
-0.138707012, 9.793116    , 0.1095613   , -2.23062816E-05, -0.000361902581, -1.24344369E-05, -1.58153725 , -0.0140510648, 2.18605685  , 918.6473    , 30.6513977  , 819.3053    , 2.43        , 7           , 255         , 0           , 0
-0.135257617, 9.788615    , 0.120617464 , 9.275385E-05, 0.000106954714, 0.000542361755, -1.58153629 , -0.014045611, 2.186056    , 918.6473    , 30.6513977  , 819.305664  , 2.44        , 7           , 255         , 0           , 0
-0.1325571  , 9.798903    , 0.117008761 , 0.000157131552, 0.0004512458, -0.000173028224, -1.58153474 , -0.0140473992, 2.18605113  , 918.6473    , 30.6513977  , 819.306     , 2.45        , 7           , 255         , 0           , 0
-0.134821728, 9.785821    , 0.123527765 , 0.0005880761, 0.000480495626, -0.00135988439, -1.58152866 , -0.01406108 , 2.1860466   , 918.6473    , 30.6513977  , 819.3064    , 2.46        , 7           , 255         , 0           , 0
-0.1176553  , 9.800833    , 0.107517779 , 0.000786911754, -0.000271114433, -0.00137240777, -1.58152092 , -0.01407479 , 2.18604946  , 918.6473    , 30.6513977  , 819.306763  , 2.47        , 7           , 255         , 0           , 0
-0.124033213, 9.798823    , 0.106247529 , -0.000380944868, -0.0003870631, -0.0006655771, -1.58152485 , -0.0140813775, 2.18605351  , 918.6473    , 30.6513977  , 819.3071    , 2.48        , 7           , 255         , 0           , 0
-0.132806912, 9.783823    , 0.111088037 , 4.80017625E-05, -0.0001354217, 0.000441498618, -1.58152437 , -0.0140769957, 2.18605471  , 918.6473    , 30.6513977  , 819.3075    , 2.49        , 7           , 255         , 0           , 0
-0.141581446, 9.790358    , 0.119317695 , 0.000437321549, -7.627209E-05, 0.00022386256, -1.58152008 , -0.01407479 , 2.18605542  , 918.6473    , 30.6513977  , 819.307861  , 2.5         , 7           , 255         , 0           , 0
-0.1402195  , 9.796167    , 0.107304558 , 0.0009604407, -0.000362587452, -0.0003080326, -1.58152735 , -0.014067756, 2.18605947  , 918.6473    , 30.6513977  , 819.2948    , 2.51        , 7           , 255         , 0           , 0
-0.132900476, 9.792259    , 0.112294912 , 0.000550586847, -0.000226012373, -0.0002764372, -1.58152187 , -0.0140705286, 2.18606162  , 918.6473    , 30.6513977  , 819.2951    , 2.52        , 7           , 255         , 0           , 0
-0.1251155  , 9.792864    , 0.111050308 , 0.000761265634, 0.000193696 , -0.000237689528, -1.58151424 , -0.0140729127, 2.18605971  , 918.626953  , 30.65323    , 819.2954    , 2.53        , 7           , 255         , 0           , 0
-0.135174558, 9.78994     , 0.109322891 , 0.000622430234, 3.894628E-05, -0.00037292976, -1.58150792 , -0.0140766678, 2.18605947  , 918.626953  , 30.65323    , 819.2957    , 2.54        , 7           , 255         , 0           , 0
-0.135698766, 9.78268051  , 0.114065841 , 0.00079108146, 9.389233E-05, -7.6763914E-05, -1.5815     , -0.0140774725, 2.18605852  , 918.626953  , 30.65323    , 819.296     , 2.55        , 7           , 255         , 0           , 0
-0.135670662, 9.785362    , 0.110856853 , 0.000615028956, 0.000287769362, -0.000228084857, -1.58149385 , -0.0140797673, 2.18605566  , 918.626953  , 30.65323    , 819.2963    , 2.56        , 7           , 255         , 0           , 0
-0.132885754, 9.792933    , 0.1183722   , -4.55693225E-05, 0.0001552034, -0.0004921481, -1.58149421 , -0.0140846558, 2.186054    , 918.626953  , 30.65323    , 819.296631  , 2.57        , 7           , 255         , 0           , 0
-0.138838261, 9.792799    , 0.109040722 , -0.0005628545, 0.000451455 , -0.00041697477, -1.58149981 , -0.0140888877, 2.18604946  , 918.626953  , 30.65323    , 819.296936  , 2.58        , 7           , 255         , 0           , 0
-0.135802358, 9.79233551  , 0.118954279 , -0.0006111437, -0.0002257041, -0.000146327409, -1.58150589 , -0.014090349, 2.18605185  , 918.626953  , 30.65323    , 819.297241  , 2.59        , 7           , 255         , 0           , 0
-0.128559753, 9.792664    , 0.116316892 , 8.315698E-05, -0.000116701325, -2.87173025E-05, -1.58150506 , -0.0140906172, 2.186053    , 918.626953  , 30.65323    , 819.297546  , 2.6         , 7           , 255         , 0           , 0
-0.126626313, 9.790953    , 0.108616069 , -7.824483E-05, 0.000200437149, 0.000566119 , -1.58152509 , -0.0140757738, 2.18605113  , 918.626953  , 30.65323    , 819.3132    , 2.61        , 7           , 255         , 0           , 0
-0.128082678, 9.78977     , 0.113299623 , -0.000113084388, 9.379827E-05, 0.000465937454, -1.58152628 , -0.0140711246, 2.18605018  , 918.626953  , 30.65323    , 819.313538  , 2.62        , 7           , 255         , 0           , 0
-0.130905271, 9.794371    , 0.107686259 , 0.000701536541, 0.00043046393, -0.000326997339, -1.58151913 , -0.0140744625, 2.186046    , 918.647644  , 30.6545868  , 819.3139    , 2.63        , 7           , 255         , 0           , 0
-0.1338217  , 9.795947    , 0.108718775 , 0.00087480736, 0.000224040414, -0.000819246168, -1.58151031 , -0.014082659, 2.18604374  , 918.647644  , 30.6545868  , 819.314331  , 2.64        , 7           , 255         , 0           , 0
-0.137742668, 9.789736    , 0.108065411 , 0.0008555788, -0.0001486401, -0.000369785965, -1.58150172 , -0.0140863247, 2.18604517  , 918.647644  , 30.6545868  , 819.314758  , 2.65        , 7           , 255         , 0           , 0
-0.141608834, 9.798264    , 0.117123045 , 0.00102914521, -1.43246725E-05, -0.0006726211, -1.58149147 , -0.0140930312, 2.18604565  , 918.647644  , 30.6545868  , 819.3152    , 2.66        , 7           , 255         , 0           , 0
-0.1313477  , 9.795557    , 0.109380685 , 0.000851850258, -0.0002478704, 0.000698255259, -1.581483   , -0.0140860863, 2.186048    , 918.647644  , 30.6545868  , 819.3156    , 2.67        , 7           , 255         , 0           , 0
-0.134670228, 9.798246    , 0.119279549 , 0.00060129544, -0.0001590793, 0.000319139246, -1.581477   , -0.0140829273, 2.18604946  , 918.647644  , 30.6545868  , 819.31604   , 2.68        , 7           , 255         , 0           , 0
-0.139311343, 9.79686     , 0.113881312 , -8.723035E-05, 0.000112221576, -0.000225657845, -1.581478   , -0.0140851922, 2.18604851  , 918.647644  , 30.6545868  , 819.316467  , 2.69        , 7           , 255         , 0           , 0
-0.13402614 , 9.797749    , 0.109038904 , -0.000180966628, 0.000180468545, 0.000576757 , -1.58147967 , -0.0140794395, 2.1860466   , 918.647644  , 30.6545868  , 819.3169    , 2.7         , 7           , 255         , 0           , 0
-0.1361275  , 9.79617     , 0.1159158   , 0.000120843382, 0.000123129576, 0.000815330539, -1.58149052 , -0.0140636433, 2.18604541  , 918.647644  , 30.6545868  , 819.3014    , 2.71        , 7           , 255         , 0           , 0
-0.134649083, 9.802849    , 0.113584742 , 0.000225092139, 4.285155E-05, -0.000246521522, -1.58148825 , -0.0140661169, 2.186045    , 918.647644  , 30.6545868  , 819.3017    , 2.72        , 7           , 255         , 0           , 0
-0.137672961, 9.800872    , 0.1156507   , 0.0006595486, 0.000148538034, -0.000251015939, -1.5814817  , -0.01406865 , 2.1860435   , 918.5826    , 30.6596069  , 819.302     , 2.73        , 7           , 255         , 0           , 0
-0.1324265  , 9.800907    , 0.110026218 , 0.000106973952, -1.55146117E-05, -6.139111E-05, -1.58148062 , -0.0140692759, 2.18604374  , 918.5826    , 30.6596069  , 819.3023    , 2.74        , 7           , 255         , 0           , 0
-0.130374715, 9.790201    , 0.111057982 , 0.0003850397, -0.00028342547, -0.000222945731, -1.58147681 , -0.014071512, 2.1860466   , 918.5826    , 30.6596069  , 819.3026    , 2.75        , 7           , 255         , 0           , 0
-0.1297426  , 9.788957    , 0.110886596 , 0.000472685468, -3.366638E-05, 0.000124994753, -1.58147216 , -0.014070319, 2.18604684  , 918.5826    , 30.6596069  , 819.3029    , 2.76        , 7           , 255         , 0           , 0
-0.129005685, 9.786752    , 0.107832931 , -0.000324257, 0.000142626523, 0.0008164218, -1.58147538 , -0.0140621532, 2.18604541  , 918.5826    , 30.6596069  , 819.3032    , 2.77        , 7           , 255         , 0           , 0
-0.133358777, 9.799627    , 0.108632348 , 9.26117355E-05, 7.12764449E-05, 0.0005518055, -1.58147442 , -0.0140566388, 2.18604469  , 918.5826    , 30.6596069  , 819.3035    , 2.78        , 7           , 255         , 0           , 0
-0.1478547  , 9.791922    , 0.115880653 , 0.0002542297, 0.000281828456, -5.0778297E-05, -1.58147192 , -0.0140572051, 2.18604183  , 918.5826    , 30.6596069  , 819.303833  , 2.79        , 7           , 255         , 0           , 0
-0.142080709, 9.79412651  , 0.113492392 , -0.000106610009, 0.000374117 , 8.20352E-05 , -1.581473   , -0.0140564  , 2.186038    , 918.5826    , 30.6596069  , 819.304138  , 2.8         , 7           , 255         , 0           , 0
-0.134839252, 9.790815    , 0.117295012 , -0.0002231872, 0.000195950561, -0.0005258002, -1.58148861 , -0.0140573541, 2.18603635  , 918.5826    , 30.6596069  , 819.3811    , 2.81        , 7           , 255         , 0           , 0
-0.13351053 , 9.792813    , 0.113746904 , 1.7292914E-06, 0.000341875246, -0.000486698525, -1.58148861 , -0.0140622426, 2.186033    , 918.5826    , 30.6596069  , 819.3819    , 2.82        , 7           , 255         , 0           , 0
-0.12940681 , 9.798544    , 0.113042414 , 0.000153656612, 3.0604715E-05, -0.0006141842, -1.58148718 , -0.0140683819, 2.18603277  , 918.6157    , 30.6563511  , 819.3827    , 2.83        , 7           , 255         , 0           , 0
-0.133910775, 9.78739548  , 0.10879419  , 0.000421367266, 0.000180041883, -0.0006026495, -1.58148289 , -0.0140744029, 2.18603086  , 918.6157    , 30.6563511  , 819.383545  , 2.84        , 7           , 255         , 0           , 0
-0.139023766, 9.79475     , 0.109528325 , 0.000216716056, -0.000146198377, 0.000142774283, -1.58148074 , -0.0140729723, 2.1860323   , 918.6157    , 30.6563511  , 819.3844    , 2.85        , 7           , 255         , 0           , 0
-0.140792027, 9.797503    , 0.116561994 , 0.000370518246, 0.000396392948, 0.000239654823, -1.581477   , -0.014070618, 2.18602848  , 918.6157    , 30.6563511  , 819.385254  , 2.86        , 7           , 255         , 0           , 0
-0.1470161  , 9.788034    , 0.108549669 , 0.0002442939, -9.321005E-05, 0.0003799495, -1.58147454 , -0.0140667725, 2.18602943  , 918.6157    , 30.6563511  , 819.3861    , 2.87        , 7           , 255         , 0           , 0
-0.148675382, 9.798519    , 0.115877792 , 0.0002760833, 2.03602249E-05, -3.225109E-05, -1.5814718  , -0.0140670706, 2.1860292   , 918.6157    , 30.6563511  , 819.386963  , 2.88        , 7           , 255         , 0           , 0
-0.141797349, 9.801165    , 0.11655353  , 9.82194E-05 , -0.000116426236, -0.0002728403, -1.58147085 , -0.0140697528, 2.18603039  , 918.6157    , 30.6563511  , 819.3878    , 2.89        , 7           , 255         , 0           , 0
-0.134194583, 9.79331     , 0.115329005 , 0.000321676052, 0.00011216756, -9.60582256E-05, -1.58146775 , -0.014070767, 2.18602943  , 918.6157    , 30.6563511  , 819.3887    , 2.9         , 7           , 255         , 0           , 0
-0.137798145, 9.792616    , 0.108684696 , 0.0007340032, 0.000117620337, 0.000214436208, -1.58147633 , -0.0140694249, 2.18602824  , 918.6157    , 30.6563511  , 819.4076    , 2.91        , 7           , 255         , 0           , 0
-0.137583762, 9.780416    , 0.103066064 , 0.000436448579, 0.0005926147, 0.0003750043, -1.58147192 , -0.0140657891, 2.18602228  , 918.6157    , 30.6563511  , 819.408569  , 2.92        , 7           , 255         , 0           , 0
-0.139867231, 9.776921    , 0.111128591 , 0.0006428867, -0.000107286207, -0.000809836958, -1.58146536 , -0.0140738664, 2.18602324  , 918.662     , 30.6586571  , 819.409546  , 2.93        , 7           , 255         , 0           , 0
-0.136582643, 9.791721    , 0.1190107   , 0.0002655495, 0.000120752782, -0.000202570722, -1.58146274 , -0.014075893, 2.186022    , 918.662     , 30.6586571  , 819.4105    , 2.94        , 7           , 255         , 0           , 0
-0.143747389, 9.792096    , 0.123191535 , 0.000477507856, 0.000506019045, 0.00033916987, -1.58145785 , -0.0140725551, 2.186017    , 918.662     , 30.6586571  , 819.4115    , 2.95        , 7           , 255         , 0           , 0
-0.137992531, 9.788426    , 0.112039611 , -0.000393992756, 0.0007851632, -0.000346546585, -1.58146179 , -0.0140761314, 2.18600917  , 918.662     , 30.6586571  , 819.4125    , 2.96        , 7           , 255         , 0           , 0
-0.128941029, 9.790536    , 0.119620822 , -4.196365E-06, 0.0001151294, -0.000293044344, -1.58146179 , -0.0140790818, 2.18600821  , 918.662     , 30.6586571  , 819.413452  , 2.97        , 7           , 255         , 0           , 0
