Acc X       , Acc Y       , Acc Z       , Gyro X      , Gyro Y      , Gyro Z      , Euler X     , Euler Y     , Euler Z     , Pres X      , Pres Y      , Pres Z      , Time        , Status      , LowRate X   , LowRate Y   , LowRate Z    
-0.117811985, 0.13575606  , -9.784591   , 0           , 0           , 0           , -0.0138735846, -0.0120388232, 0           , 923.027649  , 31.6287975  , 779.806641  , 0           , 2           , 0           , 5.45523167  , 0
-0.117219172, 0.132726774 , -9.793049   , 0.0002840262, -0.000282169727, -0.000404232967, -0.0138703724, -0.0120417783, -4.002984E-06, 923.027649  , 31.6287975  , 779.806641  , 0.01        , 3           , 1           , 0           , 0
-0.114859067, 0.1332471   , -9.800709   , 0.000305813184, -0.0004208104, -0.000409050961, -0.0138672674, -0.0120460438, -8.03493549E-06, 923.027649  , 31.6287975  , 779.806641  , 0.02        , 3           , 2           , 0           , 0
-0.120348349, 0.134364516 , -9.795361   , -0.0006469577, 2.762147E-05, 1.57347022E-05, -0.0138737373, -0.0120457653, -7.881438E-06, 922.993164  , 31.1905384  , 779.806641  , 0.03        , 3           , 3           , 0           , 0
-0.129732952, 0.132517025 , -9.787239   , -0.000130868342, 2.16155677E-05, -6.50544825E-06, -0.013875044, -0.01204555 , -7.94948846E-06, 922.993164  , 31.1905384  , 779.806641  , 0.04        , 3           , 4           , 0           , 0
-0.123099566, 0.135999829 , -9.787639   , 0.0006476094, 0.000214236177, 0.000915095152, -0.0138686793, -0.0120432824, 1.17131026E-06, 922.993164  , 31.1905384  , 779.806641  , 0.05        , 3           , 5           , 0           , 0
-0.117208287, 0.134854183 , -9.788269   , 0.00068761257, 0.00030874848, -0.000206281882, -0.01386178 , -0.0120402221, -9.342206E-07, 922.993164  , 31.1905384  , 779.806641  , 0.06        , 3           , 6           , 0           , 0
-0.126491874, 0.140947148 , -9.790556   , -0.000166129408, -0.000131138746, 0.0004179667, -0.0138634909, -0.0120414756, 3.2634307E-06, 922.993164  , 31.1905384  , 779.806641  , 0.07        , 3           , 7           , 0           , 0
-0.1272012  , 0.1279427   , -9.794019   , -0.000167196937, 5.11903854E-05, 0.00026468662, -0.0138651952, -0.0120409271, 5.903063E-06, 922.993164  , 31.1905384  , 779.806641  , 0.08        , 3           , 8           , 5           , 5
-0.117631517, 0.13070406  , -9.79478    , 0.000188747275, -9.033395E-05, 0.0005113025, -0.013863368, -0.01204176 , 1.10283645E-05, 922.993164  , 31.1905384  , 779.806641  , 0.09        , 3           , 9           , 5           , 0.1
-0.114234373, 0.135581687 , -9.788201   , 1.98274356E-05, 0.00015417111, -0.000297605933, -0.0138631333, -0.0120402593, 8.031086E-06, 922.993164  , 31.1905384  , 779.806641  , 0.1         , 3           , 10          , 0.1         , 0.1
-0.112851083, 0.139717132 , -9.791856   , -0.000470053958, 0.000195840767, 0.000582524866, -0.01385951 , -0.0120505095, 1.3727732E-05, 922.993164  , 31.1905384  , 780.1159    , 0.11        , 3           , 11          , 0.0109544508, 0.0109544508
-0.109812662, 0.1364026   , -9.796479   , -0.000152624212, 0.0001991726, -0.000215397682, -0.0138610117, -0.0120485481, 1.15462553E-05, 922.993164  , 31.1905384  , 780.1159    , 0.12        , 3           , 12          , 0.174642488 , 0
-0.1202784  , 0.129704639 , -9.797953   , -0.0006789133, -0.000204831187, 0.000336490659, -0.01386784 , -0.01205055 , 1.493939E-05, 923.030762  , 31.2289371  , 780.1159    , 0.13        , 3           , 13          , 0           , 0
-0.120864972, 0.123899892 , -9.795622   , -0.0004260949, -0.000169324514, 0.0004738541, -0.0138721569, -0.0120521784, 1.97012014E-05, 923.030762  , 31.2289371  , 780.1159    , 0.14        , 3           , 14          , -0.00025969572, 7.69375038E-05
-0.118430115, 0.130779609 , -9.786955   , -0.00033713397, -0.000149779982, 0.000595574558, -0.0138756009, -0.012053594, 2.56774383E-05, 923.030762  , 31.2289371  , 780.1159    , 0.15        , 3           , 15          , 0           , 0.00010148211
-0.108376563, 0.1333923   , -9.787515   , -0.000365507236, -0.0001159618, 0.00052770396, -0.0138793187, -0.012054679, 3.097031E-05, 923.030762  , 31.2289371  , 780.1159    , 0.16        , 3           , 16          , 0           , 1.401298E-45
-0.113838352, 0.130932018 , -9.786707   , -9.303636E-05, 0.0004639096, 0.000420697645, -0.0138803  , -0.0120499823, 3.51126837E-05, 923.030762  , 31.2289371  , 780.1159    , 0.17        , 3           , 20          , 0           , 0
-0.10679704 , 0.140696272 , -9.786425   , 0.000376104348, 0.000431513938, -6.471443E-05, -0.0138765322, -0.0120456759, 3.440569E-05, 923.030762  , 31.2289371  , 780.1159    , 0.18        , 3           , 21          , 0           , 0
-0.107815526, 0.148697659 , -9.791014   , -7.98557E-05, 0.000150978754, 0.000459671 , -0.0138773844, -0.0120441029, 3.89812267E-05, 923.030762  , 31.2289371  , 780.1159    , 0.19        , 3           , 22          , 0           , 0
-0.115627088, 0.141339153 , -9.786643   , -0.0004415828, -0.0005282356, -0.0006261523, -0.0138817253, -0.012049472, 3.27933267E-05, 923.030762  , 31.2289371  , 780.1159    , 0.2         , 3           , 40          , 0           , 0
-0.1255095  , 0.135339126 , -9.79265    , 0.000396680116, -4.21539371E-05, 7.953063E-05, -0.0138764363, -0.0120290285, 3.35784061E-05, 923.030762  , 31.2289371  , 779.946655  , 0.21        , 3           , 41          , 0           , 0
-0.125889555, 0.141068727 , -9.795016   , -6.88303553E-05, -0.00027041795, 0.0003187848, -0.0138771618, -0.0120316893, 3.68036272E-05, 923.030762  , 31.2289371  , 779.9467    , 0.22        , 3           , 42          , 0           , 0
-0.122612849, 0.1369026   , -9.80114651 , -0.000380001264, -5.35940926E-05, -8.768748E-05, -0.0138809523, -0.0120322378, 3.593423E-05, 923.0618    , 31.2545147  , 779.9468    , 0.23        , 3           , 255         , 0           , 0
-0.129214123, 0.13656947  , -9.787195   , -0.000310378266, -0.000233040919, -0.000460341776, -0.013884   , -0.0120346313, 3.13633827E-05, 923.0618    , 31.2545147  , 779.946838  , 0.24        , 3           , 255         , 0           , 0
-0.125454873, 0.139462456 , -9.799926   , -0.000171613385, -0.000467761653, -0.000200677081, -0.0138856936, -0.0120393354, 2.9421657E-05, 923.0618    , 31.2545147  , 779.9469    , 0.25        , 3           , 255         , 0           , 0
-0.1119047  , 0.130022913 , -9.786657   , -0.0005102438, -2.64245136E-05, 0.00019766044, -0.0138908187, -0.0120395711, 3.14018362E-05, 923.0618    , 31.2545147  , 779.94696   , 0.26        , 3           , 255         , 0           , 0
-0.119506516, 0.1374636   , -9.792643   , -0.00073136983, 0.000105454877, 8.908794E-05, -0.0138981417, -0.0120385047, 3.22780143E-05, 923.0618    , 31.2545147  , 779.947     , 0.27        , 3           , 255         , 0           , 0
-0.12148343 , 0.1354582   , -9.803196   , -0.0006110713, 0.0004513728, 0.000131390727, -0.013904267, -0.0120339738, 3.35291E-05 , 923.0618    , 31.2545147  , 779.9471    , 0.28        , 3           , 255         , 0           , 0
-0.112789795, 0.132537752 , -9.798393   , -8.23468145E-05, 0.000128054235, -7.03044643E-05, -0.0139050819, -0.0120327035, 3.28082861E-05, 923.0618    , 31.2545147  , 779.947144  , 0.29        , 3           , 255         , 0           , 0
-0.107389018, 0.134689212 , -9.793849   , -0.000427662628, -0.000155790636, 8.56195038E-05, -0.0139093688, -0.0120342486, 3.368611E-05, 923.0618    , 31.2545147  , 779.9472    , 0.3         , 3           , 255         , 0           , 0
-0.12048234 , 0.129613683 , -9.790223   , 5.41545742E-05, -0.00016634434, -0.0002574906, -0.0139085958, -0.0120432209, 3.11320473E-05, 923.0618    , 31.2545147  , 779.797363  , 0.31        , 3           , 255         , 0           , 0
-0.113907814, 0.1293484   , -9.784999   , 0.0006706206, 0.000239978253, -0.000440553937, -0.0139018381, -0.0120408805, 2.669336E-05, 923.0618    , 31.2545147  , 779.7974    , 0.32        , 3           , 255         , 0           , 0
-0.118310049, 0.1338196   , -9.782973   , 0.000571488752, 0.000373982737, 9.72337657E-05, -0.0138961356, -0.012037131, 2.76136743E-05, 923.026733  , 31.27005    , 779.7975    , 0.33        , 3           , 255         , 0           , 0
-0.118084252, 0.1411356   , -9.788123   , 0.000278148 , -0.000253753242, 0.0003014335, -0.013893391, -0.0120396242, 3.06631118E-05, 923.026733  , 31.27005    , 779.797546  , 0.34        , 3           , 255         , 0           , 0
-0.120688066, 0.138270527 , -9.796763   , 0.000412488473, -0.000174363318, 0.0009700935, -0.0138893826, -0.0120412335, 4.038781E-05, 923.026733  , 31.27005    , 779.7976    , 0.35        , 3           , 255         , 0           , 0
-0.116552614, 0.132358029 , -9.794167   , 0.0003995903, 0.0003127687, 0.000377873221, -0.0138854329, -0.0120380549, 4.412292E-05, 923.026733  , 31.27005    , 779.797668  , 0.36        , 3           , 255         , 0           , 0
-0.1223282  , 0.140542209 , -9.790623   , 6.446442E-05, -0.000587533461, -0.0006835589, -0.0138847064, -0.0120440247, 3.73692455E-05, 923.026733  , 31.27005    , 779.7977    , 0.37        , 3           , 255         , 0           , 0
-0.124234878, 0.143373936 , -9.794477   , -5.26820077E-05, -0.000318823266, 0.000425892067, -0.0138852857, -0.0120471511, 4.167223E-05, 923.026733  , 31.27005    , 779.7978    , 0.38        , 3           , 255         , 0           , 0
-0.113203906, 0.14129585  , -9.791443   , 0.000389881636, 2.58503278E-05, 0.000192610838, -0.01388141 , -0.0120468652, 4.359465E-05, 923.026733  , 31.27005    , 779.797852  , 0.39        , 3           , 255         , 0           , 0
-0.1134008  , 0.134804547 , -9.789505   , 0.0002737968, 0.0002724866, 8.167083E-05, -0.0138786789, -0.012044129, 4.43734934E-05, 923.026733  , 31.27005    , 779.7979    , 0.4         , 3           , 255         , 0           , 0
-0.121128306, 0.132953614 , -9.78778    , 0.000268409727, 0.000362548628, 6.00808562E-05, -0.0138779664, -0.0120414617, 4.49476174E-05, 923.026733  , 31.27005    , 779.802368  , 0.41        , 3           , 255         , 0           , 0
-0.123737946, 0.131770954 , -9.783428   , 0.000160612239, 0.0005231746, -0.0005106254, -0.0138762994, -0.0120363  , 3.97690164E-05, 923.026733  , 31.27005    , 779.8024    , 0.42        , 3           , 255         , 0           , 0
-0.122524418, 0.140906543 , -9.787222   , -0.0003898706, 7.98791E-05 , -1.43725338E-05, -0.013880196, -0.0120355031, 3.96142132E-05, 923.006653  , 31.28355    , 779.8025    , 0.43        , 3           , 255         , 0           , 0
-0.122508071, 0.127641976 , -9.790426   , -5.274007E-05, 0.000158916067, -0.000199142873, -0.013880698, -0.0120339422, 3.760083E-05, 923.006653  , 31.28355    , 779.802551  , 0.44        , 3           , 255         , 0           , 0
-0.115759239, 0.134482011 , -9.796188   , -0.000108961191, 3.49114125E-05, 0.000302673172, -0.013881824, -0.0120335519, 4.06225663E-05, 923.006653  , 31.28355    , 779.8026    , 0.45        , 3           , 255         , 0           , 0
-0.115785278, 0.132983357 , -9.799463   , -0.0001530071, -0.000260962028, 3.83680162E-06, -0.0138833551, -0.0120361606, 4.06971667E-05, 923.006653  , 31.28355    , 779.8027    , 0.46        , 3           , 255         , 0           , 0
-0.1191384  , 0.13163279  , -9.795127   , 0.0004891484, 8.677183E-06, -3.23791755E-05, -0.013878461, -0.0120360777, 4.0372186E-05, 923.006653  , 31.28355    , 779.802734  , 0.47        , 3           , 255         , 0           , 0
-0.123794   , 0.139200777 , -9.789786   , 0.0005038981, 0.0001562247, 0.0004947531, -0.01387348 , -0.0120344469, 4.5297802E-05, 923.006653  , 31.28355    , 779.8028    , 0.48        , 3           , 255         , 0           , 0
-0.118525624, 0.135626122 , -9.802218   , 0.000366870925, 2.78345833E-05, 0.0003835406, -0.0138698593, -0.0120341163, 4.912916E-05, 923.006653  , 31.28355    , 779.802856  , 0.49        , 3           , 255         , 0           , 0
-0.125799492, 0.127138466 , -9.79107    , 0.000223274546, -0.000254832441, -3.814987E-05, -0.0138676241, -0.0120366691, 4.878303E-05, 923.006653  , 31.28355    , 779.8029    , 0.5         , 3           , 255         , 0           , 0
-0.124007165, 0.1346027   , -9.786581   , -0.000579724961, 0.000353474141, -3.50290575E-05, -0.0138643766, -0.0120440247, 4.82748655E-05, 923.006653  , 31.28355    , 779.843     , 0.51        , 3           , 255         , 0           , 0
-0.1144823  , 0.13791199  , -9.782807   , -0.0007043531, -0.0002936314, 6.1750834E-06, -0.0138714192, -0.0120469583, 4.837732E-05, 923.006653  , 31.28355    , 779.8431    , 0.52        , 3           , 255         , 0           , 0
-0.122116283, 0.1422454   , -9.78731251 , -0.00043227867, -0.000396277377, 6.611033E-05, -0.01387575 , -0.0120509118, 4.90933744E-05, 923.0414    , 31.2887745  , 779.84314   , 0.53        , 3           , 255         , 0           , 0
-0.110714018, 0.144738868 , -9.783675   , 0.000133189955, -0.000109390821, -0.00104339654, -0.0138742914, -0.0120521486, 3.86750835E-05, 923.0414    , 31.2887745  , 779.8432    , 0.54        , 3           , 255         , 0           , 0
-0.116459712, 0.138303921 , -9.79315    , -0.000164447643, 0.0004846896, -0.000188808073, -0.0138759147, -0.0120473281, 3.67198481E-05, 923.0414    , 31.2887745  , 779.843262  , 0.55        , 3           , 255         , 0           , 0
-0.109951362, 0.135963917 , -9.800028   , 0.000444332254, 6.56015545E-05, 0.000136365241, -0.0138714882, -0.0120466566, 3.807434E-05, 923.0414    , 31.2887745  , 779.8434    , 0.56        , 3           , 255         , 0           , 0
-0.109472178, 0.1340567   , -9.794497   , -0.0002890819, 3.42066924E-05, -0.000108799839, -0.013874365, -0.0120463278, 3.69816444E-05, 923.0414    , 31.2887745  , 779.8435    , 0.57        , 3           , 255         , 0           , 0
-0.1144893  , 0.139441639 , -9.785386   , 0.0003354755, 0.000356785429, -0.0003610379, -0.0138709666, -0.01204281 , 3.33219359E-05, 923.0414    , 31.2887745  , 779.8436    , 0.58        , 3           , 255         , 0           , 0
-0.114241421, 0.141052991 , -9.78257751 , 0.0002765089, 0.000179903262, -2.84964772E-05, -0.0138681987, -0.0120410146, 3.301204E-05, 923.0414    , 31.2887745  , 779.84375   , 0.59        , 3           , 255         , 0           , 0
-0.115878977, 0.127598166 , -9.793175   , 0.000319354935, 5.70685879E-05, 0.000406453852, -0.0138650527, -0.0120403869, 3.70684647E-05, 923.0414    , 31.2887745  , 779.8439    , 0.6         , 3           , 255         , 0           , 0
-0.122897446, 0.1386193   , -9.79566    , 0.0003900894, 2.479132E-05, 0.0002757638, -0.0138692455, -0.0120273447, 3.991948E-05, 923.0414    , 31.2887745  , 779.8159    , 0.61        , 3           , 255         , 0           , 0
-0.117326573, 0.140861392 , -9.789966   , 0.000109363988, 0.000366271241, 0.0003284599, -0.0138681913, -0.0120236361, 4.31531262E-05, 923.0414    , 31.2887745  , 779.816     , 0.62        , 3           , 255         , 0           , 0
-0.115717173, 0.145015568 , -9.784851   , -0.0003284037, -0.000294016732, 0.00123725948, -0.0138716251, -0.0120264068, 5.55659E-05 , 923.040466  , 31.2938633  , 779.8161    , 0.63        , 3           , 255         , 0           , 0
-0.130576029, 0.134175614 , -9.78963    , 0.000188521371, -5.73423931E-05, 0.00113088451, -0.0138698751, -0.0120268213, 6.68821449E-05, 923.040466  , 31.2938633  , 779.8162    , 0.64        , 3           , 255         , 0           , 0
-0.133082747, 0.137215674 , -9.795564   , -1.3550889E-05, 0.000435700262, 0.0002665773, -0.0138700418, -0.0120224273, 6.94873452E-05, 923.040466  , 31.2938633  , 779.816345  , 0.65        , 3           , 255         , 0           , 0
-0.120842382, 0.130473971 , -9.792858   , 1.879978E-05, 0.000534042 , -0.000159105752, -0.0138698351, -0.01201711 , 6.782231E-05, 923.040466  , 31.2938633  , 779.816467  , 0.66        , 3           , 255         , 0           , 0
-0.120060876, 0.131904691 , -9.792282   , -0.000113708549, 0.000394165574, -0.00010988034, -0.0138709582, -0.012013183, 6.666889E-05, 923.040466  , 31.2938633  , 779.8166    , 0.67        , 3           , 255         , 0           , 0
-0.115690507, 0.1287481   , -9.791928   , 8.888601E-07, -0.000223621377, 0.000266627234, -0.0138709815, -0.0120153818, 6.936604E-05, 923.040466  , 31.2938633  , 779.8167    , 0.68        , 3           , 255         , 0           , 0
-0.110020414, 0.135999039 , -9.790347   , -0.000285741262, 0.000291918055, 0.000108654174, -0.01387385 , -0.0120124482, 7.041203E-05, 923.040466  , 31.2938633  , 779.816833  , 0.69        , 3           , 255         , 0           , 0
-0.101456426, 0.134190351 , -9.792695   , 0.000255287421, 0.0004095554, 0.000222926741, -0.0138713242, -0.0120083261, 7.258438E-05, 923.040466  , 31.2938633  , 779.816956  , 0.7         , 3           , 255         , 0           , 0
-0.115566649, 0.135370851 , -9.785782   , -0.0005875295, 0.000228767225, 0.000340831029, -0.0138768973, -0.012009548, 7.59566756E-05, 923.040466  , 31.2938633  , 779.7982    , 0.71        , 3           , 255         , 0           , 0
-0.126402467, 0.139408082 , -9.79225    , -0.000475413, -0.000200129463, -0.000232338993, -0.0138816237, -0.0120115792, 7.366118E-05, 923.040466  , 31.2938633  , 779.79834   , 0.72        , 3           , 255         , 0           , 0
-0.114531778, 0.1386286   , -9.787674   , 6.218326E-05, 0.000306986272, -0.000234288265, -0.0138809737, -0.0120085431, 7.127579E-05, 923.0226    , 31.300375   , 779.798462  , 0.73        , 3           , 255         , 0           , 0
-0.108553529, 0.136633471 , -9.790871   , 0.0003633612, 7.57675152E-05, -0.0005375531, -0.0138772754, -0.0120078605, 6.589001E-05, 923.0226    , 31.300375   , 779.7986    , 0.74        , 3           , 255         , 0           , 0
-0.120236084, 0.137650162 , -9.802025   , -7.944662E-05, 0.00022194584, -0.0002986143, -0.0138780335, -0.0120056821, 6.287321E-05, 923.0226    , 31.300375   , 779.7987    , 0.75        , 3           , 255         , 0           , 0
-0.1198472  , 0.141070589 , -9.802018   , 3.290738E-05, 0.000384306477, 0.0007519408, -0.0138777951, -0.012001737, 7.0338916E-05, 923.0226    , 31.300375   , 779.7988    , 0.76        , 3           , 255         , 0           , 0
-0.122577   , 0.139934987 , -9.793634   , 9.134789E-05, 2.16697663E-05, 0.0003305504, -0.01387692 , -0.0120014744, 7.36412549E-05, 923.0226    , 31.300375   , 779.79895   , 0.77        , 3           , 255         , 0           , 0
-0.125540182, 0.142688826 , -9.796278   , 0.000126531915, -0.000377206045, -0.0009428785, -0.0138755413, -0.0120053785, 6.426527E-05, 923.0226    , 31.300375   , 779.7991    , 0.78        , 3           , 255         , 0           , 0
-0.115956649, 0.136052519 , -9.800589   , -0.000112465612, -0.000365049375, 0.000460471376, -0.0138767231, -0.0120089622, 6.892041E-05, 923.0226    , 31.300375   , 779.7992    , 0.79        , 3           , 255         , 0           , 0
-0.114012182, 0.143160909 , -9.794764   , 0.000535237137, -0.00031092664, 0.000249573175, -0.0138714006, -0.0120120365, 7.14591442E-05, 923.0226    , 31.300375   , 779.7993    , 0.8         , 3           , 255         , 0           , 0
-0.114718512, 0.146300346 , -9.794217   , -0.000233825791, -0.0005766188, 0.000260166067, -0.0138823921, -0.0120197143, 7.42443153E-05, 923.0226    , 31.300375   , 779.8068    , 0.81        , 3           , 255         , 0           , 0
-0.125475362, 0.140024066 , -9.793068   , 7.03586848E-05, -0.000268275442, -0.000370022259, -0.0138816452, -0.0120224487, 7.058152E-05, 923.0226    , 31.300375   , 779.806946  , 0.82        , 3           , 255         , 0           , 0
-0.119292341, 0.130689546 , -9.797415   , -0.000368051376, -6.345209E-05, -0.000472441956, -0.0138852689, -0.0120231481, 6.586613E-05, 923.0306    , 31.3049889  , 779.807068  , 0.83        , 3           , 255         , 0           , 0
-0.11976473 , 0.130549669 , -9.793028   , -0.000249229575, 0.000279994274, -8.28838238E-05, -0.0138877518, -0.0120203607, 6.499846E-05, 923.0306    , 31.3049889  , 779.8072    , 0.84        , 3           , 255         , 0           , 0
-0.123571157, 0.131564572 , -9.791196   , 1.07723172E-05, 0.0001438383, 0.000307311944, -0.0138876811, -0.01201888 , 6.805144E-05, 923.0306    , 31.3049889  , 779.8073    , 0.85        , 3           , 255         , 0           , 0
-0.120536961, 0.133551717 , -9.789081   , 0.000288767973, 5.05865464E-05, 0.0003889149, -0.0138848405, -0.01201832 , 7.193339E-05, 923.0306    , 31.3049889  , 779.807434  , 0.86        , 3           , 255         , 0           , 0
-0.113260068, 0.131947547 , -9.800753   , 0.0008224166, -3.529804E-05, 0.0005615944, -0.013876684, -0.0120185958, 7.755396E-05, 923.0306    , 31.3049889  , 779.807556  , 0.87        , 3           , 255         , 0           , 0
-0.114434794, 0.141744167 , -9.793018   , 0.000447432743, -0.000221937808, -8.756052E-05, -0.0138721978, -0.0120208254, 7.670918E-05, 923.0306    , 31.3049889  , 779.8077    , 0.88        , 3           , 255         , 0           , 0
-0.118509471, 0.136116475 , -9.788059   , -0.00022602547, -0.0002818929, 0.000154397814, -0.0138744768, -0.0120236222, 7.829219E-05, 923.0306    , 31.3049889  , 779.8078    , 0.89        , 3           , 255         , 0           , 0
-0.111522123, 0.138444364 , -9.795876   , 0.000178463786, -0.0002786239, 0.00058904913, -0.0138727641, -0.0120263267, 8.422106E-05, 923.0306    , 31.3049889  , 779.8079    , 0.9         , 3           , 255         , 0           , 0
-0.122146532, 0.137371317 , -9.785353   , 0.000332360476, -0.000147183877, -0.00100148306, -0.0138695352, -0.0120290248, 7.42297E-05 , 923.0306    , 31.3049889  , 779.8047    , 0.91        , 3           , 255         , 0           , 0
-0.128262341, 0.12666364  , -9.787367   , -7.250687E-05, -6.925173E-05, -0.000633224146, -0.0138701834, -0.0120298062, 6.79073637E-05, 923.0306    , 31.3049889  , 779.8048    , 0.92        , 3           , 255         , 0           , 0
-0.130327508, 0.1294479   , -9.795197   , 0.000387103239, 6.7701556E-05, -0.000902994652, -0.0138662048, -0.0120292548, 5.886848E-05, 922.998169  , 31.3034954  , 779.804932  , 0.93        , 3           , 255         , 0           , 0
-0.117279425, 0.140462667 , -9.785991   , 0.000114748269, -0.000164196041, -0.0004426025, -0.0138650034, -0.0120309563, 5.44654322E-05, 922.998169  , 31.3034954  , 779.805054  , 0.94        , 3           , 255         , 0           , 0
-0.118103959, 0.141603634 , -9.78097    , -0.00020703781, 0.0005699646, 0.0001778864, -0.0138670942, -0.0120252324, 5.616517E-05, 922.998169  , 31.3034954  , 779.8052    , 0.95        , 3           , 255         , 0           , 0
-0.118477739, 0.131773353 , -9.791022   , 0.000428992382, -8.86544E-05, -0.000154192559, -0.0138627859, -0.01202614 , 5.463561E-05, 922.998169  , 31.3034954  , 779.8053    , 0.96        , 3           , 255         , 0           , 0
-0.112625763, 0.134903044 , -9.791774   , 0.0002596559, -0.000566164148, -0.0005783506, -0.01386012 , -0.0120318811, 4.89308622E-05, 922.998169  , 31.3034954  , 779.8054    , 0.97        , 3           , 255         , 0           , 0
-0.118326485, 0.142436519 , -9.788138   , -0.000157694158, 2.75137718E-05, -0.000396475079, -0.01386165 , -0.0120316613, 4.496249E-05, 922.998169  , 31.3034954  , 779.805542  , 0.98        , 3           , 255         , 0           , 0
-0.1256032  , 0.147974446 , -9.790766   , 0.000101796963, -0.000136692222, 1.82938747E-05, -0.0138606336, -0.0120330248, 4.516436E-05, 922.998169  , 31.3034954  , 779.805664  , 0.99        , 3           , 255         , 0           , 0
-0.110659659, 0.14016673  , -9.792566   , -3.25028959E-05, -0.000121816352, -0.00014609762, -0.0138609419, -0.0120342625, 4.37203453E-05, 922.998169  , 31.3034954  , 779.8058    , 1           , 3           , 0           , 6.45523643  , 100
-0.11215663 , 0.134790719 , -9.782465   , -0.000321399973, -0.000335983059, -0.000421761768, -0.0138702551, -0.0120474016, 3.96236E-05 , 922.998169  , 31.3034954  , 779.838257  , 1.01        , 3           , 1           , 0           , 0
-0.118641213, 0.132510558 , -9.796873   , 0.000271540979, -0.000175205336, -0.000905401132, -0.01386743 , -0.012049281, 3.05943249E-05, 922.998169  , 31.3034954  , 779.83844   , 1.02        , 3           , 2           , 0           , 0
-0.111386694, 0.125714809 , -9.788396   , -0.000264708971, -0.00054994697, -0.00033883896, -0.0138700372, -0.0120548252, 2.728237E-05, 923.043335  , 31.3081779  , 779.8386    , 1.03        , 3           , 3           , 0           , 0
-0.111091778, 0.126625091 , -9.796774   , 6.532419E-05, -0.000101070123, 1.96555629E-06, -0.0138693852, -0.0120558366, 2.73160422E-05, 923.043335  , 31.3081779  , 779.8388    , 1.04        , 3           , 4           , 0           , 0
-0.113625035, 0.130197376 , -9.790777   , 6.921815E-05, -0.000334951561, 0.000100741818, -0.0138687054, -0.0120591717, 2.83698737E-05, 923.043335  , 31.3081779  , 779.839     , 1.05        , 3           , 5           , 0           , 0
-0.116274431, 0.1374313   , -9.793543   , -1.02952472E-05, 0.000127434236, -0.000133042675, -0.0138687929, -0.0120579163, 2.70218352E-05, 923.043335  , 31.3081779  , 779.839233  , 1.06        , 3           , 6           , 0           , 0
-0.127975568, 0.1383788   , -9.789647   , -0.000283659872, 8.1072E-05  , -0.0005046286, -0.0138715673, -0.0120571759, 2.19645535E-05, 923.043335  , 31.3081779  , 779.8395    , 1.07        , 3           , 7           , 0           , 0
-0.1273457  , 0.136430249 , -9.790842   , 0.000175161069, 0.000291125354, 9.7019496E-05, -0.0138698267, -0.0120542506, 2.28943136E-05, 923.043335  , 31.3081779  , 779.8397    , 1.08        , 3           , 8           , 5           , 5
-0.115978792, 0.14477241  , -9.79299    , -8.479529E-05, -7.716786E-06, 0.00080446474, -0.013870771, -0.0120542161, 3.09396419E-05, 923.043335  , 31.3081779  , 779.839966  , 1.09        , 3           , 9           , 5           , 0.1
-0.121967867, 0.142484739 , -9.794912   , 0.000106751337, -0.0001032338, -0.000337724865, -0.0138696637, -0.0120552965, 2.757688E-05, 923.043335  , 31.3081779  , 779.8402    , 1.1         , 3           , 10          , 0.1         , 0.1
-0.108540282, 0.1345199   , -9.793401   , 0.0005329449, 0.00017185256, -9.027234E-05, -0.0138616376, -0.0120522417, 2.66179977E-05, 923.043335  , 31.3081779  , 779.8204    , 1.11        , 3           , 11          , 0.009077543 , 0.009077543
-0.1100266  , 0.134847209 , -9.808113   , -0.000172655913, -0.000423505466, 0.000100352896, -0.0138633754, -0.0120564634, 2.7680182E-05, 923.043335  , 31.3081779  , 779.820557  , 1.12        , 3           , 12          , 0.174642846 , 0
-0.120334074, 0.137494922 , -9.781511   , -8.846159E-05, -0.0004976896, -0.0007617889, -0.0138641689, -0.0120615438, 2.013166E-05, 923.0446    , 31.3101444  , 779.82074   , 1.13        , 3           , 13          , 0           , 0
-0.112427235, 0.139909059 , -9.785781   , -0.000661817263, -0.00013138655, -0.000318747, -0.0138707487, -0.0120629016, 1.69625546E-05, 923.0446    , 31.3101444  , 779.8209    , 1.14        , 3           , 14          , -0.0002596834, 7.694917E-05
-0.111882463, 0.134179235 , -9.791982   , -0.00026552385, 0.000437158771, -0.000223869574, -0.013873376, -0.0120585617, 1.46633365E-05, 923.0446    , 31.3101444  , 779.8211    , 1.15        , 3           , 15          , 0           , 0.000101482125
-0.120231584, 0.140990764 , -9.79962    , 2.887963E-05, 0.000147585291, 3.73371658E-05, -0.0138730919, -0.0120570809, 1.50162177E-05, 923.0446    , 31.3101444  , 779.8213    , 1.16        , 3           , 16          , 0           , 1.401298E-45
-0.114693306, 0.143136    , -9.792086   , 0.000249636738, -0.0002407741, 0.000413323083, -0.0138706472, -0.0120594306, 1.91826384E-05, 923.0446    , 31.3101444  , 779.8215    , 1.17        , 3           , 20          , 0           , 0
-0.114675954, 0.134980217 , -9.793998   , 1.214401E-05, -0.000493900967, 0.0007219919, -0.0138706136, -0.0120642688, 2.64707214E-05, 923.0446    , 31.3101444  , 779.821655  , 1.18        , 3           , 21          , 0           , 0
-0.115606174, 0.129334167 , -9.787783   , -3.22665437E-06, -6.123069E-05, 0.000537303 , -0.0138707105, -0.0120648062, 3.18519851E-05, 923.0446    , 31.3101444  , 779.821838  , 1.19        , 3           , 22          , 0           , 0
-0.114010319, 0.132348016 , -9.788358   , 0.0008164468, 0.0006018582, -0.000278806139, -0.013862513, -0.012058828, 2.8980603E-05, 923.0446    , 31.3101444  , 779.822     , 1.2         , 3           , 40          , 0           , 0
-0.113397285, 0.13472721  , -9.788093   , 0.000377878023, 0.000122271769, 0.000114816627, -0.0138596753, -0.0120464955, 3.01229356E-05, 923.0446    , 31.3101444  , 779.80304   , 1.21        , 3           , 41          , 0           , 0
-0.116437241, 0.134863183 , -9.792173   , -0.000526828459, -9.321761E-05, 0.00013204  , -0.0138649577, -0.01204741 , 3.14561948E-05, 923.0446    , 31.3101444  , 779.803162  , 1.22        , 3           , 42          , 0           , 0
-0.123294011, 0.139091387 , -9.790567   , -0.000120646961, -0.000110522, -0.000401894882, -0.0138661154, -0.0120485686, 2.74527647E-05, 923.0208    , 31.3097382  , 779.8033    , 1.23        , 3           , 255         , 0           , 0
-0.115994692, 0.137093738 , -9.800754   , 0.000278224819, 0.0003393508, -0.000240356458, -0.0138633046, -0.0120452084, 2.500227E-05, 923.0208    , 31.3097382  , 779.8034    , 1.24        , 3           , 255         , 0           , 0
-0.119849727, 0.141075328 , -9.795514   , 6.974222E-05, 0.0004752225, 1.061341E-05, -0.0138626071, -0.0120404549, 2.50425237E-05, 923.0208    , 31.3097382  , 779.8035    , 1.25        , 3           , 255         , 0           , 0
-0.1151343  , 0.140251189 , -9.790511   , -0.000580129, 0.0003220442, 0.000975092 , -0.0138685266, -0.0120371021, 3.474832E-05, 923.0208    , 31.3097382  , 779.80365   , 1.26        , 3           , 255         , 0           , 0
-0.124050185, 0.141925842 , -9.795206   , -0.000321793632, 0.000111838053, 0.000216886518, -0.01387177 , -0.0120359538, 3.690157E-05, 923.0208    , 31.3097382  , 779.8038    , 1.27        , 3           , 255         , 0           , 0
-0.123398863, 0.140049174 , -9.79523    , -0.000184698147, 0.000148666673, 0.00010198856, -0.0138736283, -0.0120344525, 3.790078E-05, 923.0208    , 31.3097382  , 779.8039    , 1.28        , 3           , 255         , 0           , 0
-0.116882481, 0.132499725 , -9.799758   , -0.0006455439, 0.00014276398, 0.000374791649, -0.013880128, -0.0120329726, 4.1628693E-05, 923.0208    , 31.3097382  , 779.804     , 1.29        , 3           , 255         , 0           , 0
-0.117149971, 0.129275292 , -9.7957325  , -0.000149180589, 0.000297180522, 1.30566768E-05, -0.0138816219, -0.0120299989, 4.17180054E-05, 923.0208    , 31.3097382  , 779.804138  , 1.3         , 3           , 255         , 0           , 0
-0.114315055, 0.1487395   , -9.796015   , -1.1481723E-05, 0.0002269558, 0.000352492643, -0.013884915, -0.012029117, 4.52489621E-05, 923.0208    , 31.3097382  , 779.8117    , 1.31        , 3           , 255         , 0           , 0
-0.117511354, 0.146004513 , -9.796161   , 0.000187625992, 9.78303942E-05, 0.000345144363, -0.0138830794, -0.0120280907, 4.86866629E-05, 923.0208    , 31.3097382  , 779.8119    , 1.32        , 3           , 255         , 0           , 0
-0.112378336, 0.1308823   , -9.797654   , 8.09899648E-05, -0.000551959965, 0.00100412546, -0.01388239 , -0.0120334728, 5.88040457E-05, 923.0043    , 31.3122482  , 779.8121    , 1.33        , 3           , 255         , 0           , 0
-0.115501344, 0.13628915  , -9.789292   , 0.000134829781, -6.339699E-05, 0.0005658434, -0.0138811106, -0.0120340269, 6.447101E-05, 923.0043    , 31.3122482  , 779.812256  , 1.34        , 3           , 255         , 0           , 0
-0.109120391, 0.1379601   , -9.794377   , 3.23304557E-05, -1.45028389E-05, 0.000445363054, -0.0138808414, -0.0120341107, 6.892644E-05, 923.0043    , 31.3122482  , 779.812439  , 1.35        , 3           , 255         , 0           , 0
-0.1135517  , 0.12782     , -9.791601   , -0.000295722944, 1.92162115E-05, 5.86750539E-05, -0.0138838049, -0.0120339105, 6.95105E-05 , 923.0043    , 31.3122482  , 779.8126    , 1.36        , 3           , 255         , 0           , 0
-0.11844907 , 0.134735018 , -9.793952   , -0.000116935029, -4.17019219E-05, -0.00101261656, -0.0138848545, -0.0120344684, 5.93906079E-05, 923.0043    , 31.3122482  , 779.8128    , 1.37        , 3           , 255         , 0           , 0
-0.113672093, 0.138824627 , -9.800812   , -0.00043558047, -0.0003385182, -5.85711168E-05, -0.0138892028, -0.0120378612, 5.885194E-05, 923.0043    , 31.3122482  , 779.813     , 1.38        , 3           , 255         , 0           , 0
-0.118240729, 0.131143242 , -9.800538   , 0.000306729635, 0.000342191284, 0.000123852253, -0.0138861509, -0.0120344218, 6.00428866E-05, 923.0043    , 31.3122482  , 779.8132    , 1.39        , 3           , 255         , 0           , 0
-0.120065473, 0.137148365 , -9.793237   , -0.000609216862, 0.000196900219, 0.000590877549, -0.0138923125, -0.0120323719, 6.5924025E-05, 923.0043    , 31.3122482  , 779.813354  , 1.4         , 3           , 255         , 0           , 0
-0.1160635  , 0.145043939 , -9.789606   , 3.5619596E-05, 0.000263608032, -0.000290509546, -0.0138940951, -0.0120239574, 6.300858E-05, 923.0043    , 31.3122482  , 779.8373    , 1.41        , 3           , 255         , 0           , 0
-0.109514631, 0.138908118 , -9.803312   , 0.0004735483, -0.000102924278, 0.0005226912, -0.0138894245, -0.0120249139, 6.82495447E-05, 923.0043    , 31.3122482  , 779.8376    , 1.42        , 3           , 255         , 0           , 0
-0.116944775, 0.1431731   , -9.793027   , 1.82787771E-05, -3.939519E-05, -0.000244467577, -0.0138892131, -0.0120253414, 6.581045E-05, 923.076538  , 31.31435    , 779.8379    , 1.43        , 3           , 255         , 0           , 0
-0.119225718, 0.133618563 , -9.784979   , -0.000337550271, -0.0001587795, -3.160003E-05, -0.0138925835, -0.012026933, 6.551653E-05, 923.076538  , 31.31435    , 779.8382    , 1.44        , 3           , 255         , 0           , 0
-0.117633857, 0.143789336 , -9.785927   , 4.5706518E-05, 0.000389210443, 1.17435338E-05, -0.0138921263, -0.01202304 , 6.557989E-05, 923.076538  , 31.31435    , 779.8385    , 1.45        , 3           , 255         , 0           , 0
-0.110843226, 0.142431423 , -9.791243   , -0.000522708055, -0.00019304303, -0.00105210883, -0.0138972271, -0.0120251141, 5.508614E-05, 923.076538  , 31.31435    , 779.8388    , 1.46        , 3           , 255         , 0           , 0
-0.119839408, 0.131978    , -9.80044    , -0.000119374832, -0.00012918358, -0.000363261759, -0.0138983782, -0.0120264571, 5.14716521E-05, 923.076538  , 31.31435    , 779.8391    , 1.47        , 3           , 255         , 0           , 0
-0.116885543, 0.129866511 , -9.793928   , -9.647722E-05, -0.000123897742, -0.000363282859, -0.0138992993, -0.0120277461, 4.78562251E-05, 923.076538  , 31.31435    , 779.8394    , 1.48        , 3           , 255         , 0           , 0
-0.113869213, 0.120447136 , -9.785967   , 0.000478413247, -3.87678047E-05, 0.000368725741, -0.0138945607, -0.0120280823, 5.15486863E-05, 923.076538  , 31.31435    , 779.8397    , 1.49        , 3           , 255         , 0           , 0
-0.116577029, 0.1254748   , -9.78266048 , -6.240382E-05, 7.310217E-05, 0.000386977539, -0.0138952313, -0.0120272972, 5.540811E-05, 923.076538  , 31.31435    , 779.84      , 1.5         , 3           , 255         , 0           , 0
-0.115899757, 0.136165664 , -9.792582   , 0.000519302732, 0.000424613128, -8.888635E-05, -0.0138884084, -0.0120172165, 5.44408576E-05, 923.076538  , 31.31435    , 779.7856    , 1.51        , 3           , 255         , 0           , 0
-0.113551222, 0.142235518 , -9.796438   , -0.000338496931, 0.000255053368, -0.000323482731, -0.0138917519, -0.0120147122, 5.117076E-05, 923.076538  , 31.31435    , 779.785645  , 1.52        , 3           , 255         , 0           , 0
-0.116557673, 0.140057281 , -9.787349   , -0.00015055007, -7.213045E-05, 0.000328401075, -0.0138932969, -0.0120153874, 5.44646246E-05, 923.0778    , 31.3111629  , 779.7857    , 1.53        , 3           , 255         , 0           , 0
-0.120430157, 0.125937849 , -9.792312   , -0.000380216225, -0.000178571878, 0.0005106891, -0.01389716 , -0.012017102, 5.95960773E-05, 923.0778    , 31.3111629  , 779.785767  , 1.54        , 3           , 255         , 0           , 0
-0.126205638, 0.13672325  , -9.78828    , 0.000256907922, -0.000163700286, -0.0001804133, -0.01389457 , -0.0120187644, 5.781478E-05, 923.0778    , 31.3111629  , 779.7858    , 1.55        , 3           , 255         , 0           , 0
-0.119636223, 0.123397671 , -9.79492    , 6.78038341E-05, -0.000116453659, 0.0002865486, -0.0138939256, -0.0120198885, 6.0696304E-05, 923.0778    , 31.3111629  , 779.7859    , 1.56        , 3           , 255         , 0           , 0
-0.121179163, 0.130510136 , -9.801275   , -0.000109345361, -0.000175313719, 0.0005812498, -0.01389509 , -0.0120215612, 6.65328844E-05, 923.0778    , 31.3111629  , 779.78595   , 1.57        , 3           , 255         , 0           , 0
-0.12389648 , 0.139113426 , -9.801195   , -0.000477194029, -0.0003179822, 0.0004450998, -0.013899914, -0.0120246792, 7.102785E-05, 923.0778    , 31.3111629  , 779.786     , 1.58        , 3           , 255         , 0           , 0
-0.118659653, 0.137805864 , -9.795897   , -0.0004861636, -0.0008693293, 0.000264898466, -0.013904809, -0.012033334, 7.379755E-05, 923.0778    , 31.3111629  , 779.7861    , 1.59        , 3           , 255         , 0           , 0
-0.120251969, 0.12642774  , -9.79534    , -5.565767E-05, -0.000398093252, 0.0006354751, -0.0139054433, -0.012037226, 8.020735E-05, 923.0778    , 31.3111629  , 779.786133  , 1.6         , 3           , 255         , 0           , 0
-0.124553278, 0.12443956  , -9.806258   , 0.000311519078, 5.202245E-05, 0.000563983 , -0.0138973435, -0.0120408442, 8.577884E-05, 923.0778    , 31.3111629  , 779.7351    , 1.61        , 3           , 255         , 0           , 0
-0.1102425  , 0.133412734 , -9.797934   , -0.000776731758, -8.218733E-05, 0.000228361052, -0.0139051387, -0.0120416349, 8.80737643E-05, 923.0778    , 31.3111629  , 779.7349    , 1.62        , 3           , 255         , 0           , 0
-0.114783347, 0.134976566 , -9.792325   , 3.84164741E-05, -0.000115923744, 0.000271355762, -0.0139047885, -0.0120427562, 9.08033E-05 , 923.0319    , 31.31252    , 779.734741  , 1.63        , 3           , 255         , 0           , 0
-0.123249009, 0.14044106  , -9.787165   , 0.000422913843, -0.0003895413, -0.0002996495, -0.013900524, -0.0120466929, 8.78611245E-05, 923.0319    , 31.31252    , 779.734558  , 1.64        , 3           , 255         , 0           , 0
-0.118757628, 0.140599772 , -9.789927   , -2.72603356E-05, 7.336087E-05, 0.000112296511, -0.01390081 , -0.0120459441, 8.897384E-05, 923.0319    , 31.31252    , 779.7344    , 1.65        , 3           , 255         , 0           , 0
-0.107206248, 0.141397029 , -9.801474   , -0.0001113129, 6.298717E-05, -0.00015757668, -0.0139019033, -0.012045336, 8.7389395E-05, 923.0319    , 31.31252    , 779.7342    , 1.66        , 3           , 255         , 0           , 0
-0.11194744 , 0.144071966 , -9.794005   , -0.00050974515, -5.2537318E-05, -0.0005419624, -0.0139069352, -0.0120459367, 8.197734E-05, 923.0319    , 31.31252    , 779.734     , 1.67        , 3           , 255         , 0           , 0
-0.117219545, 0.142128825 , -9.791562   , -0.00039002602, -9.340182E-05, -0.000109374443, -0.0139108226, -0.0120468866, 8.08966361E-05, 923.0319    , 31.31252    , 779.7338    , 1.68        , 3           , 255         , 0           , 0
-0.112409905, 0.134333417 , -9.794786   , -9.90721746E-05, -0.0003042168, 0.000431810855, -0.0139118666, -0.0120498668, 8.525686E-05, 923.0319    , 31.31252    , 779.733643  , 1.69        , 3           , 255         , 0           , 0
-0.113481537, 0.136314988 , -9.791824   , 0.000351715949, -0.000122468744, 0.0008683087, -0.0139084542, -0.01205097 , 9.395655E-05, 923.0319    , 31.31252    , 779.733459  , 1.7         , 3           , 255         , 0           , 0
-0.117492892, 0.1428088   , -9.796762   , 0.0005158207, 4.18361742E-06, 7.12380861E-05, -0.013905568, -0.0120452717, 9.469557E-05, 923.0319    , 31.31252    , 779.737549  , 1.71        , 3           , 255         , 0           , 0
-0.120091639, 0.138681039 , -9.788515   , 0.000316098827, -0.0002075964, -0.000237901055, -0.0139023783, -0.0120473811, 9.234554E-05, 923.0319    , 31.31252    , 779.7374    , 1.72        , 3           , 255         , 0           , 0
-0.112997994, 0.135274678 , -9.791903   , -5.844186E-05, 2.12064988E-05, -0.000388976361, -0.0139029147, -0.0120472228, 8.845302E-05, 923.0435    , 31.312994   , 779.7373    , 1.73        , 3           , 255         , 0           , 0
-0.108617857, 0.135096028 , -9.802134   , -0.0004927933, -0.000284534355, 8.32479E-05 , -0.0139078526, -0.0120500559, 8.932501E-05, 923.0435    , 31.312994   , 779.7372    , 1.74        , 3           , 255         , 0           , 0
-0.115816638, 0.126289338 , -9.798268   , -0.000100638426, 0.000116933428, 0.000365973043, -0.0139089031, -0.0120488359, 9.296831E-05, 923.0435    , 31.312994   , 779.737061  , 1.75        , 3           , 255         , 0           , 0
-0.117028669, 0.135342821 , -9.790722   , -7.278539E-05, 5.65382652E-05, 0.0006891411, -0.0139097143, -0.0120481756, 9.985152E-05, 923.0435    , 31.312994   , 779.736938  , 1.76        , 3           , 255         , 0           , 0
-0.115187481, 0.1335785   , -9.790617   , 0.000218861751, -0.0002458468, 0.0005509675, -0.0139075927, -0.012050556, 0.000105395113, 923.0435    , 31.312994   , 779.7368    , 1.77        , 3           , 255         , 0           , 0
-0.120910265, 0.14698644  , -9.787381   , 8.00754351E-05, -0.000301116437, -1.22620913E-05, -0.01390679 , -0.0120535688, 0.000105314379, 923.0435    , 31.312994   , 779.7367    , 1.78        , 3           , 255         , 0           , 0
-0.121220089, 0.140995353 , -9.793448   , -4.74939879E-05, -2.4788169E-05, 0.000220576054, -0.013907291, -0.0120537858, 0.000107523469, 923.0435    , 31.312994   , 779.7366    , 1.79        , 3           , 255         , 0           , 0
-0.11832805 , 0.140391439 , -9.796654   , -0.000134482689, -0.000353789685, 0.000117934047, -0.0139086517, -0.0120573062, 0.000108751963, 923.0435    , 31.312994   , 779.73645   , 1.8         , 3           , 255         , 0           , 0
-0.122772411, 0.1412834   , -9.789728   , 0.000448410778, -0.00024362054, 0.000303011358, -0.0139071885, -0.0120568667, 0.00011185179, 923.0435    , 31.312994   , 779.727     , 1.81        , 3           , 255         , 0           , 0
-0.120995983, 0.12447653  , -9.795881   , 0.000398899021, -0.000320451771, -0.000256234431, -0.013903169, -0.0120601067, 0.00010933412, 923.0435    , 31.312994   , 779.7268    , 1.82        , 3           , 255         , 0           , 0
-0.119678892, 0.128644645 , -9.788704   , 0.000233398372, -0.000345688168, 0.00024168074, -0.0139008658, -0.0120635293, 0.000111798872, 923.0351    , 31.31374    , 779.7266    , 1.83        , 3           , 255         , 0           , 0
-0.114769958, 0.133956552 , -9.802137   , 0.000410540932, -0.000194121, -0.0007386749, -0.0138966711, -0.0120655727, 0.000104439467, 923.0351    , 31.31374    , 779.72644   , 1.84        , 3           , 255         , 0           , 0
-0.117923737, 0.13147971  , -9.792548   , 0.00060597487, -0.000200101756, -7.77622845E-05, -0.0138906036, -0.0120675843, 0.000103689687, 923.0351    , 31.31374    , 779.726257  , 1.85        , 3           , 255         , 0           , 0
-0.113924347, 0.121672854 , -9.785499   , 0.000320077932, -0.0005730916, -0.000129858992, -0.0138873868, -0.0120733334, 0.000102470745, 923.0351    , 31.31374    , 779.7261    , 1.86        , 3           , 255         , 0           , 0
-0.113779344, 0.132025525 , -9.785199   , 0.000638819765, -0.00057021447, 6.362288E-05, -0.0138810072, -0.0120790247, 0.000103186117, 923.0351    , 31.31374    , 779.7259    , 1.87        , 3           , 255         , 0           , 0
-0.1108125  , 0.1318461   , -9.795687   , 0.000701787 , 0.000219621172, 5.012192E-05, -0.0138739953, -0.0120768249, 0.000103656857, 923.0351    , 31.31374    , 779.7257    , 1.88        , 3           , 255         , 0           , 0
-0.106258415, 0.127836838 , -9.796357   , 0.0002126894, 0.000129947177, -0.000189502432, -0.0138718477, -0.0120755518, 0.000101743892, 923.0351    , 31.31374    , 779.7255    , 1.89        , 3           , 255         , 0           , 0
-0.116223082, 0.130377129 , -9.789024   , -0.0006245965, -0.000282720459, 0.000212224782, -0.0138781173, -0.0120783476, 0.000103905259, 923.0351    , 31.31374    , 779.725342  , 1.9         , 3           , 255         , 0           , 0
-0.1187524  , 0.14319396  , -9.794882   , 0.000203926262, -8.274516E-05, 2.99898966E-06, -0.0138619514, -0.0120730633, 0.000103776169, 923.0351    , 31.31374    , 779.7269    , 1.91        , 3           , 255         , 0           , 0
-0.126906037, 0.1394091   , -9.792936   , 0.0006872641, 0.000251565536, -0.000129613618, -0.0138550634, -0.0120705664, 0.000102445236, 923.0351    , 31.31374    , 779.726746  , 1.92        , 3           , 255         , 0           , 0
-0.121100567, 0.1416946   , -9.790085   , 0.000386602973, -8.636948E-05, -0.000208018042, -0.0138511742, -0.0120714623, 0.000100377125, 923.030945  , 31.3154354  , 779.726563  , 1.93        , 3           , 255         , 0           , 0
-0.113724664, 0.134070367 , -9.785288   , 0.0006190247, -0.0006629149, -0.000137286435, -0.0138449688, -0.0120781083, 9.90961344E-05, 923.030945  , 31.3154354  , 779.7264    , 1.94        , 3           , 255         , 0           , 0
-0.128667563, 0.141577661 , -9.790809   , 0.0004193252, -0.000303810375, -8.3494524E-05, -0.0138407657, -0.0120811583, 9.830328E-05, 923.030945  , 31.3154354  , 779.7262    , 1.95        , 3           , 255         , 0           , 0
-0.125830054, 0.129731432 , -9.795467   , 0.000376045064, -3.11145559E-05, -0.0008942761, -0.0138368979, -0.0120815942, 8.936527E-05, 923.030945  , 31.3154354  , 779.7261    , 1.96        , 3           , 255         , 0           , 0
-0.116285279, 0.140840873 , -9.797345   , 0.0004914732, -0.000347647467, 0.000345044362, -0.0138320262, -0.0120850224, 9.286365E-05, 923.030945  , 31.3154354  , 779.725952  , 1.97        , 3           , 255         , 0           , 0
-0.115695275, 0.143651217 , -9.798808   , 0.00033004384, -0.000160752825, 0.00110605278, -0.0138288587, -0.0120864753, 0.000103945888, 923.030945  , 31.3154354  , 779.7258    , 1.98        , 3           , 255         , 0           , 0
-0.112304829, 0.1500582   , -9.79468    , 0.00082970073, -0.0003862455, 0.000573021942, -0.0138206333, -0.0120902592, 0.000109729226, 923.030945  , 31.3154354  , 779.7257    , 1.99        , 3           , 255         , 0           , 0
-0.114080682, 0.132880762 , -9.794172   , 0.0007988112, -0.0007422865, -0.000111781039, -0.0138126323, -0.0120976949, 0.000108714026, 923.030945  , 31.3154354  , 779.7256    , 2           , 3           , 0           , 7.45523643  , 200
-0.121715069, 0.134209633 , -9.784302   , -3.756085E-05, 1.870685E-05, -0.001430768, -0.0138218477, -0.0120999133, 9.451348E-05, 923.030945  , 31.3154354  , 779.7322    , 2.01        , 3           , 1           , 0           , 0
-0.127339557, 0.131076336 , -9.781749   , 0.000335972523, -0.000109884422, -0.000255413528, -0.0138184568, -0.0121010467, 9.19746453E-05, 923.030945  , 31.3154354  , 779.732056  , 2.02        , 3           , 2           , 0           , 0
-0.122211374, 0.134517655 , -9.78952    , -8.697822E-05, -0.00036139955, -0.000376948825, -0.0138192819, -0.0121047124, 8.82552849E-05, 923.039246  , 31.31591    , 779.731934  , 2.03        , 3           , 3           , 0           , 0
-0.115672611, 0.129956454 , -9.792      , -3.31468764E-05, -0.0005080284, -0.000249464822, -0.0138195837, -0.0121098263, 8.583096E-05, 923.039246  , 31.31591    , 779.7318    , 2.04        , 3           , 4           , 0           , 0
-0.119020484, 0.131200045 , -9.79262    , -0.000188661914, -0.000390437839, 0.0007480614, -0.0138215628, -0.012113627, 9.336519E-05, 923.039246  , 31.31591    , 779.7317    , 2.05        , 3           , 5           , 0           , 0
-0.125384882, 0.134898037 , -9.794957   , 4.4008877E-05, 7.67734236E-05, -3.35911682E-05, -0.0138211176, -0.0121128643, 9.301867E-05, 923.039246  , 31.31591    , 779.731567  , 2.06        , 3           , 6           , 0           , 0
-0.123649694, 0.147435874 , -9.790141   , 0.000325725123, 0.000169413252, -6.837839E-05, -0.0138178533, -0.0121111795, 9.23115149E-05, 923.039246  , 31.31591    , 779.731445  , 2.07        , 3           , 7           , 0           , 0
-0.124125205, 0.13141492  , -9.782239   , -0.000103806407, -0.0003370095, -5.776378E-05, -0.0138188852, -0.0121145574, 9.178049E-05, 923.039246  , 31.31591    , 779.7313    , 2.08        , 3           , 8           , 5           , 5
-0.125850737, 0.132265314 , -9.78082    , 3.166485E-05, 3.927433E-05, -0.0005149633, -0.0138185071, -0.0121142361, 8.66256742E-05, 923.039246  , 31.31591    , 779.731262  , 2.09        , 3           , 9           , 5           , 0.1
-0.116553068, 0.128403336 , -9.787504   , -0.00055789703, 0.000141148514, -0.000501936, -0.0138240224, -0.012112895, 8.158704E-05, 923.039246  , 31.31591    , 779.7312    , 2.1         , 3           , 10          , 0.1         , 0.1
-0.122171581, 0.133565262 , -9.796156   , 0.000384069834, -0.000347198918, -9.930135E-05, -0.0138140684, -0.0121289389, 8.056804E-05, 923.039246  , 31.31591    , 779.7272    , 2.11        , 3           , 11          , 0.008046303 , 0.008046301
-0.114652559, 0.14231284  , -9.798312   , -0.000212824787, -0.000105033709, -0.000171066247, -0.0138161769, -0.0121300127, 7.887197E-05, 923.039246  , 31.31591    , 779.727051  , 2.12        , 3           , 12          , 0.174643889 , 0
-0.116663836, 0.13477312  , -9.793622   , 0.000415137038, 6.006864E-05, -0.0005036582, -0.0138119636, -0.012129481, 7.382733E-05, 923.007446  , 31.3134689  , 779.7269    , 2.13        , 3           , 13          , 0           , 0
-0.116801247, 0.142046854 , -9.78779    , 6.08644041E-05, 2.19487119E-05, 0.000112744194, -0.0138113694, -0.0121292453, 7.495168E-05, 923.007446  , 31.3134689  , 779.7268    , 2.14        , 3           , 14          , -0.0002597046, 7.693041E-05
-0.112420261, 0.145347148 , -9.782016   , -0.000118393422, 0.0005565443, -0.000308848277, -0.013812515, -0.0121237235, 7.1786475E-05, 923.007446  , 31.3134689  , 779.7267    , 2.15        , 3           , 15          , 0           , 0.000101482117
-0.117225625, 0.140891761 , -9.78671551 , -0.000379221572, -2.16430744E-05, -0.000710146851, -0.0138162225, -0.0121240374, 6.46883345E-05, 923.007446  , 31.3134689  , 779.726563  , 2.16        , 3           , 16          , 0           , 1.401298E-45
-0.118802726, 0.137556762 , -9.801191   , 0.000159572417, 0.000170400628, -6.643852E-05, -0.0138146179, -0.0121223424, 6.400044E-05, 923.007446  , 31.3134689  , 779.72644   , 2.17        , 3           , 20          , 0           , 0
-0.1188311  , 0.139962047 , -9.804735   , 0.00024095361, -0.0001552705, 0.00047254478, -0.0138122663, -0.01212383 , 6.874712E-05, 923.007446  , 31.3134689  , 779.7263    , 2.18        , 3           , 21          , 0           , 0
-0.121297881, 0.134272069 , -9.796007   , 7.308903E-06, -0.0002218535, 0.00071577006, -0.0138122812, -0.0121259494, 7.593513E-05, 923.007446  , 31.3134689  , 779.7262    , 2.19        , 3           , 22          , 0           , 0
-0.117538176, 0.134088039 , -9.786505   , 0.000216140441, 0.0004514481, 7.133468E-05, -0.013810128, -0.0121214259, 7.658609E-05, 923.007446  , 31.3134689  , 779.7261    , 2.2         , 3           , 40          , 0           , 0
-0.122507915, 0.131267637 , -9.782207   , 0.000231545753, -0.000196508772, 0.0007014892, -0.0138145965, -0.0121209361, 8.370898E-05, 923.007446  , 31.3134689  , 779.7628    , 2.21        , 3           , 41          , 0           , 0
-0.118014142, 0.134768769 , -9.783418   , -0.000343593478, -0.0004891783, 0.000529142737, -0.0138180973, -0.0121257529, 8.906774E-05, 923.007446  , 31.3134689  , 779.762939  , 2.22        , 3           , 42          , 0           , 0
-0.128156126, 0.135823369 , -9.802993   , -0.000152033957, -0.0003122653, -0.0003165229, -0.0138195781, -0.0121289184, 8.594581E-05, 923.003052  , 31.3167248  , 779.763062  , 2.23        , 3           , 255         , 0           , 0
-0.11798986 , 0.13210173  , -9.796634   , -0.000343204942, 2.81123357E-06, -0.000383406878, -0.0138229644, -0.0121289436, 8.21115245E-05, 923.003052  , 31.3167248  , 779.7632    , 2.24        , 3           , 255         , 0           , 0
-0.115504086, 0.131163269 , -9.791291   , -0.00044091692, 0.000107656626, -0.000222179, -0.0138273472, -0.0121278986, 7.987495E-05, 923.003052  , 31.3167248  , 779.7633    , 2.25        , 3           , 255         , 0           , 0
-0.108810745, 0.1280516   , -9.776078   , -0.00131004606, 0.000321913685, 2.31389859E-05, -0.01384045 , -0.0121246781, 8.00618E-05 , 923.003052  , 31.3167248  , 779.7634    , 2.26        , 3           , 255         , 0           , 0
-0.11878524 , 0.130053774 , -9.79541    , -0.000735980051, 0.000380891783, 0.000889228366, -0.0138479155, -0.0121207442, 8.890093E-05, 923.003052  , 31.3167248  , 779.76355   , 2.27        , 3           , 255         , 0           , 0
-0.116971731, 0.131936476 , -9.805891   , -0.0004908806, 2.10044382E-05, 0.000207046178, -0.01385285 , -0.0121205058, 9.09683658E-05, 923.003052  , 31.3167248  , 779.7637    , 2.28        , 3           , 255         , 0           , 0
-0.125434116, 0.124721095 , -9.816661   , -0.0002446195, -8.460662E-05, -0.000192681662, -0.013855271, -0.0121213766, 8.905337E-05, 923.003052  , 31.3167248  , 779.7638    , 2.29        , 3           , 255         , 0           , 0
-0.121497154, 0.1384666   , -9.793175   , 0.000502661 , 0.000131604131, 1.08191307E-06, -0.0138502438, -0.0121200606, 8.9045956E-05, 923.003052  , 31.3167248  , 779.764     , 2.3         , 3           , 255         , 0           , 0
-0.107336834, 0.133715272 , -9.772875   , 0.000178073082, 0.000256014027, 6.946585E-05, -0.013841589, -0.0121185686, 8.962171E-05, 923.003052  , 31.3167248  , 779.8024    , 2.31        , 3           , 255         , 0           , 0
-0.123919807, 0.117131017 , -9.769281   , -0.000585675938, -0.000177333277, -0.00018066747, -0.0138474246, -0.012120368, 8.783967E-05, 923.003052  , 31.3167248  , 779.802856  , 2.32        , 3           , 255         , 0           , 0
-0.127010673, 0.133661672 , -9.791145   , -0.00116382958, 0.000390776928, -0.000203592019, -0.0138590382, -0.012116489, 8.57497E-05 , 923.00116   , 31.31747    , 779.8033    , 2.33        , 3           , 255         , 0           , 0
-0.1273756  , 0.128187627 , -9.804385   , -0.000381917052, 0.000644464744, -6.90914749E-06, -0.0138628557, -0.0121100452, 8.559127E-05, 923.00116   , 31.31747    , 779.8037    , 2.34        , 3           , 255         , 0           , 0
-0.123961508, 0.131206051 , -9.806319   , 0.000250366 , 0.000325809437, 0.00104796444, -0.013860479, -0.012106644, 9.602527E-05, 923.00116   , 31.31747    , 779.804138  , 2.35        , 3           , 255         , 0           , 0
-0.115253106, 0.128368378 , -9.78799    , 0.0003632107, 6.231881E-05, 0.000799927162, -0.0138569437, -0.0121059082, 0.000104015518, 923.00116   , 31.31747    , 779.804565  , 2.36        , 3           , 255         , 0           , 0
-0.1139824  , 0.123309866 , -9.786146   , -0.0001493243, 0.000537949731, 0.000698973949, -0.0138585186, -0.012100433, 0.000110930385, 923.00116   , 31.31747    , 779.805     , 2.37        , 3           , 255         , 0           , 0
-0.109900713, 0.134338439 , -9.787322   , -0.0003404679, -0.000113146227, -2.80476816E-05, -0.0138619207, -0.0121015683, 0.000110665584, 923.00116   , 31.31747    , 779.8054    , 2.38        , 3           , 255         , 0           , 0
-0.121249259, 0.129003972 , -9.792285   , -0.0007548459, 0.0005584124, 0.0006528098, -0.0138695473, -0.0120958937, 0.000117115946, 923.00116   , 31.31747    , 779.805847  , 2.39        , 3           , 255         , 0           , 0
-0.12408594 , 0.136071712 , -9.795645   , -9.477002E-05, 0.000216418732, 0.000843887043, -0.013870596, -0.0120936129, 0.0001255244, 923.00116   , 31.31747    , 779.8063    , 2.4         , 3           , 255         , 0           , 0
-0.11557287 , 0.132756352 , -9.78876    , 0.0005127819, 8.27794938E-05, 0.00024639396, -0.0138483495, -0.0120951394, 0.000127769337, 923.00116   , 31.31747    , 779.8422    , 2.41        , 3           , 255         , 0           , 0
-0.114604726, 0.13764514  , -9.779742   , 0.0008451136, 0.000150333974, -0.000215364911, -0.0138398716, -0.012093666, 0.000125594976, 923.00116   , 31.31747    , 779.8429    , 2.42        , 3           , 255         , 0           , 0
-0.119353995, 0.141739115 , -9.775298   , 0.0004510268, 0.0007965828, -0.000111942834, -0.0138353473, -0.0120857153, 0.000124365382, 922.9882    , 31.3180141  , 779.843567  , 2.43        , 3           , 255         , 0           , 0
-0.11971058 , 0.152680516 , -9.789843   , -0.000251835037, 0.0003596555, -0.0009032326, -0.0138377566, -0.0120822471, 0.000115283721, 922.9882    , 31.3180141  , 779.844238  , 2.44        , 3           , 255         , 0           , 0
-0.119999513, 0.151032716 , -9.801756   , 0.000191162078, -6.664726E-05, 0.0002794236, -0.0138358781, -0.0120828729, 0.000118087046, 922.9882    , 31.3180141  , 779.8449    , 2.45        , 3           , 255         , 0           , 0
-0.119168028, 0.158228427 , -9.802523   , 0.00038815185, -0.000205630757, -0.000106222149, -0.0138319843, -0.0120849432, 0.000117053343, 922.9882    , 31.3180141  , 779.8456    , 2.46        , 3           , 255         , 0           , 0
-0.113914706, 0.152410179 , -9.791326   , 0.000467245554, -0.000299284322, -0.000196564171, -0.0138272895, -0.0120879635, 0.000115129173, 922.9882    , 31.3180141  , 779.846252  , 2.47        , 3           , 255         , 0           , 0
-0.113779128, 0.145867839 , -9.782718   , 0.000700866338, -6.913738E-05, -0.000180829084, -0.0138202589, -0.0120886834, 0.000113330541, 922.9882    , 31.3180141  , 779.8469    , 2.48        , 3           , 255         , 0           , 0
-0.123215877, 0.128165424 , -9.7834     , 0.0006883292, 0.000273668673, -0.000191085768, -0.0138133541, -0.0120859733, 0.000111381982, 922.9882    , 31.3180141  , 779.8476    , 2.49        , 3           , 255         , 0           , 0
-0.1155015  , 0.133929566 , -9.7897625  , -7.67048041E-05, 0.000323356042, -0.000149797968, -0.013814101, -0.01208276 , 0.0001098394, 922.9882    , 31.3180141  , 779.848267  , 2.5         , 3           , 255         , 0           , 0
-0.11521323 , 0.132002726 , -9.801324   , -0.000297370163, 0.000566996 , -0.000250669022, -0.0138399694, -0.01207481 , 0.000107531319, 922.9882    , 31.3180141  , 779.8965    , 2.51        , 3           , 255         , 0           , 0
-0.121687174, 0.132558823 , -9.803406   , 1.89253915E-05, 0.00040334597, 0.000103136284, -0.0138397925, -0.0120707629, 0.000108506807, 922.9882    , 31.3180141  , 779.897461  , 2.52        , 3           , 255         , 0           , 0
-0.119779453, 0.133145019 , -9.798541   , -0.00028835304, 0.0003614314, 2.38013381E-05, -0.01384268 , -0.0120671457, 0.000108694796, 923.002441  , 31.3185577  , 779.898438  , 2.53        , 3           , 255         , 0           , 0
-0.111509427, 0.125615433 , -9.785422   , -0.000236137392, 0.000148721534, -0.0002727331, -0.0138450069, -0.0120656956, 0.000105947 , 923.002441  , 31.3185577  , 779.8994    , 2.54        , 3           , 255         , 0           , 0
-0.115997292, 0.122255281 , -9.78932    , 2.00196519E-06, -3.35059376E-05, -0.0006490888, -0.0138449091, -0.0120661212, 9.946106E-05, 923.002441  , 31.3185577  , 779.9004    , 2.55        , 3           , 255         , 0           , 0
-0.123524055, 0.128429383 , -9.802777   , -0.000407873158, 0.000257242937, -0.0008281847, -0.013848885, -0.0120636653, 9.114399E-05, 923.002441  , 31.3185577  , 779.901367  , 2.56        , 3           , 255         , 0           , 0
-0.120681569, 0.135384962 , -9.794633   , -3.733966E-05, -0.000232200575, -0.0004565425, -0.0138492044, -0.0120660486, 8.661095E-05, 923.002441  , 31.3185577  , 779.902344  , 2.57        , 3           , 255         , 0           , 0
-0.114056662, 0.132411569 , -9.792054   , -0.000151685614, 0.000179201073, 0.0001605355, -0.01385074 , -0.0120642353, 8.819139E-05, 923.002441  , 31.3185577  , 779.9033    , 2.58        , 3           , 255         , 0           , 0
-0.120533124, 0.1334555   , -9.78753948 , -0.0004775124, -8.55634862E-05, 0.000130820612, -0.01385553 , -0.0120650725, 8.95113844E-05, 923.002441  , 31.3185577  , 779.9043    , 2.59        , 3           , 255         , 0           , 0
-0.119784854, 0.136555076 , -9.785082   , -0.0007541267, 9.995217E-05, -8.305488E-05, -0.0138630616, -0.0120640844, 8.866702E-05, 923.002441  , 31.3185577  , 779.9053    , 2.6         , 3           , 255         , 0           , 0
-0.115348376, 0.141634256 , -9.794168   , -0.000459913, 0.000167537451, 0.000398615579, -0.0138596008, -0.0120625123, 9.25319546E-05, 923.002441  , 31.3185577  , 779.9271    , 2.61        , 3           , 255         , 0           , 0
-0.114570357, 0.137700751 , -9.7884     , 0.000165820486, 6.47095949E-05, 0.0005260898, -0.0138580054, -0.0120617924, 9.778364E-05, 923.002441  , 31.3185577  , 779.9282    , 2.62        , 3           , 255         , 0           , 0
-0.119778894, 0.150498778 , -9.795309   , -0.000128324376, -0.000123129968, -0.000200453214, -0.0138592655, -0.0120630516, 9.579626E-05, 923.050232  , 31.31435    , 779.9293    , 2.63        , 3           , 255         , 0           , 0
-0.125014573, 0.1460108   , -9.793614   , 5.09760866E-05, 9.159782E-05, -0.0003070591, -0.0138587179, -0.012062178, 9.27131259E-05, 923.050232  , 31.31435    , 779.9304    , 2.64        , 3           , 255         , 0           , 0
-0.117973246, 0.148584366 , -9.794576   , 0.000587650458, -0.000178852672, 9.678013E-05, -0.0138528543, -0.0120639531, 9.370566E-05, 923.050232  , 31.31435    , 779.9315    , 2.65        , 3           , 255         , 0           , 0
-0.123847246, 0.147185624 , -9.794916   , -0.000477439316, 9.38910161E-05, 0.00135543325, -0.0138577912, -0.0120628281, 0.000107246335, 923.050232  , 31.31435    , 779.9326    , 2.66        , 3           , 255         , 0           , 0
-0.131949827, 0.149533838 , -9.801338   , -0.0003212486, -7.364437E-05, 0.00108517148, -0.0138611346, -0.012063412, 0.000118107717, 923.050232  , 31.31435    , 779.9337    , 2.67        , 3           , 255         , 0           , 0
-0.120479107, 0.145884871 , -9.793627   , 0.000207156059, 0.000125421182, 0.0003972619, -0.0138591109, -0.0120621035, 0.000122062775, 923.050232  , 31.31435    , 779.9348    , 2.68        , 3           , 255         , 0           , 0
-0.117073916, 0.152926922 , -9.790945   , 0.000446259481, -0.000114235845, 0.0003932961, -0.0138546964, -0.01206319 , 0.000126011364, 923.050232  , 31.31435    , 779.9359    , 2.69        , 3           , 255         , 0           , 0
-0.116178751, 0.14527002  , -9.791075   , 2.39274232E-06, -0.000453489658, -0.000594374957, -0.0138546024, -0.0120678078, 0.000120130739, 923.050232  , 31.31435    , 779.937     , 2.7         , 3           , 255         , 0           , 0
-0.11467202 , 0.143895477 , -9.790857   , 0.000114611757, -0.000322494219, 0.000194396838, -0.0138729364, -0.0120747052, 0.00012235422, 923.050232  , 31.31435    , 779.888733  , 2.71        , 3           , 255         , 0           , 0
-0.115715958, 0.137263864 , -9.79323    , 0.000348439615, -0.0001487247, 4.670724E-05, -0.0138694579, -0.0120761851, 0.000122841884, 923.050232  , 31.31435    , 779.8895    , 2.72        , 3           , 255         , 0           , 0
-0.122313105, 0.122115932 , -9.787706   , -0.0007434954, -0.0005387522, -0.0004068162, -0.0138768442, -0.0120816277, 0.000118848657, 923.023132  , 31.3186245  , 779.8903    , 2.73        , 3           , 255         , 0           , 0
-0.126036018, 0.122454092 , -9.78227    , -0.00046049853, 0.00020526789, -0.000262486, -0.013881417, -0.0120796114, 0.000116195435, 923.023132  , 31.3186245  , 779.8911    , 2.74        , 3           , 255         , 0           , 0
-0.11801289 , 0.125941947 , -9.784441   , -0.000239227054, -4.647197E-05, 0.000347258116, -0.0138838515, -0.0120800277, 0.0001196743, 923.023132  , 31.3186245  , 779.8919    , 2.75        , 3           , 255         , 0           , 0
-0.121860407, 0.126177236 , -9.791861   , -0.000537382555, -0.0007146804, 2.79124361E-05, -0.01388923 , -0.0120871691, 0.000120052646, 923.023132  , 31.3186245  , 779.8927    , 2.76        , 3           , 255         , 0           , 0
-0.1271945  , 0.120727681 , -9.792547   , -0.00033498698, -0.0003760758, -0.000209208127, -0.0138925547, -0.0120909577, 0.0001180129, 923.023132  , 31.3186245  , 779.8935    , 2.77        , 3           , 255         , 0           , 0
-0.117380783, 0.121480525 , -9.7927     , -0.000304231857, -0.000195078726, 0.000385276042, -0.0138956439, -0.0120928539, 0.000121892554, 923.023132  , 31.3186245  , 779.8943    , 2.78        , 3           , 255         , 0           , 0
-0.114286326, 0.125247568 , -9.788445   , -0.000116172043, 0.000518218032, 0.00036396418, -0.0138968481, -0.0120876217, 0.000125460021, 923.023132  , 31.3186245  , 779.8951    , 2.79        , 3           , 255         , 0           , 0
-0.123626314, 0.1284053   , -9.791499   , -1.77421316E-05, 0.000278846332, 0.000226638644, -0.013897053, -0.0120848017, 0.000127687556, 923.023132  , 31.3186245  , 779.8959    , 2.8         , 3           , 255         , 0           , 0
-0.124459818, 0.125429124 , -9.790816   , 0.000127535779, 6.74692346E-05, 6.713948E-06, -0.013874487, -0.0120887049, 0.000127487918, 923.023132  , 31.3186245  , 779.8907    , 2.81        , 3           , 255         , 0           , 0
-0.122325264, 0.137880117 , -9.797429   , 8.13553052E-05, 0.00031858572, 0.000142234348, -0.0138736907, -0.0120855039, 0.000128866 , 923.023132  , 31.3186245  , 779.8915    , 2.82        , 3           , 255         , 0           , 0
-0.117782928, 0.14101845  , -9.794088   , 0.0004426358, 0.00010071115, 0.000159232382, -0.0138692847, -0.0120844729, 0.000130444285, 922.991333  , 31.3157749  , 779.8923    , 2.83        , 3           , 255         , 0           , 0
-0.120342948, 0.136366576 , -9.79282951 , 0.000286171358, -0.0001087631, 0.000241222413, -0.0138664516, -0.0120855272, 0.000132871486, 922.991333  , 31.3157749  , 779.893066  , 2.84        , 3           , 255         , 0           , 0
-0.118700683, 0.137997538 , -9.789894   , 0.000655969838, -0.000143308629, 0.000415294053, -0.0138599426, -0.0120869027, 0.000137044088, 922.991333  , 31.3157749  , 779.89386   , 2.85        , 3           , 255         , 0           , 0
-0.120581828, 0.140024334 , -9.791074   , -0.0005146441, 0.000127589446, 0.000336571131, -0.0138651291, -0.01208558 , 0.00014039196, 922.991333  , 31.3157749  , 779.894653  , 2.86        , 3           , 255         , 0           , 0
-0.11591877 , 0.1407554   , -9.791958   , -2.5957328E-05, 0.000226661214, -0.000288129551, -0.0138653535, -0.0120833535, 0.000137479365, 922.991333  , 31.3157749  , 779.895447  , 2.87        , 3           , 255         , 0           , 0
-0.114211872, 0.145773873 , -9.799904   , 0.00010609586, -5.20585963E-05, 0.0003298898, -0.0138643319, -0.0120838284, 0.000140785342, 922.991333  , 31.3157749  , 779.89624   , 2.88        , 3           , 255         , 0           , 0
-0.113991693, 0.147562876 , -9.79323    , 0.000156547234, -0.000387327425, 0.0007090331, -0.0138628529, -0.0120876031, 0.000147929008, 922.991333  , 31.3157749  , 779.897034  , 2.89        , 3           , 255         , 0           , 0
-0.113302425, 0.138516039 , -9.786654   , 0.00047834625, -0.000225574477, -0.000186563091, -0.0138580473, -0.0120898839, 0.000146094753, 922.991333  , 31.3157749  , 779.8978    , 2.9         , 3           , 255         , 0           , 0
-0.112577662, 0.133815974 , -9.78753948 , 0.000289071584, 0.00012473113, 0.0002876653, -0.0138614783, -0.0120881964, 0.000149029962, 922.991333  , 31.3157749  , 779.936157  , 2.91        , 3           , 255         , 0           , 0
-0.122424126, 0.140863135 , -9.784248   , 0.000140552074, -7.142041E-05, 0.000262493879, -0.0138601046, -0.0120888734, 0.000151664659, 922.991333  , 31.3157749  , 779.9372    , 2.92        , 3           , 255         , 0           , 0
-0.126250789, 0.1429334   , -9.797967   , 3.61000421E-05, -0.0002856881, -0.0002236008, -0.0138597153, -0.0120917605, 0.000149468353, 923.039368  , 31.318964   , 779.938232  , 2.93        , 3           , 255         , 0           , 0
-0.12240722 , 0.142590016 , -9.79216    , -0.000363737228, 0.000145852639, -0.000116828116, -0.0138633372, -0.0120903188, 0.0001482799, 923.039368  , 31.318964   , 779.9393    , 2.94        , 3           , 255         , 0           , 0
-0.116119578, 0.140043408 , -9.798128   , -0.000102591119, -0.0004400558, -6.721685E-05, -0.0138643561, -0.0120947286, 0.00014766879, 923.039368  , 31.318964   , 779.9403    , 2.95        , 3           , 255         , 0           , 0
-0.118391439, 0.14019613  , -9.79225    , -0.000132990477, -0.00043418858, -0.000480606221, -0.0138656292, -0.0120991375, 0.000142923149, 923.039368  , 31.318964   , 779.941345  , 2.96        , 3           , 255         , 0           , 0
-0.134805068, 0.127196282 , -9.787201   , -0.000422342739, -0.000191519983, -0.0003764465, -0.0138698081, -0.0121011045, 0.000139185431, 923.039368  , 31.318964   , 779.9424    , 2.97        , 3           , 255         , 0           , 0
-0.116838776, 0.129428357 , -9.797646   , -9.60729958E-05, -0.000387044565, 0.000201604213, -0.0138707943, -0.0121049443, 0.000141255063, 923.039368  , 31.318964   , 779.9434    , 2.98        , 3           , 255         , 0           , 0
-0.122491241, 0.128869817 , -9.790925   , 4.77155263E-05, -0.000113390066, -4.466616E-06, -0.0138703175, -0.0121060805, 0.000141226134, 923.039368  , 31.318964   , 779.944458  , 2.99        , 3           , 255         , 0           , 0
-0.128694028, 0.1341522   , -9.795284   , 0.0002673572, -0.000492106949, -0.0003054155, -0.0138676055, -0.0121110426, 0.000138240357, 923.039368  , 31.318964   , 779.9455    , 3           , 3           , 0           , 8.455236    , 300
-0.112763762, 0.132701173 , -9.787821   , -0.0001028956, 2.47045828E-05, 0.000143962359, -0.0138691058, -0.012117709, 0.000139681972, 923.039368  , 31.318964   , 779.91      , 3.01        , 3           , 1           , 0           , 0
-0.119770408, 0.135146514 , -9.786999   , -0.000296586659, -0.0007107088, 0.0002566152, -0.0138721038, -0.0121247778, 0.000142346587, 923.039368  , 31.318964   , 779.9108    , 3.02        , 3           , 2           , 0           , 0
-0.1254236  , 0.134989664 , -9.803095   , -0.000160899857, -0.000347464636, 0.000116795658, -0.013873728, -0.0121282358, 0.0001435627, 923.0433    , 31.3180141  , 779.9117    , 3.03        , 3           , 3           , 0           , 0
-0.123021767, 0.143498316 , -9.799998   , -0.00025624258, 7.36779039E-05, 0.000118403848, -0.013876305, -0.0121274833, 0.000144736463, 923.0433    , 31.3180141  , 779.912537  , 3.04        , 3           , 4           , 0           , 0
-0.117968619, 0.139940456 , -9.794202   , 0.000349954818, 0.000314816367, -0.000213518564, -0.01387278 , -0.0121243652, 0.0001425577, 923.0433    , 31.3180141  , 779.9134    , 3.05        , 3           , 5           , 0           , 0
-0.118861794, 0.136558786 , -9.795174   , -3.85061139E-06, 3.46417946E-05, 7.007663E-05, -0.0138728265, -0.0121240094, 0.000143253637, 923.0433    , 31.3180141  , 779.914246  , 3.06        , 3           , 6           , 0           , 0
-0.124673925, 0.133724168 , -9.793288   , 0.000249191682, -2.19455178E-05, -0.000425071485, -0.013870283, -0.012124287, 0.000139006166, 923.0433    , 31.3180141  , 779.9151    , 3.07        , 3           , 7           , 0           , 0
-0.124981925, 0.142503    , -9.796057   , 0.0006301083, -0.000310169533, -8.54897953E-05, -0.0138639715, -0.0121274  , 0.000138194329, 923.0433    , 31.3180141  , 779.915955  , 3.08        , 3           , 8           , 5           , 5
-0.112245932, 0.137179241 , -9.795635   , -5.948177E-05, 0.000180942036, -0.000306867645, -0.0138645293, -0.0121256337, 0.000135100709, 923.0433    , 31.3180141  , 779.9168    , 3.09        , 3           , 9           , 5           , 0.1
-0.115891315, 0.142234236 , -9.788108   , 9.083451E-06, 7.15691567E-06, 7.062624E-05, -0.0138644474, -0.0121255526, 0.000135805953, 923.0433    , 31.3180141  , 779.917664  , 3.1         , 3           , 10          , 0.1         , 0.1
-0.113374829, 0.1435099   , -9.792535   , -2.03975651E-05, -6.83638937E-05, 0.0009495719, -0.0138680078, -0.012127405, 0.000145349986, 923.0433    , 31.3180141  , 779.8804    , 3.11        , 3           , 11          , 0.007208471 , 0.00720846839
-0.117911145, 0.14404276  , -9.800326   , -0.000296519051, -0.000210942555, -7.32644E-05, -0.0138709638, -0.0121295238, 0.000144646634, 923.0433    , 31.3180141  , 779.881     , 3.12        , 3           , 12          , 0.174645633 , 0
-0.120255351, 0.142484248 , -9.793932   , 6.46026747E-05, 0.00010393477, 0.000226408709, -0.0138703454, -0.0121284537, 0.0001468962, 923.0195    , 31.3167248  , 779.8816    , 3.13        , 3           , 13          , 0           , 0
-0.11202345 , 0.141456053 , -9.7876     , 0.0003184218, 8.899644E-05, -0.000184382166, -0.0138671389, -0.0121275885, 0.000145040132, 923.0195    , 31.3167248  , 779.8822    , 3.14        , 3           , 14          , -0.00025967785, 7.700156E-05
-0.11357715 , 0.1377319   , -9.785131   , 0.000340699422, -0.000142433244, -1.30108456E-05, -0.0138637293, -0.0121290144, 0.000144929771, 923.0195    , 31.3167248  , 779.8828    , 3.15        , 3           , 15          , 0           , 0.000101482779
-0.121235885, 0.1339323   , -9.793538   , 0.000368425273, 0.00012657  , 0.000328570371, -0.013860086, -0.012127704, 0.000148197782, 923.0195    , 31.3167248  , 779.8834    , 3.16        , 3           , 16          , 0           , 1.401298E-45
-0.120959938, 0.138561592 , -9.793901   , 0.000252099853, 7.226103E-05, -0.000409775, -0.0138575137, -0.0121270381, 0.000144090212, 923.0195    , 31.3167248  , 779.884033  , 3.17        , 3           , 20          , 0           , 0
-0.128174216, 0.141566873 , -9.794268   , -0.000234276085, 0.000103948521, -6.91292371E-06, -0.0138598559, -0.012126   , 0.00014400667, 923.0195    , 31.3167248  , 779.884644  , 3.18        , 3           , 21          , 0           , 0
-0.120369934, 0.140721619 , -9.795477   , 0.000104261373, -0.0001752813, 0.000528310135, -0.0138588771, -0.0121276788, 0.000149313826, 923.0195    , 31.3167248  , 779.885254  , 3.19        , 3           , 22          , 0           , 0
-0.124472558, 0.129734755 , -9.78770351 , -2.43434915E-05, 0.000410294975, -0.000757630856, -0.0138590289, -0.0121236825, 0.000141681012, 923.0195    , 31.3167248  , 779.885864  , 3.2         , 3           , 40          , 0           , 0
-0.119216964, 0.13487193  , -9.788747   , -0.000224039424, 0.000129267719, 0.0001137279, -0.0138678066, -0.0121231936, 0.000142879449, 923.0195    , 31.3167248  , 779.8866    , 3.21        , 3           , 41          , 0           , 0
-0.121551432, 0.133729815 , -9.785864   , 0.000205711331, 0.000138974327, 8.63249E-05 , -0.0138657605, -0.012121792, 0.000143723373, 923.0195    , 31.3167248  , 779.8872    , 3.22        , 3           , 42          , 0           , 0
-0.1208273  , 0.140136331 , -9.800141   , 0.00025234872, 0.00011598834, -0.0005215884, -0.0138631733, -0.0121207042, 0.000138491654, 923.0068    , 31.3191     , 779.8878    , 3.23        , 3           , 255         , 0           , 0
-0.128930479, 0.126229614 , -9.802083   , -0.000349340145, 0.000127309671, 0.00049039966, -0.0138667272, -0.0121193631, 0.00014337778, 923.0068    , 31.3191     , 779.8884    , 3.24        , 3           , 255         , 0           , 0
-0.121325992, 0.13004902  , -9.785538   , 0.000290421129, 0.000183911819, 0.000391360081, -0.0138638709, -0.0121174715, 0.0001472657, 923.0068    , 31.3191     , 779.889038  , 3.25        , 3           , 255         , 0           , 0
-0.121030629, 0.133785754 , -9.785716   , 0.000611086958, -4.578273E-05, -0.000101656544, -0.0138577465, -0.0121179428, 0.000146255523, 923.0068    , 31.3191     , 779.889648  , 3.26        , 3           , 255         , 0           , 0
-0.116558924, 0.135490119 , -9.781116   , 8.45908653E-05, -0.000327924441, -0.0003091839, -0.0138568645, -0.0121212639, 0.000143209269, 923.0068    , 31.3191     , 779.890259  , 3.27        , 3           , 255         , 0           , 0
-0.118550934, 0.14388679  , -9.78845    , 0.000153262241, -0.000176034955, -0.000523466268, -0.0138552692, -0.0121230967, 0.000137999261, 923.0068    , 31.3191     , 779.890869  , 3.28        , 3           , 255         , 0           , 0
-0.11456205 , 0.136074513 , -9.792845   , 0.000291068136, -7.942301E-05, -0.000108357613, -0.0138523476, -0.0121239061, 0.000136926741, 923.0068    , 31.3191     , 779.8915    , 3.29        , 3           , 255         , 0           , 0
-0.11532478 , 0.141834334 , -9.792105   , 0.0003096784, -0.000389375928, -0.0004793018, -0.0138491914, -0.012127866, 0.0001321879, 923.0068    , 31.3191     , 779.8921    , 3.3         , 3           , 255         , 0           , 0
-0.124421015, 0.138842911 , -9.787834   , 0.000117006828, -0.000428500643, -0.000282947469, -0.0138476891, -0.0121345911, 0.000129414242, 923.0068    , 31.3191     , 779.9098    , 3.31        , 3           , 255         , 0           , 0
-0.1278871  , 0.137119249 , -9.791676   , -0.000252966915, -0.0003562873, -0.000284825335, -0.0138501823, -0.0121381935, 0.000126615458, 923.0068    , 31.3191     , 779.9105    , 3.32        , 3           , 255         , 0           , 0
-0.115580536, 0.136349    , -9.791243   , 0.00014901883, 0.000158581126, -0.0009752745, -0.0138485739, -0.0121367406, 0.000116841205, 923.0298    , 31.3191     , 779.911255  , 3.33        , 3           , 255         , 0           , 0
-0.122795604, 0.135599121 , -9.800108   , 8.03844159E-05, -0.0003694846, 0.0005797155, -0.01384784 , -0.0121403551, 0.000122689264, 923.0298    , 31.3191     , 779.912     , 3.34        , 3           , 255         , 0           , 0
-0.114299968, 0.1360706   , -9.799627   , 0.0002476391, 0.000106935389, 0.000173506371, -0.0138453851, -0.0121392617, 0.000124409431, 923.0298    , 31.3191     , 779.9127    , 3.35        , 3           , 255         , 0           , 0
-0.107766472, 0.13850534  , -9.78797    , 0.000268194883, 0.000150788634, -0.000752301654, -0.0138426125, -0.012137861, 0.0001168659, 923.0298    , 31.3191     , 779.913452  , 3.36        , 3           , 255         , 0           , 0
-0.114222504, 0.130422086 , -9.791817   , 6.057488E-05, 0.00014518747, -0.000421218167, -0.0138419569, -0.0121364659, 0.00011263381, 923.0298    , 31.3191     , 779.9142    , 3.37        , 3           , 255         , 0           , 0
-0.119644962, 0.128198951 , -9.797623   , -0.000221290131, 3.262978E-05, 0.000486670237, -0.0138442274, -0.0121360729, 0.000117495787, 923.0298    , 31.3191     , 779.9149    , 3.38        , 3           , 255         , 0           , 0
-0.116895296, 0.124486528 , -9.798809   , -0.0005545418, 0.000175820649, 0.000157462244, -0.0138497911, -0.012134294, 0.000119045981, 923.0298    , 31.3191     , 779.915649  , 3.39        , 3           , 255         , 0           , 0
-0.128433064, 0.128983855 , -9.803415   , -2.44416588E-05, 0.000128293 , 0.00103054324, -0.013850159, -0.01213287 , 0.000129333159, 923.0298    , 31.3191     , 779.9164    , 3.4         , 3           , 255         , 0           , 0
-0.129004359, 0.115027681 , -9.79630852 , -4.524045E-06, 0.00014577237, 7.133615E-05, -0.0138469758, -0.0121318018, 0.000129986991, 923.0298    , 31.3191     , 779.898     , 3.41        , 3           , 255         , 0           , 0
-0.11502675 , 0.114151642 , -9.789116   , 6.042249E-05, -0.000234725157, -0.00103755994, -0.0138462456, -0.012134294, 0.000119644377, 923.0298    , 31.3191     , 779.8986    , 3.42        , 3           , 255         , 0           , 0
-0.122071825, 0.116430804 , -9.788835   , -4.006311E-05, 7.71123E-05 , -6.5707296E-05, -0.0138466377, -0.01213353 , 0.00011897667, 923.037964  , 31.31652    , 779.8993    , 3.43        , 3           , 255         , 0           , 0
-0.116936028, 0.123321556 , -9.792921   , -0.000154582667, -0.000399041164, 6.170248E-05, -0.0138481911, -0.0121375117, 0.00011964891, 923.037964  , 31.31652    , 779.899963  , 3.44        , 3           , 255         , 0           , 0
-0.114145435, 0.136081725 , -9.804792   , -0.000151326909, -0.000297939026, -2.37177665E-05, -0.0138497017, -0.0121404948, 0.000119453 , 923.037964  , 31.31652    , 779.900635  , 3.45        , 3           , 255         , 0           , 0
-0.1146605  , 0.1316756   , -9.795845   , 5.369165E-05, -1.65097154E-05, 0.000304795 , -0.0138492016, -0.0121406177, 0.0001225031, 923.037964  , 31.31652    , 779.9013    , 3.46        , 3           , 255         , 0           , 0
-0.112222455, 0.128760666 , -9.787588   , 5.031799E-05, -8.961257E-05, -0.000119227057, -0.0138486847, -0.0121415295, 0.00012132329, 923.037964  , 31.31652    , 779.902     , 3.47        , 3           , 255         , 0           , 0
-0.114818357, 0.136538    , -9.783644   , -0.000470275467, 3.26662775E-05, 0.000238653636, -0.0138534158, -0.012141169, 0.000123705191, 923.037964  , 31.31652    , 779.902649  , 3.48        , 3           , 255         , 0           , 0
-0.116118863, 0.139190689 , -9.790456   , -0.0002848099, -0.000162641343, 0.0006312271, -0.0138563411, -0.0121427085, 0.000130039683, 923.037964  , 31.31652    , 779.9033    , 3.49        , 3           , 255         , 0           , 0
-0.121766761, 0.1449193   , -9.80338    , -0.000122323283, 0.000191460029, 0.000639525533, -0.0138576413, -0.0121407053, 0.000136408111, 923.037964  , 31.31652    , 779.904     , 3.5         , 3           , 255         , 0           , 0
-0.127699047, 0.145808086 , -9.804349   , 3.666093E-05, -0.0004103871, 0.0001932403, -0.0138457082, -0.0121427653, 0.000138256568, 923.037964  , 31.31652    , 779.8757    , 3.51        , 3           , 255         , 0           , 0
-0.12937513 , 0.1453102   , -9.798195   , 7.62039854E-05, -0.000458233, 0.000263429945, -0.01384498 , -0.0121473111, 0.000140954173, 923.037964  , 31.31652    , 779.87616   , 3.52        , 3           , 255         , 0           , 0
-0.118611194, 0.154964611 , -9.788355   , 0.000263889175, -0.0002147377, 0.000228279678, -0.01384237 , -0.0121494271, 0.0001432666, 923.017     , 31.3176079  , 779.876648  , 3.53        , 3           , 255         , 0           , 0
-0.112728179, 0.146770626 , -9.778501   , 2.99001113E-06, 3.592517E-05, -0.0007298484, -0.0138422512, -0.01214917 , 0.000135963492, 923.017     , 31.3176079  , 779.877136  , 3.54        , 3           , 255         , 0           , 0
-0.120539509, 0.143287539 , -9.795955   , 2.29340076E-05, 0.000226121047, -0.000698098447, -0.0138419364, -0.0121470056, 0.000128951535, 923.017     , 31.3176079  , 779.8776    , 3.55        , 3           , 255         , 0           , 0
-0.123366915, 0.142877936 , -9.796858   , -0.000197626679, 0.000101730424, 6.741431E-05, -0.01384392 , -0.0121459793, 0.000129611566, 923.017     , 31.3176079  , 779.8781    , 3.56        , 3           , 255         , 0           , 0
-0.127647951, 0.13992472  , -9.799734   , -0.00036597476, 0.000237438391, 0.00016608616, -0.0138476  , -0.01214358 , 0.00013123946, 923.017     , 31.3176079  , 779.8786    , 3.57        , 3           , 255         , 0           , 0
-0.121502794, 0.135928512 , -9.788368   , 0.000254059385, 6.826115E-05, 0.000114323309, -0.0138450712, -0.0121428827, 0.0001323732, 923.017     , 31.3176079  , 779.8791    , 3.58        , 3           , 255         , 0           , 0
-0.1138895  , 0.131095216 , -9.784811   , 0.000277397485, 7.812364E-05, -0.000411555724, -0.0138422484, -0.012142159, 0.000128247 , 923.017     , 31.3176079  , 779.8796    , 3.59        , 3           , 255         , 0           , 0
-0.106640361, 0.130300447 , -9.792523   , -0.000688935746, -0.0004089078, 2.8318449E-05, -0.0138491411, -0.012146242, 0.0001285868, 923.017     , 31.3176079  , 779.880066  , 3.6         , 3           , 255         , 0           , 0
-0.115902618, 0.126447931 , -9.80295    , -4.87063662E-05, -0.000178822229, 0.000177706432, -0.0138597265, -0.0121500334, 0.000130510947, 923.017     , 31.3176079  , 779.8847    , 3.61        , 3           , 255         , 0           , 0
-0.111143962, 0.12858893  , -9.802511   , -0.000107024884, 0.000210768645, 0.000185104887, -0.0138608189, -0.0121479006, 0.000132332716, 923.017     , 31.3176079  , 779.885254  , 3.62        , 3           , 255         , 0           , 0
-0.119855069, 0.125886217 , -9.785253   , 0.000190052757, -0.000162036769, 0.000324440072, -0.0138589563, -0.0121494764, 0.000135599417, 922.988831  , 31.31876    , 779.8858    , 3.63        , 3           , 255         , 0           , 0
-0.12430501 , 0.121410608 , -9.78904152 , 0.000118056865, -0.000295406324, 0.000387658074, -0.0138578229, -0.0121523757, 0.000139516764, 922.988831  , 31.31876    , 779.886353  , 3.64        , 3           , 255         , 0           , 0
-0.122848906, 0.128111571 , -9.792877   , -6.21163053E-06, -0.000512261468, -0.000274094171, -0.0138578527, -0.0121575361, 0.000136846938, 922.988831  , 31.31876    , 779.8869    , 3.65        , 3           , 255         , 0           , 0
-0.116586044, 0.13567552  , -9.807129   , 7.467922E-05, -0.000513405132, 0.000137486524, -0.0138571244, -0.01216265 , 0.000138292875, 922.988831  , 31.31876    , 779.887451  , 3.66        , 3           , 255         , 0           , 0
-0.117464207, 0.128063172 , -9.802756   , 0.000169408289, 0.00016265134, -0.000112718015, -0.0138554154, -0.01216104 , 0.0001371432, 922.988831  , 31.31876    , 779.888     , 3.67        , 3           , 255         , 0           , 0
-0.123670459, 0.140878811 , -9.79216    , 0.000355468568, 9.023947E-05, 0.000308645773, -0.0138519  , -0.0121600945, 0.000140217016, 922.988831  , 31.31876    , 779.88855   , 3.68        , 3           , 255         , 0           , 0
-0.116561905, 0.13605012  , -9.782229   , 0.000847741845, -0.0008174109, 0.0006686978, -0.0138435038, -0.0121681755, 0.000147016879, 922.988831  , 31.31876    , 779.8891    , 3.69        , 3           , 255         , 0           , 0
-0.118101776, 0.138198942 , -9.788205   , 0.000142448553, -0.000211564315, 6.32797E-05 , -0.0138420882, -0.0121702841, 0.000147678933, 922.988831  , 31.31876    , 779.889648  , 3.7         , 3           , 255         , 0           , 0
-0.112514257, 0.138749316 , -9.791116   , -0.000563027, -0.0005845026, 0.000331963267, -0.01384067 , -0.0121754454, 0.000150993015, 922.988831  , 31.31876    , 779.933     , 3.71        , 3           , 255         , 0           , 0
-0.124706365, 0.14802447  , -9.796416   , -0.000113720627, -4.42195378E-05, 0.0002528394, -0.0138418386, -0.0121758524, 0.0001535274, 922.988831  , 31.31876    , 779.9338    , 3.72        , 3           , 255         , 0           , 0
-0.120129883, 0.139427722 , -9.781284   , -0.000167181657, -0.0001437357, 0.000689671 , -0.0138435941, -0.0121771945, 0.000160443684, 923.0384    , 31.3176079  , 779.9346    , 3.73        , 3           , 255         , 0           , 0
-0.124539509, 0.136324435 , -9.783565   , -0.0002546323, -1.50773558E-05, 0.0002647295, -0.013846172, -0.0121773081, 0.000163092947, 923.0384    , 31.3176079  , 779.935364  , 3.74        , 3           , 255         , 0           , 0
-0.123360619, 0.1440085   , -9.786581   , 0.000395465962, -0.000530880643, 0.00042113068, -0.0138422716, -0.01218256 , 0.000167377584, 923.0384    , 31.3176079  , 779.936157  , 3.75        , 3           , 255         , 0           , 0
-0.119391166, 0.1472152   , -9.789409   , 0.000618023332, 2.29184952E-05, 0.000541953952, -0.0138361575, -0.0121822562, 0.0001727937, 923.0384    , 31.3176079  , 779.936951  , 3.76        , 3           , 255         , 0           , 0
-0.11865975 , 0.132475913 , -9.78933    , 0.0006031636, 0.000179586743, -0.000433501438, -0.0138300722, -0.0121805193, 0.000168434053, 923.0384    , 31.3176079  , 779.937744  , 3.77        , 3           , 255         , 0           , 0
-0.129743531, 0.126357377 , -9.792584   , 0.000101261947, 0.000199671151, -0.000838747539, -0.0138289575, -0.012178638, 0.00016001935, 923.0384    , 31.3176079  , 779.938538  , 3.78        , 3           , 255         , 0           , 0
-0.117604032, 0.13673766  , -9.782598   , -0.000112856389, 0.000671842252, -0.0006571917, -0.0138300043, -0.0121720145, 0.000153354835, 923.0384    , 31.3176079  , 779.939331  , 3.79        , 3           , 255         , 0           , 0
-0.109799907, 0.1414667   , -9.782904   , -0.0004706499, 0.000114066541, -0.0001489439, -0.0138346925, -0.0121708931, 0.000151849657, 923.0384    , 31.3176079  , 779.9401    , 3.8         , 3           , 255         , 0           , 0
-0.119851708, 0.133573085 , -9.790087   , -7.144586E-05, 9.042976E-05, 0.0003044315, -0.0138444947, -0.0121719958, 0.000154991518, 923.0384    , 31.3176079  , 779.906067  , 3.81        , 3           , 255         , 0           , 0
-0.126744658, 0.128749087 , -9.797177   , 1.03101193E-05, 0.000369683752, -5.08923549E-05, -0.0138443857, -0.0121683059, 0.000154431415, 923.0384    , 31.3176079  , 779.9067    , 3.82        , 3           , 255         , 0           , 0
-0.124899447, 0.126331016 , -9.79557    , 0.0010195981, 0.000227464887, 0.000115362767, -0.0138342045, -0.0121660177, 0.000155553513, 923.0067    , 31.3195076  , 779.9073    , 3.83        , 3           , 255         , 0           , 0
-0.117435157, 0.13965103  , -9.788983   , 0.000588327646, -2.75919047E-05, 0.0004219011, -0.0138283726, -0.0121662347, 0.000159776158, 923.0067    , 31.3195076  , 779.9079    , 3.84        , 3           , 255         , 0           , 0
-0.115686715, 0.141679481 , -9.78062248 , 0.000200209935, -0.000586819253, -0.000157262039, -0.0138263516, -0.0121721234, 0.000158284747, 923.0067    , 31.3195076  , 779.9085    , 3.85        , 3           , 255         , 0           , 0
-0.115015291, 0.148067266 , -9.786128   , 0.00042647653, -0.000199978531, 0.000236896682, -0.0138221169, -0.01217409 , 0.000160681258, 923.0067    , 31.3195076  , 779.9091    , 3.86        , 3           , 255         , 0           , 0
-0.115476273, 0.146258757 , -9.792467   , 0.000141850149, 0.0003859125, 0.000190239138, -0.01382072 , -0.0121702049, 0.000162530225, 923.0067    , 31.3195076  , 779.9097    , 3.87        , 3           , 255         , 0           , 0
-0.11249055 , 0.14348039  , -9.795752   , 0.000208504818, 1.30244516E-05, -0.000470089755, -0.0138185779, -0.01217014 , 0.00015782773, 923.0067    , 31.3195076  , 779.910339  , 3.88        , 3           , 255         , 0           , 0
-0.112606324, 0.1384326   , -9.790819   , 0.000392353919, -8.774245E-05, -0.0007022659, -0.0138145676, -0.0121711176, 0.000150817519, 923.0067    , 31.3195076  , 779.91095   , 3.89        , 3           , 255         , 0           , 0
-0.113763452, 0.134517655 , -9.785863   , 4.08251071E-05, -0.0005019626, -0.0004755813, -0.0138141029, -0.0121762007, 0.000146131279, 923.0067    , 31.3195076  , 779.91156   , 3.9         , 3           , 255         , 0           , 0
-0.110151149, 0.131818831 , -9.791323   , -0.0003475935, 4.711368E-05, 8.97867E-06 , -0.0138227241, -0.0121723535, 0.000146277162, 923.0067    , 31.3195076  , 779.926147  , 3.91        , 3           , 255         , 0           , 0
-0.117125414, 0.129028633 , -9.793354   , 0.0001195674, -0.0003124657, 0.0003044898, -0.0138215655, -0.0121754352, 0.000149365078, 923.0067    , 31.3195076  , 779.9268    , 3.92        , 3           , 255         , 0           , 0
-0.122347459, 0.139796972 , -9.798558   , -0.000222151575, -0.000615051831, -0.000450785155, -0.0138237318, -0.0121816453, 0.00014494246, 923.0288    , 31.3190327  , 779.9275    , 3.93        , 3           , 255         , 0           , 0
-0.117482804, 0.135758072 , -9.793898   , 0.0003254458, -0.00045463178, -0.000283782836, -0.0138204442, -0.0121862311, 0.000142167613, 923.0288    , 31.3190327  , 779.9282    , 3.94        , 3           , 255         , 0           , 0
-0.125901878, 0.134153932 , -9.78615    , 1.23906939E-05, -0.00043154505, -0.000311528158, -0.0138202831, -0.0121905878, 0.0001391121, 923.0288    , 31.3190327  , 779.928955  , 3.95        , 3           , 255         , 0           , 0
-0.1383079  , 0.124731585 , -9.783463   , 0.000488896854, -9.448026E-05, -0.000123812541, -0.01381538 , -0.01219155 , 0.0001378871, 923.0288    , 31.3190327  , 779.9297    , 3.96        , 3           , 255         , 0           , 0
-0.1317073  , 0.12274532  , -9.790562   , -0.0002801196, 7.058225E-05, 0.000460999378, -0.0138182379, -0.0121907806, 0.000142487115, 923.0288    , 31.3190327  , 779.9304    , 3.97        , 3           , 255         , 0           , 0
-0.126301855, 0.128643438 , -9.79101    , -0.000568605145, -0.00034734534, -0.000398660428, -0.0138238752, -0.0121943085, 0.000138548727, 923.0288    , 31.3190327  , 779.931152  , 3.98        , 3           , 255         , 0           , 0
-0.121403955, 0.13579087  , -9.793533   , -0.000172061671, -0.000151410262, 0.000186063015, -0.0138256187, -0.0121957958, 0.000140430187, 923.0288    , 31.3190327  , 779.9319    , 3.99        , 3           , 255         , 0           , 0
-0.112265393, 0.136752635 , -9.796062   , -0.000141527329, -0.000400341261, 0.0008364252, -0.0138271367, -0.0121996831, 0.0001488494, 923.0288    , 31.3190327  , 779.9326    , 4           , 3           , 0           , 9.455236    , 400
-0.1106963  , 0.140949219 , -9.784687   , -0.000104973966, -8.400537E-05, 0.000710731139, -0.013822549, -0.0122053418, 0.000155898131, 923.0288    , 31.3190327  , 779.9129    , 4.01        , 3           , 1           , 0           , 0
