Acc X       , Acc Y       , Acc Z       , Gyro X      , Gyro Y      , Gyro Z      , Euler X     , Euler Y     , Euler Z     , Pres X      , Pres Y      , Pres Z      , Time        , Status      , LowRate X   , LowRate Y   , LowRate Z    
-9.777268   , 0.216727078 , 0.297121078 , -0.0183097962, 0.01883579  , -0.05040173 , -2.51139116 , -1.53319967 , 0           , 921.458557  , 31.5458946  , 793.906067  , 0           , 2           , 0           , 5.02123165  , 0
-9.797998   , 0.134663433 , 0.115295552 , 0.00013398673, 0.0222544372, 0.00154187833, -2.50755429 , -1.53337133 , -0.00383824972, 921.458557  , 31.5458946  , 793.906067  , 0.01        , 3           , 1           , 0           , 0
-9.7761755  , 0.1362578   , 0.100472413 , 0.000218303787, 0.009865903 , 0.000719804259, -2.50583243 , -1.53344464 , -0.005559471, 921.458557  , 31.5458946  , 793.906067  , 0.02        , 3           , 2           , 0           , 0
-9.77541    , 0.150954753 , 0.112206832 , -0.00093050237, -7.64774159E-05, -6.501862E-05, -2.5058682  , -1.53344464 , -0.00553311268, 921.4362    , 31.11978    , 793.906067  , 0.03        , 3           , 3           , 0           , 0
-9.774221   , 0.1465535   , 0.110856913 , -0.000655675132, -0.009669867, -0.00113338965, -2.50765038 , -1.53337443 , -0.00375500857, 921.4362    , 31.11978    , 793.906067  , 0.04        , 3           , 4           , 0           , 0
-9.781675   , 0.14038077  , 0.117180273 , -0.00043269078, -0.0182682239, -0.0013582533, -2.51082587 , -1.53323138 , -0.0005825091, 921.4362    , 31.11978    , 793.906067  , 0.05        , 3           , 5           , 0           , 0
-9.784659   , 0.125729159 , 0.118123606 , -7.65552E-05, -0.0285600666, -0.00152662513, -2.515609   , -1.533013   , 0.00420273654, 921.4362    , 31.11978    , 793.906067  , 0.06        , 3           , 6           , 0           , 0
-9.815157   , 0.115422808 , 0.179067925 , -0.000302199362, -0.0233084951, -0.0002550171, -2.51925969 , -1.532824   , 0.007853739 , 921.4362    , 31.11978    , 793.906067  , 0.07        , 3           , 7           , 0           , 0
-9.800767   , 0.125907987 , 0.166920334 , -0.0005002163, -0.00403261371, -8.88088653E-06, -2.5198853  , -1.53278959 , 0.008474506 , 921.4362    , 31.11978    , 793.906067  , 0.08        , 3           , 8           , 5           , 5
-9.797903   , 0.1165403   , 0.150505483 , -2.09761456E-05, 0.00359315658, -1.10101773E-05, -2.51933575 , -1.53281629 , 0.007924461 , 921.4362    , 31.11978    , 793.906067  , 0.09        , 3           , 9           , 5           , 0.1
-9.794508   , 0.125987142 , 0.14988479  , -0.00045268 , 0.0100438548, 0.0003593738, -2.51771665 , -1.5328995  , 0.00630094  , 921.4362    , 31.11978    , 793.906067  , 0.1         , 3           , 10          , 0.1         , 0.1
-9.78963852 , 0.126210719 , 0.134265214 , -2.37192089E-05, 0.0116244089, -0.000121814584, -2.51222944 , -1.5339185  , 0.0008139924, 921.4362    , 31.11978    , 794.107     , 0.11        , 3           , 11          , 0.0109544508, 0.0109544508
-9.79233551 , 0.129681855 , 0.126568124 , 0.0006342246, 0.00929378  , 0.0004407191, -2.51063943 , -1.53399289 , -0.000771048537, 921.4362    , 31.11978    , 794.107     , 0.12        , 3           , 12          , 0.174642488 , 0
-9.791387   , 0.140716225 , 0.121311679 , 2.42868136E-05, 0.00235855463, 0.0006859715, -2.51010966 , -1.53400755 , -0.00130045891, 921.4755    , 31.1595345  , 794.107     , 0.13        , 3           , 13          , 0           , 0
-9.788855   , 0.139782608 , 0.115654841 , -0.000195493543, -0.007228075, -0.0006916272, -2.511422   , -1.533954   , 1.13268425E-05, 921.4755    , 31.1595345  , 794.107     , 0.14        , 3           , 14          , -2.379746E-10, -3.86319918E-08
-9.795313   , 0.144777134 , 0.150408849 , 8.341622E-05, -0.007678403, -0.0003204389, -2.51271629 , -1.53389263 , 0.00130531366, 921.4755    , 31.1595345  , 794.107     , 0.15        , 3           , 15          , 0           , 2.00726884E-08
-9.797724   , 0.131373733 , 0.150257066 , -0.000175703113, 6.773966E-05, 6.775832E-05, -2.51269054 , -1.533891   , 0.00127866527, 921.4755    , 31.1595345  , 794.107     , 0.16        , 3           , 16          , 0           , 4.203895E-45
-9.804144   , 0.13538672  , 0.148367658 , 0.000321083615, 0.004337447 , 0.0002702635, -2.51193714 , -1.53392494 , 0.0005279374, 921.4755    , 31.1595345  , 794.107     , 0.17        , 3           , 20          , 0           , 0
-9.790922   , 0.138604283 , 0.135687664 , 0.0001126608, 0.00696475059, -0.000102799917, -2.51084423 , -1.53398156 , -0.0005643802, 921.4755    , 31.1595345  , 794.107     , 0.18        , 3           , 21          , 0           , 0
-9.795114   , 0.120918706 , 0.129362643 , -4.452943E-05, 0.00745242136, -0.000632202544, -2.50978851 , -1.53404963 , -0.0016214567, 921.4755    , 31.1595345  , 794.107     , 0.19        , 3           , 22          , 0           , 0
-9.786128   , 0.125189289 , 0.117884621 , 0.000377652061, 0.001764216 , 4.33055538E-05, -2.50949216 , -1.53405941 , -0.00191500538, 921.4755    , 31.1595345  , 794.107     , 0.2         , 3           , 40          , 0           , 0
-9.790287   , 0.120365858 , 0.111716233 , 0.00043833474, -0.007425673, -0.000634553435, -2.50773764 , -1.53466153 , -0.00366186025, 921.4755    , 31.1595345  , 793.9297    , 0.21        , 3           , 41          , 0           , 0
-9.795752   , 0.111474648 , 0.147349447 , -0.000156726936, -0.0102723539, -0.000155371425, -2.50945163 , -1.53458083 , -0.00194736593, 921.4755    , 31.1595345  , 793.929749  , 0.22        , 3           , 42          , 0           , 0
-9.799212   , 0.110247016 , 0.146259308 , -0.000124370665, -0.004655083, -0.0003571072, -2.51029062 , -1.53454626 , -0.001109224, 921.466553  , 31.1861286  , 793.9298    , 0.23        , 3           , 255         , 0           , 0
-9.801072   , 0.123931788 , 0.125872061 , -0.000510491431, -0.006158385, -0.000806429831, -2.51147532 , -1.53449535 , 7.144769E-05, 921.466553  , 31.1861286  , 793.9299    , 0.24        , 3           , 255         , 0           , 0
-9.79883    , 0.140614986 , 0.148216516 , -0.0006570744, -0.00680501573, -0.000388080283, -2.51267171 , -1.53444767 , 0.00126123393, 921.466553  , 31.1861286  , 793.929932  , 0.25        , 3           , 255         , 0           , 0
-9.800051   , 0.133311838 , 0.164369732 , 0.000113820308, -0.004008032, -7.050536E-05, -2.51333451 , -1.53441    , 0.00192541443, 921.466553  , 31.1861286  , 793.93      , 0.26        , 3           , 255         , 0           , 0
-9.787448   , 0.141753882 , 0.150754482 , -8.9115E-05 , 0.001704507 , -0.000183482523, -2.51310158 , -1.534428   , 0.00169177388, 921.466553  , 31.1861286  , 793.930054  , 0.27        , 3           , 255         , 0           , 0
-9.789364   , 0.149719119 , 0.1365615   , -0.000102742488, 0.003930181 , -0.0004674816, -2.51257086 , -1.53446245 , 0.001160098 , 921.466553  , 31.1861286  , 793.9301    , 0.28        , 3           , 255         , 0           , 0
-9.807681   , 0.143930718 , 0.132266134 , -9.5864365E-05, 0.002424476 , 0.000554352067, -2.512056   , -1.53448057 , 0.0006435122, 921.466553  , 31.1861286  , 793.9302    , 0.29        , 3           , 255         , 0           , 0
-9.793947   , 0.1380018   , 0.137998015 , -0.000441749231, 0.00253790268, -0.0006040628, -2.511783   , -1.53450346 , 0.00036550095, 921.466553  , 31.1861286  , 793.930237  , 0.3         , 3           , 255         , 0           , 0
-9.79466    , 0.1275462   , 0.133407265 , -0.0002530714, 0.00124096253, 0.000135418464, -2.50957656 , -1.53500974 , -0.00184140226, 921.466553  , 31.1861286  , 793.8975    , 0.31        , 3           , 255         , 0           , 0
-9.7907505  , 0.128844857 , 0.136261582 , 0.000146775215, -0.000389917928, 1.48172758E-05, -2.50963616 , -1.5350014  , -0.00178128236, 921.466553  , 31.1861286  , 793.8976    , 0.32        , 3           , 255         , 0           , 0
-9.791728   , 0.124474183 , 0.14582409  , 0.000570953358, 0.00114964228, 0.000427819934, -2.50934362 , -1.53500807 , -0.00206731213, 921.490662  , 31.2034283  , 793.897644  , 0.33        , 3           , 255         , 0           , 0
-9.80023    , 0.122611381 , 0.135306254 , -0.000252664031, 0.00348306145, 0.000768453 , -2.50859833 , -1.535033   , -0.00281546172, 921.490662  , 31.2034283  , 793.8977    , 0.34        , 3           , 255         , 0           , 0
-9.79931    , 0.113407254 , 0.13729158  , -0.000649811467, 0.00280697783, 0.000310425065, -2.50807047 , -1.53504968 , -0.00335082831, 921.490662  , 31.2034283  , 793.897766  , 0.35        , 3           , 255         , 0           , 0
-9.799324   , 0.117878474 , 0.132469878 , 7.73829961E-05, 0.00239165267, -0.000145122365, -2.50770569 , -1.535073   , -0.00371485879, 921.490662  , 31.2034283  , 793.8978    , 0.36        , 3           , 255         , 0           , 0
-9.78798    , 0.126452759 , 0.143533349 , -0.0006225879, 0.006378785 , -2.58467353E-05, -2.5066607  , -1.53512144 , -0.004767252, 921.490662  , 31.2034283  , 793.8979    , 0.37        , 3           , 255         , 0           , 0
-9.786145   , 0.128632471 , 0.141972467 , -0.000214755477, 0.0122581664, 0.000867852 , -2.504424   , -1.53521514 , -0.007007569, 921.490662  , 31.2034283  , 793.897949  , 0.38        , 3           , 255         , 0           , 0
-9.783499   , 0.133428678 , 0.1078429   , 0.00044935738, 0.006590911 , 0.0008485988, -2.503124   , -1.5352689  , -0.008303156, 921.490662  , 31.2034283  , 793.898     , 0.39        , 3           , 255         , 0           , 0
-9.785891   , 0.138835862 , 0.1338546   , -7.945987E-05, -0.001907562, 0.0005666685, -2.5033164  , -1.53524363 , -0.008111783, 921.490662  , 31.2034283  , 793.8981    , 0.4         , 3           , 255         , 0           , 0
-9.787926   , 0.1380476   , 0.145285249 , 9.609528E-05, 0.00311458763, 0.0004432427, -2.500171   , -1.53590727 , -0.0112554878, 921.490662  , 31.2034283  , 793.826538  , 0.41        , 3           , 255         , 0           , 0
-9.780897   , 0.13549982  , 0.122723855 , 0.000162802331, 0.007311159 , -0.000407900516, -2.49900746 , -1.53596878 , -0.012417905, 921.490662  , 31.2034283  , 793.8266    , 0.42        , 3           , 255         , 0           , 0
-9.781534   , 0.14339754  , 0.114603445 , -0.000201177856, 0.0006479201, -0.000370003952, -2.49898267 , -1.53597736 , -0.0124462321, 921.4203    , 31.2117062  , 793.82666   , 0.43        , 3           , 255         , 0           , 0
-9.802937   , 0.133581132 , 0.132641554 , 0.0001893614, -0.00348195923, -0.000277652667, -2.49964213 , -1.53594828 , -0.0117832832, 921.4203    , 31.2117062  , 793.8267    , 0.44        , 3           , 255         , 0           , 0
-9.802915   , 0.125663489 , 0.132364959 , -0.000130593835, -0.000406169827, -0.000308839866, -2.49978328 , -1.53594828 , -0.011642511, 921.4203    , 31.2117062  , 793.8268    , 0.45        , 3           , 255         , 0           , 0
-9.788446   , 0.124164924 , 0.135335654 , -0.000227577577, 0.0008260873, -0.0005572236, -2.49977064 , -1.53595686 , -0.0116569614, 921.4203    , 31.2117062  , 793.826843  , 0.46        , 3           , 255         , 0           , 0
-9.785948   , 0.131699771 , 0.124400929 , 5.837525E-05, -0.0007495676, -0.0004235091, -2.49999619 , -1.5359534  , -0.0114316177, 921.4203    , 31.2117062  , 793.8269    , 0.47        , 3           , 255         , 0           , 0
-9.797696   , 0.131118685 , 0.13908942  , -0.0002677958, -0.000696751, -0.0005238299, -2.50023937 , -1.53595    , -0.0111912386, 921.4203    , 31.2117062  , 793.826965  , 0.48        , 3           , 255         , 0           , 0
-9.800342   , 0.119402483 , 0.1495885   , -1.00028274E-07, 0.006636794 , 0.000287429983, -2.49903059 , -1.53600478 , -0.0123996595, 921.4203    , 31.2117062  , 793.827     , 0.49        , 3           , 255         , 0           , 0
-9.790809   , 0.124162    , 0.126943067 , 0.000305876718, 0.00913585  , 0.000363432948, -2.497369   , -1.53607678 , -0.0140606035, 921.4203    , 31.2117062  , 793.8271    , 0.5         , 3           , 255         , 0           , 0
-9.782545   , 0.12923184  , 0.123904184 , -0.000125792343, 0.00419986062, -0.0004722434, -2.49394035 , -1.53669178 , -0.0174879245, 921.4203    , 31.2117062  , 793.9142    , 0.51        , 3           , 255         , 0           , 0
-9.787332   , 0.133492187 , 0.128774583 , -0.000121780606, -0.000365522632, -0.000298998057, -2.49407554 , -1.53669    , -0.01735361 , 921.4203    , 31.2117062  , 793.914246  , 0.52        , 3           , 255         , 0           , 0
-9.784479   , 0.135342583 , 0.125185192 , -0.0002017822, -0.004424809, -3.74225419E-05, -2.49486756 , -1.53665686 , -0.01656473 , 921.4432    , 31.2214756  , 793.9143    , 0.53        , 3           , 255         , 0           , 0
-9.794118   , 0.137927592 , 0.129116669 , -0.000574830337, -0.00586423231, -0.000411753543, -2.49600148 , -1.536608   , -0.0154348025, 921.4432    , 31.2214756  , 793.914368  , 0.54        , 3           , 255         , 0           , 0
-9.801432   , 0.131854847 , 0.132188246 , -0.0006256383, -0.005135842, 8.604373E-05, -2.496892   , -1.53657317 , -0.0145502109, 921.4432    , 31.2214756  , 793.9145    , 0.55        , 3           , 255         , 0           , 0
-9.799037   , 0.131212249 , 0.138219669 , -0.000342592364, -0.00166659534, -0.000114733542, -2.49721313 , -1.536554   , -0.0142323  , 921.4432    , 31.2214756  , 793.9146    , 0.56        , 3           , 255         , 0           , 0
-9.78741    , 0.1182647   , 0.139557242 , -0.0004483008, 0.004030743 , 0.0006072235, -2.496369   , -1.53658354 , -0.0150824925, 921.4432    , 31.2214756  , 793.914734  , 0.57        , 3           , 255         , 0           , 0
-9.792208   , 0.127791643 , 0.132676959 , -0.000116665731, 0.00804416  , -6.60583373E-06, -2.494954   , -1.53664982 , -0.01649822 , 921.4432    , 31.2214756  , 793.914856  , 0.58        , 3           , 255         , 0           , 0
-9.780282   , 0.131803632 , 0.13046284  , 0.000116337913, 0.006810715 , -0.00031    , -2.493823   , -1.53670752 , -0.01762998 , 921.4432    , 31.2214756  , 793.915     , 0.59        , 3           , 255         , 0           , 0
-9.805385   , 0.130099908 , 0.13410835  , 0.000385610852, 0.00550589431, 0.000253770471, -2.492785   , -1.53674781 , -0.01866325 , 921.4432    , 31.2214756  , 793.9151    , 0.6         , 3           , 255         , 0           , 0
-9.796257   , 0.135163754 , 0.142996147 , 4.21088371E-05, 0.009979727 , 0.00119387312, -2.48780918 , -1.53738225 , -0.0236389749, 921.4432    , 31.2214756  , 793.9378    , 0.61        , 3           , 255         , 0           , 0
-9.771681   , 0.131937608 , 0.106137894 , -0.000195664979, 0.00461944751, 0.000318549719, -2.48689485 , -1.53741622 , -0.02455586 , 921.4432    , 31.2214756  , 793.9379    , 0.62        , 3           , 255         , 0           , 0
-9.78478    , 0.124141358 , 0.121781014 , 0.00027401268, -0.005978266, -0.00029699452, -2.48805165 , -1.53736973 , -0.0233947486, 921.421265  , 31.22507    , 793.938049  , 0.63        , 3           , 255         , 0           , 0
-9.789171   , 0.118444361 , 0.1417174   , 0.000232451785, -0.00419221725, 0.000129598557, -2.488781   , -1.53733408 , -0.0226642527, 921.421265  , 31.22507    , 793.9382    , 0.64        , 3           , 255         , 0           , 0
-9.787811   , 0.128694028 , 0.129787788 , 0.000342124724, -0.0009575889, -0.000414914772, -2.48905015 , -1.5373323  , -0.0223908536, 921.421265  , 31.22507    , 793.9383    , 0.65        , 3           , 255         , 0           , 0
-9.796341   , 0.127479792 , 0.137684926 , 0.000134261587, 0.0011308206, 0.0004928704, -2.48872662 , -1.53733587 , -0.0227139071, 921.421265  , 31.22507    , 793.9384    , 0.66        , 3           , 255         , 0           , 0
-9.788673   , 0.133718938 , 0.135188788 , -3.474477E-05, 0.00308316061, -0.000226267424, -2.48821926 , -1.53736448 , -0.0232201759, 921.421265  , 31.22507    , 793.938538  , 0.67        , 3           , 255         , 0           , 0
-9.799664   , 0.1301677   , 0.139668375 , -0.0002480274, 0.003599045 , -0.000170580213, -2.48760676 , -1.537393   , -0.0238352939, 921.421265  , 31.22507    , 793.93866   , 0.68        , 3           , 255         , 0           , 0
-9.792509   , 0.127533942 , 0.131357938 , -9.167448E-05, 0.00553392433, 0.000299245876, -2.48652816 , -1.53743947 , -0.02491639 , 921.421265  , 31.22507    , 793.9388    , 0.69        , 3           , 255         , 0           , 0
-9.780458   , 0.1316438   , 0.126876861 , -0.000355141878, 0.00190969568, 7.94248044E-05, -2.48616362 , -1.53744841 , -0.0252849981, 921.421265  , 31.22507    , 793.9389    , 0.7         , 3           , 255         , 0           , 0
-9.785353   , 0.1376094   , 0.125192076 , 0.0001615531, -0.00136914675, -0.000389510358, -2.483339   , -1.53809273 , -0.0281048454, 921.421265  , 31.22507    , 793.9856    , 0.71        , 3           , 255         , 0           , 0
-9.791994   , 0.135029048 , 0.138265669 , -0.00020980704, -0.001391569, -0.0007299331, -2.48377681 , -1.53808737 , -0.0276698  , 921.421265  , 31.22507    , 793.9857    , 0.72        , 3           , 255         , 0           , 0
-9.798632   , 0.125212058 , 0.1279868   , 9.33543561E-05, 0.00120881491, -0.0001162742, -2.48357821 , -1.53809822 , -0.0278673042, 921.455444  , 31.228735   , 793.9859    , 0.73        , 3           , 255         , 0           , 0
-9.792913   , 0.135853663 , 0.1346836   , 0.0005660812, 0.00258218125, 0.00112339889, -2.482817   , -1.53811288 , -0.0286233816, 921.455444  , 31.228735   , 793.9861    , 0.74        , 3           , 255         , 0           , 0
-9.79033    , 0.1288347   , 0.141221568 , 3.592693E-05, 0.00348813529, -5.93685982E-05, -2.482177   , -1.53813839 , -0.02926335 , 921.455444  , 31.228735   , 793.986267  , 0.75        , 3           , 255         , 0           , 0
-9.80582    , 0.122321621 , 0.129299492 , 0.000370849215, 0.00379811786, 9.45173451E-05, -2.48143768 , -1.5381639  , -0.02999809 , 921.455444  , 31.228735   , 793.98645   , 0.76        , 3           , 255         , 0           , 0
-9.795501   , 0.1255956   , 0.123799063 , 0.000195752145, 0.00283297128, 0.0007831905, -2.48071456 , -1.53818226 , -0.03072201 , 921.455444  , 31.228735   , 793.986633  , 0.77        , 3           , 255         , 0           , 0
-9.78517    , 0.122170545 , 0.121870831 , -0.000251694815, 0.00146438228, 0.0004933225, -2.48032284 , -1.53819132 , -0.0311160069, 921.455444  , 31.228735   , 793.9868    , 0.78        , 3           , 255         , 0           , 0
-9.799817   , 0.1250382   , 0.121820606 , -0.000599732331, 0.0008336261, 0.0006618589, -2.4800117  , -1.53819323 , -0.0314330719, 921.455444  , 31.228735   , 793.987     , 0.79        , 3           , 255         , 0           , 0
-9.791256   , 0.133283272 , 0.120422646 , -0.0002875331, 0.0009068984, -0.000333932578, -2.47992373 , -1.53820229 , -0.0315225162, 921.455444  , 31.228735   , 793.9872    , 0.8         , 3           , 255         , 0           , 0
-9.789699   , 0.132133633 , 0.111051656 , -0.000658715959, -0.00372110144, -0.000166352926, -2.47851372 , -1.53858685 , -0.03293856 , 921.455444  , 31.228735   , 793.980042  , 0.81        , 3           , 255         , 0           , 0
-9.80158    , 0.125406146 , 0.122847721 , -0.000387424458, -0.007314209, -0.000214574757, -2.47996378 , -1.53852952 , -0.0314917453, 921.455444  , 31.228735   , 793.9802    , 0.82        , 3           , 255         , 0           , 0
-9.796843   , 0.133776128 , 0.130972981 , -4.65236881E-05, -0.004892221, -4.32195375E-05, -2.480905   , -1.53849447 , -0.0305505581, 921.4673    , 31.23579    , 793.9804    , 0.83        , 3           , 255         , 0           , 0
-9.791941   , 0.128634945 , 0.120823525 , -8.451418E-05, -0.00336633553, -0.0008231537, -2.481746   , -1.53846681 , -0.0297091436, 921.4673    , 31.23579    , 793.9806    , 0.84        , 3           , 255         , 0           , 0
-9.794989   , 0.129117221 , 0.128710419 , -0.000207356876, -0.005308994, -0.000107786007, -2.48277974 , -1.53843367 , -0.0286779422, 921.4673    , 31.23579    , 793.9808    , 0.85        , 3           , 255         , 0           , 0
-9.797261   , 0.126761943 , 0.13396959  , 4.48575665E-05, -0.005065473, -0.000167602164, -2.483776   , -1.53838754 , -0.0276799649, 921.4673    , 31.23579    , 793.980957  , 0.86        , 3           , 255         , 0           , 0
-9.807892   , 0.126794174 , 0.1491768   , -0.000252372352, -0.000792723, 0.000216727829, -2.48387551 , -1.538382   , -0.0275832824, 921.4673    , 31.23579    , 793.98114   , 0.87        , 3           , 255         , 0           , 0
-9.793509   , 0.126253411 , 0.147467345 , -0.000326261128, 0.007266467 , 7.383644E-05, -2.48248887 , -1.53843915 , -0.0289737917, 921.4673    , 31.23579    , 793.9813    , 0.88        , 3           , 255         , 0           , 0
-9.776529   , 0.121584132 , 0.112929165 , 0.000366008549, 0.00465358142, -0.0004864689, -2.48172259 , -1.5384779  , -0.0297366418, 921.4673    , 31.23579    , 793.9815    , 0.89        , 3           , 255         , 0           , 0
-9.790756   , 0.124810122 , 0.110630356 , -0.000174075132, -0.00302975276, -0.000172783344, -2.48233962 , -1.53845394 , -0.0291217919, 921.4673    , 31.23579    , 793.9817    , 0.9         , 3           , 255         , 0           , 0
-9.792411   , 0.1288416   , 0.110847257 , 0.000286548049, -0.007262441, -0.000722588156, -2.48188829 , -1.53879488 , -0.0295679  , 921.4673    , 31.23579    , 793.962158  , 0.91        , 3           , 255         , 0           , 0
-9.794731   , 0.131872714 , 0.135423139 , -1.50167107E-05, -0.00653197477, -0.0007029412, -2.48331    , -1.53874826 , -0.0281464048, 921.4673    , 31.23579    , 793.9623    , 0.92        , 3           , 255         , 0           , 0
-9.799997   , 0.138768524 , 0.141935319 , -0.000241681671, 0.00175533665, 0.0005646196, -2.48283815 , -1.53875387 , -0.0286198482, 921.491     , 31.234026   , 793.962463  , 0.93        , 3           , 255         , 0           , 0
-9.799292   , 0.13331604  , 0.1102792   , -0.000366570166, 0.002245994 , 0.0005065848, -2.482287   , -1.53876877 , -0.0291739982, 921.491     , 31.234026   , 793.962646  , 0.94        , 3           , 255         , 0           , 0
-9.799119   , 0.121479914 , 0.125936419 , -0.000107750093, -0.00309111 , -0.000431925728, -2.48298621 , -1.53874826 , -0.0284767989, 921.491     , 31.234026   , 793.9628    , 0.95        , 3           , 255         , 0           , 0
-9.788214   , 0.12569955  , 0.139258787 , 0.000307553448, -0.00137227261, -0.0007103554, -2.48342061 , -1.538739   , -0.0280394219, 921.491     , 31.234026   , 793.963     , 0.96        , 3           , 255         , 0           , 0
-9.792032   , 0.130810261 , 0.129245356 , 0.000381751481, 0.003096767 , 0.0005462513, -2.48269033 , -1.53875947 , -0.0287662353, 921.491     , 31.234026   , 793.9632    , 0.97        , 3           , 255         , 0           , 0
-9.796473   , 0.124245562 , 0.128908426 , -0.000210996674, 0.00509833172, 0.0006240234, -2.48156238 , -1.53880048 , -0.0298959464, 921.491     , 31.234026   , 793.9634    , 0.98        , 3           , 255         , 0           , 0
-9.795565   , 0.127310961 , 0.121257223 , 1.55856051E-05, 0.005738977 , 0.000494863139, -2.48033929 , -1.53883958 , -0.0311205834, 921.491     , 31.234026   , 793.963562  , 0.99        , 3           , 255         , 0           , 0
-9.784985   , 0.1305682   , 0.115012869 , 4.6836878E-05, 0.00128982856, -0.0003870656, -2.48018551 , -1.53885078 , -0.03127382 , 921.491     , 31.234026   , 793.963745  , 1           , 3           , 0           , 6.02123642  , 100
-9.79439    , 0.126661018 , 0.130227447 , 9.724383E-05, 0.000923287065, -0.0005017964, -2.47795844 , -1.53922617 , -0.03349796 , 921.491     , 31.234026   , 793.921448  , 1.01        , 3           , 1           , 0           , 0
-9.795036   , 0.129484445 , 0.139562458 , -0.000141022523, 0.00539342826, 2.1409327E-05, -2.47690153 , -1.53927529 , -0.0345588  , 921.491     , 31.234026   , 793.9215    , 1.02        , 3           , 2           , 0           , 0
-9.7953825  , 0.125254989 , 0.126696676 , -0.000675551, 0.009655704 , 0.0006086072, -2.47486281 , -1.539336   , -0.0366028249, 921.4403    , 31.2401314  , 793.9216    , 1.03        , 3           , 3           , 0           , 0
-9.775845   , 0.134184867 , 0.113938347 , 0.000268481177, 0.00568737462, -5.903611E-05, -2.473756   , -1.53938711 , -0.0377094  , 921.4403    , 31.2401314  , 793.921631  , 1.04        , 3           , 4           , 0           , 0
-9.782694   , 0.134781092 , 0.110296346 , 0.000221819471, -0.00213294756, 0.000297917257, -2.47409773 , -1.53936625 , -0.037363518, 921.4403    , 31.2401314  , 793.9217    , 1.05        , 3           , 5           , 0           , 0
-9.805676   , 0.1251706   , 0.135696813 , -0.0001110219, -0.0054793153, 0.000102400882, -2.47514963 , -1.53932643 , -0.03631267 , 921.4403    , 31.2401314  , 793.921753  , 1.06        , 3           , 6           , 0           , 0
-9.799818   , 0.133184642 , 0.145620868 , -0.000327002926, 5.349059E-05, -9.912794E-05, -2.475166   , -1.53932261 , -0.0362987965, 921.4403    , 31.2401314  , 793.9219    , 1.07        , 3           , 7           , 0           , 0
-9.787855   , 0.130499989 , 0.119627967 , 0.000193609012, -0.000866735762, -0.00131962809, -2.47566366 , -1.53932261 , -0.03580002 , 921.4403    , 31.2401314  , 793.922     , 1.08        , 3           , 8           , 5           , 5
-9.792268   , 0.128705457 , 0.131229728 , 0.000626556866, -0.004106733, -0.00122252293, -2.47676778 , -1.539298   , -0.03468939 , 921.4403    , 31.2401314  , 793.9221    , 1.09        , 3           , 9           , 5           , 0.1
-9.799965   , 0.133012772 , 0.138968974 , -0.000128461659, -0.00194122945, -0.00048975175, -2.47726965 , -1.53929424 , -0.0341883563, 921.4403    , 31.2401314  , 793.922241  , 1.1         , 3           , 10          , 0.1         , 0.1
-9.80334949 , 0.132283837 , 0.130651757 , -0.0001490747, 0.0007539368, -0.000418144657, -2.47523069 , -1.53965211 , -0.036228396, 921.4403    , 31.2401314  , 793.9397    , 1.11        , 3           , 11          , 0.009164469 , 0.009164468
-9.795343   , 0.126330987 , 0.12768358  , -0.0005840458, 0.00134469871, 0.000229293175, -2.47491    , -1.53967118 , -0.036554236, 921.4403    , 31.2401314  , 793.9398    , 1.12        , 3           , 12          , 0.174642846 , 0
-9.791738   , 0.127951056 , 0.127845123 , 0.000174117376, 0.000168623475, 0.000489875732, -2.474753   , -1.53966546 , -0.03671118 , 921.414368  , 31.2394524  , 793.939941  , 1.13        , 3           , 13          , 0           , 0
-9.784561   , 0.130927    , 0.121292852 , 0.000101189 , -0.003852912, 0.0005359756, -2.47537947 , -1.53962719 , -0.03608212 , 921.414368  , 31.2394524  , 793.940063  , 1.14        , 3           , 14          , -1.768281E-08, -2.94077563E-06
-9.793068   , 0.131901756 , 0.131219774 , 0.000223228155, -0.00610062061, -0.0004426971, -2.47669649 , -1.53958893 , -0.03476255 , 921.414368  , 31.2394524  , 793.9402    , 1.15        , 3           , 15          , 0           , 1.5626722E-06
-9.800352   , 0.133264616 , 0.12525785  , -0.000208239348, -0.00501484657, -0.0006357822, -2.47784925 , -1.53955078 , -0.03361198 , 921.414368  , 31.2394524  , 793.9403    , 1.16        , 3           , 16          , 0           , 4.203895E-45
-9.793498   , 0.140375331 , 0.1321117   , -0.000363633473, -0.003978492, -0.0003338001, -2.47871923 , -1.53952217 , -0.0327431969, 921.414368  , 31.2394524  , 793.9405    , 1.17        , 3           , 20          , 0           , 0
-9.791624   , 0.133762524 , 0.122152582 , -0.0003701127, -0.005429181, -0.000177998038, -2.47983479 , -1.53948593 , -0.0316320732, 921.414368  , 31.2394524  , 793.9407    , 1.18        , 3           , 21          , 0           , 0
-9.791308   , 0.1275415   , 0.1283263   , -0.0005237818, -0.00660546962, -0.000355018972, -2.48122334 , -1.539427   , -0.0302487426, 921.414368  , 31.2394524  , 793.940857  , 1.19        , 3           , 22          , 0           , 0
-9.793536   , 0.1286207   , 0.144313589 , 5.252742E-05, -0.00110054633, -0.000495369954, -2.48156357 , -1.53941941 , -0.029906787, 921.414368  , 31.2394524  , 793.94104   , 1.2         , 3           , 40          , 0           , 0
-9.792074   , 0.125575036 , 0.126205936 , 0.000147645565, 0.005248996 , 0.00013062534, -2.47856188 , -1.53978634 , -0.0329067372, 921.414368  , 31.2394524  , 793.982849  , 1.21        , 3           , 41          , 0           , 0
-9.783812   , 0.120682344 , 0.114283368 , -0.000189974162, 0.00251848623, -0.000202014286, -2.4781158  , -1.53980744 , -0.0333545133, 921.414368  , 31.2394524  , 793.983154  , 1.22        , 3           , 42          , 0           , 0
-9.789697   , 0.131170914 , 0.126731828 , 6.40726239E-06, -0.00162260723, -0.000499461952, -2.47856569 , -1.5397979  , -0.0329053067, 921.4545    , 31.2419624  , 793.983459  , 1.23        , 3           , 255         , 0           , 0
-9.788333   , 0.126710147 , 0.13597241  , 0.000248761848, 0.0014418629, -0.0006208729, -2.478434   , -1.53980947 , -0.03303503 , 921.4545    , 31.2419624  , 793.983765  , 1.24        , 3           , 255         , 0           , 0
-9.78924    , 0.14080359  , 0.124855414 , 0.000424713828, 0.00499260239, 0.000276515842, -2.47736478 , -1.53984988 , -0.0340986364, 921.4545    , 31.2419624  , 793.9841    , 1.25        , 3           , 255         , 0           , 0
-9.790121   , 0.132782951 , 0.120195791 , 5.011227E-06, 0.00440097647, 0.000442234217, -2.47637582 , -1.53987873 , -0.0350879878, 921.4545    , 31.2419624  , 793.9844    , 1.26        , 3           , 255         , 0           , 0
-9.793461   , 0.135486513 , 0.123535737 , 0.0001427513, 0.00144166045, 0.000189702172, -2.47603869 , -1.53988647 , -0.0354247577, 921.4545    , 31.2419624  , 793.9847    , 1.27        , 3           , 255         , 0           , 0
-9.798568   , 0.1335137   , 0.140007019 , -1.12869939E-05, 0.00199877867, -0.000473164022, -2.47575951 , -1.53991544 , -0.0357049  , 921.4545    , 31.2419624  , 793.985     , 1.28        , 3           , 255         , 0           , 0
-9.793571   , 0.125527039 , 0.121917441 , -0.000177620081, 0.00166267448, -0.000138287462, -2.47546482 , -1.53992319 , -0.0360012241, 921.4545    , 31.2419624  , 793.9853    , 1.29        , 3           , 255         , 0           , 0
-9.784332   , 0.128786415 , 0.122811474 , 0.000261187757, 0.0002785826, -0.000358873134, -2.4754982  , -1.5399251  , -0.03596473 , 921.4545    , 31.2419624  , 793.9856    , 1.3         , 3           , 255         , 0           , 0
-9.787578   , 0.124149606 , 0.1254299   , -0.000238728768, -0.0003501276, 0.000123408317, -2.47279119 , -1.54033327 , -0.038672477, 921.4545    , 31.2419624  , 793.9811    , 1.31        , 3           , 255         , 0           , 0
-9.790187   , 0.121793829 , 0.122031271 , -0.0006143945, 0.001843203 , 0.000404292718, -2.47231865 , -1.54034507 , -0.03915099 , 921.4545    , 31.2419624  , 793.9814    , 1.32        , 3           , 255         , 0           , 0
-9.793062   , 0.123309478 , 0.124791585 , -0.0006096241, 0.00196053437, -0.000244455383, -2.471989   , -1.5403626  , -0.0394874141, 921.4498    , 31.2433872  , 793.9817    , 1.33        , 3           , 255         , 0           , 0
-9.798093   , 0.131992131 , 0.1215148   , 0.000103088154, 0.00151372689, -0.0001595108, -2.47171926 , -1.54037642 , -0.03975613 , 921.4498    , 31.2433872  , 793.982     , 1.34        , 3           , 255         , 0           , 0
-9.79832649 , 0.131837219 , 0.124339357 , 0.000126162646, -0.000111222253, 3.71127462E-05, -2.47173119 , -1.54037249 , -0.0397428647, 921.4498    , 31.2433872  , 793.9823    , 1.35        , 3           , 255         , 0           , 0
-9.778501   , 0.128548473 , 0.106110826 , -0.000114917755, -0.00382489944, 0.0002962102, -2.47243381 , -1.5403372  , -0.0390422828, 921.4498    , 31.2433872  , 793.9826    , 1.36        , 3           , 255         , 0           , 0
-9.781157   , 0.1336225   , 0.122609138 , -5.673117E-05, -0.009606469, 0.000509428559, -2.47425342 , -1.54026687 , -0.0372213759, 921.4498    , 31.2433872  , 793.9829    , 1.37        , 3           , 255         , 0           , 0
-9.798433   , 0.126801774 , 0.14095898  , -0.000325332861, -0.00505700056, 0.000426057668, -2.4751718  , -1.540218   , -0.0363053568, 921.4498    , 31.2433872  , 793.9832    , 1.38        , 3           , 255         , 0           , 0
-9.797678   , 0.130500749 , 0.123758949 , -0.000719204, 7.15987553E-05, 0.000385443855, -2.475065   , -1.54021609 , -0.03642031 , 921.4498    , 31.2433872  , 793.9835    , 1.39        , 3           , 255         , 0           , 0
-9.799467   , 0.132489651 , 0.114217043 , 2.68656663E-06, -6.34324242E-05, -1.893035E-05, -2.47508264 , -1.540218   , -0.0364022143, 921.4498    , 31.2433872  , 793.9838    , 1.4         , 3           , 255         , 0           , 0
-9.788399   , 0.140704468 , 0.119390346 , -0.000264773727, -0.00148761924, 3.3839824E-05, -2.47316575 , -1.54054737 , -0.0383211449, 921.4498    , 31.2433872  , 793.9843    , 1.41        , 3           , 255         , 0           , 0
-9.784612   , 0.134768575 , 0.124088064 , -0.000964530569, -0.00370163913, -0.000126415427, -2.4739666  , -1.54051387 , -0.0375296958, 921.4498    , 31.2433872  , 793.9846    , 1.42        , 3           , 255         , 0           , 0
-9.797711   , 0.134938344 , 0.125997931 , -0.000318365666, -0.00520427153, 0.000127591629, -2.47499824 , -1.54047847 , -0.03650134 , 921.4568    , 31.2439976  , 793.9849    , 1.43        , 3           , 255         , 0           , 0
-9.803255   , 0.1354619   , 0.139614046 , -9.47281151E-05, -0.00348308333, -1.24254375E-05, -2.47571039 , -1.540447   , -0.03578847 , 921.4568    , 31.2439976  , 793.9852    , 1.44        , 3           , 255         , 0           , 0
-9.795225   , 0.1282052   , 0.13794376  , 5.97414373E-06, 0.0009502399, -0.000136114977, -2.475552   , -1.54045677 , -0.0359466746, 921.4568    , 31.2439976  , 793.985535  , 1.45        , 3           , 255         , 0           , 0
-9.78854    , 0.120486841 , 0.134250566 , -0.0005126451, 0.0004979404, -0.000282298017, -2.47553015 , -1.54046273 , -0.0359749161, 921.4568    , 31.2439976  , 793.98584   , 1.46        , 3           , 255         , 0           , 0
-9.793379   , 0.1273447   , 0.1325675   , 0.000144206366, 0.000782259565, 0.000159323943, -2.47532725 , -1.54046667 , -0.0361748  , 921.4568    , 31.2439976  , 793.986145  , 1.47        , 3           , 255         , 0           , 0
-9.783804   , 0.129525125 , 0.13403447  , 0.0006457585, 0.002471571 , -0.000386839238, -2.4749167  , -1.54049218 , -0.0365797728, 921.4568    , 31.2439976  , 793.98645   , 1.48        , 3           , 255         , 0           , 0
-9.789568   , 0.125322327 , 0.132498011 , 0.0003578145, 0.0006477867, 7.93422441E-05, -2.47475982 , -1.5404942  , -0.03673392 , 921.4568    , 31.2439976  , 793.986755  , 1.49        , 3           , 255         , 0           , 0
-9.809053   , 0.125605971 , 0.130540743 , -9.209493E-06, 0.00103543  , 0.000149151951, -2.474508   , -1.5405     , -0.03698392 , 921.4568    , 31.2439976  , 793.987061  , 1.5         , 3           , 255         , 0           , 0
-9.800021   , 0.116885342 , 0.1359256   , -0.000137326, 0.003539772 , 0.000161553035, -2.47195768 , -1.54080462 , -0.03953632 , 921.4568    , 31.2439976  , 793.980164  , 1.51        , 3           , 255         , 0           , 0
-9.796204   , 0.118963979 , 0.1390605   , -0.000509356847, 0.00604239665, -0.000150526874, -2.47074986 , -1.5408603  , -0.0407499336, 921.4568    , 31.2439976  , 793.980469  , 1.52        , 3           , 255         , 0           , 0
-9.799923   , 0.1322045   , 0.125737682 , -0.000422133016, 0.0109231193, 6.462297E-05, -2.46846485 , -1.54094207 , -0.043040622, 921.4299    , 31.2432518  , 793.9808    , 1.53        , 3           , 255         , 0           , 0
-9.787981   , 0.13036111  , 0.106212676 , -4.867915E-05, 0.006030378 , -0.0002599639, -2.46727037 , -1.54098606 , -0.0442352481, 921.4299    , 31.2432518  , 793.9811    , 1.54        , 3           , 255         , 0           , 0
-9.789271   , 0.129293829 , 0.118068218 , -4.69795523E-05, 0.0002452133, 0.000374354044, -2.46712279 , -1.540992   , -0.0443847552, 921.4299    , 31.2432518  , 793.9814    , 1.55        , 3           , 255         , 0           , 0
-9.797693   , 0.136539608 , 0.133452088 , -0.000111387773, -0.0004365017, 0.0003042023, -2.46713448 , -1.540984   , -0.04437295 , 921.4299    , 31.2432518  , 793.9817    , 1.56        , 3           , 255         , 0           , 0
-9.793686   , 0.118624233 , 0.142583817 , 0.000390910252, 0.0030614275, -3.32367235E-05, -2.46649766 , -1.54100811 , -0.045005925, 921.4299    , 31.2432518  , 793.982     , 1.57        , 3           , 255         , 0           , 0
-9.777592   , 0.11802306  , 0.1263212   , -7.944561E-05, 0.007356896 , 0.000394050119, -2.46484756 , -1.5410682  , -0.0466568545, 921.4299    , 31.2432518  , 793.9823    , 1.58        , 3           , 255         , 0           , 0
-9.778575   , 0.130555838 , 0.106115162 , -0.0005672601, 0.003974411 , -2.50199409E-05, -2.46402431 , -1.5410943  , -0.0474873446, 921.4299    , 31.2432518  , 793.9826    , 1.59        , 3           , 255         , 0           , 0
-9.798579   , 0.125416681 , 0.119198382 , -0.000204660915, -0.00114810723, 0.000659198035, -2.464096   , -1.54108417 , -0.0474172  , 921.4299    , 31.2432518  , 793.9829    , 1.6         , 3           , 255         , 0           , 0
-9.800975   , 0.133035749 , 0.13646315  , -0.000245852629, 0.00276467088, 0.000741063734, -2.46145225 , -1.541409   , -0.05006365 , 921.4299    , 31.2432518  , 794.005     , 1.61        , 3           , 255         , 0           , 0
-9.784343   , 0.128518134 , 0.126601428 , 0.00025460287, 0.00594331836, 7.017353E-05, -2.46015644 , -1.5414598  , -0.0513573326, 921.4299    , 31.2432518  , 794.005432  , 1.62        , 3           , 255         , 0           , 0
-9.794759   , 0.114656009 , 0.128921419 , -0.000160614843, 0.008855067 , -0.000518521, -2.45839071 , -1.541533   , -0.053125497, 921.411743  , 31.2453556  , 794.005859  , 1.63        , 3           , 255         , 0           , 0
-9.796579   , 0.116941489 , 0.137236312 , 0.000103744314, 0.016447    , -0.0007494066, -2.455027   , -1.54165757 , -0.0564905554, 921.411743  , 31.2453556  , 794.0063    , 1.64        , 3           , 255         , 0           , 0
-9.795235   , 0.124813616 , 0.133272976 , -0.000173909051, 0.0227805972, -0.0005555475, -2.45019221 , -1.541834   , -0.061328277, 921.411743  , 31.2453556  , 794.0067    , 1.65        , 3           , 255         , 0           , 0
-9.788749   , 0.133399278 , 0.11939466  , -8.135512E-05, 0.0238485448, -0.000420121563, -2.44502234 , -1.542022   , -0.06650262 , 921.411743  , 31.2453556  , 794.007141  , 1.66        , 3           , 255         , 0           , 0
-9.783788   , 0.1319718   , 0.111036494 , -0.000387374457, 0.0207684226, 0.00030157846, -2.44028831 , -1.54218185 , -0.071241416, 921.411743  , 31.2453556  , 794.007568  , 1.67        , 3           , 255         , 0           , 0
-9.784949   , 0.132111222 , 0.1149045   , -0.0002036392, 0.0178001914, 0.00035876644, -2.43616271 , -1.5423218  , -0.07537152 , 921.411743  , 31.2453556  , 794.008     , 1.68        , 3           , 255         , 0           , 0
-9.802803   , 0.139854237 , 0.119647682 , -0.0005199434, 0.0175299328, 0.0001445755, -2.4321208  , -1.54244983 , -0.07941803 , 921.411743  , 31.2453556  , 794.0084    , 1.69        , 3           , 255         , 0           , 0
-9.801196   , 0.13681671  , 0.115252279 , -0.000276015751, 0.0193601269, -0.0003110118, -2.427735   , -1.54259741 , -0.083809495, 921.411743  , 31.2453556  , 794.00885   , 1.7         , 3           , 255         , 0           , 0
-9.785448   , 0.123499587 , 0.09987464  , -1.05544605E-05, 0.01742362  , -0.000464776735, -2.42177486 , -1.54298913 , -0.0897701  , 921.411743  , 31.2453556  , 794.048645  , 1.71        , 3           , 255         , 0           , 0
-9.783948   , 0.124724671 , 0.07508667  , -0.0001789724, 0.007662321 , 0.000104521569, -2.41993022 , -1.543032   , -0.09161615 , 921.411743  , 31.2453556  , 794.049255  , 1.72        , 3           , 255         , 0           , 0
-9.770221   , 0.129706949 , 0.07188524  , 4.27293162E-05, -0.008528896, 0.000116108757, -2.42192316 , -1.54297626 , -0.08962186 , 921.4171    , 31.2447453  , 794.049866  , 1.73        , 3           , 255         , 0           , 0
-9.782839   , 0.124216639 , 0.08721608  , 0.0004536971, -0.02386404 , -0.000319229526, -2.42762256 , -1.5427947  , -0.0839168951, 921.4171    , 31.2447453  , 794.0505    , 1.74        , 3           , 255         , 0           , 0
-9.798281   , 0.124758124 , 0.09686218  , 0.000466738245, -0.03132889 , 0.0002704181, -2.43480778 , -1.54255724 , -0.0767247751, 921.4171    , 31.2447453  , 794.0511    , 1.75        , 3           , 255         , 0           , 0
-9.796671   , 0.125872061 , 0.124397159 , -8.78844548E-06, -0.0308005232, 0.0006549208, -2.4416554  , -1.54231977 , -0.06987503 , 921.4171    , 31.2447453  , 794.051758  , 1.76        , 3           , 255         , 0           , 0
-9.807058   , 0.118342355 , 0.146983251 , 0.000353533134, -0.0190408751, -0.000145495636, -2.44597387 , -1.54217362 , -0.06555051 , 921.4171    , 31.2447453  , 794.0524    , 1.77        , 3           , 255         , 0           , 0
-9.807335   , 0.121440336 , 0.140988782 , -6.80717058E-05, -0.004009241, -0.00050327566, -2.44700646 , -1.54214442 , -0.06451766 , 921.4171    , 31.2447453  , 794.0531    , 1.78        , 3           , 255         , 0           , 0
-9.80579948 , 0.142052531 , 0.133483857 , 0.0003506913, 0.005068934 , -0.00019910025, -2.44592142 , -1.542186   , -0.06560038 , 921.4171    , 31.2447453  , 794.0538    , 1.79        , 3           , 255         , 0           , 0
-9.793553   , 0.137152866 , 0.109083578 , -0.00070164795, 0.006555212 , -0.000157534683, -2.44449949 , -1.54223192 , -0.0670288  , 921.4171    , 31.2447453  , 794.054443  , 1.8         , 3           , 255         , 0           , 0
-9.794573   , 0.129993483 , 0.101416029 , -0.0004953604, -0.00121727644, -7.86984456E-05, -2.44274616 , -1.54249191 , -0.06878638 , 921.4171    , 31.2447453  , 794.084167  , 1.81        , 3           , 255         , 0           , 0
-9.807248   , 0.129318535 , 0.124895349 , -0.000588186143, -0.004114019, 0.000698542455, -2.44349933 , -1.54245615 , -0.06803964 , 921.4171    , 31.2447453  , 794.085     , 1.82        , 3           , 255         , 0           , 0
-9.8040905  , 0.123714045 , 0.122070134 , 0.000128560336, 0.002655967 , 0.0006287196, -2.44272518 , -1.5424751  , -0.0688122138, 921.465149  , 31.2505112  , 794.0859    , 1.83        , 3           , 255         , 0           , 0
-9.789235   , 0.134471014 , 0.09594917  , -3.01867622E-05, 0.0001443645, 0.000253892824, -2.44262552 , -1.5424751  , -0.06891206 , 921.465149  , 31.2505112  , 794.086731  , 1.84        , 3           , 255         , 0           , 0
-9.78714752 , 0.1259799   , 0.104027554 , -0.0001656811, -0.009079702, 0.000483935321, -2.44455266 , -1.54240358 , -0.06698571 , 921.465149  , 31.2505112  , 794.0876    , 1.85        , 3           , 255         , 0           , 0
-9.795317   , 0.1260627   , 0.12274047  , -0.000417424249, -0.0127867227, 0.000473092165, -2.44731021 , -1.54229879 , -0.06423182 , 921.465149  , 31.2505112  , 794.08844   , 1.86        , 3           , 255         , 0           , 0
-9.789238   , 0.136769086 , 0.125348717 , 7.58132446E-05, -0.0106737576, 0.0004466916, -2.44957924 , -1.54221737 , -0.06196222 , 921.465149  , 31.2505112  , 794.0893    , 1.87        , 3           , 255         , 0           , 0
-9.799396   , 0.136379957 , 0.129126713 , 0.0004112685, -0.008163494, 0.000572446268, -2.451238   , -1.54214859 , -0.0602984168, 921.465149  , 31.2505112  , 794.090149  , 1.88        , 3           , 255         , 0           , 0
-9.803087   , 0.121898353 , 0.137225762 , 5.653739E-06, -0.000608739851, 0.000104519451, -2.451345   , -1.54214239 , -0.0601892173, 921.465149  , 31.2505112  , 794.091     , 1.89        , 3           , 255         , 0           , 0
-9.799284   , 0.123765968 , 0.134693116 , 0.0001771445, 0.008991175 , 0.00049253233, -2.449207   , -1.542211   , -0.0623278245, 921.465149  , 31.2505112  , 794.091858  , 1.9         , 3           , 255         , 0           , 0
-9.79618    , 0.129933119 , 0.120372318 , 0.00041198128, 0.0156231672, 0.000462126161, -2.44416881 , -1.542513   , -0.06736292 , 921.465149  , 31.2505112  , 794.0617    , 1.91        , 3           , 255         , 0           , 0
-9.776437   , 0.132526368 , 0.106912866 , 3.2179978E-05, 0.0152451023, -0.000275013, -2.44076633 , -1.54263127 , -0.07076588 , 921.465149  , 31.2505112  , 794.0624    , 1.92        , 3           , 255         , 0           , 0
-9.788457   , 0.134611845 , 0.117464043 , -0.000471793319, 0.0113524869, -0.000220138347, -2.43822384 , -1.54272246 , -0.07331425 , 921.406738  , 31.2500362  , 794.063049  , 1.93        , 3           , 255         , 0           , 0
-9.779571   , 0.128480479 , 0.09392437  , -2.56715539E-05, 0.005975806 , -0.000235408836, -2.43691    , -1.54277134 , -0.0746296048, 921.406738  , 31.2500362  , 794.0637    , 1.94        , 3           , 255         , 0           , 0
-9.774492   , 0.12585333  , 0.07287276  , 0.000654512434, -0.009373523, 0.0003753969, -2.43896    , -1.5426991  , -0.07257164 , 921.406738  , 31.2500362  , 794.0644    , 1.95        , 3           , 255         , 0           , 0
-9.791426   , 0.141431838 , 0.09069215  , 0.000760554161, -0.0239816327, 2.35360822E-05, -2.44442487 , -1.542515   , -0.06709685 , 921.406738  , 31.2500362  , 794.065063  , 1.96        , 3           , 255         , 0           , 0
-9.809488   , 0.142240927 , 0.13070637  , -1.0439627E-06, -0.0272146  , 4.349346E-05, -2.450543   , -1.54230511 , -0.06097633 , 921.406738  , 31.2500362  , 794.065735  , 1.97        , 3           , 255         , 0           , 0
-9.804927   , 0.134347469 , 0.147252619 , 0.000152436536, -0.0195715539, -0.0008389927, -2.45512176 , -1.54216111 , -0.0563942567, 921.406738  , 31.2500362  , 794.0664    , 1.98        , 3           , 255         , 0           , 0
-9.803448   , 0.136342138 , 0.136420459 , 0.0003041662, -0.008114664, 0.0009565108, -2.45665026 , -1.54209042 , -0.0548615269, 921.406738  , 31.2500362  , 794.0671    , 1.99        , 3           , 255         , 0           , 0
-9.805176   , 0.133958817 , 0.12887606  , -5.6737932E-05, -0.0009012451, 0.00115291181, -2.45653915 , -1.54207587 , -0.05497456 , 921.406738  , 31.2500362  , 794.067749  , 2           , 3           , 0           , 7.02123642  , 200
-9.793884   , 0.131248131 , 0.132316709 , -0.000119655859, 0.00218137377, -0.000110919573, -2.45396876 , -1.542326   , -0.05754439 , 921.406738  , 31.2500362  , 794.109863  , 2.01        , 3           , 1           , 0           , 0
-9.796076   , 0.126392663 , 0.124582551 , -0.000205074262, 0.00256122439, -0.0003752133, -2.4535017  , -1.54234278 , -0.0580142252, 921.406738  , 31.2500362  , 794.1108    , 2.02        , 3           , 2           , 0           , 0
-9.785928   , 0.119841084 , 0.115643337 , 0.0002619957, 0.00021664091, -6.42847153E-05, -2.45346642 , -1.54234481 , -0.0580456741, 921.465637  , 31.25119    , 794.1117    , 2.03        , 3           , 3           , 0           , 0
-9.797199   , 0.120139457 , 0.1277869   , -0.000114340721, 0.00174573  , 4.391288E-05, -2.45306778 , -1.54235744 , -0.0584464446, 921.465637  , 31.25119    , 794.1126    , 2.04        , 3           , 4           , 0           , 0
-9.78719    , 0.119429991 , 0.116110168 , 0.000728871149, 0.00354414666, -0.00051366695, -2.45240664 , -1.542391   , -0.05910023 , 921.465637  , 31.25119    , 794.1135    , 2.05        , 3           , 5           , 0           , 0
-9.786838   , 0.125225827 , 0.109134927 , 0.00053206255, 0.0005524834, 0.000223793482, -2.45221519 , -1.54239309 , -0.05928601 , 921.465637  , 31.25119    , 794.114441  , 2.06        , 3           , 6           , 0           , 0
-9.786596   , 0.128162563 , 0.109270476 , -0.000245902134, -0.00484833447, -0.00041555913, -2.453413   , -1.54236376 , -0.05808994 , 921.465637  , 31.25119    , 794.115356  , 2.07        , 3           , 7           , 0           , 0
-9.799029   , 0.123060606 , 0.11687205  , 0.000182708347, -0.006487051, 0.000161241172, -2.45481539 , -1.54231131 , -0.05668675 , 921.465637  , 31.25119    , 794.1163    , 2.08        , 3           , 8           , 5           , 5
-9.806451   , 0.135285661 , 0.124961458 , 8.787503E-05, -0.00369799556, -7.362027E-05, -2.45565581 , -1.5422821  , -0.0558433831, 921.465637  , 31.25119    , 794.1172    , 2.09        , 3           , 9           , 5           , 0.1
-9.799563   , 0.146283552 , 0.130689859 , 7.59269E-05 , -0.00203239522, -0.0005079741, -2.45624661 , -1.54226542 , -0.0552537553, 921.465637  , 31.25119    , 794.1181    , 2.1         , 3           , 10          , 0.1         , 0.1
-9.792582   , 0.140982136 , 0.1268523   , 4.771568E-06, -0.00152689812, -0.0004457367, -2.45511627 , -1.54248142 , -0.05638147 , 921.465637  , 31.25119    , 794.082458  , 2.11        , 3           , 11          , 0.008089208 , 0.008089207
-9.797135   , 0.1399565   , 0.126452833 , -0.0002587822, -0.00114990957, -9.437994E-05, -2.45540142 , -1.54246879 , -0.056099508, 921.465637  , 31.25119    , 794.0832    , 2.12        , 3           , 12          , 0.174643889 , 0
-9.780703   , 0.142534658 , 0.127401739 , 0.0003340206, 0.001222002 , 0.000533419545, -2.45497918 , -1.54247713 , -0.0565184355, 921.4444    , 31.2512569  , 794.0839    , 2.13        , 3           , 13          , 0           , 0
-9.803951   , 0.134741724 , 0.128354341 , 0.000149447849, 0.005819508 , -0.0004524024, -2.45379686 , -1.54252779 , -0.05769972 , 921.4444    , 31.2512569  , 794.084656  , 2.14        , 3           , 14          , -5.288252E-08, -8.318554E-06
-9.797643   , 0.134364471 , 0.116185918 , -9.881419E-05, 0.00550016761, 0.000231004538, -2.45249677 , -1.54256356 , -0.05900104 , 921.4444    , 31.2512569  , 794.0854    , 2.15        , 3           , 15          , 0           , 4.34501953E-06
-9.791161   , 0.122372672 , 0.11162968  , 9.380347E-06, 0.0018033816, -0.000250456971, -2.45215964 , -1.54258049 , -0.05933841 , 921.4444    , 31.2512569  , 794.0861    , 2.16        , 3           , 16          , 0           , 4.203895E-45
-9.788264   , 0.120448455 , 0.117452785 , -0.0002498432, -0.0006811196, -0.000411996385, -2.45242882 , -1.54257834 , -0.0590723678, 921.4444    , 31.2512569  , 794.086853  , 2.17        , 3           , 20          , 0           , 0
-9.798359   , 0.1185284   , 0.124441922 , -9.849698E-05, -0.0026475715, -0.000181819036, -2.45307446 , -1.54255939 , -0.0584260449, 921.4444    , 31.2512569  , 794.0876    , 2.18        , 3           , 21          , 0           , 0
-9.805502   , 0.115518369 , 0.1295633   , 0.000219156675, -0.00150441017, 5.121197E-05, -2.45339823 , -1.54255092 , -0.05809996 , 921.4444    , 31.2512569  , 794.0883    , 2.19        , 3           , 22          , 0           , 0
-9.798036   , 0.120698728 , 0.135389686 , 0.0003400717, 0.000813355844, 0.00075327314, -2.45300674 , -1.54254675 , -0.05848869 , 921.4444    , 31.2512569  , 794.08905   , 2.2         , 3           , 40          , 0           , 0
-9.793333   , 0.13433592  , 0.122734055 , 0.000167739374, 0.000379983656, 0.00101518608, -2.45125318 , -1.54273307 , -0.0602396429, 921.4444    , 31.2512569  , 794.0829    , 2.21        , 3           , 41          , 0           , 0
-9.793393   , 0.1342845   , 0.120671645 , 0.000179745562, -0.00216873223, -0.000117613417, -2.451777   , -1.54271185 , -0.0597149469, 921.4444    , 31.2512569  , 794.083557  , 2.22        , 3           , 42          , 0           , 0
-9.790057   , 0.128055781 , 0.123028696 , 0.000457729 , -0.00475668069, -0.000564423564, -2.453004   , -1.54267788 , -0.058482565, 921.428     , 31.2512569  , 794.0842    , 2.23        , 3           , 255         , 0           , 0
-9.788135   , 0.144582465 , 0.113934971 , -5.874339E-05, -0.00886065 , -0.0006209641, -2.45517349 , -1.5426228  , -0.0563129447, 921.428     , 31.2512569  , 794.0849    , 2.24        , 3           , 255         , 0           , 0
-9.801092   , 0.1394088   , 0.120069817 , -0.000257522683, -0.0116338953, -0.000623516855, -2.457955   , -1.54253614 , -0.05353227 , 921.428     , 31.2512569  , 794.0856    , 2.25        , 3           , 255         , 0           , 0
-9.798493   , 0.138899416 , 0.133477569 , -0.000400357763, -0.0086182775, 0.000184791454, -2.45982885 , -1.54246449 , -0.051661402, 921.428     , 31.2512569  , 794.086243  , 2.26        , 3           , 255         , 0           , 0
-9.792513   , 0.139389127 , 0.124303259 , -0.000701074954, -0.006150257, 0.000204635988, -2.46114588 , -1.542412   , -0.0503509045, 921.428     , 31.2512569  , 794.0869    , 2.27        , 3           , 255         , 0           , 0
-9.780202   , 0.14164117  , 0.11948321  , 0.0001819908, -0.009900308, -0.0003766861, -2.46343422 , -1.54234064 , -0.0480604656, 921.428     , 31.2512569  , 794.0876    , 2.28        , 3           , 255         , 0           , 0
-9.79747    , 0.132918745 , 0.140560463 , -0.000343831285, -0.009503019, -0.0008753032, -2.46576524 , -1.54227579 , -0.0457304232, 921.428     , 31.2512569  , 794.0883    , 2.29        , 3           , 255         , 0           , 0
-9.796407   , 0.125853375 , 0.133296654 , -0.00037569477, -0.00836172 , -0.0009317563, -2.46785259 , -1.54221523 , -0.0436467566, 921.428     , 31.2512569  , 794.08905   , 2.3         , 3           , 255         , 0           , 0
-9.811029   , 0.119469479 , 0.157159224 , -0.000988649, -0.00119796023, -0.000103541315, -2.466279   , -1.54239941 , -0.04522879 , 921.428     , 31.2512569  , 794.103943  , 2.31        , 3           , 255         , 0           , 0
-9.804094   , 0.132379234 , 0.1379189   , -0.000525764, 0.0111623816, 0.00115651544, -2.463503   , -1.54248559 , -0.04801209 , 921.428     , 31.2512569  , 794.104736  , 2.32        , 3           , 255         , 0           , 0
-9.786901   , 0.126591533 , 0.113690212 , 0.0003781342, 0.009337763 , 0.0006229499, -2.46125364 , -1.54255307 , -0.0502589941, 921.399658  , 31.2536316  , 794.1055    , 2.33        , 3           , 255         , 0           , 0
-9.789943   , 0.128105372 , 0.117231309 , -2.30306177E-05, 0.00325195119, 0.000237374566, -2.46046281 , -1.54257417 , -0.05104925 , 921.399658  , 31.2536316  , 794.1063    , 2.34        , 3           , 255         , 0           , 0
-9.786664   , 0.129701227 , 0.119902037 , -0.000645379536, -0.000376471027, -0.0002602104, -2.46062469 , -1.542572   , -0.05089361 , 921.399658  , 31.2536316  , 794.1071    , 2.35        , 3           , 255         , 0           , 0
-9.795949   , 0.129186183 , 0.130831167 , -0.0003308298, -0.00171315426, -0.000380485668, -2.46111441 , -1.54255939 , -0.05040774 , 921.399658  , 31.2536316  , 794.1079    , 2.36        , 3           , 255         , 0           , 0
-9.804046   , 0.126511961 , 0.126219317 , -2.01057755E-05, 0.0007090215, 0.0004016747, -2.46084762 , -1.54256785 , -0.05067527 , 921.399658  , 31.2536316  , 794.1087    , 2.37        , 3           , 255         , 0           , 0
-9.797993   , 0.137504548 , 0.125335053 , -0.000483579555, -0.000179533, -9.04119152E-05, -2.46091676 , -1.54256356 , -0.0506104  , 921.399658  , 31.2536316  , 794.1095    , 2.38        , 3           , 255         , 0           , 0
-9.79153252 , 0.129196674 , 0.127810031 , -0.000979058, 8.545695E-05, -0.000224343239, -2.46096754 , -1.5425657  , -0.0505686849, 921.399658  , 31.2536316  , 794.1103    , 2.39        , 3           , 255         , 0           , 0
-9.789368   , 0.130985275 , 0.109283283 , -7.735884E-05, -0.00320344 , 0.000633475836, -2.461506   , -1.5425446  , -0.0500302464, 921.399658  , 31.2536316  , 794.1111    , 2.4         , 3           , 255         , 0           , 0
-9.8095     , 0.126389354 , 0.137808561 , -0.0003366644, -0.00138013822, 0.000639013539, -2.46035433 , -1.542697   , -0.05118629 , 921.399658  , 31.2536316  , 794.1605    , 2.41        , 3           , 255         , 0           , 0
-9.800321   , 0.133141786 , 0.1305902   , -0.000177117457, 0.003629357 , -0.000484476855, -2.459676   , -1.54272664 , -0.05186643 , 921.399658  , 31.2536316  , 794.1617    , 2.42        , 3           , 255         , 0           , 0
-9.781204   , 0.134745687 , 0.118839696 , 0.000381744583, 0.00213315384, -0.000622129068, -2.45936465 , -1.54275    , -0.0521736555, 921.453857  , 31.2536316  , 794.162842  , 2.43        , 3           , 255         , 0           , 0
-9.790601   , 0.133523673 , 0.130027771 , 0.000319440034, 0.00246375846, 0.000359065685, -2.45870852 , -1.5427649  , -0.0528269522, 921.453857  , 31.2536316  , 794.164     , 2.44        , 3           , 255         , 0           , 0
-9.790024   , 0.13034685  , 0.129518062 , 1.80812287E-06, 0.00625172071, 0.0004672225, -2.457167   , -1.5428139  , -0.05436887 , 921.453857  , 31.2536316  , 794.165161  , 2.45        , 3           , 255         , 0           , 0
-9.78587151 , 0.130511135 , 0.132722467 , -3.230788E-05, 0.005590052 , -0.0003975944, -2.456013   , -1.54285645 , -0.05552336 , 921.453857  , 31.2536316  , 794.1663    , 2.46        , 3           , 255         , 0           , 0
-9.786108   , 0.127961144 , 0.134278566 , -0.00026860155, 0.004232731 , 0.0006257953, -2.454883   , -1.54288638 , -0.05665758 , 921.453857  , 31.2536316  , 794.1675    , 2.47        , 3           , 255         , 0           , 0
-9.792664   , 0.133611992 , 0.122563645 , -0.0005780164, 0.0031381303, -5.811184E-05, -2.45419049 , -1.54290771 , -0.0573554859, 921.453857  , 31.2536316  , 794.16864   , 2.48        , 3           , 255         , 0           , 0
-9.786937   , 0.137221009 , 0.123597287 , -3.01317014E-05, 0.00061998  , -0.000104619838, -2.45407963 , -1.542912   , -0.05746727 , 921.453857  , 31.2536316  , 794.1698    , 2.49        , 3           , 255         , 0           , 0
-9.781433   , 0.140566036 , 0.117570259 , 0.000471622829, -0.00171025691, -0.0004771032, -2.45459461 , -1.5429014  , -0.0569465  , 921.453857  , 31.2536316  , 794.170959  , 2.5         , 3           , 255         , 0           , 0
-9.783315   , 0.130685285 , 0.12186525  , 0.0002597314, -0.002367928, -0.000115871422, -2.45313787 , -1.54311585 , -0.0584000945, 921.453857  , 31.2536316  , 794.1405    , 2.51        , 3           , 255         , 0           , 0
-9.792675   , 0.130858988 , 0.13227573  , -0.0008627366, -0.0024334488, 0.00020153285, -2.45364857 , -1.54309654 , -0.0578984842, 921.453857  , 31.2536316  , 794.1414    , 2.52        , 3           , 255         , 0           , 0
-9.797127   , 0.131011769 , 0.128422409 , -0.000493801, -0.00220507919, 0.000555003644, -2.454003   , -1.54307067 , -0.05754757 , 921.4313    , 31.25343    , 794.142334  , 2.53        , 3           , 255         , 0           , 0
-9.796534   , 0.131217316 , 0.128179789 , -0.0008002811, -0.001896657, 0.000399231474, -2.454333   , -1.54305565 , -0.0572255775, 921.4313    , 31.25343    , 794.14325   , 2.54        , 3           , 255         , 0           , 0
-9.78647    , 0.132704347 , 0.123772576 , -0.00048979104, -0.00399933942, 0.00013840053, -2.45521188 , -1.54302561 , -0.0563516468, 921.4313    , 31.25343    , 794.144165  , 2.55        , 3           , 255         , 0           , 0
-9.795374   , 0.1297825   , 0.13036643  , 3.257907E-05, -0.00348081859, -7.902061E-05, -2.456028   , -1.54299986 , -0.05553437 , 921.4313    , 31.25343    , 794.145142  , 2.56        , 3           , 255         , 0           , 0
-9.790377   , 0.140007257 , 0.13173148  , 5.49754659E-05, -0.00254444149, 0.000150659122, -2.456565   , -1.54297626 , -0.0549972951, 921.4313    , 31.25343    , 794.1461    , 2.57        , 3           , 255         , 0           , 0
-9.796038   , 0.130612507 , 0.1331012   , -0.000453066285, -0.00361380214, 0.000112312417, -2.45735741 , -1.54294622 , -0.05420963 , 921.4313    , 31.25343    , 794.1471    , 2.58        , 3           , 255         , 0           , 0
-9.790472   , 0.127989054 , 0.128009245 , -0.000442377961, -0.00300833117, 0.0005209351, -2.457898   , -1.5429163  , -0.0536717847, 921.4313    , 31.25343    , 794.1481    , 2.59        , 3           , 255         , 0           , 0
-9.791886   , 0.135438755 , 0.129198819 , -0.0004052851, -0.00165243249, -0.0005596242, -2.45843434 , -1.54290771 , -0.0531408638, 921.4313    , 31.25343    , 794.149048  , 2.6         , 3           , 255         , 0           , 0
-9.795545   , 0.131936789 , 0.122418761 , -0.000486081379, -0.000823022448, 0.000174520115, -2.4570055  , -1.54309225 , -0.05457271 , 921.4313    , 31.25343    , 794.1514    , 2.61        , 3           , 255         , 0           , 0
-9.79691    , 0.132465869 , 0.126511052 , -9.842404E-05, -0.00154503016, 0.000301182881, -2.45727539 , -1.54307926 , -0.0543042161, 921.4313    , 31.25343    , 794.1524    , 2.62        , 3           , 255         , 0           , 0
-9.779208   , 0.124262258 , 0.119779155 , 0.000106251558, -0.00195665238, 0.000347480265, -2.457623   , -1.54306209 , -0.05395474 , 921.4122    , 31.25716    , 794.1534    , 2.63        , 3           , 255         , 0           , 0
-9.795058   , 0.127141356 , 0.122574829 , 0.000165877311, -0.00138087827, 0.00082981016, -2.457705   , -1.54304922 , -0.05387321 , 921.4122    , 31.25716    , 794.154358  , 2.64        , 3           , 255         , 0           , 0
-9.793056   , 0.128469169 , 0.128369763 , 0.0005255409, -0.000710686843, 0.000388406334, -2.45775151 , -1.54304492 , -0.05381899 , 921.4122    , 31.25716    , 794.155334  , 2.65        , 3           , 255         , 0           , 0
-9.796186   , 0.129771039 , 0.117919341 , 0.000181299256, -0.00306121632, -0.000163523291, -2.45849037 , -1.54302347 , -0.0530775152, 921.4122    , 31.25716    , 794.1563    , 2.66        , 3           , 255         , 0           , 0
-9.791899   , 0.136232421 , 0.1318204   , 0.000153707442, -0.00516936369, 9.894698E-05, -2.45963573 , -1.54297841 , -0.05193317 , 921.4122    , 31.25716    , 794.1573    , 2.67        , 3           , 255         , 0           , 0
-9.794409   , 0.130882666 , 0.137872934 , -2.695829E-05, 0.000272283622, 0.0008483079, -2.45933628 , -1.54297411 , -0.05223062 , 921.4122    , 31.25716    , 794.158264  , 2.68        , 3           , 255         , 0           , 0
-9.782221   , 0.132971644 , 0.113543049 , -0.0003484826, 0.001243779 , -1.60761956E-05, -2.45906448 , -1.542987   , -0.05250651 , 921.4122    , 31.25716    , 794.159241  , 2.69        , 3           , 255         , 0           , 0
-9.780232   , 0.138511822 , 0.113865413 , -0.000449737359, -0.00343007059, -0.0003973554, -2.4599576  , -1.54296124 , -0.05161807 , 921.4122    , 31.25716    , 794.1602    , 2.7         , 3           , 255         , 0           , 0
-9.792597   , 0.135017484 , 0.134699658 , 0.000190710824, -0.003714889, -0.000531618949, -2.45890665 , -1.543159   , -0.0526665  , 921.4122    , 31.25716    , 794.1876    , 2.71        , 3           , 255         , 0           , 0
-9.79542351 , 0.13831237  , 0.1573821   , -0.0001766685, 0.0043473565, 7.068758E-05, -2.45789433 , -1.54318917 , -0.0536805429, 921.4122    , 31.25716    , 794.1888    , 2.72        , 3           , 255         , 0           , 0
-9.790284   , 0.133579656 , 0.130064249 , 0.000271620869, 0.0121551845, 0.000174727946, -2.455051   , -1.54328442 , -0.0565218627, 921.4632    , 31.2550564  , 794.189941  , 2.73        , 3           , 255         , 0           , 0
-9.778838   , 0.130316019 , 0.105149128 , 0.000386993052, 0.00840143  , -3.2144E-05 , -2.45311642 , -1.54335165 , -0.0584530942, 921.4632    , 31.2550564  , 794.1911    , 2.74        , 3           , 255         , 0           , 0
-9.782295   , 0.125019252 , 0.112096027 , 0.000282614783, 0.00172031531, 2.71193512E-05, -2.45270681 , -1.5433625  , -0.0588599481, 921.4632    , 31.2550564  , 794.192261  , 2.75        , 3           , 255         , 0           , 0
-9.804196   , 0.12331976  , 0.132623434 , 1.02105705E-05, 0.00125631888, -0.000283309782, -2.45249486 , -1.54337549 , -0.059071973, 921.4632    , 31.2550564  , 794.1934    , 2.76        , 3           , 255         , 0           , 0
-9.814311   , 0.123374417 , 0.146250054 , -0.000150703665, 0.012147381 , -0.0005825682, -2.44983435 , -1.54347134 , -0.0617350824, 921.4632    , 31.2550564  , 794.1946    , 2.77        , 3           , 255         , 0           , 0
-9.779024   , 0.133638948 , 0.0983001739, -0.000245372823, 0.0126233278, 0.000167468184, -2.446832   , -1.543572   , -0.0647401959, 921.4632    , 31.2550564  , 794.19574   , 2.78        , 3           , 255         , 0           , 0
-9.760393   , 0.140760034 , 0.07914858  , 9.266007E-05, -0.00741772726, -0.000133885362, -2.44861126 , -1.54351723 , -0.06296036 , 921.4632    , 31.2550564  , 794.1969    , 2.79        , 3           , 255         , 0           , 0
-9.796935   , 0.129894584 , 0.1381745   , -0.0007573319, -0.0141943013, -0.0009832992, -2.452204   , -1.543406   , -0.0593734458, 921.4632    , 31.2550564  , 794.198059  , 2.8         , 3           , 255         , 0           , 0
-9.793836   , 0.124032415 , 0.1428741   , -0.000570963, -0.0009256276, 1.61611042E-05, -2.45024371 , -1.54363322 , -0.06133918 , 921.4632    , 31.2550564  , 794.1494    , 2.81        , 3           , 255         , 0           , 0
-9.793219   , 0.1336098   , 0.123364016 , -0.000235510975, -0.000187032318, 2.90517619E-06, -2.450288   , -1.54363108 , -0.0612965263, 921.4632    , 31.2550564  , 794.150269  , 2.82        , 3           , 255         , 0           , 0
-9.798738   , 0.130517974 , 0.123947456 , -0.000107055246, 0.0007557595, 0.000145219921, -2.45006943 , -1.54363763 , -0.06151532 , 921.482239  , 31.2547169  , 794.1511    , 2.83        , 3           , 255         , 0           , 0
-9.786052   , 0.135836437 , 0.12827456  , -3.45460139E-05, 0.000781136041, 0.0002640351, -2.44981432 , -1.543642   , -0.0617722757, 921.482239  , 31.2547169  , 794.152     , 2.84        , 3           , 255         , 0           , 0
-9.789882   , 0.136691943 , 0.135123655 , 0.000233234037, 0.003430203 , -0.0003426011, -2.44910383 , -1.54367065 , -0.06248029 , 921.482239  , 31.2547169  , 794.152832  , 2.85        , 3           , 255         , 0           , 0
-9.78123    , 0.127807856 , 0.129806608 , -0.000208111887, 0.005203657 , 0.000118386808, -2.447845   , -1.54370356 , -0.06374093 , 921.482239  , 31.2547169  , 794.1537    , 2.86        , 3           , 255         , 0           , 0
-9.782801   , 0.140981928 , 0.113709733 , -0.0003053729, 0.00171828247, -5.99309569E-05, -2.4474597  , -1.54371679 , -0.0641304255, 921.482239  , 31.2547169  , 794.154541  , 2.87        , 3           , 255         , 0           , 0
-9.79209    , 0.134765312 , 0.113645829 , -0.00029519535, -0.00212015677, -8.522046E-05, -2.44798636 , -1.54370356 , -0.0636067837, 921.482239  , 31.2547169  , 794.1554    , 2.88        , 3           , 255         , 0           , 0
-9.794444   , 0.133737415 , 0.123999104 , 0.000618456 , -0.004228344, 0.000401080033, -2.44886255 , -1.54366624 , -0.06272417 , 921.482239  , 31.2547169  , 794.15625   , 2.89        , 3           , 255         , 0           , 0
-9.790724   , 0.129897565 , 0.13945961  , -5.84018053E-05, -0.00366179971, 0.0005896614, -2.44955754 , -1.54363549 , -0.0620289072, 921.482239  , 31.2547169  , 794.1571    , 2.9         , 3           , 255         , 0           , 0
-9.794368   , 0.128519833 , 0.138945624 , -0.000658196863, 0.000539097236, 0.000189184822, -2.44758916 , -1.54383588 , -0.06400361 , 921.482239  , 31.2547169  , 794.087     , 2.91        , 3           , 255         , 0           , 0
-9.78734    , 0.12723805  , 0.124153614 , -0.000462527445, 0.00222467748, 0.000128225351, -2.44702864 , -1.54385138 , -0.0645687  , 921.482239  , 31.2547169  , 794.0874    , 2.92        , 3           , 255         , 0           , 0
-9.804712   , 0.132345825 , 0.135876492 , -2.88190913E-05, 0.003367497 , -0.000424735452, -2.44635153 , -1.54387581 , -0.065246664, 921.4459    , 31.253767   , 794.0878    , 2.93        , 3           , 255         , 0           , 0
-9.798189   , 0.1265142   , 0.11895813  , 0.00019892148, 0.00343467179, -0.000212363724, -2.44559121 , -1.54390454 , -0.0660049841, 921.4459    , 31.253767   , 794.088257  , 2.94        , 3           , 255         , 0           , 0
-9.786987   , 0.125619367 , 0.116308294 , -4.02292426E-05, -0.00212194864, 0.000429426844, -2.4459734  , -1.54388463 , -0.06562179 , 921.4459    , 31.253767   , 794.0887    , 2.95        , 3           , 255         , 0           , 0
-9.790075   , 0.124248028 , 0.130508915 , 0.000201770366, -0.004084162, -0.0001860864, -2.44699669 , -1.54385364 , -0.06459563 , 921.4459    , 31.253767   , 794.0891    , 2.96        , 3           , 255         , 0           , 0
-9.800311   , 0.129771024 , 0.133630425 , 0.0006537961, -0.0006508382, -0.000681045, -2.44734025 , -1.54385579 , -0.06424705 , 921.4459    , 31.253767   , 794.089539  , 2.97        , 3           , 255         , 0           , 0
-9.79863    , 0.127421781 , 0.12901333  , 0.000377467717, 0.001745112 , -0.000316956342, -2.447013   , -1.54387128 , -0.06457135 , 921.4459    , 31.253767   , 794.089966  , 2.98        , 3           , 255         , 0           , 0
-9.795988   , 0.135074675 , 0.123819932 , -0.000477165275, 0.00282155769, -0.000198048045, -2.446401   , -1.54389572 , -0.06518631 , 921.4459    , 31.253767   , 794.0904    , 2.99        , 3           , 255         , 0           , 0
-9.791346   , 0.125683457 , 0.127988085 , -0.000294582482, 0.00204484025, -0.000608775357, -2.4460907  , -1.543909   , -0.06550054 , 921.4459    , 31.253767   , 794.0908    , 3           , 3           , 0           , 8.021236    , 300
-9.790308   , 0.129289255 , 0.119761683 , 0.000324603636, 0.001155516 , 0.000253265927, -2.444726   , -1.544058   , -0.06686219 , 921.4459    , 31.253767   , 794.08075   , 3.01        , 3           , 1           , 0           , 0
-9.794259   , 0.126545116 , 0.114860579 , 3.21000152E-05, -0.0036597508, -0.000321744854, -2.44569755 , -1.54403126 , -0.06589083 , 921.4459    , 31.253767   , 794.0811    , 3.02        , 3           , 2           , 0           , 0
-9.798177   , 0.1310576   , 0.132642955 , 0.000455081055, -0.00537038129, -0.0005999584, -2.44714737 , -1.544      , -0.06443446 , 921.4554    , 31.25784    , 794.0815    , 3.03        , 3           , 3           , 0           , 0
-9.7866     , 0.129340678 , 0.123412885 , -0.000749424857, -0.0055345064, -0.000469930761, -2.44860888 , -1.54395342 , -0.06297949 , 921.4554    , 31.25784    , 794.081848  , 3.04        , 3           , 4           , 0           , 0
-9.794073   , 0.129501671 , 0.123134688 , -0.000434062473, -0.00681341533, -0.00025403194, -2.450305   , -1.54390681 , -0.0612867028, 921.4554    , 31.25784    , 794.0822    , 3.05        , 3           , 5           , 0           , 0
-9.799103   , 0.131571442 , 0.1266076   , 2.6939153E-05, -0.00638522673, -0.0006102418, -2.45198941 , -1.54386473 , -0.05960282 , 921.4554    , 31.25784    , 794.0826    , 3.06        , 3           , 6           , 0           , 0
-9.792387   , 0.1353799   , 0.121693328 , -0.000214493339, -0.00777265662, -0.000237462227, -2.45389247 , -1.54380715 , -0.05770137 , 921.4554    , 31.25784    , 794.082947  , 3.07        , 3           , 7           , 0           , 0
-9.79645    , 0.137447357 , 0.117935911 , -0.000146793813, -0.0109752826, -0.0008408782, -2.456706   , -1.54372334 , -0.05488741 , 921.4554    , 31.25784    , 794.0833    , 3.08        , 3           , 8           , 5           , 5
-9.792897   , 0.134828836 , 0.11838609  , 0.000526118965, -0.0150988167, -0.0010076646, -2.46049929 , -1.543607   , -0.0510876626, 921.4554    , 31.25784    , 794.0837    , 3.09        , 3           , 9           , 5           , 0.1
-9.781702   , 0.1357642   , 0.120422408 , 0.000481921481, -0.0233766679, -0.000232376624, -2.46593928 , -1.54343    , -0.04564163 , 921.4554    , 31.25784    , 794.084045  , 3.1         , 3           , 10          , 0.1         , 0.1
-9.792678   , 0.133873716 , 0.139342666 , -0.0002568556, -0.025533339, -0.0004895059, -2.47036338 , -1.54339731 , -0.0412168652, 921.4554    , 31.25784    , 794.0612    , 3.11        , 3           , 11          , 0.007302797 , 0.007302798
-9.805972   , 0.120405279 , 0.165063888 , -0.000223244875, -0.012768277, -0.00126651512, -2.4736135  , -1.54330385 , -0.03796802 , 921.4554    , 31.25784    , 794.061462  , 3.12        , 3           , 12          , 0.174645633 , 0
-9.801974   , 0.133421615 , 0.138138726 , 0.000188491715, -0.00257382356, -0.000485951867, -2.4743278  , -1.54328656 , -0.03725161 , 921.459534  , 31.257431   , 794.0617    , 3.13        , 3           , 13          , 0           , 0
-9.794874   , 0.1335608   , 0.145683572 , 6.22736E-05 , -0.000458408962, 0.0004375756, -2.474304   , -1.54328215 , -0.03727465 , 921.459534  , 31.257431   , 794.061951  , 3.14        , 3           , 14          , -1.06493708E-07, -1.55114431E-05
-9.795687   , 0.122794628 , 0.1385097   , -0.000286270661, 0.00698237075, 0.00045905044, -2.47260165 , -1.5433321  , -0.0389796346, 921.459534  , 31.257431   , 794.0622    , 3.15        , 3           , 15          , 0           , 7.805809E-06
-9.795222   , 0.134291485 , 0.125340015 , -0.0005419579, 0.006464445 , 0.000949649548, -2.470873   , -1.5433712  , -0.0407155752, 921.459534  , 31.257431   , 794.062439  , 3.16        , 3           , 16          , 0           , 4.203895E-45
-9.793202   , 0.129990742 , 0.129525289 , -0.0002722689, 0.00458863424, 0.0006228705, -2.4696548  , -1.54340386 , -0.04193634 , 921.459534  , 31.257431   , 794.0627    , 3.17        , 3           , 20          , 0           , 0
-9.791236   , 0.129701823 , 0.135131165 , 0.000592946832, 0.00263265474, 0.000324651744, -2.46895766 , -1.54342556 , -0.0426285155, 921.459534  , 31.257431   , 794.0629    , 3.18        , 3           , 21          , 0           , 0
-9.793412   , 0.128359929 , 0.1271441   , 0.000301614869, 0.0004258562, -0.0004064138, -2.4689734  , -1.54342771 , -0.0426093638, 921.459534  , 31.257431   , 794.0632    , 3.19        , 3           , 22          , 0           , 0
-9.804289   , 0.132684708 , 0.134036645 , 7.741939E-05, -0.00165284367, 0.000138551331, -2.46930885 , -1.54342127 , -0.04227294 , 921.459534  , 31.257431   , 794.0634    , 3.2         , 3           , 40          , 0           , 0
-9.797422   , 0.128689766 , 0.136370912 , 0.0002323465, -0.00391017646, -0.000139486059, -2.46936917 , -1.54350412 , -0.04221004 , 921.459534  , 31.257431   , 794.0376    , 3.21        , 3           , 41          , 0           , 0
-9.798338   , 0.1257393   , 0.1336543   , -0.0002760642, -0.00305563444, -0.000389471039, -2.4701786  , -1.5434823  , -0.04140259 , 921.459534  , 31.257431   , 794.037659  , 3.22        , 3           , 42          , 0           , 0
-9.795317   , 0.12444713  , 0.130764008 , 0.000112668495, -0.000707783736, -0.000126289146, -2.4703753  , -1.54347348 , -0.0412053354, 921.4295    , 31.2576351  , 794.0377    , 3.23        , 3           , 255         , 0           , 0
-9.789657   , 0.125315875 , 0.126756757 , -9.41318649E-05, -0.0011568414, 0.0002044438, -2.47058129 , -1.54346263 , -0.04099874 , 921.4295    , 31.2576351  , 794.0378    , 3.24        , 3           , 255         , 0           , 0
-9.784628   , 0.125625446 , 0.123214446 , -1.81938776E-05, -0.003994846, 0.000152933309, -2.47144532 , -1.54343    , -0.0401361175, 921.4295    , 31.2576351  , 794.037842  , 3.25        , 3           , 255         , 0           , 0
-9.792002   , 0.124503925 , 0.140454978 , -0.0002178215, -0.00500860251, -0.00052107597, -2.472733   , -1.5434016  , -0.0388495661, 921.4295    , 31.2576351  , 794.0379    , 3.26        , 3           , 255         , 0           , 0
-9.795428   , 0.132808611 , 0.13204512  , -0.000268404518, -0.00376693439, -0.0007624763, -2.47380471 , -1.5433712  , -0.03778113 , 921.4295    , 31.2576351  , 794.037964  , 3.27        , 3           , 255         , 0           , 0
-9.788286   , 0.133613989 , 0.1410034   , -0.0003106485, -0.004855083, -0.000274904334, -2.47498035 , -1.54333866 , -0.03660673 , 921.4295    , 31.2576351  , 794.038     , 3.28        , 3           , 255         , 0           , 0
-9.796242   , 0.13693428  , 0.149521634 , -0.000389481836, -0.003152618, -0.000211402759, -2.47575235 , -1.5433147  , -0.0358397774, 921.4295    , 31.2576351  , 794.0381    , 3.29        , 3           , 255         , 0           , 0
-9.787452   , 0.1236382   , 0.138713762 , -4.61669042E-05, 0.00125583948, 0.000168815022, -2.47542381 , -1.5433234  , -0.03616937 , 921.4295    , 31.2576351  , 794.038147  , 3.3         , 3           , 255         , 0           , 0
-9.794734   , 0.124384306 , 0.12559697  , -0.000108033651, 0.000567585055, -0.000999127, -2.47451377 , -1.54348    , -0.0370781124, 921.4295    , 31.2576351  , 794.058838  , 3.31        , 3           , 255         , 0           , 0
-9.79093    , 0.12970759  , 0.123814717 , 5.51348749E-05, -0.004247521, -0.00086724537, -2.47572279 , -1.54344952 , -0.03586848 , 921.4295    , 31.2576351  , 794.0591    , 3.32        , 3           , 255         , 0           , 0
-9.797238   , 0.120369457 , 0.141983166 , 0.000339687 , -0.003833601, 6.210106E-05, -2.47656512 , -1.54342127 , -0.03502224 , 921.415     , 31.2564812  , 794.0593    , 3.33        , 3           , 255         , 0           , 0
-9.788697   , 0.132221416 , 0.140128225 , 6.021496E-05, -0.00335163064, 0.000175808033, -2.47726846 , -1.54339075 , -0.0343176834, 921.415     , 31.2564812  , 794.0596    , 3.34        , 3           , 255         , 0           , 0
-9.799878   , 0.12994948  , 0.128557175 , -0.000315493671, -0.00433652243, -0.000227441371, -2.47831225 , -1.54335809 , -0.0332776681, 921.415     , 31.2564812  , 794.0598    , 3.35        , 3           , 255         , 0           , 0
-9.794557   , 0.126178026 , 0.130022481 , -0.000623320346, -0.007632635, -3.76265052E-05, -2.4800384  , -1.54330826 , -0.03155632 , 921.415     , 31.2564812  , 794.060059  , 3.36        , 3           , 255         , 0           , 0
-9.789815   , 0.131235    , 0.131507516 , -0.000105109939, -0.0107095307, -9.27405345E-05, -2.48245263 , -1.54322159 , -0.029142756, 921.415     , 31.2564812  , 794.0603    , 3.37        , 3           , 255         , 0           , 0
-9.784415   , 0.130836278 , 0.12030752  , 0.000107829313, -0.0174235981, 5.28148E-05 , -2.48628449 , -1.54307711 , -0.0253083  , 921.415     , 31.2564812  , 794.060547  , 3.38        , 3           , 255         , 0           , 0
-9.7953825  , 0.130442947 , 0.1344556   , -0.000327929767, -0.0223504454, -0.000303700537, -2.49125767 , -1.54290354 , -0.0203363616, 921.415     , 31.2564812  , 794.0608    , 3.39        , 3           , 255         , 0           , 0
-9.793326   , 0.126497641 , 0.146333963 , -0.0005156181, -0.02226888 , -0.0004357732, -2.496189   , -1.54273307 , -0.0154074337, 921.415     , 31.2564812  , 794.061035  , 3.4         , 3           , 255         , 0           , 0
-9.79519    , 0.124845922 , 0.14432849  , -0.000206998011, -0.0199274719, -0.000278287422, -2.49942446 , -1.54272032 , -0.0121729868, 921.415     , 31.2564812  , 794.098938  , 3.41        , 3           , 255         , 0           , 0
-9.78422    , 0.121567033 , 0.152599782 , -0.0007010941, -0.0228378642, 0.000174967165, -2.50422025 , -1.54253829 , -0.00738265272, 921.415     , 31.2564812  , 794.0994    , 3.42        , 3           , 255         , 0           , 0
-9.802042   , 0.118128777 , 0.153436333 , -0.000126607847, -0.0256011244, -0.000320326333, -2.50966382 , -1.54233646 , -0.00193738937, 921.4227    , 31.2553959  , 794.0999    , 3.43        , 3           , 255         , 0           , 0
-9.799135   , 0.128440708 , 0.165360689 , 4.642704E-05, -0.0223304052, 0.0002916619, -2.51418233 , -1.54215276 , 0.00258480967, 921.4227    , 31.2553959  , 794.1004    , 3.44        , 3           , 255         , 0           , 0
-9.798699   , 0.126037121 , 0.16827181  , 0.000507994962, -0.0136487382, -0.000213809719, -2.51702476 , -1.54204476 , 0.005432977 , 921.4227    , 31.2553959  , 794.1009    , 3.45        , 3           , 255         , 0           , 0
-9.809744   , 0.130043611 , 0.167434484 , -1.99174724E-06, -0.007966012, -0.00054724 , -2.51879478 , -1.5419867  , 0.007202686 , 921.4227    , 31.2553959  , 794.1014    , 3.46        , 3           , 255         , 0           , 0
-9.800318   , 0.126127    , 0.160267726 , 0.0001366715, -0.00353797385, 0.0001822311, -2.51945615 , -1.54194748 , 0.007865912 , 921.4227    , 31.2553959  , 794.101868  , 3.47        , 3           , 255         , 0           , 0
-9.789857   , 0.125863343 , 0.166409746 , 0.000479805516, -0.0005908456, 0.0001835907, -2.51951957 , -1.54194129 , 0.007933537 , 921.4227    , 31.2553959  , 794.102356  , 3.48        , 3           , 255         , 0           , 0
-9.801004   , 0.124697372 , 0.16795893  , 0.000261520385, 0.00300152833, 0.000529233948, -2.51876044 , -1.54196393 , 0.00717739249, 921.4227    , 31.2553959  , 794.102844  , 3.49        , 3           , 255         , 0           , 0
-9.805313   , 0.133606032 , 0.163603142 , -0.00061567087, 0.007978936 , -0.000269893033, -2.51722431 , -1.54203641 , 0.00563534861, 921.4227    , 31.2553959  , 794.103333  , 3.5         , 3           , 255         , 0           , 0
-9.802711   , 0.1286796   , 0.147606939 , -0.0006016202, 0.008030321 , -0.000277176121, -2.51534271 , -1.54219437 , 0.0037463312, 921.4227    , 31.2553959  , 794.1243    , 3.51        , 3           , 255         , 0           , 0
-9.793149   , 0.140397951 , 0.130364269 , -0.000289478223, 0.0004739497, -8.730352E-05, -2.51527333 , -1.54219854 , 0.003673948 , 921.4227    , 31.2553959  , 794.124939  , 3.52        , 3           , 255         , 0           , 0
-9.788045   , 0.133536533 , 0.133830443 , 3.969969E-05, -0.008307553, -0.0008541006, -2.517214   , -1.54213822 , 0.00561593752, 921.4688    , 31.2575665  , 794.125549  , 3.53        , 3           , 255         , 0           , 0
-9.791949   , 0.128464609 , 0.139738411 , -0.00012473794, -0.016714273, -0.00145726406, -2.52101922 , -1.54201365 , 0.009421103 , 921.4688    , 31.2575665  , 794.12616   , 3.54        , 3           , 255         , 0           , 0
-9.784638   , 0.128670424 , 0.142266065 , -0.000484622782, -0.02391199 , 0.000101573183, -2.525792   , -1.54181349 , 0.0141914319, 921.4688    , 31.2575665  , 794.1268    , 3.55        , 3           , 255         , 0           , 0
-9.798812   , 0.129602253 , 0.1612002   , 0.000101059704, -0.0294025112, -0.00071620103, -2.53180146 , -1.54157376 , 0.0202061851, 921.4688    , 31.2575665  , 794.1274    , 3.56        , 3           , 255         , 0           , 0
-9.811647   , 0.12953274  , 0.179590032 , 0.0003708286, -0.0252484754, -0.000682187267, -2.536903   , -1.54137456 , 0.0253121778, 921.4688    , 31.2575665  , 794.128     , 3.57        , 3           , 255         , 0           , 0
-9.80612    , 0.136244938 , 0.198449582 , -0.000139042153, -0.0125571368, -0.000200805662, -2.53937674 , -1.54127538 , 0.027785521 , 921.4688    , 31.2575665  , 794.1286    , 3.58        , 3           , 255         , 0           , 0
-9.801163   , 0.136027783 , 0.189090565 , -0.000175553534, 0.00171322282, 0.000410714973, -2.53893447 , -1.54127944 , 0.027341079 , 921.4688    , 31.2575665  , 794.1293    , 3.59        , 3           , 255         , 0           , 0
-9.796838   , 0.11844182  , 0.183301821 , -6.216639E-06, 0.0144650191, 0.00013305519, -2.53610778 , -1.54139483 , 0.0245136283, 921.4688    , 31.2575665  , 794.129944  , 3.6         , 3           , 255         , 0           , 0
-9.79291248 , 0.116839312 , 0.169390231 , 0.000236265667, 0.0217323657, 0.0004743874, -2.53117037 , -1.54166985 , 0.01957714  , 921.4688    , 31.2575665  , 794.0816    , 3.61        , 3           , 255         , 0           , 0
-9.795812   , 0.128647968 , 0.156731308 , -0.000243343151, 0.0195334814, 0.0010002146, -2.527028   , -1.54182577 , 0.0154290954, 921.4688    , 31.2575665  , 794.082     , 3.62        , 3           , 255         , 0           , 0
-9.796462   , 0.1289606   , 0.1492827   , 0.000167616919, 0.0151591906, 0.00028657692, -2.52391672 , -1.54194951 , 0.0123188524, 921.471252  , 31.2575665  , 794.082336  , 3.63        , 3           , 255         , 0           , 0
-9.78685    , 0.12993145  , 0.142683    , 1.32347886E-05, 0.009310131 , 0.00048357973, -2.52190733 , -1.542024   , 0.0103081977, 921.471252  , 31.2575665  , 794.0827    , 3.64        , 3           , 255         , 0           , 0
-9.772538   , 0.12764439  , 0.149257109 , 0.000402669131, 0.00123433862, 0.000243719274, -2.52158356 , -1.54203022 , 0.009989077 , 921.471252  , 31.2575665  , 794.083069  , 3.65        , 3           , 255         , 0           , 0
-9.795814   , 0.126938552 , 0.147697523 , -0.0004098277, -0.004952591, 0.0006549215, -2.522401   , -1.54199088 , 0.0108025437, 921.471252  , 31.2575665  , 794.083435  , 3.66        , 3           , 255         , 0           , 0
-9.792256   , 0.126025528 , 0.150288016 , 0.000433078123, -0.0123157408, 0.00015980535, -2.52482128 , -1.5418855  , 0.0132289175, 921.471252  , 31.2575665  , 794.0838    , 3.67        , 3           , 255         , 0           , 0
-9.79192352 , 0.131717578 , 0.165888235 , -0.000324214168, -0.01436244 , 3.83944134E-05, -2.5276742  , -1.54176617 , 0.01608054  , 921.471252  , 31.2575665  , 794.084167  , 3.68        , 3           , 255         , 0           , 0
-9.794099   , 0.128795564 , 0.157990783 , -0.000893795863, -0.0135077285, -0.000486750971, -2.5304904  , -1.54165959 , 0.0188879762, 921.471252  , 31.2575665  , 794.084534  , 3.69        , 3           , 255         , 0           , 0
-9.805311   , 0.135502115 , 0.1722657   , 0.0006821122, -0.0120603694, -0.0002291003, -2.53291464 , -1.54156363 , 0.02131939  , 921.471252  , 31.2575665  , 794.0849    , 3.7         , 3           , 255         , 0           , 0
-9.795679   , 0.131701946 , 0.180353478 , 0.000440575968, -0.00623989571, -0.000260942645, -2.53346729 , -1.54164326 , 0.021879198 , 921.471252  , 31.2575665  , 794.0391    , 3.71        , 3           , 255         , 0           , 0
-9.79760551 , 0.128663152 , 0.175037891 , -0.000198942173, -4.12964218E-05, -0.00015697247, -2.53352427 , -1.54164934 , 0.02193079  , 921.471252  , 31.2575665  , 794.0392    , 3.72        , 3           , 255         , 0           , 0
-9.793671   , 0.121700361 , 0.1644783   , -3.562445E-05, 0.005690213 , -0.0003277261, -2.5325     , -1.54169238 , 0.0209068321, 921.432     , 31.2585163  , 794.039246  , 3.73        , 3           , 255         , 0           , 0
-9.791351   , 0.127150774 , 0.163461834 , 0.000411458343, 0.008483229 , -0.000586605049, -2.53098941 , -1.54177237 , 0.0194001831, 921.432     , 31.2585163  , 794.0393    , 3.74        , 3           , 255         , 0           , 0
-9.786992   , 0.131623864 , 0.168384075 , -0.000121628196, 0.009615796 , 0.000621193263, -2.52890944 , -1.54184639 , 0.0173188858, 921.432     , 31.2585163  , 794.039368  , 3.75        , 3           , 255         , 0           , 0
-9.784605   , 0.136278719 , 0.156904832 , -0.000171714419, 0.009719517 , 0.000339075137, -2.52687836 , -1.54192269 , 0.0152848614, 921.432     , 31.2585163  , 794.0394    , 3.76        , 3           , 255         , 0           , 0
-9.784009   , 0.12475276  , 0.140528351 , -0.000355243421, 0.007126516 , 0.000367684057, -2.525352   , -1.5419805  , 0.0137545457, 921.432     , 31.2585163  , 794.0395    , 3.77        , 3           , 255         , 0           , 0
-9.785534   , 0.126315147 , 0.14811638  , -0.000187556681, 0.000356459641, -0.000216401764, -2.525343   , -1.54198468 , 0.0137431184, 921.432     , 31.2585163  , 794.039551  , 3.78        , 3           , 255         , 0           , 0
-9.781578   , 0.137714013 , 0.156305611 , -4.33370951E-05, -0.004579018, -0.0004072549, -2.52637553 , -1.54194748 , 0.014776323 , 921.432     , 31.2585163  , 794.0396    , 3.79        , 3           , 255         , 0           , 0
-9.782623   , 0.127518684 , 0.160300568 , 0.0004996872, -0.006714261, -0.0006724669, -2.52790165 , -1.54190207 , 0.01630685  , 921.432     , 31.2585163  , 794.0397    , 3.8         , 3           , 255         , 0           , 0
-9.794062   , 0.13511315  , 0.159007162 , -0.000106492385, -0.008297606, -0.000384869054, -2.52860427 , -1.54201365 , 0.0170096848, 921.432     , 31.2585163  , 794.056335  , 3.81        , 3           , 255         , 0           , 0
-9.802617   , 0.127622008 , 0.155501336 , -0.000403583777, -0.008646048, -0.000446889171, -2.53045845 , -1.54194748 , 0.0188612044, 921.432     , 31.2585163  , 794.0565    , 3.82        , 3           , 255         , 0           , 0
-9.797205   , 0.132253408 , 0.165103614 , 0.000141261044, -0.006206225, -0.00019668974, -2.531743   , -1.54188967 , 0.0201490633, 921.4464    , 31.2596016  , 794.0567    , 3.83        , 3           , 255         , 0           , 0
-9.809853   , 0.133039027 , 0.192264885 , 0.000194420179, 0.00252471725, 0.000121083234, -2.53120613 , -1.54190826 , 0.0196128767, 921.4464    , 31.2596016  , 794.0569    , 3.84        , 3           , 255         , 0           , 0
-9.810536   , 0.131358221 , 0.178234637 , 7.283432E-05, 0.0132223861, -0.00045828367, -2.52870274 , -1.542024   , 0.0171085186, 921.4464    , 31.2596016  , 794.057068  , 3.85        , 3           , 255         , 0           , 0
-9.801762   , 0.133535817 , 0.17193684  , -0.00014363807, 0.0190478116, -0.00102850387, -2.52516937 , -1.54218817 , 0.0135729406, 921.4464    , 31.2596016  , 794.057251  , 3.86        , 3           , 255         , 0           , 0
-9.802452   , 0.132826343 , 0.155641764 , 0.000163199933, 0.0217310973, -0.000102077822, -2.520778   , -1.54236162 , 0.009181219 , 921.4464    , 31.2596016  , 794.057434  , 3.87        , 3           , 255         , 0           , 0
-9.788614   , 0.125270829 , 0.157133624 , 5.190911E-05, 0.0196104236, 3.10590767E-05, -2.51673675 , -1.5425235  , 0.00513926428, 921.4464    , 31.2596016  , 794.0576    , 3.88        , 3           , 255         , 0           , 0
-9.792379   , 0.135750309 , 0.139810324 , -0.000164458383, 0.0137675991, 0.0005660213, -2.513717   , -1.54263127 , 0.00211650855, 921.4464    , 31.2596016  , 794.0578    , 3.89        , 3           , 255         , 0           , 0
-9.782996   , 0.125855386 , 0.1294168   , -0.000219148773, 0.00468944944, 3.306419E-05, -2.51272941 , -1.54266512 , 0.00112643593, 921.4464    , 31.2596016  , 794.058     , 3.9         , 3           , 255         , 0           , 0
-9.78031    , 0.13125737  , 0.1338435   , -0.0001259508, -0.004751427, -0.000143379744, -2.51308179 , -1.54271185 , 0.0014776903, 921.4464    , 31.2596016  , 794.051636  , 3.91        , 3           , 255         , 0           , 0
-9.781736   , 0.128665358 , 0.1284161   , 4.4184515E-05, -0.0165016688, -0.0005621582, -2.51668    , -1.54259324 , 0.0050772517, 921.4464    , 31.2596016  , 794.0518    , 3.92        , 3           , 255         , 0           , 0
-9.783472   , 0.138836667 , 0.134517461 , -0.000481058669, -0.0283236355, 0.000117756768, -2.52247667 , -1.54235959 , 0.0108729536, 921.4513    , 31.25872    , 794.052     , 3.93        , 3           , 255         , 0           , 0
-9.795523   , 0.1309257   , 0.16086024  , 9.19855956E-05, -0.03260294 , -9.99887052E-05, -2.52909231 , -1.54209042 , 0.01749146  , 921.4513    , 31.25872    , 794.0522    , 3.94        , 3           , 255         , 0           , 0
-9.80244    , 0.121004462 , 0.173268989 , 0.000257248874, -0.0288878884, -0.0001522878, -2.534868   , -1.54185867 , 0.02327224  , 921.4513    , 31.25872    , 794.052368  , 3.95        , 3           , 255         , 0           , 0
-9.799238   , 0.128127366 , 0.199028656 , -0.000727454957, -0.0209545065, -0.0005876563, -2.5391438  , -1.54168618 , 0.0275415312, 921.4513    , 31.25872    , 794.052551  , 3.96        , 3           , 255         , 0           , 0
-9.813232   , 0.118933596 , 0.198431522 , -0.000351748575, -0.00688658748, -0.0007175225, -2.54068756 , -1.541635   , 0.02908381  , 921.4513    , 31.25872    , 794.052734  , 3.97        , 3           , 255         , 0           , 0
-9.815335   , 0.124303296 , 0.1984851   , -0.000236512176, 0.0111497454, 0.000316668622, -2.53843212 , -1.54172516 , 0.026824059 , 921.4513    , 31.25872    , 794.0529    , 3.98        , 3           , 255         , 0           , 0
-9.805949   , 0.126776263 , 0.1759282   , 0.0003482109, 0.0272352546, -0.000101705118, -2.53310275 , -1.54194534 , 0.0214960966, 921.4513    , 31.25872    , 794.0531    , 3.99        , 3           , 255         , 0           , 0
-9.796576   , 0.120697305 , 0.154171184 , -0.000125198887, 0.0292094648, -0.000442783872, -2.527395   , -1.54219437 , 0.01578541  , 921.4513    , 31.25872    , 794.0533    , 4           , 3           , 0           , 9.021236    , 400
-9.780874   , 0.130110234 , 0.131111145 , -0.0006086555, 0.01874843  , 0.000325112167, -2.52309179 , -1.54243088 , 0.011474641 , 921.4513    , 31.25872    , 794.0405    , 4.01        , 3           , 1           , 0           , 0
-9.772525   , 0.129848748 , 0.117841579 , -0.0006448564, 0.00149679091, -0.0006382764, -2.52297664 , -1.54244769 , 0.0113528129, 921.4513    , 31.25872    , 794.040649  , 4.02        , 3           , 2           , 0           , 0
-9.7840395  , 0.135834128 , 0.1302205   , -0.000251411984, -0.0165454075, -0.00113663089, -2.52667284 , -1.542324   , 0.0150477989, 921.441833  , 31.2589245  , 794.0408    , 4.03        , 3           , 3           , 0           , 0
-9.788686   , 0.136132017 , 0.145469    , 0.0006705154, -0.0265720114, -0.0001828382, -2.532059   , -1.54210079 , 0.0204414669, 921.441833  , 31.2589245  , 794.0409    , 4.04        , 3           , 4           , 0           , 0
-9.788173   , 0.118979476 , 0.161467373 , 3.864825E-05, -0.02899818 , 0.000225273732, -2.53772974 , -1.54186487 , 0.02611677  , 921.441833  , 31.2589245  , 794.041     , 4.05        , 3           , 5           , 0           , 0
-9.794967   , 0.115011536 , 0.180168465 , 4.250412E-05, -0.0261224043, 2.49218519E-05, -2.54280758 , -1.54164326 , 0.0311979633, 921.441833  , 31.2589245  , 794.041138  , 4.06        , 3           , 6           , 0           , 0
-9.798657   , 0.128673285 , 0.178552315 , 0.0004060497, -0.0214209128, 0.000338590937, -2.546823   , -1.54146791 , 0.0352173038, 921.441833  , 31.2589245  , 794.04126   , 4.07        , 3           , 7           , 0           , 0
-9.810255   , 0.134404466 , 0.179336518 , 0.0003594806, -0.01753251 , -0.0003223532, -2.55024123 , -1.541328   , 0.0386424921, 921.441833  , 31.2589245  , 794.0414    , 4.08        , 3           , 8           , 5           , 5
-9.805016   , 0.131474569 , 0.1783511   , 0.000298899919, -0.0124125415, -0.000926679932, -2.5528388  , -1.541229   , 0.0412420444, 921.441833  , 31.2589245  , 794.0415    , 4.09        , 3           , 9           , 5           , 0.1
-9.788952   , 0.132619    , 0.18031992  , -8.351503E-05, -0.00895476 , -0.0004960512, -2.5546546  , -1.54115653 , 0.0430594534, 921.441833  , 31.2589245  , 794.0416    , 4.1         , 3           , 10          , 0.1         , 0.1
-9.798048   , 0.130962312 , 0.177515015 , -0.000281907356, -0.00539157726, 4.53102657E-05, -2.55479479 , -1.5412432  , 0.0431954563, 921.441833  , 31.2589245  , 794.0443    , 4.11        , 3           , 11          , 0.00680059753, 0.00680060126
-9.798348   , 0.12623246  , 0.190196648 , 0.00018662044, -0.0006587366, 0.0005497912, -2.55476117 , -1.54123712 , 0.0431647338, 921.441833  , 31.2589245  , 794.044434  , 4.12        , 3           , 12          , 0.174648076 , 0
-9.803453   , 0.126464516 , 0.192495361 , -0.000261797017, 0.006024377 , 0.000157936869, -2.553588   , -1.54128349 , 0.04198924  , 921.4315    , 31.2582455  , 794.044556  , 4.13        , 3           , 13          , 0           , 0
-9.796576   , 0.130477563 , 0.178848118 , 2.29208013E-06, 0.0125510823, -0.000872534758, -2.5514667  , -1.5413928  , 0.03986738  , 921.4315    , 31.2582455  , 794.0447    , 4.14        , 3           , 14          , -1.56598176E-07, -2.2609167E-05
-9.791987   , 0.131706208 , 0.1624695   , -0.000107417407, 0.0119702714, -0.0002539016, -2.54926753 , -1.54149842 , 0.03766507  , 921.4315    , 31.2582455  , 794.0448    , 4.15        , 3           , 15          , 0           , 1.12369062E-05
-9.783555   , 0.126718909 , 0.151401043 , 0.000132563859, 0.00183465984, 0.000122577709, -2.54888177 , -1.54150653 , 0.0372814052, 921.4315    , 31.2582455  , 794.0449    , 4.16        , 3           , 16          , 0           , 4.203895E-45
-9.78019    , 0.133205712 , 0.15294826  , -0.000231291939, -0.0116336728, 0.000186731733, -2.5510416  , -1.54141307 , 0.0394398347, 921.4315    , 31.2582455  , 794.045044  , 4.17        , 3           , 20          , 0           , 0
-9.783813   , 0.129820734 , 0.152355745 , -0.000528055942, -0.0219808221, -0.000672547845, -2.55537415 , -1.54123712 , 0.0437683873, 921.4315    , 31.2582455  , 794.045166  , 4.18        , 3           , 21          , 0           , 0
-9.789382   , 0.132170767 , 0.1636531   , -0.000259197928, -0.0291948318, -0.000812045531, -2.56102133 , -1.5409981  , 0.049415458 , 921.4315    , 31.2582455  , 794.0453    , 4.19        , 3           , 22          , 0           , 0
-9.78655    , 0.137570634 , 0.160405546 , -0.000680299534, -0.0354827642, -5.81975E-05, -2.56750941 , -1.54069555 , 0.05590024  , 921.4315    , 31.2582455  , 794.0454    , 4.2         , 3           , 40          , 0           , 0
-9.79575    , 0.138166934 , 0.190679371 , -0.00065887603, -0.0376375429, -0.00040053617, -2.57363057 , -1.54050791 , 0.0620189458, 921.4315    , 31.2582455  , 794.062134  , 4.21        , 3           , 41          , 0           , 0
-9.803953   , 0.134079143 , 0.195188016 , -0.0004298449, -0.0329481773, 0.000125841252, -2.579397   , -1.5402317  , 0.0677826554, 921.4315    , 31.2582455  , 794.0624    , 4.22        , 3           , 42          , 0           , 0
-9.798902   , 0.1322322   , 0.200578526 , -0.00018077821, -0.03059868 , -4.47449056E-05, -2.5847     , -1.53997529 , 0.0730870962, 921.4726    , 31.263401   , 794.0626    , 4.23        , 3           , 255         , 0           , 0
-9.807486   , 0.135107353 , 0.217105716 , -0.000137659837, -0.0253560729, 0.000454164954, -2.58889413 , -1.5397594  , 0.0772811   , 921.4726    , 31.263401   , 794.062866  , 4.24        , 3           , 255         , 0           , 0
-9.81119251 , 0.1300929   , 0.213555723 , 0.000122849771, -0.0145323062, 0.000303129462, -2.59125757 , -1.539631   , 0.0796464   , 921.4726    , 31.263401   , 794.0631    , 4.25        , 3           , 255         , 0           , 0
-9.793517   , 0.120223418 , 0.203531653 , 3.40897968E-05, -0.007398702, 0.000123803751, -2.592462   , -1.539566   , 0.08085288  , 921.4726    , 31.263401   , 794.063354  , 4.26        , 3           , 255         , 0           , 0
-9.796846   , 0.123147249 , 0.225675747 , 2.86407412E-05, -0.0014664398, 0.000132585235, -2.59267044 , -1.53954887 , 0.08106095  , 921.4726    , 31.263401   , 794.0636    , 4.27        , 3           , 255         , 0           , 0
-9.80136    , 0.133409321 , 0.214113921 , 0.000144261576, 0.0116925156, 0.000764729 , -2.590501   , -1.5396502  , 0.0788922161, 921.4726    , 31.263401   , 794.063843  , 4.28        , 3           , 255         , 0           , 0
-9.786362   , 0.136780351 , 0.191228956 , 6.49584E-05 , 0.01704836  , 0.000705208862, -2.58742952 , -1.53978634 , 0.07581868  , 921.4726    , 31.263401   , 794.064148  , 4.29        , 3           , 255         , 0           , 0
-9.771024   , 0.135817841 , 0.16974628  , -0.0002668018, 0.008875558 , -0.000306328642, -2.58600473 , -1.53986716 , 0.0743921548, 921.4726    , 31.263401   , 794.064453  , 4.3         , 3           , 255         , 0           , 0
-9.781691   , 0.146363631 , 0.179438323 , -0.0002457664, 0.000308890332, -0.000274124061, -2.585779   , -1.5399425  , 0.07416347  , 921.4726    , 31.263401   , 794.0202    , 4.31        , 3           , 255         , 0           , 0
-9.794268   , 0.1342705   , 0.188066274 , 0.000346288522, -0.00397379557, -0.000404640043, -2.58656645 , -1.53991354 , 0.0749544352, 921.4726    , 31.263401   , 794.0202    , 4.32        , 3           , 255         , 0           , 0
-9.788351   , 0.120168604 , 0.187836409 , -5.013745E-05, -0.00613026926, 0.000285094575, -2.58753228 , -1.53986335 , 0.07591987  , 921.404846  , 31.2580414  , 794.0202    , 4.33        , 3           , 255         , 0           , 0
-9.788472   , 0.11735145  , 0.183966056 , -5.07513651E-05, -0.009747659, -0.000250644458, -2.58925438 , -1.53978252 , 0.07764269  , 921.404846  , 31.2580414  , 794.0202    , 4.34        , 3           , 255         , 0           , 0
