Acc X       , Acc Y       , Acc Z       , Gyro X      , Gyro Y      , Gyro Z      , Euler X     , Euler Y     , Euler Z     , Pres X      , Pres Y      , Pres Z      , Time        , Status      , LowRate X   , LowRate Y   , LowRate Z    
-9.787326   , 0.124581553 , 0.1251774   , 0           , 0.0166523978, 0           , -2.35858    , -1.55275381 , 0           , 923.670532  , 27.0138454  , 774.0358    , 0           , 2           , 0           , 5.4772315   , 0
-9.805521   , 0.123038627 , 0.0020219353, 0.0002955161, 0.01651704  , 0.000124774233, -2.35858    , -1.55286217 , 3.14159465  , 923.670532  , 27.0138454  , 774.0358    , 0.01        , 3           , 1           , 0           , 0
-9.800075   , 0.1162261   , 0.008869042 , 5.005009E-05, 0.0208919551, -0.000135608323, -2.35858    , -1.55301237 , 3.141594    , 923.670532  , 27.0138454  , 774.0358    , 0.02        , 3           , 2           , 0           , 0
-9.796602   , 0.118480943 , 0.007657256 , -2.90243188E-05, 0.0270686448, -0.000165787715, -2.35858    , -1.55320108 , 3.14159179  , 923.692749  , 26.61663    , 774.0358    , 0.03        , 3           , 3           , 0           , 0
-9.792041   , 0.12893194  , -0.0101514878, 7.959583E-05, 0.0290926248, 2.0735024E-05, -2.35858    , -1.55340886 , 3.14159083  , 923.692749  , 26.61663    , 774.0358    , 0.04        , 3           , 4           , 0           , 0
-9.784224   , 0.1254713   , -0.0139130009, -2.47042626E-05, 0.0256479625, 0.000556293 , -2.35858    , -1.5535742  , 3.14158869  , 923.692749  , 26.61663    , 774.0358    , 0.05        , 3           , 5           , 0           , 0
-9.79707    , 0.118124425 , -0.008451841, -0.000235208543, 0.02636159  , 0.00105893926, -2.35858    , -1.55374813 , 3.14158487  , 923.692749  , 26.61663    , 774.0358    , 0.06        , 3           , 6           , 0           , 0
-9.808149   , 0.114497587 , 0.005318204 , 0.000161788077, 0.0335978046, 0.000726319966, -2.35858    , -1.55395579 , 3.1415844   , 923.692749  , 26.61663    , 774.0358    , 0.07        , 3           , 7           , 0           , 0
-9.811357   , 0.123686776 , 0.018110279 , 8.616899E-05, 0.0449282   , 0.000345916545, -2.35858    , -1.55425572 , 3.14158225  , 923.692749  , 26.61663    , 774.0358    , 0.08        , 3           , 8           , 5           , 5
-9.79966    , 0.119919196 , 0.0117742559, 3.448024E-05, 0.05904164  , -0.0009130486, -2.35858    , -1.55462742 , 3.141579    , 923.692749  , 26.61663    , 774.0358    , 0.09        , 3           , 9           , 5           , 0.1
-9.778871   , 0.119989887 , -0.029954413, 8.687121E-05, 0.066284366 , -0.0005115372, -2.35858    , -1.55502689 , 3.14157534  , 923.692749  , 26.61663    , 774.0358    , 0.1         , 3           , 10          , 0.1         , 0.1
-9.773898   , 0.121686578 , -0.0564967021, -0.00029471505, 0.0613922179, -0.000332269381, -2.35858    , -1.55560446 , 3.14157081  , 923.692749  , 26.61663    , 773.8378    , 0.11        , 3           , 11          , 0.0109544508, 0.0109544508
-9.777823   , 0.1248966   , -0.06430272 , -0.000323234824, 0.05054037  , 0.00100313977, -2.35858    , -1.55586565 , 3.14156437  , 923.692749  , 26.61663    , 773.8378    , 0.12        , 3           , 12          , 0.174642488 , 0
-9.791357   , 0.129441231 , -0.0570500121, -0.000196905923, 0.0414586477, 0.000300744636, -2.35858    , -1.55607474 , 3.14156     , 923.672241  , 26.65591    , 773.8378    , 0.13        , 3           , 13          , 0           , 0
-9.812093   , 0.118343018 , -0.047823526, -3.4019E-05 , 0.0423425324, 0.000111530331, -2.35858    , -1.55627859 , 3.14155674  , 923.672241  , 26.65591    , 773.8378    , 0.14        , 3           , 14          , 0.001546804 , -1.756973E-08
-9.80394    , 0.115757965 , -0.043631494, 2.57524662E-05, 0.0501199663, 5.61082561E-05, -2.35858    , -1.55651867 , 3.14155388  , 923.672241  , 26.65591    , 773.8378    , 0.15        , 3           , 15          , 0           , 0.000289292337
-9.790552   , 0.128111169 , -0.0693181  , -4.14600363E-05, 0.0532713   , -9.358724E-05, -2.35858    , -1.55675435 , 3.14155     , 923.672241  , 26.65591    , 773.8378    , 0.16        , 3           , 16          , 0           , 4.203895E-45
-9.756628   , 0.12116456  , -0.100726187, -0.000355553115, 0.0412226   , -0.000259092019, -2.35858    , -1.556921   , 3.141544    , 923.672241  , 26.65591    , 773.8378    , 0.17        , 3           , 20          , 0           , 0
-9.769321   , 0.120521449 , -0.09224142 , -0.0006422242, 0.0224102344, -4.112604E-05, -2.35858    , -1.55701149 , 3.14153624  , 923.672241  , 26.65591    , 773.8378    , 0.18        , 3           , 21          , 0           , 0
-9.790926   , 0.129971445 , -0.07020519 , -1.88880367E-05, 0.0117885945, -0.0002674401, -2.35858    , -1.557059   , 3.14153528  , 923.672241  , 26.65591    , 773.8378    , 0.19        , 3           , 22          , 0           , 0
-9.802726   , 0.130427882 , -0.0539536364, 8.842372E-05, 0.0155651057, -0.0007031893, -2.35858    , -1.55712    , 3.14153528  , 923.672241  , 26.65591    , 773.8378    , 0.2         , 3           , 40          , 0           , 0
-9.810834   , 0.126433328 , -0.0407863855, -1.51004642E-05, 0.02899455  , -0.00076627417, -2.35858    , -1.55753148 , 3.141539    , 923.672241  , 26.65591    , 773.92926   , 0.21        , 3           , 41          , 0           , 0
-9.816553   , 0.1317682   , -0.052151002, -0.000336682424, 0.04370519  , 0.000293299265, -2.35858    , -1.55764437 , 3.141533    , 923.672241  , 26.65591    , 773.9293    , 0.22        , 3           , 42          , 0           , 0
-9.789189   , 0.120042086 , -0.07645468 , -0.000372105278, 0.0497389324, 7.849795E-05, -2.35858    , -1.55775809 , 3.141526    , 923.710144  , 26.683794   , 773.9294    , 0.23        , 3           , 255         , 0           , 0
-9.781014   , 0.119210936 , -0.09288372 , -0.000181399984, 0.0497018881, 0.000252179336, -2.35858    , -1.55785906 , 3.141521    , 923.710144  , 26.683794   , 773.929443  , 0.24        , 3           , 255         , 0           , 0
-9.772853   , 0.120564148 , -0.122593462, 0.000276756822, 0.04013631  , 0.0006446786, -2.35858    , -1.55792832 , 3.14152145  , 923.710144  , 26.683794   , 773.9295    , 0.25        , 3           , 255         , 0           , 0
-9.780261   , 0.125178725 , -0.110617891, -0.000135626178, 0.0273597222, 0.000469338847, -2.35858    , -1.55795157 , 3.141518    , 923.710144  , 26.683794   , 773.929565  , 0.26        , 3           , 255         , 0           , 0
-9.803921   , 0.125242367 , -0.07211479 , 0.00020673417, 0.0292808749, -0.000287279137, -2.35858    , -1.55799806 , 3.14151859  , 923.710144  , 26.683794   , 773.9296    , 0.27        , 3           , 255         , 0           , 0
-9.812807   , 0.119273111 , -0.06595464 , 7.971423E-06, 0.04088016  , -0.000310709671, -2.35858    , -1.55803537 , 3.141516    , 923.710144  , 26.683794   , 773.9297    , 0.28        , 3           , 255         , 0           , 0
-9.809439   , 0.117856085 , -0.07992019 , 0.000225831289, 0.05308715  , 0.00061688025, -2.35858    , -1.55806339 , 3.14151478  , 923.710144  , 26.683794   , 773.929749  , 0.29        , 3           , 255         , 0           , 0
-9.776764   , 0.118503705 , -0.125579432, -0.0003109728, 0.05365509  , -1.04201608E-05, -2.35858    , -1.55806339 , 3.14150858  , 923.710144  , 26.683794   , 773.9298    , 0.3         , 3           , 255         , 0           , 0
-9.766041   , 0.12705496  , -0.147662565, -0.000112440204, 0.03938673  , -0.0001712143, -2.35858    , -1.55805409 , 3.14150715  , 923.710144  , 26.683794   , 773.846741  , 0.31        , 3           , 255         , 0           , 0
-9.764625   , 0.127475888 , -0.161433578, 0.0004869257, 0.01941411  , -0.0002110425, -2.35858    , -1.55804467 , 3.14151049  , 923.710144  , 26.683794   , 773.8468    , 0.32        , 3           , 255         , 0           , 0
-9.776857   , 0.123072125 , -0.1324446  , -0.000183232827, 0.00490633724, 0.000187587808, -2.35858    , -1.55802608 , 3.14150858  , 923.6707    , 26.6978378  , 773.846863  , 0.33        , 3           , 255         , 0           , 0
-9.797443   , 0.123647667 , -0.106081411, -0.000218344037, 0.00369827519, 0.000684426748, -2.35858    , -1.55801666 , 3.1415062   , 923.6707    , 26.6978378  , 773.8469    , 0.34        , 3           , 255         , 0           , 0
-9.792158   , 0.134959638 , -0.108895518, 0.0005512913, 0.00678948127, -0.0003750758, -2.35858    , -1.55802608 , 3.1415112   , 923.6707    , 26.6978378  , 773.847     , 0.35        , 3           , 255         , 0           , 0
-9.782474   , 0.118371584 , -0.12710759 , -0.000257347245, 0.003925445 , 0.0003988803, -2.35858    , -1.55800736 , 3.14150858  , 923.6707    , 26.6978378  , 773.847046  , 0.36        , 3           , 255         , 0           , 0
-9.791497   , 0.119933747 , -0.12265949 , 4.26052138E-05, -0.00137412688, -5.1848343E-05, -2.35858    , -1.558012   , 3.141509    , 923.6707    , 26.6978378  , 773.8471    , 0.37        , 3           , 255         , 0           , 0
-9.79647    , 0.125906959 , -0.110464238, -7.96513632E-07, -0.00226973859, 0.0004827239, -2.35858    , -1.55800736 , 3.141509    , 923.6707    , 26.6978378  , 773.847168  , 0.38        , 3           , 255         , 0           , 0
-9.799128   , 0.119963683 , -0.09632992 , 0.000364676467, 0.00372651569, -3.64705629E-05, -2.35858    , -1.55800271 , 3.14151239  , 923.6707    , 26.6978378  , 773.8472    , 0.39        , 3           , 255         , 0           , 0
-9.809379   , 0.13129364  , -0.1055897  , 8.074264E-05, 0.0144754173, -0.0002496236, -2.35858    , -1.55798876 , 3.14151239  , 923.6707    , 26.6978378  , 773.8473    , 0.4         , 3           , 255         , 0           , 0
-9.789533   , 0.13253811  , -0.122805521, 3.88008775E-05, 0.0179321487, -0.00103037269, -2.35858    , -1.5579052  , 3.14151549  , 923.6707    , 26.6978378  , 773.8953    , 0.41        , 3           , 255         , 0           , 0
-9.784436   , 0.125473961 , -0.137641817, -0.000333950971, 0.0131167229, 0.000112244365, -2.35858    , -1.55787754 , 3.14151144  , 923.6707    , 26.6978378  , 773.8954    , 0.42        , 3           , 255         , 0           , 0
-9.787777   , 0.1231632   , -0.136300415, 0.000164295081, 0.00224631187, 0.000763088 , -2.35858    , -1.55784988 , 3.14151287  , 923.6635    , 26.7125587  , 773.895447  , 0.43        , 3           , 255         , 0           , 0
-9.787887   , 0.1236467   , -0.127714828, 0.0003649711, -0.00544408755, 0.0014331626, -2.35858    , -1.55785906 , 3.14151669  , 923.6635    , 26.7125587  , 773.8955    , 0.44        , 3           , 255         , 0           , 0
-9.793556   , 0.1264339   , -0.1122542  , -0.000216437038, -0.00452954648, -0.0007514886, -2.35858    , -1.55786836 , 3.14151478  , 923.6635    , 26.7125587  , 773.895569  , 0.45        , 3           , 255         , 0           , 0
-9.798032   , 0.117638364 , -0.112447008, -0.0004682612, 0.000543864269, -0.0005908589, -2.35858    , -1.55786836 , 3.14151025  , 923.6635    , 26.7125587  , 773.8956    , 0.46        , 3           , 255         , 0           , 0
-9.781088   , 0.116800413 , -0.130626082, -0.000112788868, -7.016018E-05, -0.0006315548, -2.35858    , -1.55787754 , 3.141509    , 923.6635    , 26.7125587  , 773.8957    , 0.47        , 3           , 255         , 0           , 0
-9.764098   , 0.129985    , -0.143647909, -0.000199736678, -0.009093254, -0.000201135059, -2.35858    , -1.557896   , 3.14150763  , 923.6635    , 26.7125587  , 773.895752  , 0.48        , 3           , 255         , 0           , 0
-9.782965   , 0.12889725  , -0.121027209, -0.000323494081, -0.017820511, -0.000337879668, -2.35858    , -1.557933   , 3.14150524  , 923.6635    , 26.7125587  , 773.8958    , 0.49        , 3           , 255         , 0           , 0
-9.80845    , 0.120337084 , -0.09240381 , -0.000872835633, -0.01261387 , -0.000542226247, -2.35858    , -1.55796087 , 3.14149737  , 923.6635    , 26.7125587  , 773.8959    , 0.5         , 3           , 255         , 0           , 0
-9.811124   , 0.126334354 , -0.09052659 , -0.000441551558, 0.00058326096, 0.0002324834, -2.35858    , -1.55786836 , 3.14149642  , 923.6635    , 26.7125587  , 773.937866  , 0.51        , 3           , 255         , 0           , 0
-9.801062   , 0.12269441  , -0.096412316, 0.000137927476, 0.01005967  , -0.000151859829, -2.35858    , -1.55784988 , 3.14149714  , 923.6635    , 26.7125587  , 773.9379    , 0.52        , 3           , 255         , 0           , 0
-9.789839   , 0.121401645 , -0.112961449, -0.000376799027, 0.0131373834, -0.0008146841, -2.35858    , -1.557836   , 3.14149237  , 923.6827    , 26.720768   , 773.938     , 0.53        , 3           , 255         , 0           , 0
-9.786138   , 0.122754753 , -0.12707074 , -0.000339926337, 0.0119521106, 5.92145079E-05, -2.35858    , -1.557813   , 3.14148855  , 923.6827    , 26.720768   , 773.938049  , 0.54        , 3           , 255         , 0           , 0
-9.774892   , 0.119622074 , -0.134983689, -0.000346203218, 0.005370616 , 0.0006238136, -2.35858    , -1.55777645 , 3.1414845   , 923.6827    , 26.720768   , 773.9381    , 0.55        , 3           , 255         , 0           , 0
-9.782424   , 0.120070793 , -0.121994473, -9.506114E-05, -0.00166088273, 0.000482722622, -2.35858    , -1.557781   , 3.14148378  , 923.6827    , 26.720768   , 773.9382    , 0.56        , 3           , 255         , 0           , 0
-9.797527   , 0.122228131 , -0.102869675, 0.000193248037, -0.0010236844, -8.687319E-05, -2.35858    , -1.55779016 , 3.14148569  , 923.6827    , 26.720768   , 773.938232  , 0.57        , 3           , 255         , 0           , 0
-9.795384   , 0.123132885 , -0.107852817, -0.000265535316, 0.005301165 , 0.00069804024, -2.35858    , -1.55778563 , 3.14148259  , 923.6827    , 26.720768   , 773.9383    , 0.58        , 3           , 255         , 0           , 0
-9.795607   , 0.123167075 , -0.1152845  , -0.0005654165, 0.008962475 , 0.000130890752, -2.35858    , -1.55776274 , 3.14147615  , 923.6827    , 26.720768   , 773.938354  , 0.59        , 3           , 255         , 0           , 0
-9.780979   , 0.1286759   , -0.12970987 , 0.000226645614, 0.00775120733, -0.000147335813, -2.35858    , -1.55773067 , 3.141478    , 923.6827    , 26.720768   , 773.9385    , 0.6         , 3           , 255         , 0           , 0
-9.779541   , 0.118728772 , -0.136478916, 0.000585251 , 0.00332526956, -0.000208025667, -2.35858    , -1.557658   , 3.14148569  , 923.6827    , 26.720768   , 773.936768  , 0.61        , 3           , 255         , 0           , 0
-9.780791   , 0.127928734 , -0.136642516, 0.0004500684, -0.00466707535, 0.0006390296, -2.35858    , -1.557667   , 3.14149046  , 923.6827    , 26.720768   , 773.9369    , 0.62        , 3           , 255         , 0           , 0
-9.77782249 , 0.129852816 , -0.131127492, -0.000535130268, -0.013659928, 0.000200274 , -2.35858    , -1.55769432 , 3.141486    , 923.6583    , 26.7274857  , 773.937     , 0.63        , 3           , 255         , 0           , 0
-9.787924   , 0.131356969 , -0.126082227, -9.818631E-05, -0.0217716824, 0.0001658753, -2.35858    , -1.557749   , 3.14148617  , 923.6583    , 26.7274857  , 773.937134  , 0.64        , 3           , 255         , 0           , 0
-9.80633    , 0.12777105  , -0.0910187438, 0.0002601716, -0.0190130509, -0.0008260935, -2.35858    , -1.55780387 , 3.14149     , 923.6583    , 26.7274857  , 773.937256  , 0.65        , 3           , 255         , 0           , 0
-9.818936   , 0.124779247 , -0.07061021 , -0.00031905144, 0.00107735593, 0.0002462031, -2.35858    , -1.55778563 , 3.141487    , 923.6583    , 26.7274857  , 773.9374    , 0.66        , 3           , 255         , 0           , 0
-9.813477   , 0.128334641 , -0.0794424042, -0.0004944962, 0.0221843868, -0.000425035076, -2.35858    , -1.55775356 , 3.14148045  , 923.6583    , 26.7274857  , 773.9375    , 0.67        , 3           , 255         , 0           , 0
-9.799853   , 0.124009624 , -0.111258663, -6.847456E-05, 0.0320023336, -0.0003492508, -2.35858    , -1.557667   , 3.14147758  , 923.6583    , 26.7274857  , 773.9376    , 0.68        , 3           , 255         , 0           , 0
-9.77866    , 0.120000146 , -0.148333028, 0.00020212878, 0.0260886513, 0.000246020558, -2.35858    , -1.55759907 , 3.141478    , 923.6583    , 26.7274857  , 773.937744  , 0.69        , 3           , 255         , 0           , 0
-9.771629   , 0.1312227   , -0.152043536, 0.000361715676, 0.0125314426, 0.001329628 , -2.35858    , -1.557563   , 3.141481    , 923.6583    , 26.7274857  , 773.937866  , 0.7         , 3           , 255         , 0           , 0
-9.779385   , 0.121041857 , -0.14028357 , -0.000492751, 0.0009455223, 2.669837E-05, -2.35858    , -1.55745983 , 3.141478    , 923.6583    , 26.7274857  , 773.970154  , 0.71        , 3           , 255         , 0           , 0
-9.7867775  , 0.120664336 , -0.123282984, -6.698142E-05, -0.005195645, -0.0003036149, -2.35858    , -1.55746877 , 3.14147758  , 923.6583    , 26.7274857  , 773.9703    , 0.72        , 3           , 255         , 0           , 0
-9.794999   , 0.118137553 , -0.118622407, 0.000301563065, -0.00574724 , -3.56693054E-05, -2.35858    , -1.55749559 , 3.141481    , 923.6724    , 26.7343369  , 773.9704    , 0.73        , 3           , 255         , 0           , 0
-9.793894   , 0.122457348 , -0.121682063, 0.0003546559, -0.006498456, -9.546467E-05, -2.35858    , -1.55753148 , 3.141485    , 923.6724    , 26.7343369  , 773.9705    , 0.74        , 3           , 255         , 0           , 0
-9.790428   , 0.11756935  , -0.111667253, 0.000308050658, -0.007084392, -0.000304931367, -2.35858    , -1.55754948 , 3.14148855  , 923.6724    , 26.7343369  , 773.970642  , 0.75        , 3           , 255         , 0           , 0
-9.79087448 , 0.127677575 , -0.110307373, 0.000265861047, -0.003264838, 6.353509E-05, -2.35858    , -1.55754054 , 3.14149141  , 923.6724    , 26.7343369  , 773.970764  , 0.76        , 3           , 255         , 0           , 0
-9.791614   , 0.13096121  , -0.107641675, -0.000225905445, -0.0004986464, 6.15726458E-05, -2.35858    , -1.55754948 , 3.141489    , 923.6724    , 26.7343369  , 773.9709    , 0.77        , 3           , 255         , 0           , 0
-9.793971   , 0.122557953 , -0.107838973, -0.0008104293, 0.001969022 , 4.43149474E-06, -2.35858    , -1.55754054 , 3.141481    , 923.6724    , 26.7343369  , 773.971     , 0.78        , 3           , 255         , 0           , 0
-9.790741   , 0.119981423 , -0.109784819, -0.00011284533, 0.005350262 , -0.0002226378, -2.35858    , -1.557518   , 3.14147949  , 923.6724    , 26.7343369  , 773.9711    , 0.79        , 3           , 255         , 0           , 0
-9.791348   , 0.129051834 , -0.136167765, 0.000177726382, 0.00299600977, 0.0004187512, -2.35858    , -1.55750906 , 3.14148116  , 923.6724    , 26.7343369  , 773.971252  , 0.8         , 3           , 255         , 0           , 0
-9.789553   , 0.129359841 , -0.131637931, -0.000133552589, -0.00240683975, -0.000509233738, -2.35858    , -1.55743742 , 3.14148188  , 923.6724    , 26.7343369  , 773.978333  , 0.81        , 3           , 255         , 0           , 0
-9.807797   , 0.127262577 , -0.106029376, -0.000254453858, -0.000438651972, -0.000774578657, -2.35858    , -1.55745983 , 3.14147925  , 923.6724    , 26.7343369  , 773.978455  , 0.82        , 3           , 255         , 0           , 0
-9.789869   , 0.119009458 , -0.08063579 , -6.423413E-05, 0.0122033469, -0.0004749549, -2.35858    , -1.55741966 , 3.14147782  , 923.67      , 26.739357   , 773.9786    , 0.83        , 3           , 255         , 0           , 0
-9.787554   , 0.123266146 , -0.105939783, 0.000137476949, 0.0239303149, 0.000234434381, -2.35858    , -1.55733967 , 3.14147758  , 923.67      , 26.739357   , 773.97876   , 0.84        , 3           , 255         , 0           , 0
-9.776866   , 0.118583307 , -0.136838943, -0.000106434571, 0.0207860563, 0.0001865484, -2.35858    , -1.55728221 , 3.1414752   , 923.67      , 26.739357   , 773.978943  , 0.85        , 3           , 255         , 0           , 0
-9.766563   , 0.1253843   , -0.14892821 , 2.41183443E-05, 0.00609454373, 0.000459420728, -2.35858    , -1.55723822 , 3.1414752   , 923.67      , 26.739357   , 773.979065  , 0.86        , 3           , 255         , 0           , 0
-9.771643   , 0.121836707 , -0.143608719, -0.000227284036, -0.008500925, 0.000172378757, -2.35858    , -1.5572778  , 3.14147329  , 923.67      , 26.739357   , 773.9792    , 0.87        , 3           , 255         , 0           , 0
-9.777601   , 0.118428394 , -0.134236127, 0.000202622381, -0.017716052, 0.000144145277, -2.35858    , -1.55732191 , 3.14147663  , 923.67      , 26.739357   , 773.9793    , 0.88        , 3           , 255         , 0           , 0
-9.790059   , 0.125335932 , -0.118861422, -0.000217465451, -0.0207683221, -0.000125998922, -2.35858    , -1.55740178 , 3.14147568  , 923.67      , 26.739357   , 773.9795    , 0.89        , 3           , 255         , 0           , 0
-9.801511   , 0.117437623 , -0.0982244238, -0.000222044182, -0.0151557652, -0.000773918349, -2.35858    , -1.55745983 , 3.14147425  , 923.67      , 26.739357   , 773.9797    , 0.9         , 3           , 255         , 0           , 0
-9.793453   , 0.117636427 , -0.109559909, -0.000374366762, -0.007439826, -0.0001891149, -2.35858    , -1.55736625 , 3.14147377  , 923.67      , 26.739357   , 773.9879    , 0.91        , 3           , 255         , 0           , 0
-9.794259   , 0.121525452 , -0.111909583, -0.000486027449, -0.00693495 , -0.000120665311, -2.35858    , -1.55738842 , 3.14146948  , 923.67      , 26.739357   , 773.9881    , 0.92        , 3           , 255         , 0           , 0
-9.80954552 , 0.1318955   , -0.08275227 , 7.953844E-06, 0.00029733518, 5.31419355E-05, -2.35858    , -1.55737066 , 3.14146948  , 923.7133    , 26.7420025  , 773.9883    , 0.93        , 3           , 255         , 0           , 0
-9.81660652 , 0.132962078 , -0.08914271 , -0.0002454212, 0.0156684052, 0.00011765564, -2.35858    , -1.55732191 , 3.14146614  , 923.7133    , 26.7420025  , 773.988464  , 0.94        , 3           , 255         , 0           , 0
-9.782225   , 0.127873451 , -0.137493744, 0.000195797533, 0.016352402 , -0.000112428708, -2.35858    , -1.557269   , 3.141467    , 923.7133    , 26.7420025  , 773.988647  , 0.95        , 3           , 255         , 0           , 0
-9.782361   , 0.128717914 , -0.13258633 , -0.000225513824, 0.00769025274, 0.00052770006, -2.35858    , -1.55723381 , 3.14146423  , 923.7133    , 26.7420025  , 773.988831  , 0.96        , 3           , 255         , 0           , 0
-9.79064    , 0.118276969 , -0.129855826, -0.000145262456, 0.00165370456, 0.0003542028, -2.35858    , -1.557225   , 3.1414628   , 923.7133    , 26.7420025  , 773.989     , 0.97        , 3           , 255         , 0           , 0
-9.774657   , 0.122864164 , -0.129849255, 0.000453167479, -0.00560705457, 3.33572971E-05, -2.35858    , -1.55723822 , 3.14146757  , 923.7133    , 26.7420025  , 773.9892    , 0.98        , 3           , 255         , 0           , 0
-9.786469   , 0.120859623 , -0.118842557, 0.000248020864, -0.0125967879, 0.0008215498, -2.35858    , -1.55728221 , 3.141471    , 923.7133    , 26.7420025  , 773.9894    , 0.99        , 3           , 255         , 0           , 0
-9.817097   , 0.113425896 , -0.08022604 , -0.000375299132, -0.00396071048, 0.0006375558, -2.35858    , -1.55728662 , 3.14146757  , 923.7133    , 26.7420025  , 773.989563  , 1           , 3           , 0           , 6.47723627  , 100
-9.819      , 0.121216059 , -0.08200745 , 0.00018740166, 0.0175940078, 0.000311353826, -2.35858    , -1.5571593  , 3.14146924  , 923.7133    , 26.7420025  , 773.9491    , 1.01        , 3           , 1           , 0           , 0
-9.784606   , 0.126617461 , -0.1160296  , -0.000212473329, 0.0270306878, 0.000185718352, -2.35858    , -1.557059   , 3.14146543  , 923.7133    , 26.7420025  , 773.9492    , 1.02        , 3           , 2           , 0           , 0
-9.773464   , 0.126557678 , -0.135548875, -0.0001501299, 0.0224224385, 0.0001954856, -2.35858    , -1.5569855  , 3.14146256  , 923.685852  , 26.741663   , 773.949341  , 1.03        , 3           , 3           , 0           , 0
-9.777342   , 0.128047556 , -0.147334874, -0.000365102431, 0.0135536538, -0.0002850122, -2.35858    , -1.55693388 , 3.141458    , 923.685852  , 26.741663   , 773.949463  , 1.04        , 3           , 4           , 0           , 0
-9.784447   , 0.120614991 , -0.142780155, -8.923956E-05, 0.00374520314, -0.00028309293, -2.35858    , -1.5569123  , 3.1414566   , 923.685852  , 26.741663   , 773.9496    , 1.05        , 3           , 5           , 0           , 0
-9.793512   , 0.125026956 , -0.1323988  , -0.000446745544, -0.00223771669, 0.000137724011, -2.35858    , -1.556921   , 3.14145231  , 923.685852  , 26.741663   , 773.9497    , 1.06        , 3           , 6           , 0           , 0
-9.80239    , 0.128025547 , -0.12159346 , -0.000131394016, -0.00171985757, -0.000444293022, -2.35858    , -1.55692959 , 3.14145136  , 923.685852  , 26.741663   , 773.9498    , 1.07        , 3           , 7           , 0           , 0
-9.79428    , 0.115894243 , -0.121025778, -0.0009882507, 0.000616885547, 0.000223139185, -2.35858    , -1.5569253  , 3.14144135  , 923.685852  , 26.741663   , 773.949951  , 1.08        , 3           , 8           , 5           , 5
-9.791504   , 0.123174861 , -0.117171429, -0.0004748901, 0.00413821125, 0.00032138644, -2.35858    , -1.556908   , 3.14143634  , 923.685852  , 26.741663   , 773.9501    , 1.09        , 3           , 9           , 5           , 0.1
-9.791804   , 0.124103621 , -0.125753075, 8.764444E-05, 0.007706261 , -0.0005671051, -2.35858    , -1.556891   , 3.14143658  , 923.685852  , 26.741663   , 773.9502    , 1.1         , 3           , 10          , 0.1         , 0.1
-9.783663   , 0.130037978 , -0.124572016, 0.000413857284, 0.007961594 , 8.156916E-05, -2.35858    , -1.55676711 , 3.14144182  , 923.685852  , 26.741663   , 773.9444    , 1.11        , 3           , 11          , 0.008829293 , 0.008829293
-9.786753   , 0.131136209 , -0.126661628, 0.0002400442, 0.008569735 , -2.66800052E-05, -2.35858    , -1.55673742 , 3.14144373  , 923.685852  , 26.741663   , 773.9445    , 1.12        , 3           , 12          , 0.174642846 , 0
-9.788892   , 0.12188419  , -0.120952561, -0.0005060319, 0.0121125048, -0.000122030338, -2.35858    , -1.55667818 , 3.14143777  , 923.6724    , 26.7481766  , 773.944641  , 1.13        , 3           , 13          , 0           , 0
-9.792794   , 0.121389315 , -0.143407956, -5.97413164E-05, 0.0103833806, -0.000241003261, -2.35858    , -1.55664444 , 3.14143658  , 923.6724    , 26.7481766  , 773.944763  , 1.14        , 3           , 14          , 0.001546774 , -2.39970655E-06
-9.78584    , 0.121446118 , -0.149631247, 0.000258769374, 0.00299405516, 0.000182059419, -2.35858    , -1.55662763 , 3.141439    , 923.6724    , 26.7481766  , 773.9449    , 1.15        , 3           , 15          , 0           , 0.000289313757
-9.781391   , 0.126223639 , -0.139227271, 0.000473134336, -0.002287655, 2.5991525E-05, -2.35858    , -1.5566361  , 3.14144373  , 923.6724    , 26.7481766  , 773.945     , 1.16        , 3           , 16          , 0           , 4.203895E-45
-9.786673   , 0.116674349 , -0.126208708, 0.000131446053, -0.0032657627, 0.000311951182, -2.35858    , -1.55664873 , 3.14144516  , 923.6724    , 26.7481766  , 773.9451    , 1.17        , 3           , 20          , 0           , 0
-9.796752   , 0.1245906   , -0.112157106, -7.813505E-05, 0.0002908105, -0.000327993737, -2.35858    , -1.5566361  , 3.14144421  , 923.6724    , 26.7481766  , 773.945251  , 1.18        , 3           , 21          , 0           , 0
-9.800789   , 0.12542665  , -0.113724612, 0.000477704569, 0.004819987 , 6.204014E-05, -2.35858    , -1.556615   , 3.14144874  , 923.6724    , 26.7481766  , 773.9454    , 1.19        , 3           , 22          , 0           , 0
-9.797114   , 0.12946333  , -0.122384109, -0.000216002227, 0.00676822942, 0.00014398052, -2.35858    , -1.556594   , 3.141446    , 923.6724    , 26.7481766  , 773.9455    , 1.2         , 3           , 40          , 0           , 0
-9.78607    , 0.121070363 , -0.1303632  , -0.000666928361, 0.00693729334, 0.000192630512, -2.35858    , -1.55646861 , 3.14144039  , 923.6724    , 26.7481766  , 773.9543    , 1.21        , 3           , 41          , 0           , 0
-9.779836   , 0.1243901   , -0.141669065, 0.000283922767, 0.00365531654, 4.66971251E-05, -2.35858    , -1.55644369 , 3.14144325  , 923.6724    , 26.7481766  , 773.9544    , 1.22        , 3           , 42          , 0           , 0
-9.784164   , 0.122621633 , -0.133542061, 0.0004096185, 0.0007248713, 0.000851193559, -2.35858    , -1.55643129 , 3.141447    , 923.658936  , 26.7500076  , 773.9545    , 1.23        , 3           , 255         , 0           , 0
-9.793534   , 0.130139247 , -0.132759765, 0.0002079067, 0.00110981264, -0.000360454957, -2.35858    , -1.55642712 , 3.141449    , 923.658936  , 26.7500076  , 773.954651  , 1.24        , 3           , 255         , 0           , 0
-9.78754    , 0.121463463 , -0.123558119, 0.000288704876, 0.0012546411, 0.000279036 , -2.35858    , -1.55641472 , 3.141452    , 923.658936  , 26.7500076  , 773.9548    , 1.25        , 3           , 255         , 0           , 0
-9.786008   , 0.127287    , -0.134308174, -0.000173846725, -0.0008541211, 0.0003668932, -2.35858    , -1.55641878 , 3.14145041  , 923.658936  , 26.7500076  , 773.9549    , 1.26        , 3           , 255         , 0           , 0
-9.783497   , 0.122511908 , -0.134101376, 1.22960191E-05, -0.00359738152, -0.0006760703, -2.35858    , -1.55643547 , 3.14145064  , 923.658936  , 26.7500076  , 773.9551    , 1.27        , 3           , 255         , 0           , 0
-9.802484   , 0.12559168  , -0.122137114, 0.000168756582, -0.0009997247, -0.0002584251, -2.35858    , -1.55646455 , 3.14145231  , 923.658936  , 26.7500076  , 773.955261  , 1.28        , 3           , 255         , 0           , 0
-9.798408   , 0.130884036 , -0.1267444  , 0.000802935334, 0.00459821569, 0.000452683482, -2.35858    , -1.55642712 , 3.14146     , 923.658936  , 26.7500076  , 773.955444  , 1.29        , 3           , 255         , 0           , 0
-9.787732   , 0.130102485 , -0.139184743, 0.000411402434, 0.00617007539, 0.001066297 , -2.35858    , -1.55640221 , 3.14146376  , 923.658936  , 26.7500076  , 773.9556    , 1.3         , 3           , 255         , 0           , 0
-9.77437    , 0.128015608 , -0.1484944  , 3.511866E-05, 0.00062104495, -0.0002921301, -2.35858    , -1.55627859 , 3.14146566  , 923.658936  , 26.7500076  , 773.976868  , 1.31        , 3           , 255         , 0           , 0
-9.795885   , 0.1303889   , -0.12881422 , -1.49272382E-05, -0.003835837, 0.00012369515, -2.35858    , -1.556295   , 3.14146566  , 923.658936  , 26.7500076  , 773.9771    , 1.32        , 3           , 255         , 0           , 0
-9.822828   , 0.1266528   , -0.08800676 , 9.317906E-05, 0.008653708 , 0.000662796 , -2.35858    , -1.5562458  , 3.14146614  , 923.6878    , 26.7527218  , 773.977356  , 1.33        , 3           , 255         , 0           , 0
-9.799678   , 0.12288481  , -0.115423523, 0.00014392822, 0.0295491628, -3.00211832E-06, -2.35858    , -1.556095   , 3.14146566  , 923.6878    , 26.7527218  , 773.9776    , 1.34        , 3           , 255         , 0           , 0
-9.776528   , 0.11740309  , -0.158581764, 6.572285E-05, 0.0278382   , -0.0006396313, -2.35858    , -1.55596173 , 3.14146447  , 923.6878    , 26.7527218  , 773.977844  , 1.35        , 3           , 255         , 0           , 0
-9.773379   , 0.125736743 , -0.169014782, -0.000339101069, 0.011828457 , -0.000118332013, -2.35858    , -1.55590165 , 3.14146042  , 923.6878    , 26.7527218  , 773.9781    , 1.36        , 3           , 255         , 0           , 0
-9.769701   , 0.128675133 , -0.176914737, -8.471531E-05, -0.008056815, 0.0002094545, -2.35858    , -1.55595374 , 3.14146     , 923.6878    , 26.7527218  , 773.978333  , 1.37        , 3           , 255         , 0           , 0
-9.786383   , 0.123676144 , -0.1583954  , -0.000335613033, -0.027169982, -0.000122140729, -2.35858    , -1.556091   , 3.14145851  , 923.6878    , 26.7527218  , 773.9786    , 1.38        , 3           , 255         , 0           , 0
-9.80842    , 0.128796414 , -0.102104083, -0.000328646856, -0.0272776969, -0.000176693342, -2.35858    , -1.55622935 , 3.14145684  , 923.6878    , 26.7527218  , 773.9788    , 1.39        , 3           , 255         , 0           , 0
-9.832296   , 0.129499152 , -0.0757881254, 0.000651401 , -0.001591702, 7.26124854E-05, -2.35858    , -1.55622113 , 3.14146328  , 923.6878    , 26.7527218  , 773.979065  , 1.4         , 3           , 255         , 0           , 0
-9.81251049 , 0.125167847 , -0.110722825, -0.000451785047, 0.021055609 , 0.000200606039, -2.35858    , -1.55605853 , 3.14145851  , 923.6878    , 26.7527218  , 773.9682    , 1.41        , 3           , 255         , 0           , 0
-9.77613449 , 0.120911717 , -0.15634577 , 0.0002968663, 0.0193568561, -0.00016345334, -2.35858    , -1.55596173 , 3.14146018  , 923.6878    , 26.7527218  , 773.9684    , 1.42        , 3           , 255         , 0           , 0
-9.763457   , 0.125770643 , -0.16318664 , 6.475544E-05, 0.005861278 , 0.0004486475, -2.35858    , -1.55593371 , 3.14146042  , 923.674866  , 26.7557068  , 773.968567  , 1.43        , 3           , 255         , 0           , 0
-9.76635551 , 0.126825452 , -0.16224815 , -0.0003155967, -0.01030251 , -7.489648E-05, -2.35858    , -1.55598593 , 3.1414578   , 923.674866  , 26.7557068  , 773.96875   , 1.44        , 3           , 255         , 0           , 0
-9.790392   , 0.129451826 , -0.140294284, -0.000866782037, -0.0212076083, -0.000181264986, -2.35858    , -1.556095   , 3.14145041  , 923.674866  , 26.7557068  , 773.968933  , 1.45        , 3           , 255         , 0           , 0
-9.820656   , 0.126657337 , -0.08920136 , -0.000788870966, -0.0177052952, -0.0004567459, -2.35858    , -1.55617225 , 3.14144373  , 923.674866  , 26.7557068  , 773.9692    , 1.46        , 3           , 255         , 0           , 0
-9.834676   , 0.13119103  , -0.0595390573, 1.11148693E-05, 0.009512381 , -3.7969643E-05, -2.35858    , -1.55613554 , 3.141443    , 923.674866  , 26.7557068  , 773.9694    , 1.47        , 3           , 255         , 0           , 0
-9.8093605  , 0.131721362 , -0.105681762, -0.000214147731, 0.0350037068, 0.0002482316, -2.35858    , -1.55596173 , 3.14143848  , 923.674866  , 26.7557068  , 773.969666  , 1.48        , 3           , 255         , 0           , 0
-9.762981   , 0.1265759   , -0.165806055, -0.000159282121, 0.0306846444, 0.000849097036, -2.35858    , -1.55579    , 3.14143515  , 923.674866  , 26.7557068  , 773.9699    , 1.49        , 3           , 255         , 0           , 0
-9.765036   , 0.128103167 , -0.176890463, -0.000288599054, 0.0107175186, 0.000585208647, -2.35858    , -1.55573046 , 3.14143133  , 923.674866  , 26.7557068  , 773.970154  , 1.5         , 3           , 255         , 0           , 0
-9.774146   , 0.135054141 , -0.154277563, -0.0004179983, -0.00496571558, 0.000249170436, -2.35858    , -1.55563974 , 3.14142871  , 923.674866  , 26.7557068  , 773.9737    , 1.51        , 3           , 255         , 0           , 0
-9.795299   , 0.128079325 , -0.1175977  , -0.0002492381, -0.00781186437, -0.000722412835, -2.35858    , -1.55569494 , 3.14142656  , 923.674866  , 26.7557068  , 773.973938  , 1.52        , 3           , 255         , 0           , 0
-9.81045151 , 0.1273519   , -0.09673215 , 0.0005963412, 0.005990883 , -0.0003921453, -2.35858    , -1.55567527 , 3.14143229  , 923.676331  , 26.7564526  , 773.9742    , 1.53        , 3           , 255         , 0           , 0
-9.809634   , 0.118487552 , -0.105987214, 0.0005954169, 0.0242978036, 0.000505944248, -2.35858    , -1.555534   , 3.14143658  , 923.676331  , 26.7564526  , 773.9744    , 1.54        , 3           , 255         , 0           , 0
-9.795662   , 0.123771943 , -0.137524277, -0.0005243266, 0.03085765  , 0.000256445521, -2.35858    , -1.55535531 , 3.14142942  , 923.676331  , 26.7564526  , 773.9747    , 1.55        , 3           , 255         , 0           , 0
-9.786738   , 0.128307939 , -0.151472852, -0.000217385124, 0.0260715783, 0.000124675658, -2.35858    , -1.55521321 , 3.14142561  , 923.676331  , 26.7564526  , 773.9749    , 1.56        , 3           , 255         , 0           , 0
-9.785159   , 0.133010745 , -0.150872469, 0.000333705568, 0.02405127  , 5.63040958E-05, -2.35858    , -1.55507231 , 3.14142728  , 923.676331  , 26.7564526  , 773.975159  , 1.57        , 3           , 255         , 0           , 0
-9.77442    , 0.13210614  , -0.175353587, -0.000453736051, 0.011460769 , -0.0007198781, -2.35858    , -1.55500793 , 3.141422    , 923.676331  , 26.7564526  , 773.9754    , 1.58        , 3           , 255         , 0           , 0
-9.792294   , 0.129921213 , -0.134584248, -0.000730167259, 0.008323972 , -0.0008555611, -2.35858    , -1.55496645 , 3.14141417  , 923.676331  , 26.7564526  , 773.975647  , 1.59        , 3           , 255         , 0           , 0
-9.795964   , 0.121695139 , -0.139999077, -0.000282214838, 0.0134184314, -0.000284600654, -2.35858    , -1.55488014 , 3.14141035  , 923.676331  , 26.7564526  , 773.9759    , 1.6         , 3           , 255         , 0           , 0
-9.788267   , 0.125005051 , -0.146050289, -0.000248256838, 0.0173494276, 3.11814947E-05, -2.35858    , -1.55471253 , 3.14140749  , 923.676331  , 26.7564526  , 773.9773    , 1.61        , 3           , 255         , 0           , 0
-9.781698   , 0.125799209 , -0.15829125 , -0.000111172558, 0.0167785659, 0.000486756035, -2.35858    , -1.55459428 , 3.14140534  , 923.676331  , 26.7564526  , 773.977539  , 1.62        , 3           , 255         , 0           , 0
-9.769734   , 0.117916547 , -0.1698391  , -6.4535765E-05, 0.01233189  , 0.000589191448, -2.35858    , -1.5545063  , 3.14140415  , 923.7009    , 26.75781    , 773.9778    , 1.63        , 3           , 255         , 0           , 0
-9.775453   , 0.118613563 , -0.15919511 , -5.70991542E-05, 0.0062818164, 0.00041166466, -2.35858    , -1.5544697  , 3.141403    , 923.7009    , 26.75781    , 773.978     , 1.64        , 3           , 255         , 0           , 0
-9.785807   , 0.125906214 , -0.157946274, 0.0001435664, 0.00244804565, 0.0002479694, -2.35858    , -1.55445516 , 3.14140439  , 923.7009    , 26.75781    , 773.9783    , 1.65        , 3           , 255         , 0           , 0
-9.800692   , 0.124829754 , -0.156406134, 8.632778E-05, 0.00496207131, -0.000507155433, -2.35858    , -1.55443323 , 3.14140487  , 923.7009    , 26.75781    , 773.9785    , 1.66        , 3           , 255         , 0           , 0
-9.78406    , 0.128490716 , -0.157592267, 0.0002983536, 0.007895231 , -0.0008084132, -2.35858    , -1.5543896  , 3.14140725  , 923.7009    , 26.75781    , 773.97876   , 1.67        , 3           , 255         , 0           , 0
-9.777191   , 0.119679131 , -0.162811786, 0.0007188979, 0.00725256326, -0.000429334235, -2.35858    , -1.55434239 , 3.14141417  , 923.7009    , 26.75781    , 773.979     , 1.68        , 3           , 255         , 0           , 0
-9.789537   , 0.124837495 , -0.163959309, 0.000159187941, 0.00321630063, 0.0003164864, -2.35858    , -1.55431712 , 3.1414156   , 923.7009    , 26.75781    , 773.979248  , 1.69        , 3           , 255         , 0           , 0
-9.787883   , 0.129096419 , -0.15563044 , 0.000265248818, 0.000207843856, 0.00053359475, -2.35858    , -1.55430627 , 3.14141822  , 923.7009    , 26.75781    , 773.9795    , 1.7         , 3           , 255         , 0           , 0
-9.789646   , 0.128737062 , -0.162222937, -9.679026E-05, -0.0008461083, 0.000411347166, -2.35858    , -1.55410862 , 3.14141917  , 923.7009    , 26.75781    , 773.9536    , 1.71        , 3           , 255         , 0           , 0
-9.783541   , 0.131336182 , -0.158126518, -0.0005458738, -0.00156595849, 7.338816E-05, -2.35858    , -1.55412292 , 3.14141369  , 923.7009    , 26.75781    , 773.953735  , 1.72        , 3           , 255         , 0           , 0
-9.796909   , 0.125612184 , -0.138111934, -0.0003094694, 0.00336900144, -0.0003891128, -2.35858    , -1.55409789 , 3.14141035  , 923.7028    , 26.7604561  , 773.953857  , 1.73        , 3           , 255         , 0           , 0
-9.783267   , 0.115605116 , -0.15511255 , -0.00039710186, 0.008807047 , 0.000227799144, -2.35858    , -1.55404806 , 3.14140582  , 923.7028    , 26.7604561  , 773.954     , 1.74        , 3           , 255         , 0           , 0
-9.793574   , 0.124684848 , -0.17258954 , -0.000358668971, 0.00710196  , -2.42204987E-05, -2.35858    , -1.55400538 , 3.141402    , 923.7028    , 26.7604561  , 773.9541    , 1.75        , 3           , 255         , 0           , 0
-9.78904152 , 0.13225396  , -0.1725295  , -0.000146596576, 0.00224016863, 0.000164372992, -2.35858    , -1.55398059 , 3.14140034  , 923.7028    , 26.7604561  , 773.9542    , 1.76        , 3           , 255         , 0           , 0
-9.784678   , 0.1297778   , -0.160003543, 0.0002180573, 9.082234E-05, 0.0004187659, -2.35858    , -1.55397344 , 3.14140248  , 923.7028    , 26.7604561  , 773.954346  , 1.77        , 3           , 255         , 0           , 0
-9.784649   , 0.122761115 , -0.164384648, 8.003204E-06, -0.00066473987, 0.0007925946, -2.35858    , -1.55397344 , 3.14140272  , 923.7028    , 26.7604561  , 773.954468  , 1.78        , 3           , 255         , 0           , 0
-9.78974    , 0.114745796 , -0.164630041, -0.000125390361, -0.0035791588, 0.0006089109, -2.35858    , -1.5539912  , 3.14140177  , 923.7028    , 26.7604561  , 773.9546    , 1.79        , 3           , 255         , 0           , 0
-9.79043    , 0.128631562 , -0.147914   , -0.00021233235, -0.00479206024, 0.000573500642, -2.35858    , -1.55401957 , 3.14139986  , 923.7028    , 26.7604561  , 773.9547    , 1.8         , 3           , 255         , 0           , 0
-9.79744148 , 0.11839392  , -0.144089982, 0.0002776744, -0.0018800603, 0.000595169957, -2.35858    , -1.55392039 , 3.141404    , 923.7028    , 26.7604561  , 773.9289    , 1.81        , 3           , 255         , 0           , 0
-9.79976    , 0.119687542 , -0.1415731  , 7.9263E-05  , 0.00221694424, -0.000160308278, -2.35858    , -1.553924   , 3.14140463  , 923.7028    , 26.7604561  , 773.9289    , 1.82        , 3           , 255         , 0           , 0
-9.794599   , 0.128039956 , -0.1424792  , -0.0003168265, 0.00872436  , 0.000608869 , -2.35858    , -1.55385339 , 3.14140081  , 923.6909    , 26.75937    , 773.9289    , 1.83        , 3           , 255         , 0           , 0
-9.787619   , 0.122514822 , -0.154734284, 0.0001648704, 0.0117479283, -8.203283E-05, -2.35858    , -1.55377614 , 3.14140153  , 923.6909    , 26.75937    , 773.9289    , 1.84        , 3           , 255         , 0           , 0
-9.781465   , 0.115382113 , -0.1630887  , 9.6765114E-05, 0.009292113 , -0.00035970725, -2.35858    , -1.55372727 , 3.141402    , 923.6909    , 26.75937    , 773.9289    , 1.85        , 3           , 255         , 0           , 0
-9.786418   , 0.123242378 , -0.172944948, -0.000110815279, 0.0043925955, -0.000103338272, -2.35858    , -1.55369234 , 3.14140058  , 923.6909    , 26.75937    , 773.9289    , 1.86        , 3           , 255         , 0           , 0
-9.779375   , 0.127359    , -0.1652988  , 0.000193765387, -0.00142574194, 1.17859163E-05, -2.35858    , -1.55369925 , 3.14140248  , 923.6909    , 26.75937    , 773.9289    , 1.87        , 3           , 255         , 0           , 0
-9.788167   , 0.126389608 , -0.150284082, -0.0001327605, -0.004431316, -0.000403651153, -2.35858    , -1.55373418 , 3.14140153  , 923.6909    , 26.75937    , 773.9289    , 1.88        , 3           , 255         , 0           , 0
-9.789077   , 0.121406995 , -0.158857852, -0.000376758748, -0.00351293967, -0.000335900957, -2.35858    , -1.55375862 , 3.141398    , 923.6909    , 26.75937    , 773.9289    , 1.89        , 3           , 255         , 0           , 0
-9.791089   , 0.125586838 , -0.167372733, -0.000305023161, -0.005408552, -0.0004604485, -2.35858    , -1.55380774 , 3.141395    , 923.6909    , 26.75937    , 773.9289    , 1.9         , 3           , 255         , 0           , 0
-9.802567   , 0.11892084  , -0.149352983, -0.0007908295, -0.00446162932, -0.000576889, -2.35858    , -1.55375171 , 3.14138842  , 923.6909    , 26.75937    , 773.919067  , 1.91        , 3           , 255         , 0           , 0
-9.800219   , 0.119549014 , -0.146551877, -0.0003705849, -0.00177034235, -0.000319912651, -2.35858    , -1.55376565 , 3.1413846   , 923.6909    , 26.75937    , 773.919     , 1.92        , 3           , 255         , 0           , 0
-9.785546   , 0.125705138 , -0.150682256, 8.436735E-05, 0.00106228981, -0.0007105271, -2.35858    , -1.55376923 , 3.14138556  , 923.6947    , 26.7663574  , 773.918945  , 1.93        , 3           , 255         , 0           , 0
-9.800609   , 0.1277614   , -0.14519605 , -0.0001384085, 0.004658279 , -0.0002817221, -2.35858    , -1.55373764 , 3.14138365  , 923.6947    , 26.7663574  , 773.9189    , 1.94        , 3           , 255         , 0           , 0
-9.798552   , 0.124443129 , -0.148478314, -2.00849026E-05, 0.00708623976, 0.000580880849, -2.35858    , -1.55368185 , 3.14138317  , 923.6947    , 26.7663574  , 773.9188    , 1.95        , 3           , 255         , 0           , 0
-9.789316   , 0.137121156 , -0.162633747, -5.707331E-05, 0.007010133 , 0.000566807459, -2.35858    , -1.55364358 , 3.14138222  , 923.6947    , 26.7663574  , 773.918762  , 1.96        , 3           , 255         , 0           , 0
-9.789856   , 0.125307366 , -0.157788709, -1.62441283E-05, 0.004596122 , 0.000419047254, -2.35858    , -1.55360544 , 3.14138174  , 923.6947    , 26.7663574  , 773.9187    , 1.97        , 3           , 255         , 0           , 0
-9.789671   , 0.121574864 , -0.150643319, -7.159542E-08, 0.0040101856, -0.000279457454, -2.35858    , -1.55358112 , 3.1413815   , 923.6947    , 26.7663574  , 773.91864   , 1.98        , 3           , 255         , 0           , 0
-9.784323   , 0.120191455 , -0.153335214, -0.0004957146, 0.00156769494, -0.00081313937, -2.35858    , -1.5535742  , 3.1413765   , 923.6947    , 26.7663574  , 773.9186    , 1.99        , 3           , 255         , 0           , 0
-9.789411   , 0.131903082 , -0.156289712, -0.0003826915, -0.001226589, -0.000116270472, -2.35858    , -1.55357766 , 3.14137268  , 923.6947    , 26.7663574  , 773.9185    , 2           , 3           , 0           , 7.47723627  , 200
-9.784715   , 0.1259331   , -0.152634859, 0.000242744922, -0.00225422136, -6.857836E-05, -2.35858    , -1.55354309 , 3.14137578  , 923.6947    , 26.7663574  , 773.905151  , 2.01        , 3           , 1           , 0           , 0
-9.795067   , 0.1191562   , -0.160631254, 1.94433378E-05, -0.00397877349, -0.000263522466, -2.35858    , -1.5535742  , 3.14137626  , 923.6947    , 26.7663574  , 773.905     , 2.02        , 3           , 2           , 0           , 0
-9.785713   , 0.12397597  , -0.150499627, 7.46262958E-05, -0.005375566, -9.369166E-05, -2.35858    , -1.55359852 , 3.14137745  , 923.7044    , 26.7654762  , 773.9049    , 2.03        , 3           , 3           , 0           , 0
-9.800142   , 0.120199159 , -0.146327749, -0.0005525333, -0.00271235965, -1.82880322E-05, -2.35858    , -1.55361581 , 3.141372    , 923.7044    , 26.7654762  , 773.9048    , 2.04        , 3           , 4           , 0           , 0
-9.794969   , 0.121607006 , -0.150574222, -0.000118247117, 0.00193196139, -7.425014E-05, -2.35858    , -1.55360889 , 3.14137077  , 923.7044    , 26.7654762  , 773.904663  , 2.05        , 3           , 5           , 0           , 0
-9.79468    , 0.116857946 , -0.1548212  , 0.000382751576, 0.0050432873, -0.000776815868, -2.35858    , -1.55359161 , 3.141374    , 923.7044    , 26.7654762  , 773.904541  , 2.06        , 3           , 6           , 0           , 0
-9.793274   , 0.124021962 , -0.1491799  , -3.677199E-05, 0.00726827467, -0.0004168034, -2.35858    , -1.55354655 , 3.14137316  , 923.7044    , 26.7654762  , 773.9044    , 2.07        , 3           , 7           , 0           , 0
-9.791817   , 0.130886048 , -0.159797549, -0.00010317401, 0.00602002349, 0.000238148117, -2.35858    , -1.55349481 , 3.14137173  , 923.7044    , 26.7654762  , 773.9043    , 2.08        , 3           , 8           , 5           , 5
-9.784182   , 0.126400486 , -0.16240871 , -0.000307675451, 0.00239831675, 0.000117228978, -2.35858    , -1.55347764 , 3.14136839  , 923.7044    , 26.7654762  , 773.9042    , 2.09        , 3           , 9           , 5           , 0.1
-9.77901649 , 0.124085151 , -0.163987249, 0.000658932258, -0.00162890239, 0.00047839855, -2.35858    , -1.5534879  , 3.1413753   , 923.7044    , 26.7654762  , 773.904053  , 2.1         , 3           , 10          , 0.1         , 0.1
-9.787043   , 0.1263197   , -0.169369489, 0.000288519077, -0.002948812, -0.00046094897, -2.35858    , -1.55344665 , 3.14137888  , 923.7044    , 26.7654762  , 773.8802    , 2.11        , 3           , 11          , 0.00761331851, 0.00761331944
-9.79178    , 0.123064376 , -0.161486119, 0.0006279581, -0.00228019455, -0.0003038574, -2.35858    , -1.55346036 , 3.14138556  , 923.7044    , 26.7654762  , 773.879944  , 2.12        , 3           , 12          , 0.174643889 , 0
-9.785703   , 0.123889759 , -0.153658554, 0.0009450513, -0.00175908313, -0.000190776729, -2.35858    , -1.55347073 , 3.141395    , 923.6371    , 26.7668324  , 773.8797    , 2.13        , 3           , 13          , 0           , 0
-9.785666   , 0.129672453 , -0.145861313, 0.000173386186, 0.000973325 , 0.000110878871, -2.35858    , -1.5534811  , 3.14139652  , 923.6371    , 26.7668324  , 773.879456  , 2.14        , 3           , 14          , 0.00154672691, -6.059978E-06
-9.793629   , 0.118931159 , -0.150341585, 0.000416472438, 0.00386874937, 1.15862058E-05, -2.35858    , -1.55343974 , 3.14140058  , 923.6371    , 26.7668324  , 773.8792    , 2.15        , 3           , 15          , 0           , 0.00028930718
-9.792611   , 0.118673407 , -0.159802273, -0.0006166728, 0.00500441669, -9.35436E-05, -2.35858    , -1.55341578 , 3.14139414  , 923.6371    , 26.7668324  , 773.878967  , 2.16        , 3           , 16          , 0           , 4.203895E-45
-9.78482151 , 0.118643247 , -0.159728974, -0.000312689226, 0.00409469754, 0.00104789319, -2.35858    , -1.55337811 , 3.1413908   , 923.6371    , 26.7668324  , 773.8787    , 2.17        , 3           , 20          , 0           , 0
-9.782306   , 0.116555333 , -0.164496273, -0.000281743472, 0.00136204693, 0.000170245854, -2.35858    , -1.55336094 , 3.141388    , 923.6371    , 26.7668324  , 773.8785    , 2.18        , 3           , 21          , 0           , 0
-9.78862    , 0.1293262   , -0.167854279, -0.00029416068, -0.003283238, 9.749795E-05, -2.35858    , -1.5533849  , 3.141385    , 923.6371    , 26.7668324  , 773.878235  , 2.19        , 3           , 22          , 0           , 0
-9.786142   , 0.126164585 , -0.165953219, -0.00107540935, -0.006962315, -0.000553376856, -2.35858    , -1.5534364  , 3.14137459  , 923.6371    , 26.7668324  , 773.878     , 2.2         , 3           , 40          , 0           , 0
-9.790781   , 0.125354454 , -0.162858859, -0.000283546629, -0.009302067, -0.0006820115, -2.35858    , -1.55342257 , 3.14137316  , 923.6371    , 26.7668324  , 773.9421    , 2.21        , 3           , 41          , 0           , 0
-9.799901   , 0.129111975 , -0.159409329, 0.000339560327, -0.0104589248, 5.013621E-05, -2.35858    , -1.55349135 , 3.14137721  , 923.6371    , 26.7668324  , 773.942261  , 2.22        , 3           , 42          , 0           , 0
-9.789404   , 0.1335531   , -0.145528048, -0.000121080782, -0.008157071, -0.0002819145, -2.35858    , -1.55355346 , 3.1413765   , 923.6813    , 26.7673759  , 773.942444  , 2.23        , 3           , 255         , 0           , 0
-9.795584   , 0.115070328 , -0.144956261, -0.0005348199, -0.00573552633, -0.0003837851, -2.35858    , -1.553602   , 3.14137149  , 923.6813    , 26.7673759  , 773.9426    , 2.24        , 3           , 255         , 0           , 0
-9.798262   , 0.121906005 , -0.144006342, -0.000473214546, -0.00321302447, -0.000108393273, -2.35858    , -1.55361581 , 3.141367    , 923.6813    , 26.7673759  , 773.9428    , 2.25        , 3           , 255         , 0           , 0
-9.795474   , 0.12029542  , -0.1371232  , -0.000167995226, -0.000574502861, -0.000305165129, -2.35858    , -1.55361927 , 3.14136529  , 923.6813    , 26.7673759  , 773.943     , 2.26        , 3           , 255         , 0           , 0
-9.782698   , 0.119572818 , -0.150163263, -7.567473E-05, 0.00114439672, 0.0005762321, -2.35858    , -1.55361235 , 3.14136457  , 923.6813    , 26.7673759  , 773.9432    , 2.27        , 3           , 255         , 0           , 0
-9.786607   , 0.118681774 , -0.1524036  , -6.30602E-05, -0.00103409984, 0.0007004031, -2.35858    , -1.55361235 , 3.141364    , 923.6813    , 26.7673759  , 773.943359  , 2.28        , 3           , 255         , 0           , 0
-9.779296   , 0.118067339 , -0.15747717 , -0.000118354918, -0.00346624665, 0.0006189062, -2.35858    , -1.55362976 , 3.141363    , 923.6813    , 26.7673759  , 773.943542  , 2.29        , 3           , 255         , 0           , 0
-9.78226    , 0.127177536 , -0.15988493 , -0.000152364373, -0.00640652655, 0.000723203644, -2.35858    , -1.55367494 , 3.14136171  , 923.6813    , 26.7673759  , 773.9437    , 2.3         , 3           , 255         , 0           , 0
-9.788537   , 0.129621312 , -0.1492731  , -0.000135033275, -0.008365606, -0.0002715376, -2.35858    , -1.55367148 , 3.14136147  , 923.6813    , 26.7673759  , 773.9437    , 2.31        , 3           , 255         , 0           , 0
-9.808627   , 0.1206095   , -0.141920552, 0.000518024666, -0.006988563, 0.0005258183, -2.35858    , -1.55370975 , 3.141367    , 923.6813    , 26.7673759  , 773.9439    , 2.32        , 3           , 255         , 0           , 0
-9.792517   , 0.124754772 , -0.143829033, -0.000243278453, -0.004300758, 0.0002670164, -2.35858    , -1.55373764 , 3.141365    , 923.6377    , 26.772192   , 773.9441    , 2.33        , 3           , 255         , 0           , 0
-9.789902   , 0.13310416  , -0.14441286 , -0.000392227783, -0.003655958, -0.000455516536, -2.35858    , -1.5537622  , 3.14136124  , 923.6377    , 26.772192   , 773.9443    , 2.34        , 3           , 255         , 0           , 0
-9.792188   , 0.127548322 , -0.1375066  , -4.6540983E-05, -0.00230858917, 0.000227964367, -2.35858    , -1.55377972 , 3.141361    , 923.6377    , 26.772192   , 773.944458  , 2.35        , 3           , 255         , 0           , 0
-9.789114   , 0.117565237 , -0.144131169, -0.000320210238, -0.00115284021, -0.000246908981, -2.35858    , -1.55379021 , 3.141358    , 923.6377    , 26.772192   , 773.944641  , 2.36        , 3           , 255         , 0           , 0
-9.792814   , 0.122448742 , -0.143387124, -0.0009236535, 0.000345659355, -0.0005589399, -2.35858    , -1.55379021 , 3.14134836  , 923.6377    , 26.772192   , 773.9448    , 2.37        , 3           , 255         , 0           , 0
-9.79968548 , 0.123773277 , -0.148644075, -0.0005633993, 0.00171870226, -0.000383162551, -2.35858    , -1.55377972 , 3.14134264  , 923.6377    , 26.772192   , 773.945     , 2.38        , 3           , 255         , 0           , 0
-9.781133   , 0.122895911 , -0.147577584, 0.0003072333, 0.000345374254, -0.0002721852, -2.35858    , -1.55377614 , 3.14134574  , 923.6377    , 26.772192   , 773.9452    , 2.39        , 3           , 255         , 0           , 0
-9.773316   , 0.126255631 , -0.150786132, 0.000175320543, -0.0033146732, 0.000212287 , -2.35858    , -1.5538007  , 3.14134765  , 923.6377    , 26.772192   , 773.9454    , 2.4         , 3           , 255         , 0           , 0
-9.789841   , 0.120817564 , -0.144234091, -0.000304503832, -0.00459031062, -0.000326348352, -2.35858    , -1.55377972 , 3.1413455   , 923.6377    , 26.772192   , 774.0025    , 2.41        , 3           , 255         , 0           , 0
-9.805486   , 0.128328487 , -0.12554279 , 0.0002851243, 0.00051456003, -0.0003909024, -2.35858    , -1.55378664 , 3.14134836  , 923.6377    , 26.772192   , 774.003052  , 2.42        , 3           , 255         , 0           , 0
-9.789841   , 0.123698309 , -0.144079477, 0.0006054329, 0.00390442228, -3.25435249E-05, -2.35858    , -1.5537622  , 3.141354    , 923.6525    , 26.7739563  , 774.0036    , 2.43        , 3           , 255         , 0           , 0
-9.781962   , 0.12608391  , -0.152437046, 0.000179209863, -0.0009871763, 0.000611148542, -2.35858    , -1.55376565 , 3.141356    , 923.6525    , 26.7739563  , 774.00415   , 2.44        , 3           , 255         , 0           , 0
-9.786699   , 0.125592187 , -0.150512382, 6.417732E-05, -0.00630603824, 0.000454243069, -2.35858    , -1.55379367 , 3.141357    , 923.6525    , 26.7739563  , 774.0047    , 2.45        , 3           , 255         , 0           , 0
-9.791878   , 0.12092407  , -0.134009331, -2.183346E-05, -0.00678236037, -0.000460145762, -2.35858    , -1.55384636 , 3.14135742  , 923.6525    , 26.7739563  , 774.005249  , 2.46        , 3           , 255         , 0           , 0
-9.793798   , 0.1282719   , -0.120090879, 0.000217535067, -0.00171972543, 0.000520347734, -2.35858    , -1.553857   , 3.14135957  , 923.6525    , 26.7739563  , 774.0058    , 2.47        , 3           , 255         , 0           , 0
-9.800382   , 0.13393195  , -0.127402037, 0.00057790766, 0.007548394 , -0.000175452908, -2.35858    , -1.55381119 , 3.141365    , 923.6525    , 26.7739563  , 774.006348  , 2.48        , 3           , 255         , 0           , 0
-9.795332   , 0.126858145 , -0.1464561  , -2.49451259E-05, 0.011546853 , 3.8590515E-05, -2.35858    , -1.55373418 , 3.14136386  , 923.6525    , 26.7739563  , 774.0069    , 2.49        , 3           , 255         , 0           , 0
-9.785762   , 0.124482989 , -0.170435622, -0.000505461, 0.00644439459, 0.0005299223, -2.35858    , -1.55367839 , 3.14135838  , 923.6525    , 26.7739563  , 774.007446  , 2.5         , 3           , 255         , 0           , 0
-9.784702   , 0.1254157   , -0.162799641, -0.0005334383, -0.003176068, 0.00069981243, -2.35858    , -1.55365753 , 3.14135361  , 923.6525    , 26.7739563  , 774.037048  , 2.51        , 3           , 255         , 0           , 0
-9.812082   , 0.119401321 , -0.125934929, -0.00031030504, -0.0006525329, 0.0007612861, -2.35858    , -1.55365062 , 3.14135051  , 923.6525    , 26.7739563  , 774.037842  , 2.52        , 3           , 255         , 0           , 0
-9.78702    , 0.122814618 , -0.138123959, 0.00024021836, 0.007755744 , -0.000388649467, -2.35858    , -1.55360889 , 3.14135242  , 923.672241  , 26.77321    , 774.038635  , 2.53        , 3           , 255         , 0           , 0
-9.782461   , 0.128066152 , -0.158284634, 0.000159871415, 0.0066453563, 0.000120028213, -2.35858    , -1.55355346 , 3.14135361  , 923.672241  , 26.77321    , 774.0394    , 2.54        , 3           , 255         , 0           , 0
-9.777484   , 0.123187467 , -0.1607413  , 1.17742456E-05, -0.000246607233, 2.86765571E-05, -2.35858    , -1.55356038 , 3.14135361  , 923.672241  , 26.77321    , 774.0402    , 2.55        , 3           , 255         , 0           , 0
-9.776653   , 0.122619435 , -0.155486211, -0.000234043226, -0.0074668033, -0.0004639563, -2.35858    , -1.55361581 , 3.1413517   , 923.672241  , 26.77321    , 774.041     , 2.56        , 3           , 255         , 0           , 0
-9.795282   , 0.1206993   , -0.134670168, -8.298131E-05, -0.009792714, -0.000422622426, -2.35858    , -1.55368531 , 3.14135146  , 923.672241  , 26.77321    , 774.0418    , 2.57        , 3           , 255         , 0           , 0
-9.800647   , 0.126233876 , -0.108669326, -0.000314534642, 0.00169136038, 0.000503135961, -2.35858    , -1.55367148 , 3.14134836  , 923.672241  , 26.77321    , 774.0426    , 2.58        , 3           , 255         , 0           , 0
-9.800113   , 0.12573424  , -0.118222222, -4.85772034E-05, 0.01593655  , 0.0009011482, -2.35858    , -1.55355692 , 3.141347    , 923.672241  , 26.77321    , 774.0434    , 2.59        , 3           , 255         , 0           , 0
-9.785246   , 0.122934535 , -0.150038436, -2.65453709E-05, 0.0184368789, -9.12392E-05, -2.35858    , -1.55344319 , 3.1413455   , 923.672241  , 26.77321    , 774.0442    , 2.6         , 3           , 255         , 0           , 0
-9.774034   , 0.123677075 , -0.170968384, 0.0007733448, 0.0123373121, -0.000382708764, -2.35858    , -1.55331314 , 3.14135265  , 923.672241  , 26.77321    , 774.0424    , 2.61        , 3           , 255         , 0           , 0
-9.778727   , 0.127640441 , -0.166247457, 0.0005277839, 0.00283183786, -8.191024E-05, -2.35858    , -1.55329275 , 3.141358    , 923.672241  , 26.77321    , 774.043152  , 2.62        , 3           , 255         , 0           , 0
-9.78888    , 0.132900983 , -0.1445645  , -2.74652848E-05, -0.002354761, 9.380383E-05, -2.35858    , -1.55331314 , 3.14135766  , 923.6315    , 26.7744312  , 774.0439    , 2.63        , 3           , 255         , 0           , 0
-9.798589   , 0.134722859 , -0.131436929, -0.000816714833, 0.003268766 , 0.0003122616, -2.35858    , -1.553286   , 3.14134932  , 923.6315    , 26.7744312  , 774.0446    , 2.64        , 3           , 255         , 0           , 0
-9.787402   , 0.128060251 , -0.148907572, -0.0001490881, 0.009237681 , 0.0001557793, -2.35858    , -1.5532248  , 3.14134717  , 923.6315    , 26.7744312  , 774.045349  , 2.65        , 3           , 255         , 0           , 0
-9.775744   , 0.120650649 , -0.164522842, 0.000413443544, 0.0036543   , -7.87936151E-05, -2.35858    , -1.55319762 , 3.14135122  , 923.6315    , 26.7744312  , 774.0461    , 2.66        , 3           , 255         , 0           , 0
-9.78675652 , 0.122825824 , -0.152023017, 0.0005393076, -0.0027565246, -0.000171824548, -2.35858    , -1.553218   , 3.14135671  , 923.6315    , 26.7744312  , 774.0468    , 2.67        , 3           , 255         , 0           , 0
-9.789214   , 0.120060585 , -0.14635545 , 0.000831529149, -0.00329706236, 0.00010324092, -2.35858    , -1.55323493 , 3.141365    , 923.6315    , 26.7744312  , 774.0476    , 2.68        , 3           , 255         , 0           , 0
-9.80032    , 0.122298084 , -0.119492315, 0.000618770136, 0.005000362 , 0.0005960569, -2.35858    , -1.55321121 , 3.141371    , 923.6315    , 26.7744312  , 774.0484    , 2.69        , 3           , 255         , 0           , 0
-9.796458   , 0.124159954 , -0.136778265, 6.92200847E-05, 0.0155821405, 0.000265946466, -2.35858    , -1.55308962 , 3.14137077  , 923.6315    , 26.7744312  , 774.0492    , 2.7         , 3           , 255         , 0           , 0
-9.775248   , 0.129665583 , -0.164338186, -0.0001401729, 0.014799701 , -0.0005091676, -2.35858    , -1.55293536 , 3.14136887  , 923.6315    , 26.7744312  , 774.1028    , 2.71        , 3           , 255         , 0           , 0
-9.769312   , 0.118677571 , -0.186635584, -0.0005529445, 0.00241643586, -0.0009910468, -2.35858    , -1.55292535 , 3.14136314  , 923.6315    , 26.7744312  , 774.1039    , 2.72        , 3           , 255         , 0           , 0
-9.780706   , 0.12749961  , -0.17081365 , 2.180331E-05, -0.009853023, -0.000567428651, -2.35858    , -1.5529989  , 3.141364    , 923.6946    , 26.77633    , 774.105     , 2.73        , 3           , 255         , 0           , 0
-9.806685   , 0.124766007 , -0.137754709, -5.64466463E-05, -0.0105141094, -6.484057E-05, -2.35858    , -1.55307615 , 3.141364    , 923.6946    , 26.77633    , 774.1061    , 2.74        , 3           , 255         , 0           , 0
-9.802983   , 0.128111318 , -0.135954723, 0.000395554584, -0.00312164077, 0.0004956295, -2.35858    , -1.55308282 , 3.14136815  , 923.6946    , 26.77633    , 774.1072    , 2.75        , 3           , 255         , 0           , 0
-9.800245   , 0.128608674 , -0.141404733, -0.000317196944, 0.00313017564, -0.0002599258, -2.35858    , -1.55306268 , 3.14136481  , 923.6946    , 26.77633    , 774.1083    , 2.76        , 3           , 255         , 0           , 0
-9.796523   , 0.1251138   , -0.139581829, 0.000319826882, 0.006383776 , -7.711508E-05, -2.35858    , -1.55302572 , 3.14136744  , 923.6946    , 26.77633    , 774.1094    , 2.77        , 3           , 255         , 0           , 0
-9.794331   , 0.12465246  , -0.14020142 , -0.000292599667, 0.0103701232, -0.000171091742, -2.35858    , -1.55294871 , 3.14136386  , 923.6946    , 26.77633    , 774.1105    , 2.78        , 3           , 255         , 0           , 0
-9.789397   , 0.121503189 , -0.160529122, -0.000298975268, 0.0100149475, -0.0002123561, -2.35858    , -1.55288208 , 3.14136028  , 923.6946    , 26.77633    , 774.1116    , 2.79        , 3           , 255         , 0           , 0
-9.792556   , 0.124197796 , -0.144145966, 0.0001986603, 0.009617327 , 5.14696E-05 , -2.35858    , -1.55282235 , 3.14136147  , 923.6946    , 26.77633    , 774.1127    , 2.8         , 3           , 255         , 0           , 0
-9.804323   , 0.1191026   , -0.1306931  , -2.0810985E-05, 0.01905598  , -0.000255307183, -2.35858    , -1.55264413 , 3.14136076  , 923.6946    , 26.77633    , 774.0702    , 2.81        , 3           , 255         , 0           , 0
-9.808218   , 0.122247279 , -0.1339842  , -0.000317341648, 0.0333837941, 0.0001767686, -2.35858    , -1.55238974 , 3.14135528  , 923.6946    , 26.77633    , 774.071045  , 2.82        , 3           , 255         , 0           , 0
-9.778722   , 0.121709466 , -0.165497944, 0.000153900241, 0.0354532935, 3.38253449E-05, -2.35858    , -1.55214524 , 3.14135456  , 923.668457  , 26.78047    , 774.0719    , 2.83        , 3           , 255         , 0           , 0
-9.778582   , 0.124252141 , -0.198622555, 0.000288153416, 0.0229656678, -9.67982342E-05, -2.35858    , -1.55197978 , 3.141356    , 923.668457  , 26.78047    , 774.072754  , 2.84        , 3           , 255         , 0           , 0
-9.764773   , 0.113360427 , -0.201615527, -0.000123039, 0.00411659153, -0.000135213078, -2.35858    , -1.55194187 , 3.14135456  , 923.668457  , 26.78047    , 774.0736    , 2.85        , 3           , 255         , 0           , 0
-9.762585   , 0.115895882 , -0.1954841  , -0.000204648357, -0.01512304 , -0.0006568262, -2.35858    , -1.552056   , 3.14135337  , 923.668457  , 26.78047    , 774.074463  , 2.86        , 3           , 255         , 0           , 0
-9.779764   , 0.116767839 , -0.167177856, 0.0003401687, -0.02744639 , -0.000706375344, -2.35858    , -1.55226064 , 3.14135838  , 923.668457  , 26.78047    , 774.0753    , 2.87        , 3           , 255         , 0           , 0
-9.798414   , 0.126432732 , -0.122554362, 5.085999E-05, -0.0249313787, -0.000107942033, -2.35858    , -1.5524416  , 3.14136052  , 923.668457  , 26.78047    , 774.0762    , 2.88        , 3           , 255         , 0           , 0
-9.821471   , 0.131106377 , -0.110167786, -2.46334821E-07, -0.0036663115, -0.000804373063, -2.35858    , -1.55246758 , 3.14136076  , 923.668457  , 26.78047    , 774.077     , 2.89        , 3           , 255         , 0           , 0
-9.798567   , 0.118964449 , -0.133160487, -4.398951E-05, 0.0155447265, 0.0003017759, -2.35858    , -1.55235744 , 3.14135933  , 923.668457  , 26.78047    , 774.0779    , 2.9         , 3           , 255         , 0           , 0
-9.789584   , 0.128882825 , -0.15207769 , -0.00107819622, 0.0207041334, 0.000382482627, -2.35858    , -1.55218685 , 3.14134741  , 923.668457  , 26.78047    , 774.076355  , 2.91        , 3           , 255         , 0           , 0
-9.776619   , 0.127524808 , -0.163410142, -0.000196593348, 0.0165864546, 7.727154E-05, -2.35858    , -1.55205917 , 3.14134455  , 923.668457  , 26.78047    , 774.0772    , 2.92        , 3           , 255         , 0           , 0
-9.778536   , 0.12900579  , -0.178898618, 3.2338663E-05, 0.00612460263, -0.0002743842, -2.35858    , -1.55202425 , 3.14134455  , 923.667358  , 26.7803345  , 774.078064  , 2.93        , 3           , 255         , 0           , 0
-9.78485    , 0.134630635 , -0.160792038, 0.000112784794, -0.0013636857, -0.000206591256, -2.35858    , -1.55203056 , 3.1413455   , 923.667358  , 26.7803345  , 774.0789    , 2.94        , 3           , 255         , 0           , 0
-9.803953   , 0.126772583 , -0.144911   , 0.000507005141, 0.00560486875, -0.0007660424, -2.35858    , -1.55199885 , 3.14135027  , 923.667358  , 26.7803345  , 774.0798    , 2.95        , 3           , 255         , 0           , 0
-9.800121   , 0.123538159 , -0.1518951  , -6.216287E-05, 0.0158983376, -0.000550001743, -2.35858    , -1.55187869 , 3.1413486   , 923.667358  , 26.7803345  , 774.0806    , 2.96        , 3           , 255         , 0           , 0
-9.78815651 , 0.121037684 , -0.177088678, 0.000665472238, 0.014580342 , -8.27836338E-05, -2.35858    , -1.55176878 , 3.141354    , 923.667358  , 26.7803345  , 774.0815    , 2.97        , 3           , 255         , 0           , 0
-9.771433   , 0.128096938 , -0.185477331, -0.000282407971, 0.00609333068, 0.00018269915, -2.35858    , -1.55173433 , 3.141351    , 923.667358  , 26.7803345  , 774.082336  , 2.98        , 3           , 255         , 0           , 0
-9.776775   , 0.127653211 , -0.188902289, -0.0005387644, -0.004602253, 0.000377750577, -2.35858    , -1.55175936 , 3.141346    , 923.667358  , 26.7803345  , 774.0832    , 2.99        , 3           , 255         , 0           , 0
-9.773369   , 0.12078321  , -0.173391551, 0.000143592013, -0.0146352528, 0.000629092567, -2.35858    , -1.551863   , 3.14134836  , 923.667358  , 26.7803345  , 774.084045  , 3           , 3           , 0           , 8.477237    , 300
-9.81694    , 0.123058759 , -0.143511146, 3.51780327E-05, -0.012847512, -0.000317405444, -2.35858    , -1.551863   , 3.14135027  , 923.667358  , 26.7803345  , 774.0832    , 3.01        , 3           , 1           , 0           , 0
-9.830752   , 0.128254816 , -0.128043711, -0.000189701328, 0.00335383229, -0.00018902481, -2.35858    , -1.5518378  , 3.14134812  , 923.667358  , 26.7803345  , 774.084045  , 3.02        , 3           , 2           , 0           , 0
-9.794359   , 0.124995507 , -0.144195512, -0.000241539325, 0.0180896278, -0.000206045588, -2.35858    , -1.55171549 , 3.14134455  , 923.705933  , 26.7792473  , 774.0849    , 3.03        , 3           , 3           , 0           , 0
-9.778705   , 0.1253157   , -0.1656206  , 0.0005031526, 0.0192832369, -0.000605298439, -2.35858    , -1.55157232 , 3.14134812  , 923.705933  , 26.7792473  , 774.085754  , 3.04        , 3           , 4           , 0           , 0
-9.777385   , 0.122675121 , -0.173247486, 2.73655169E-05, 0.0144576244, 0.000424990547, -2.35858    , -1.5514518  , 3.14134765  , 923.705933  , 26.7792473  , 774.0866    , 3.05        , 3           , 5           , 0           , 0
-9.787104   , 0.120412908 , -0.180009782, -4.314899E-05, 0.007887626 , 0.000430429762, -2.35858    , -1.55140257 , 3.14134645  , 923.705933  , 26.7792473  , 774.087463  , 3.06        , 3           , 6           , 0           , 0
-9.790081   , 0.121143542 , -0.166511163, 0.000212372164, 0.00282425736, 0.000341246137, -2.35858    , -1.55136883 , 3.1413486   , 923.705933  , 26.7792473  , 774.0883    , 3.07        , 3           , 7           , 0           , 0
-9.788856   , 0.124824807 , -0.166432276, 0.001462572 , 0.0021245894, -0.000481096184, -2.35858    , -1.55135655 , 3.14136314  , 923.705933  , 26.7792473  , 774.0892    , 3.08        , 3           , 8           , 5           , 5
-9.8014555  , 0.126312211 , -0.172083318, 0.000622605 , 0.00290025026, -0.0004309553, -2.35858    , -1.5513351  , 3.141369    , 923.705933  , 26.7792473  , 774.09      , 3.09        , 3           , 9           , 5           , 0.1
-9.786591   , 0.130103782 , -0.1742681  , 0.0004633104, 0.00195994764, 8.25809548E-06, -2.35858    , -1.55132282 , 3.14137363  , 923.705933  , 26.7792473  , 774.0909    , 3.1         , 3           , 10          , 0.1         , 0.1
-9.786886   , 0.124210455 , -0.173870832, 0.0001764103, -0.0009446201, 0.000194846012, -2.35858    , -1.55130148 , 3.14137554  , 923.705933  , 26.7792473  , 774.034668  , 3.11        , 3           , 11          , 0.006782748 , 0.00678274827
-9.788191   , 0.130697325 , -0.174374342, -0.0004897609, -0.00391927548, 0.000389408116, -2.35858    , -1.551332   , 3.14137077  , 923.705933  , 26.7792473  , 774.035156  , 3.12        , 3           , 12          , 0.174645633 , 0
-9.793298   , 0.121831462 , -0.159255177, -0.000472829677, -0.00328523712, 0.000717820367, -2.35858    , -1.55135655 , 3.14136648  , 923.6852    , 26.7840652  , 774.035645  , 3.13        , 3           , 13          , 0           , 0
-9.794956   , 0.123653457 , -0.160176277, -3.35144578E-05, 0.0007649525, -3.312691E-05, -2.35858    , -1.55134737 , 3.141366    , 923.6852    , 26.7840652  , 774.036133  , 3.14        , 3           , 14          , 0.00154668617, -9.257422E-06
-9.796152   , 0.119756877 , -0.163878918, 0.000231378363, 0.004984401 , -0.000524917268, -2.35858    , -1.55131984 , 3.141368    , 923.6852    , 26.7840652  , 774.0366    , 3.15        , 3           , 15          , 0           , 0.0002893187
-9.795659   , 0.117255725 , -0.16749002 , 0.000111329951, 0.0073454245, -0.000133505571, -2.35858    , -1.55126786 , 3.14136863  , 923.6852    , 26.7840652  , 774.0371    , 3.16        , 3           , 16          , 0           , 4.203895E-45
-9.775675   , 0.120968141 , -0.1739428  , -4.358939E-05, 0.00478806  , -0.0001622881, -2.35858    , -1.55123127 , 3.141368    , 923.6852    , 26.7840652  , 774.0376    , 3.17        , 3           , 20          , 0           , 0
-9.776225   , 0.12863192  , -0.176898465, -6.317522E-05, -0.00393750239, 3.054188E-05, -2.35858    , -1.55125868 , 3.14136744  , 923.6852    , 26.7840652  , 774.0381    , 3.18        , 3           , 21          , 0           , 0
-9.777962   , 0.132207543 , -0.172130018, -0.000414620852, -0.0108748013, -0.000142018718, -2.35858    , -1.55134428 , 3.141364    , 923.6852    , 26.7840652  , 774.0386    , 3.19        , 3           , 22          , 0           , 0
-9.794928   , 0.127079681 , -0.163049266, -0.000157536124, -0.0128309093, -0.0001262762, -2.35858    , -1.55143332 , 3.14136314  , 923.6852    , 26.7840652  , 774.039063  , 3.2         , 3           , 40          , 0           , 0
-9.796614   , 0.125404328 , -0.1538696  , -0.0001161003, -0.009821613, 0.00040191217, -2.35858    , -1.55147338 , 3.14136314  , 923.6852    , 26.7840652  , 774.019043  , 3.21        , 3           , 41          , 0           , 0
-9.79267    , 0.123510145 , -0.152972966, 0.000220142771, -0.00303324126, 0.000334865268, -2.35858    , -1.55149508 , 3.14136553  , 923.6852    , 26.7840652  , 774.0194    , 3.22        , 3           , 42          , 0           , 0
-9.794077   , 0.123257175 , -0.165734947, -1.87035184E-05, 0.00070830615, 0.000239698478, -2.35858    , -1.55148578 , 3.14136529  , 923.68335   , 26.7873211  , 774.0198    , 3.23        , 3           , 255         , 0           , 0
-9.781123   , 0.12752533  , -0.165609941, -0.00049673894, -0.00260842824, -1.24369981E-05, -2.35858    , -1.55150425 , 3.14136052  , 923.68335   , 26.7873211  , 774.020142  , 3.24        , 3           , 255         , 0           , 0
-9.789068   , 0.121605434 , -0.147281662, -0.0003268026, -0.00204405235, -0.000267497177, -2.35858    , -1.55151665 , 3.14135742  , 923.68335   , 26.7873211  , 774.0205    , 3.25        , 3           , 255         , 0           , 0
-9.799898   , 0.127255127 , -0.151553527, -0.0004350103, 0.00452715252, -0.000124583981, -2.35858    , -1.55148578 , 3.14135265  , 923.68335   , 26.7873211  , 774.0209    , 3.26        , 3           , 255         , 0           , 0
-9.79474449 , 0.127026588 , -0.164220423, -0.000411884743, 0.00704240659, -0.0004435308, -2.35858    , -1.55143952 , 3.141348    , 923.68335   , 26.7873211  , 774.02124   , 3.27        , 3           , 255         , 0           , 0
-9.790522   , 0.1293307   , -0.1620523  , -0.000178227783, 0.007080935 , -0.0002194763, -2.35858    , -1.55138421 , 3.141346    , 923.68335   , 26.7873211  , 774.0216    , 3.28        , 3           , 255         , 0           , 0
-9.78842    , 0.133699238 , -0.161379591, -0.000345042325, 0.00678732526, 0.00040061734, -2.35858    , -1.551329   , 3.141342    , 923.68335   , 26.7873211  , 774.022     , 3.29        , 3           , 255         , 0           , 0
-9.780909   , 0.123482585 , -0.16989246 , -0.00010766217, 0.002825256 , -0.0003693066, -2.35858    , -1.55130756 , 3.14134073  , 923.68335   , 26.7873211  , 774.022339  , 3.3         , 3           , 255         , 0           , 0
-9.788511   , 0.122155905 , -0.1698947  , 0.000552408048, -0.00357213547, -0.0009840749, -2.35858    , -1.55131984 , 3.14134645  , 923.68335   , 26.7873211  , 774.007568  , 3.31        , 3           , 255         , 0           , 0
-9.785072   , 0.126544923 , -0.1695412  , 0.0003098132, -0.00772865 , -0.000250995829, -2.35858    , -1.551378   , 3.14135     , 923.68335   , 26.7873211  , 774.0079    , 3.32        , 3           , 255         , 0           , 0
-9.788045   , 0.129144177 , -0.160683915, -6.91349851E-05, -0.009756437, 0.000410712557, -2.35858    , -1.5514611  , 3.14134979  , 923.656738  , 26.78576    , 774.0082    , 3.33        , 3           , 255         , 0           , 0
-9.793133   , 0.124512076 , -0.152337983, -0.00039667997, -0.008718561, 0.00020342099, -2.35858    , -1.55151665 , 3.14134645  , 923.656738  , 26.78576    , 774.0085    , 3.34        , 3           , 255         , 0           , 0
-9.798123   , 0.132338852 , -0.1464563  , -2.55816849E-05, -0.00663496647, 0.000169519248, -2.35858    , -1.55155993 , 3.14134669  , 923.656738  , 26.78576    , 774.0088    , 3.35        , 3           , 255         , 0           , 0
-9.79337    , 0.133409753 , -0.141021833, 0.0003256792, -0.00219390332, -2.11976585E-05, -2.35858    , -1.55157852 , 3.14135027  , 923.656738  , 26.78576    , 774.0091    , 3.36        , 3           , 255         , 0           , 0
-9.791754   , 0.124267973 , -0.15057677 , 0.000428774278, 0.00287000835, 0.000239169633, -2.35858    , -1.55155373 , 3.14135432  , 923.656738  , 26.78576    , 774.0094    , 3.37        , 3           , 255         , 0           , 0
-9.798053   , 0.121062733 , -0.15818572 , 0.000398977543, 0.00382540631, 0.0007336091, -2.35858    , -1.55152285 , 3.14135814  , 923.656738  , 26.78576    , 774.0097    , 3.38        , 3           , 255         , 0           , 0
-9.795454   , 0.124263942 , -0.15902175 , -2.61050882E-05, 0.002438666 , -0.000476261921, -2.35858    , -1.55151045 , 3.14135766  , 923.656738  , 26.78576    , 774.01      , 3.39        , 3           , 255         , 0           , 0
-9.799227   , 0.12972112  , -0.157124326, -0.000155914808, 0.00304476358, -0.0008334375, -2.35858    , -1.55149508 , 3.14135575  , 923.656738  , 26.78576    , 774.0103    , 3.4         , 3           , 255         , 0           , 0
-9.792727   , 0.12443801  , -0.161034957, -0.000366687542, 0.00543202041, -0.000555489445, -2.35858    , -1.55144262 , 3.1413517   , 923.656738  , 26.78576    , 774.0348    , 3.41        , 3           , 255         , 0           , 0
-9.778366   , 0.126947209 , -0.163518429, 0.000237881672, 0.00323067629, -0.0004103217, -2.35858    , -1.55141187 , 3.14135385  , 923.656738  , 26.78576    , 774.0353    , 3.42        , 3           , 255         , 0           , 0
-9.780599   , 0.120315515 , -0.1576179  , -0.000474114437, 0.00205132063, -0.000316772377, -2.35858    , -1.55139947 , 3.141349    , 923.6979    , 26.78766    , 774.035767  , 3.43        , 3           , 255         , 0           , 0
-9.791513   , 0.110052846 , -0.161197871, -0.000170789775, 0.00254477817, -0.0003143752, -2.35858    , -1.55138421 , 3.14134717  , 923.6979    , 26.78766    , 774.036255  , 3.44        , 3           , 255         , 0           , 0
-9.798567   , 0.126946181 , -0.154288858, 0.0006998811, 0.00146785716, -0.000360102626, -2.35858    , -1.55137491 , 3.141354    , 923.6979    , 26.78766    , 774.036743  , 3.45        , 3           , 255         , 0           , 0
-9.790681   , 0.131704986 , -0.151084319, 0.0004995138, 0.0034434516, -0.00116995431, -2.35858    , -1.55135345 , 3.14135861  , 923.6979    , 26.78766    , 774.037231  , 3.46        , 3           , 255         , 0           , 0
-9.798762   , 0.128734559 , -0.164987192, -2.95633217E-05, 0.0056919083, -0.000236508669, -2.35858    , -1.55131984 , 3.141358    , 923.6979    , 26.78766    , 774.0377    , 3.47        , 3           , 255         , 0           , 0
-9.787698   , 0.118185207 , -0.172840729, 0.000108697917, 0.004228627 , 3.272874E-05, -2.35858    , -1.55127692 , 3.14135885  , 923.6979    , 26.78766    , 774.0382    , 3.48        , 3           , 255         , 0           , 0
-9.787417   , 0.1259155   , -0.163014784, 0.0005008386, 0.00150661846, -0.000111562113, -2.35858    , -1.55127084 , 3.14136362  , 923.6979    , 26.78766    , 774.0387    , 3.49        , 3           , 255         , 0           , 0
-9.788983   , 0.122239433 , -0.1656755  , 0.000202293159, -0.002114386, -0.000971979, -2.35858    , -1.5512923  , 3.14136577  , 923.6979    , 26.78766    , 774.0392    , 3.5         , 3           , 255         , 0           , 0
-9.791346   , 0.116811432 , -0.175212771, -0.000154091278, -0.00715611968, -0.000375924574, -2.35858    , -1.551332   , 3.14136481  , 923.6979    , 26.78766    , 774.001038  , 3.51        , 3           , 255         , 0           , 0
-9.789072   , 0.118038908 , -0.1570811  , 0.00035425392, -0.009094729, 0.000322940119, -2.35858    , -1.55139649 , 3.141369    , 923.6979    , 26.78766    , 774.0013    , 3.52        , 3           , 255         , 0           , 0
-9.799063   , 0.11924921  , -0.14492029 , 9.365042E-05, -0.004422449, 0.000644886459, -2.35858    , -1.551418   , 3.1413703   , 923.6737    , 26.7899     , 774.0015    , 3.53        , 3           , 255         , 0           , 0
-9.797348   , 0.125358492 , -0.150114536, -1.05376821E-05, 0.001986028 , 0.000717396033, -2.35858    , -1.55139947 , 3.14136982  , 923.6737    , 26.7899     , 774.0018    , 3.54        , 3           , 255         , 0           , 0
-9.790454   , 0.125961453 , -0.150966719, -0.0005316071, 0.003985894 , 0.000343011227, -2.35858    , -1.55136573 , 3.14136457  , 923.6737    , 26.7899     , 774.002     , 3.55        , 3           , 255         , 0           , 0
-9.792106   , 0.130135924 , -0.156806856, 0.000191103434, 0.00163456949, -0.000199553717, -2.35858    , -1.55135965 , 3.14136624  , 923.6737    , 26.7899     , 774.002258  , 3.56        , 3           , 255         , 0           , 0
-9.793608   , 0.122215547 , -0.1564479  , 0.00013841386, -7.58658061E-05, 0.000440964126, -2.35858    , -1.55135655 , 3.14136744  , 923.6737    , 26.7899     , 774.0025    , 3.57        , 3           , 255         , 0           , 0
-9.792744   , 0.121091411 , -0.160633057, -0.000132392859, -0.000411788584, 9.198516E-05, -2.35858    , -1.55135965 , 3.14136648  , 923.6737    , 26.7899     , 774.002747  , 3.58        , 3           , 255         , 0           , 0
-9.802582   , 0.11954812  , -0.155892074, 0.000120818382, 0.0004358404, -0.0001459613, -2.35858    , -1.55135655 , 3.14136744  , 923.6737    , 26.7899     , 774.003     , 3.59        , 3           , 255         , 0           , 0
-9.801896   , 0.12363936  , -0.147802681, 3.90028581E-05, 0.00366561185, -0.000248731551, -2.35858    , -1.551332   , 3.14136744  , 923.6737    , 26.7899     , 774.003235  , 3.6         , 3           , 255         , 0           , 0
-9.790312   , 0.117047772 , -0.1547946  , -0.0004042841, 0.005084162 , 0.000299799634, -2.35858    , -1.5512861  , 3.14136314  , 923.6737    , 26.7899     , 774.0044    , 3.61        , 3           , 255         , 0           , 0
-9.804006   , 0.116025165 , -0.160578161, -0.000985425, 0.00366697926, 7.387003E-05, -2.35858    , -1.5512464  , 3.14135313  , 923.6737    , 26.7899     , 774.004639  , 3.62        , 3           , 255         , 0           , 0
-9.779469   , 0.124126479 , -0.166141391, -0.0004913012, 0.00113896991, 0.000129306311, -2.35858    , -1.55123734 , 3.14134812  , 923.657     , 26.7913246  , 774.0049    , 3.63        , 3           , 255         , 0           , 0
-9.792921   , 0.120988771 , -0.164887816, -0.000226982287, -0.000130292217, 0.0005982446, -2.35858    , -1.55123734 , 3.141346    , 923.657     , 26.7913246  , 774.0051    , 3.64        , 3           , 255         , 0           , 0
-9.79765    , 0.120513082 , -0.153022423, -0.000375911361, 0.00135747867, -0.000173399239, -2.35858    , -1.55122817 , 3.14134216  , 923.657     , 26.7913246  , 774.0054    , 3.65        , 3           , 255         , 0           , 0
-9.794112   , 0.118318573 , -0.150917634, -0.000299492385, 0.00364835421, 0.0005749515, -2.35858    , -1.55119467 , 3.14133883  , 923.657     , 26.7913246  , 774.0056    , 3.66        , 3           , 255         , 0           , 0
-9.794283   , 0.125692114 , -0.165822282, -0.0004927252, 0.00282124733, -8.544917E-05, -2.35858    , -1.55117643 , 3.14133358  , 923.657     , 26.7913246  , 774.005859  , 3.67        , 3           , 255         , 0           , 0
-9.785288   , 0.123824738 , -0.166610539, -9.932625E-05, -0.00112455373, 0.00118583953, -2.35858    , -1.55117345 , 3.141333    , 923.657     , 26.7913246  , 774.0061    , 3.68        , 3           , 255         , 0           , 0
-9.784182   , 0.122644439 , -0.170499146, 0.000115363742, -0.00560329 , -7.694907E-05, -2.35858    , -1.55122817 , 3.14133453  , 923.657     , 26.7913246  , 774.0064    , 3.69        , 3           , 255         , 0           , 0
-9.789049   , 0.122289918 , -0.1544896  , 0.000410450622, -0.007837698, 4.862342E-05, -2.35858    , -1.5512892  , 3.14133883  , 923.657     , 26.7913246  , 774.0067    , 3.7         , 3           , 255         , 0           , 0
-9.795641   , 0.128524482 , -0.143516079, 0.000241861911, -0.004550414, 9.201613E-06, -2.35858    , -1.55129528 , 3.141342    , 923.657     , 26.7913246  , 774.03125   , 3.71        , 3           , 255         , 0           , 0
-9.802127   , 0.121289358 , -0.144146547, 0.0005082844, 0.0006608508, 0.000101440412, -2.35858    , -1.55129838 , 3.141347    , 923.657     , 26.7913246  , 774.0317    , 3.72        , 3           , 255         , 0           , 0
-9.79638    , 0.1235158   , -0.157237217, 2.57898355E-05, 0.002650402 , -0.000581016066, -2.35858    , -1.55127692 , 3.141347    , 923.698059  , 26.7907143  , 774.0321    , 3.73        , 3           , 255         , 0           , 0
-9.793229   , 0.127839968 , -0.152739614, -0.000496815657, 0.00320297433, 1.48758409E-06, -2.35858    , -1.5512526  , 3.141342    , 923.698059  , 26.7907143  , 774.032532  , 3.74        , 3           , 255         , 0           , 0
-9.792028   , 0.119316973 , -0.165005013, -0.000198248425, 0.00285050925, 3.660182E-05, -2.35858    , -1.55123425 , 3.14133978  , 923.698059  , 26.7907143  , 774.032959  , 3.75        , 3           , 255         , 0           , 0
-9.775334   , 0.115986086 , -0.1647565  , 0.000101568177, -0.00163127936, 0.0004057603, -2.35858    , -1.5512464  , 3.14134073  , 923.698059  , 26.7907143  , 774.0334    , 3.76        , 3           , 255         , 0           , 0
-9.781363   , 0.118607566 , -0.158938751, -0.000177602982, -0.00502459845, 6.02363725E-05, -2.35858    , -1.5512892  , 3.1413393   , 923.698059  , 26.7907143  , 774.0338    , 3.77        , 3           , 255         , 0           , 0
-9.790853   , 0.115896843 , -0.155724674, 6.45942055E-05, -0.005612055, 0.0002802745, -2.35858    , -1.55131984 , 3.14134026  , 923.698059  , 26.7907143  , 774.034241  , 3.78        , 3           , 255         , 0           , 0
-9.7812     , 0.115527689 , -0.161509678, 0.000150106847, -0.008039735, 0.000386600848, -2.35858    , -1.55138111 , 3.14134216  , 923.698059  , 26.7907143  , 774.034668  , 3.79        , 3           , 255         , 0           , 0
-9.779859   , 0.116417371 , -0.159746021, 3.42959538E-06, -0.0104417251, 0.000164686731, -2.35858    , -1.551458   , 3.14134288  , 923.698059  , 26.7907143  , 774.0351    , 3.8         , 3           , 255         , 0           , 0
-9.787626   , 0.123602487 , -0.150514171, -8.338585E-05, -0.00908481 , 0.0007180063, -2.35858    , -1.55150735 , 3.14134288  , 923.698059  , 26.7907143  , 773.9975    , 3.81        , 3           , 255         , 0           , 0
-9.799334   , 0.125818059 , -0.1485664  , -0.000128772575, -0.006597637, 3.25148E-07 , -2.35858    , -1.55156612 , 3.141342    , 923.698059  , 26.7907143  , 773.9977    , 3.82        , 3           , 255         , 0           , 0
-9.797149   , 0.122427262 , -0.152648091, -0.0008227247, -0.00511943549, -0.000114277806, -2.35858    , -1.55160654 , 3.141334    , 923.699     , 26.7915955  , 773.997864  , 3.83        , 3           , 255         , 0           , 0
-9.788942   , 0.115275405 , -0.142371178, -0.00012357987, -0.00299647031, -0.0006854973, -2.35858    , -1.551622   , 3.14133263  , 923.699     , 26.7915955  , 773.998047  , 3.84        , 3           , 255         , 0           , 0
-9.797187   , 0.119139686 , -0.153788239, -0.0003104444, -0.00081509765, -0.0002824418, -2.35858    , -1.55163133 , 3.14132977  , 923.699     , 26.7915955  , 773.9982    , 3.85        , 3           , 255         , 0           , 0
-9.779451   , 0.12227533  , -0.152209684, -8.574093E-05, -0.0007178551, -0.000338243874, -2.35858    , -1.55163765 , 3.14132881  , 923.699     , 26.7915955  , 773.9984    , 3.86        , 3           , 255         , 0           , 0
-9.78366852 , 0.128125012 , -0.142785117, -0.000105024315, 0.0009312307, -0.0004230046, -2.35858    , -1.55163455 , 3.14132762  , 923.699     , 26.7915955  , 773.998657  , 3.87        , 3           , 255         , 0           , 0
-9.79674    , 0.12298964  , -0.137225926, -8.754141E-05, 0.00715704774, 0.000362477236, -2.35858    , -1.55158794 , 3.14132643  , 923.699     , 26.7915955  , 773.9989    , 3.88        , 3           , 255         , 0           , 0
-9.796072   , 0.127375543 , -0.145338312, -8.238922E-05, 0.0126981186, 6.760235E-05, -2.35858    , -1.55148888 , 3.14132476  , 923.699     , 26.7915955  , 773.999146  , 3.89        , 3           , 255         , 0           , 0
-9.788378   , 0.130627945 , -0.159305036, -5.004392E-05, 0.0116255106, -0.000137650219, -2.35858    , -1.55140567 , 3.14132357  , 923.699     , 26.7915955  , 773.9994    , 3.9         , 3           , 255         , 0           , 0
-9.78713    , 0.12393713  , -0.16781342 , -0.000244088122, 0.00647562137, -0.0003903797, -2.35858    , -1.55134737 , 3.14132071  , 923.699     , 26.7915955  , 773.965637  , 3.91        , 3           , 255         , 0           , 0
-9.78438    , 0.132750154 , -0.159106269, 0.000360806356, 0.00315616559, 0.00011814406, -2.35858    , -1.55131984 , 3.141324    , 923.699     , 26.7915955  , 773.965637  , 3.92        , 3           , 255         , 0           , 0
-9.77526951 , 0.132458508 , -0.15786621 , -6.06139656E-06, -0.000427498366, 0.000119236822, -2.35858    , -1.55132282 , 3.1413238   , 923.667969  , 26.7953262  , 773.965637  , 3.93        , 3           , 255         , 0           , 0
-9.783528   , 0.120716073 , -0.15495266 , 1.95129542E-05, -0.00264464179, -0.0006847993, -2.35858    , -1.55134428 , 3.141324    , 923.667969  , 26.7953262  , 773.965637  , 3.94        , 3           , 255         , 0           , 0
-9.799742   , 0.122043177 , -0.1567116  , 4.80092131E-05, -0.00237322971, -0.0007379056, -2.35858    , -1.55136883 , 3.14132476  , 923.667969  , 26.7953262  , 773.965637  , 3.95        , 3           , 255         , 0           , 0
-9.778357   , 0.12304008  , -0.152991265, 5.65742375E-05, -0.00267645181, -0.000430133, -2.35858    , -1.55139339 , 3.14132547  , 923.667969  , 26.7953262  , 773.965637  , 3.96        , 3           , 255         , 0           , 0
-9.790088   , 0.124517582 , -0.1536091  , -0.000174597488, -0.00139325613, -0.000556525658, -2.35858    , -1.55140877 , 3.14132357  , 923.667969  , 26.7953262  , 773.965637  , 3.97        , 3           , 255         , 0           , 0
-9.800291   , 0.132086664 , -0.1511709  , 0.000366130378, -0.00012670111, 0.000381408783, -2.35858    , -1.55140567 , 3.14132738  , 923.667969  , 26.7953262  , 773.965637  , 3.98        , 3           , 255         , 0           , 0
-9.791084   , 0.120122656 , -0.158874065, 0.000732895 , -0.000388356624, 0.000468637329, -2.35858    , -1.55140567 , 3.141335    , 923.667969  , 26.7953262  , 773.965637  , 3.99        , 3           , 255         , 0           , 0
-9.796306   , 0.116028927 , -0.1590181  , 0.000217574765, -0.00360055431, -0.000346128, -2.35858    , -1.55143332 , 3.14133716  , 923.667969  , 26.7953262  , 773.965637  , 4           , 3           , 0           , 9.477237    , 400
-9.788343   , 0.119507886 , -0.148291171, 0.000307380338, -0.00562941935, -8.43008456E-05, -2.35858    , -1.5514642  , 3.14134073  , 923.667969  , 26.7953262  , 773.9805    , 4.01        , 3           , 1           , 0           , 0
-9.784168   , 0.12446     , -0.150186628, -0.000639732054, -0.004549974, 0.0001535867, -2.35858    , -1.55148578 , 3.14133453  , 923.667969  , 26.7953262  , 773.980652  , 4.02        , 3           , 2           , 0           , 0
-9.787511   , 0.12560305  , -0.155973062, -7.414853E-05, -0.00576898735, -0.0005237697, -2.35858    , -1.55154145 , 3.141334    , 923.6657    , 26.79458    , 773.9808    , 4.03        , 3           , 3           , 0           , 0
-9.789753   , 0.131113321 , -0.15214698 , -0.000155088608, -0.009449529, -8.855955E-05, -2.35858    , -1.55161273 , 3.141333    , 923.6657    , 26.79458    , 773.9809    , 4.04        , 3           , 4           , 0           , 0
-9.798208   , 0.125219345 , -0.137496322, 0.000101637212, -0.00829116348, -0.0002647778, -2.35858    , -1.55167806 , 3.14133453  , 923.6657    , 26.79458    , 773.981     , 4.05        , 3           , 5           , 0           , 0
-9.796659   , 0.1197715   , -0.136006445, 0.00018489256, -0.00215312 , -0.000431609253, -2.35858    , -1.55169678 , 3.14133644  , 923.6657    , 26.79458    , 773.98114   , 4.06        , 3           , 6           , 0           , 0
-9.792007   , 0.1298547   , -0.146885574, 0.0005225536, 0.00148123223, -0.000126951127, -2.35858    , -1.55168438 , 3.14134169  , 923.6657    , 26.79458    , 773.981262  , 4.07        , 3           , 7           , 0           , 0
-9.790077   , 0.125583291 , -0.156524092, -9.2721195E-05, 0.00127828948, 0.0003396974, -2.35858    , -1.55166566 , 3.14134073  , 923.6657    , 26.79458    , 773.9814    , 4.08        , 3           , 8           , 5           , 5
-9.788584   , 0.1133342   , -0.155884311, 0.000221588532, -0.00197531423, -4.44335165E-05, -2.35858    , -1.55168116 , 3.141343    , 923.6657    , 26.79458    , 773.9815    , 4.09        , 3           , 9           , 5           , 0.1
-9.788092   , 0.1212616   , -0.151242524, -5.674397E-05, -0.00521225343, -0.0002569059, -2.35858    , -1.551728   , 3.14134264  , 923.6657    , 26.79458    , 773.9816    , 4.1         , 3           , 10          , 0.1         , 0.1
-9.786056   , 0.129987746 , -0.145692468, 0.00070936163, -0.007305049, -6.61608647E-05, -2.35858    , -1.55177188 , 3.14135027  , 923.6657    , 26.79458    , 773.9972    , 4.11        , 3           , 11          , 0.006283076 , 0.006283078
-9.786434   , 0.121835783 , -0.149573177, 0.00102839223, -0.006892691, 9.42648039E-05, -2.35858    , -1.55182207 , 3.14136124  , 923.6657    , 26.79458    , 773.997437  , 4.12        , 3           , 12          , 0.174648076 , 0
-9.796951   , 0.12106172  , -0.148489341, 0.000335578923, -0.0074354657, -0.00022454717, -2.35858    , -1.55187869 , 3.141365    , 923.7038    , 26.79492    , 773.9977    , 4.13        , 3           , 13          , 0           , 0
-9.794452   , 0.121820129 , -0.136936784, -0.000340071972, -0.0104042944, 0.000405710016, -2.35858    , -1.55196083 , 3.14136219  , 923.7038    , 26.79492    , 773.9979    , 4.14        , 3           , 14          , 0.00154666346, -1.09526291E-05
-9.788866   , 0.116169073 , -0.13428688 , -0.000530965859, -0.0122665586, 0.000460669049, -2.35858    , -1.5520432  , 3.141358    , 923.7038    , 26.79492    , 773.998169  , 4.15        , 3           , 15          , 0           , 0.0002894054
-9.793566   , 0.116679691 , -0.140442848, 9.846885E-05, -0.0112366574, 0.00066281663, -2.35858    , -1.552126   , 3.14135933  , 923.7038    , 26.79492    , 773.9984    , 4.16        , 3           , 16          , 0           , 4.203895E-45
-9.79087448 , 0.130862385 , -0.139528319, 0.000164147816, -0.008120505, 0.000813940831, -2.35858    , -1.55217719 , 3.14136171  , 923.7038    , 26.79492    , 773.998657  , 4.17        , 3           , 20          , 0           , 0
-9.79603    , 0.128506333 , -0.1351538  , -5.307328E-05, -0.00393309956, 0.000303917273, -2.35858    , -1.5521965  , 3.14136147  , 923.7038    , 26.79492    , 773.9989    , 4.18        , 3           , 21          , 0           , 0
-9.798331   , 0.120124713 , -0.1280118  , -9.895023E-05, 0.00156172412, 2.19452777E-05, -2.35858    , -1.5521965  , 3.14136028  , 923.7038    , 26.79492    , 773.999146  , 4.19        , 3           , 22          , 0           , 0
-9.790319   , 0.12505503  , -0.126739591, -0.000117548625, 0.00598025834, -0.000144958278, -2.35858    , -1.55214524 , 3.14135885  , 923.7038    , 26.79492    , 773.9994    , 4.2         , 3           , 40          , 0           , 0
-9.792371   , 0.130348548 , -0.143278971, -0.000537537737, 0.0103769731, 0.0002507209, -2.35858    , -1.55206871 , 3.14135265  , 923.7038    , 26.79492    , 773.9587    , 4.21        , 3           , 41          , 0           , 0
-9.798279   , 0.127161577 , -0.150572985, -0.000245523057, 0.0120951552, 0.000449097919, -2.35858    , -1.55197346 , 3.14134932  , 923.7038    , 26.79492    , 773.9587    , 4.22        , 3           , 42          , 0           , 0
-9.78733    , 0.122135356 , -0.150982469, 0.00023933372, 0.009272544 , 0.000259535125, -2.35858    , -1.551904   , 3.14135122  , 923.6706    , 26.7974968  , 773.9587    , 4.23        , 3           , 255         , 0           , 0
-9.784249   , 0.118072882 , -0.153488442, -0.000117798685, 0.00330645475, 0.000130494591, -2.35858    , -1.55187869 , 3.14134979  , 923.6706    , 26.7974968  , 773.9587    , 4.24        , 3           , 255         , 0           , 0
-9.781797   , 0.130433172 , -0.152279824, 0.000144573976, -0.00212127948, 0.000121242163, -2.35858    , -1.55189764 , 3.14135122  , 923.6706    , 26.7974968  , 773.9587    , 4.25        , 3           , 255         , 0           , 0
-9.784243   , 0.12293601  , -0.150301069, 3.33902426E-06, -0.005213099, 0.000285854068, -2.35858    , -1.5519197  , 3.1413517   , 923.6706    , 26.7974968  , 773.9587    , 4.26        , 3           , 255         , 0           , 0
-9.779968   , 0.119577207 , -0.151043385, -0.000351292547, -0.008315158, 0.0008184443, -2.35858    , -1.5519861  , 3.1413486   , 923.6706    , 26.7974968  , 773.9587    , 4.27        , 3           , 255         , 0           , 0
-9.785797   , 0.121943    , -0.14727056 , 6.117148E-05, -0.010378059, 0.000487261481, -2.35858    , -1.55205917 , 3.14134979  , 923.6706    , 26.7974968  , 773.9587    , 4.28        , 3           , 255         , 0           , 0
-9.786552   , 0.129594922 , -0.13599287 , 8.315779E-05, -0.009841893, 0.000235269981, -2.35858    , -1.552126   , 3.14135146  , 923.6706    , 26.7974968  , 773.9587    , 4.29        , 3           , 255         , 0           , 0
-9.789335   , 0.123748422 , -0.149952173, 0.00047325145, -0.0108494572, -0.000131363, -2.35858    , -1.55220282 , 3.141357    , 923.6706    , 26.7974968  , 773.9587    , 4.3         , 3           , 255         , 0           , 0
-9.789774   , 0.115863718 , -0.1484252  , -0.000297453022, -0.0142599335, 0.0004336566, -2.35858    , -1.55228961 , 3.141355    , 923.6706    , 26.7974968  , 773.9708    , 4.31        , 3           , 255         , 0           , 0
-9.788361   , 0.12634638  , -0.138782188, -5.70378033E-05, -0.015890833, -4.16373659E-05, -2.35858    , -1.552406   , 3.14135551  , 923.6706    , 26.7974968  , 773.9709    , 4.32        , 3           , 255         , 0           , 0
-9.794252   , 0.125452965 , -0.123272896, -4.774006E-05, -0.0115312245, -0.000102040445, -2.35858    , -1.55249369 , 3.14135575  , 923.6741    , 26.799736   , 773.970947  , 4.33        , 3           , 255         , 0           , 0
-9.798142   , 0.114159688 , -0.119904839, 8.382322E-05, -0.00548635237, 0.00047704493, -2.35858    , -1.55251968 , 3.141357    , 923.6741    , 26.799736   , 773.971     , 4.34        , 3           , 255         , 0           , 0
-9.790594   , 0.118435182 , -0.125563458, 0.0007214714, -0.000955612748, -0.000228066, -2.35858    , -1.55253279 , 3.141364    , 923.6741    , 26.799736   , 773.971069  , 4.35        , 3           , 255         , 0           , 0
-9.79235    , 0.128476217 , -0.128139555, 0.000679933466, 0.0016631824, 0.000382473547, -2.35858    , -1.55252957 , 3.14137077  , 923.6741    , 26.799736   , 773.9711    , 4.36        , 3           , 255         , 0           , 0
-9.790531   , 0.118655249 , -0.11539948 , -0.000374253956, 0.006225425 , -0.00013570179, -2.35858    , -1.55247414 , 3.14136672  , 923.6741    , 26.799736   , 773.9712    , 4.37        , 3           , 255         , 0           , 0
-9.785903   , 0.126533359 , -0.129497558, -0.000543809263, 0.007140288 , -0.000120739627, -2.35858    , -1.5524286  , 3.14136076  , 923.6741    , 26.799736   , 773.971252  , 4.38        , 3           , 255         , 0           , 0
-9.788802   , 0.117534563 , -0.138316244, -0.0004026827, 0.00580540765, -8.681195E-05, -2.35858    , -1.55238974 , 3.14135647  , 923.6741    , 26.799736   , 773.9713    , 4.39        , 3           , 255         , 0           , 0
-9.785881   , 0.117999353 , -0.137096256, 0.000154130044, 0.00369638135, 5.07629E-07 , -2.35858    , -1.55235088 , 3.14135766  , 923.6741    , 26.799736   , 773.9714    , 4.4         , 3           , 255         , 0           , 0
-9.795286   , 0.122058809 , -0.135912254, -6.43880339E-05, 0.00146925321, 0.000202140538, -2.35858    , -1.55234444 , 3.14135718  , 923.6741    , 26.799736   , 773.976746  , 4.41        , 3           , 255         , 0           , 0
-9.791262   , 0.119432867 , -0.140498668, -0.000171145075, 0.000224561882, 0.0009221401, -2.35858    , -1.552338   , 3.14135551  , 923.6741    , 26.799736   , 773.976868  , 4.42        , 3           , 255         , 0           , 0
-9.796347   , 0.126019582 , -0.128413349, -0.000415746239, 0.00092548714, 0.000235477753, -2.35858    , -1.55232835 , 3.14135122  , 923.658     , 26.803196   , 773.977     , 4.43        , 3           , 255         , 0           , 0
-9.797483   , 0.125426874 , -0.129879609, -0.000174077228, 0.00213692454, 0.000388420245, -2.35858    , -1.55231214 , 3.14134932  , 923.658     , 26.803196   , 773.9771    , 4.44        , 3           , 255         , 0           , 0
-9.791086   , 0.131537154 , -0.14225778 , -0.000109744607, -0.0009760603, 0.000334363373, -2.35858    , -1.55231535 , 3.14134836  , 923.658     , 26.803196   , 773.977234  , 4.45        , 3           , 255         , 0           , 0
-9.793661   , 0.126216531 , -0.1324517  , 0.0004930274, -0.003903988, -0.0003894717, -2.35858    , -1.55234766 , 3.14135361  , 923.658     , 26.803196   , 773.977356  , 4.46        , 3           , 255         , 0           , 0
-9.791247   , 0.12436609  , -0.126571491, 0.000297977356, -0.00224081 , -0.000315332436, -2.35858    , -1.55236387 , 3.14135671  , 923.658     , 26.803196   , 773.9775    , 4.47        , 3           , 255         , 0           , 0
-9.79456    , 0.13101539  , -0.13440907 , -0.000174056157, -0.0010248496, 0.0002014665, -2.35858    , -1.55236387 , 3.141355    , 923.658     , 26.803196   , 773.9776    , 4.48        , 3           , 255         , 0           , 0
-9.796729   , 0.1317888   , -0.131930768, -7.458718E-05, -0.001985809, 0.000327087182, -2.35858    , -1.55237675 , 3.14135456  , 923.658     , 26.803196   , 773.9777    , 4.49        , 3           , 255         , 0           , 0
-9.795569   , 0.116510011 , -0.13144508 , -9.804487E-05, -0.00126546668, 2.20021466E-05, -2.35858    , -1.55238652 , 3.14135361  , 923.658     , 26.803196   , 773.977844  , 4.5         , 3           , 255         , 0           , 0
-9.791304   , 0.123266876 , -0.134135991, -0.00023375696, -0.00102709 , 0.0007461386, -2.35858    , -1.55238974 , 3.14135122  , 923.658     , 26.803196   , 774.0052    , 4.51        , 3           , 255         , 0           , 0
-9.795937   , 0.126242    , -0.1279308  , 0.00037487864, -0.00158675783, 4.75875859E-05, -2.35858    , -1.55239952 , 3.141355    , 923.658     , 26.803196   , 774.0055    , 4.52        , 3           , 255         , 0           , 0
-9.800337   , 0.126329482 , -0.118536294, -1.25815859E-05, 0.002160174 , -0.00030214357, -2.35858    , -1.55239952 , 3.141355    , 923.6512    , 26.8017712  , 774.0058    , 4.53        , 3           , 255         , 0           , 0
-9.793961   , 0.12230289  , -0.119006574, -0.0006843396, 0.006273442 , -0.0003795583, -2.35858    , -1.55235088 , 3.14134765  , 923.6512    , 26.8017712  , 774.0061    , 4.54        , 3           , 255         , 0           , 0
-9.788376   , 0.113320448 , -0.131841347, -0.00015745475, 0.007287589 , 0.000370803231, -2.35858    , -1.552296   , 3.1413455   , 923.6512    , 26.8017712  , 774.0064    , 4.55        , 3           , 255         , 0           , 0
-9.772812   , 0.117377475 , -0.136182711, -0.0006078535, 0.005622823 , -0.000924169843, -2.35858    , -1.5522542  , 3.141339    , 923.6512    , 26.8017712  , 774.0067    , 4.56        , 3           , 255         , 0           , 0
-9.78862    , 0.120715141 , -0.139239147, -0.00038707268, 0.00339757442, -0.000455937261, -2.35858    , -1.552235   , 3.141335    , 923.6512    , 26.8017712  , 774.007     , 4.57        , 3           , 255         , 0           , 0
-9.804309   , 0.122933492 , -0.131577089, -0.000223685754, 0.001996894 , 0.0002454882, -2.35858    , -1.55221248 , 3.14133263  , 923.6512    , 26.8017712  , 774.0073    , 4.58        , 3           , 255         , 0           , 0
-9.803464   , 0.127885014 , -0.134634763, -0.0008602919, 0.004570224 , 4.736017E-05, -2.35858    , -1.55219328 , 3.14132357  , 923.6512    , 26.8017712  , 774.0076    , 4.59        , 3           , 255         , 0           , 0
-9.787546   , 0.120627031 , -0.141044348, -0.0006031401, 0.00399022456, 0.00014441344, -2.35858    , -1.55215168 , 3.14131737  , 923.6512    , 26.8017712  , 774.007935  , 4.6         , 3           , 255         , 0           , 0
-9.788594   , 0.119464137 , -0.136566162, -0.00011809438, 0.0009728444, -1.07869564E-05, -2.35858    , -1.55214524 , 3.14131618  , 923.6512    , 26.8017712  , 774.0406    , 4.61        , 3           , 255         , 0           , 0
-9.792179   , 0.122041389 , -0.135121122, -0.000447756727, -0.001230534, -0.000337749458, -2.35858    , -1.55216444 , 3.14131165  , 923.6512    , 26.8017712  , 774.041138  , 4.62        , 3           , 255         , 0           , 0
-9.801397   , 0.121201061 , -0.119789168, -5.11060935E-05, 0.000339747319, -0.00012437893, -2.35858    , -1.552158   , 3.14131117  , 923.6857    , 26.8048916  , 774.0417    , 4.63        , 3           , 255         , 0           , 0
-9.794909   , 0.119126931 , -0.1118386  , 8.256431E-05, 0.006494177 , -0.000321118161, -2.35858    , -1.55211973 , 3.14131165  , 923.6857    , 26.8048916  , 774.042236  , 4.64        , 3           , 255         , 0           , 0
-9.802352   , 0.120576918 , -0.1151429  , -0.000364366337, 0.013764157 , 0.000237317727, -2.35858    , -1.55201149 , 3.14130688  , 923.6857    , 26.8048916  , 774.0428    , 4.65        , 3           , 255         , 0           , 0
-9.790315   , 0.124585651 , -0.124529481, -0.0005845085, 0.01980636  , 0.00035651357, -2.35858    , -1.551866   , 3.1413      , 923.6857    , 26.8048916  , 774.043335  , 4.66        , 3           , 255         , 0           , 0
-9.7944355  , 0.121619225 , -0.138609514, 0.000138871837, 0.0225040652, -0.000498291338, -2.35858    , -1.5517031  , 3.14129972  , 923.6857    , 26.8048916  , 774.0439    , 4.67        , 3           , 255         , 0           , 0
-9.789096   , 0.132926553 , -0.156697154, 0.000675979652, 0.01914462  , -0.000101572368, -2.35858    , -1.55155993 , 3.14130545  , 923.6857    , 26.8048916  , 774.044434  , 4.68        , 3           , 255         , 0           , 0
-9.775767   , 0.129922539 , -0.171768636, 3.15539073E-05, 0.0119724115, -0.00031205875, -2.35858    , -1.55147338 , 3.141305    , 923.6857    , 26.8048916  , 774.045     , 4.69        , 3           , 255         , 0           , 0
-9.786558   , 0.126173243 , -0.161474183, -0.0002738582, 0.00161633932, 6.133414E-05, -2.35858    , -1.551458   , 3.141302    , 923.6857    , 26.8048916  , 774.045532  , 4.7         , 3           , 255         , 0           , 0
-9.800438   , 0.127668545 , -0.136426553, -0.0003487682, -0.00191310211, 0.0005909259, -2.35858    , -1.5514642  , 3.14129877  , 923.6857    , 26.8048916  , 774.0238    , 4.71        , 3           , 255         , 0           , 0
-9.799597   , 0.1267927   , -0.134999752, -0.000147028826, 0.000151737011, -0.0002479923, -2.35858    , -1.5514673  , 3.14129734  , 923.6857    , 26.8048916  , 774.024231  , 4.72        , 3           , 255         , 0           , 0
-9.79155    , 0.122022986 , -0.143669873, -0.000674138253, 0.00173663488, -0.000308234972, -2.35858    , -1.5514549  , 3.14129043  , 923.6677    , 26.80652    , 774.024658  , 4.73        , 3           , 255         , 0           , 0
-9.795639   , 0.125178173 , -0.143244311, -0.0003565054, 0.00113682158, 0.00025311  , -2.35858    , -1.55144572 , 3.14128685  , 923.6677    , 26.80652    , 774.0251    , 4.74        , 3           , 255         , 0           , 0
-9.794012   , 0.121083125 , -0.139800861, -0.000501989038, 0.000759035465, 0.0004637854, -2.35858    , -1.55143642 , 3.14128184  , 923.6677    , 26.80652    , 774.0255    , 4.75        , 3           , 255         , 0           , 0
-9.792393   , 0.131931648 , -0.144780666, -6.900239E-05, -0.0003696112, 8.295546E-05, -2.35858    , -1.55143642 , 3.14128113  , 923.6677    , 26.80652    , 774.02594   , 4.76        , 3           , 255         , 0           , 0
-9.799699   , 0.1328382   , -0.137216672, 3.08062881E-05, -0.000275591767, 0.0003312104, -2.35858    , -1.55143642 , 3.1412816   , 923.6677    , 26.80652    , 774.026367  , 4.77        , 3           , 255         , 0           , 0
-9.790677   , 0.125653327 , -0.1285398  , -0.000300790183, 0.00229577324, -0.0002332498, -2.35858    , -1.551418   , 3.14127827  , 923.6677    , 26.80652    , 774.0268    , 4.78        , 3           , 255         , 0           , 0
-9.78545952 , 0.124415949 , -0.138774872, -0.000565234455, 0.00160261453, 0.0004750607, -2.35858    , -1.55140567 , 3.14127254  , 923.6677    , 26.80652    , 774.0272    , 4.79        , 3           , 255         , 0           , 0
-9.78547    , 0.122027591 , -0.143202037, -7.394934E-05, -0.00229729619, 0.0009838378, -2.35858    , -1.55141485 , 3.141272    , 923.6677    , 26.80652    , 774.027649  , 4.8         , 3           , 255         , 0           , 0
-9.801364   , 0.127550811 , -0.142649025, -0.0004610757, -0.00311295269, 0.0007464739, -2.35858    , -1.55143952 , 3.1412673   , 923.6677    , 26.80652    , 774.0341    , 4.81        , 3           , 255         , 0           , 0
-9.797566   , 0.124258921 , -0.1488342  , 0.000413334346, -0.00419095624, 0.000318350183, -2.35858    , -1.5514673  , 3.141272    , 923.6677    , 26.80652    , 774.034546  , 4.82        , 3           , 255         , 0           , 0
-9.792674   , 0.120617926 , -0.147720575, -0.000108260778, -0.00489198742, 0.000104045816, -2.35858    , -1.55151045 , 3.141271    , 923.670837  , 26.8064537  , 774.035034  , 4.83        , 3           , 255         , 0           , 0
-9.797199   , 0.125623912 , -0.135008186, -5.4394477E-05, -0.00441887556, 0.0003754881, -2.35858    , -1.55153525 , 3.14127088  , 923.670837  , 26.8064537  , 774.0355    , 4.84        , 3           , 255         , 0           , 0
