Acc X       , Acc Y       , Acc Z       , Gyro X      , Gyro Y      , Gyro Z      , Euler X     , Euler Y     , Euler Z     , Pres X      , Pres Y      , Pres Z      , Time        , Status      , LowRate X   , LowRate Y   , LowRate Z    
-0.17183356 , -9.786216   , -0.07246673 , 0           , 0           , 0           , 1.56339145  , -0.0175564475, 0           , 918.512146  , 29.94774    , 820.4323    , 0           , 2           , 0           , 5.46123171  , 0
-0.176093653, -9.793805   , -0.0641583949, 0.000210516344, 0.000167028309, -0.00076403917, 1.56339359  , -0.0175485425, 1.61329933E-06, 918.512146  , 29.94774    , 820.4323    , 0.01        , 3           , 1           , 0           , 0
-0.176496774, -9.792383   , -0.06909692 , -0.000426796672, -8.17423E-05, -0.000431502733, 1.56338942  , -0.017544236, 7.63802063E-07, 918.512146  , 29.94774    , 820.4323    , 0.02        , 3           , 2           , 0           , 0
-0.1802126  , -9.784269   , -0.07451496 , -0.000454249384, -0.000367266242, -0.000433454319, 1.56338489  , -0.01753993 , -2.94063784E-06, 918.52124   , 29.525425   , 820.4323    , 0.03        , 3           , 3           , 0           , 0
-0.179460973, -9.788271   , -0.07192383 , -6.167271E-05, -0.0002964915, 0.0001822111, 1.56338418  , -0.0175417736, -5.892453E-06, 918.52124   , 29.525425   , 820.4323    , 0.04        , 3           , 4           , 0           , 0
-0.169971108, -9.785112   , -0.06729589 , 0.000226937511, 0.000413121481, -0.0004862928, 1.56338644  , -0.01753688 , -1.79772894E-06, 918.52124   , 29.525425   , 820.4323    , 0.05        , 3           , 5           , 0           , 0
-0.168353826, -9.799102   , -0.06967012 , 4.35313559E-05, 0.00064283493, -0.0005187027, 1.56338692  , -0.0175316446, 4.593058E-06, 918.52124   , 29.525425   , 820.4323    , 0.06        , 3           , 6           , 0           , 0
-0.167509973, -9.78512    , -0.07178004 , -0.000465928577, 0.000355473778, -0.000256023166, 1.56338215  , -0.01752906 , 8.128901E-06, 918.52124   , 29.525425   , 820.4323    , 0.07        , 3           , 7           , 0           , 0
-0.167986244, -9.795529   , -0.07074132 , 0.000600626459, 0.000206695637, -0.0006701574, 1.56338811  , -0.0175223425, 1.01464548E-05, 918.52124   , 29.525425   , 820.4323    , 0.08        , 3           , 8           , 5           , 5
-0.162464783, -9.783674   , -0.07585889 , 6.88745058E-06, 0.000133557653, -0.0007205073, 1.56338811  , -0.0175151285, 1.14300137E-05, 918.52124   , 29.525425   , 820.4323    , 0.09        , 3           , 9           , 5           , 0.1
-0.17458491 , -9.795354   , -0.07823104 , -0.000167206366, -8.78933351E-05, 5.60040971E-05, 1.56338644  , -0.0175156947, 1.05553672E-05, 918.52124   , 29.525425   , 820.4323    , 0.1         , 3           , 10          , 0.1         , 0.1
-0.169891641, -9.801806   , -0.0831800848, -0.000223155657, 0.000106255233, 3.04528621E-05, 1.56339025  , -0.01751883 , 1.15138455E-05, 918.52124   , 29.525425   , 820.3505    , 0.11        , 3           , 11          , 0.0109544508, 0.0109544508
-0.169831321, -9.793317   , -0.07233006 , -0.000355825672, 0.0002711525, -0.00038914 , 1.56338668  , -0.01751492 , 1.41964665E-05, 918.52124   , 29.525425   , 820.3505    , 0.12        , 3           , 12          , 0.174642488 , 0
-0.1689196  , -9.798129   , -0.072788246, 0.000217151173, 0.000209623773, 0.00048563935, 1.563389    , -0.017519759, 1.63285913E-05, 918.552856  , 29.5636883  , 820.3505    , 0.13        , 3           , 13          , 0           , 0
-0.169873908, -9.788556   , -0.07369505 , 0.000121226491, 0.000511081947, 0.000230079255, 1.56339     , -0.0175220221, 2.145631E-05, 918.552856  , 29.5636883  , 820.3505    , 0.14        , 3           , 14          , 0.000157300223, -0.0005299986
-0.167870685, -9.789315   , -0.08308493 , 0.000178922448, 0.0003874292, 3.02315457E-05, 1.5633918   , -0.0175222959, 2.53330691E-05, 918.552856  , 29.5636883  , 820.3505    , 0.15        , 3           , 15          , 0           , -4.867924E-05
-0.1696646  , -9.789452   , -0.0718951  , 0.000343232241, 0.000209314312, -0.0002827957, 1.56339526  , -0.0175194517, 2.74065114E-05, 918.552856  , 29.5636883  , 820.3505    , 0.16        , 3           , 16          , 0           , 1.401298E-45
-0.172120631, -9.779549   , -0.07116235 , 0.000387231878, -0.000147080224, -0.000841779343, 1.56339908  , -0.0175110474, 2.5872383E-05, 918.552856  , 29.5636883  , 820.3505    , 0.17        , 3           , 20          , 0           , 0
-0.163056076, -9.788507   , -0.06774762 , 0.00040634867, -0.000142489327, -0.000476387737, 1.56340325  , -0.017506294, 2.4412775E-05, 918.552856  , 29.5636883  , 820.3505    , 0.18        , 3           , 21          , 0           , 0
-0.1655257  , -9.791577   , -0.06724611 , 0.0007442817, 6.68815337E-05, -0.0003138005, 1.56341052  , -0.0175031535, 2.50592111E-05, 918.552856  , 29.5636883  , 820.3505    , 0.19        , 3           , 22          , 0           , 0
-0.180044129, -9.791998   , -0.06784232 , 0.0007129951, -0.000174611749, -0.000196252513, 1.56341767  , -0.0175012071, 2.32987386E-05, 918.552856  , 29.5636883  , 820.3505    , 0.2         , 3           , 40          , 0           , 0
-0.171551079, -9.799978   , -0.0698683038, -0.000389883178, 0.000594485551, 0.000381203834, 1.56341124  , -0.0174967255, 2.93160028E-05, 918.552856  , 29.5636883  , 820.2077    , 0.21        , 3           , 41          , 0           , 0
-0.168690562, -9.798041   , -0.07035456 , -0.000395641924, 0.000260364352, -0.000112121183, 1.56340718  , -0.0174955856, 3.19110659E-05, 918.552856  , 29.5636883  , 820.207764  , 0.22        , 3           , 42          , 0           , 0
-0.172876135, -9.798337   , -0.0642130151, 0.000353879179, -0.000171291467, -9.747618E-05, 1.56341076  , -0.0174946245, 3.01906512E-05, 918.531     , 29.5877037  , 820.2078    , 0.23        , 3           , 255         , 0           , 0
-0.170325711, -9.786059   , -0.06804019 , 0.0003174747, -0.0004039526, -0.0003798746, 1.563414    , -0.0174908582, 2.61220048E-05, 918.531     , 29.5877037  , 820.2079    , 0.24        , 3           , 255         , 0           , 0
-0.172493517, -9.794876   , -0.07427759 , 6.985405E-05, -0.000286428723, 0.000182658579, 1.56341469  , -0.017492706, 2.32726525E-05, 918.531     , 29.5877037  , 820.207947  , 0.25        , 3           , 255         , 0           , 0
-0.179148987, -9.793042   , -0.07436858 , -0.0005785215, 0.0003856315, 0.0005118338, 1.563409    , -0.0174977928, 2.71661829E-05, 918.531     , 29.5877037  , 820.208     , 0.26        , 3           , 255         , 0           , 0
-0.167034239, -9.794195   , -0.06888286 , 0.0005082551, 0.000113529153, 0.00017429264, 1.5634141   , -0.0174995288, 2.83156132E-05, 918.531     , 29.5877037  , 820.208069  , 0.27        , 3           , 255         , 0           , 0
-0.1643953  , -9.792335   , -0.06877414 , -0.000160846248, 0.000181836134, 7.319071E-05, 1.56341231  , -0.0175002478, 3.013942E-05, 918.531     , 29.5877037  , 820.2081    , 0.28        , 3           , 255         , 0           , 0
-0.163565233, -9.793681   , -0.0640594959, 0.000733076246, 4.876213E-05, 0.0005997189, 1.5634197   , -0.0175062381, 3.067036E-05, 918.531     , 29.5877037  , 820.2082    , 0.29        , 3           , 255         , 0           , 0
-0.166144535, -9.793898   , -0.07737589 , 0.000396122341, 0.0002875503, 0.000453294837, 1.56342363  , -0.01751075 , 3.35783952E-05, 918.531     , 29.5877037  , 820.208252  , 0.3         , 3           , 255         , 0           , 0
-0.171913713, -9.790568   , -0.07207759 , -0.000288705574, 1.14783761E-05, -0.000372439274, 1.56342828  , -0.0175012685, 3.35336845E-05, 918.531     , 29.5877037  , 820.226     , 0.31        , 3           , 255         , 0           , 0
-0.180898637, -9.79515648 , -0.06818118 , -0.000102574137, -0.000215052743, 0.000747413433, 1.56342733  , -0.01750876 , 3.143789E-05, 918.531     , 29.5877037  , 820.2261    , 0.32        , 3           , 255         , 0           , 0
-0.164878622, -9.793211   , -0.07646718 , 0.000407526037, 0.000354985823, 0.000565181836, 1.56343138  , -0.0175143871, 3.50305527E-05, 918.530457  , 29.6040535  , 820.226135  , 0.33        , 3           , 255         , 0           , 0
-0.170330554, -9.784311   , -0.0772340447, 0.0002085826, -2.67356518E-05, -0.000405810366, 1.56343341  , -0.0175103284, 3.47334135E-05, 918.530457  , 29.6040535  , 820.2262    , 0.34        , 3           , 255         , 0           , 0
-0.172066957, -9.79415    , -0.07453729 , 0.000250737183, -0.0002991857, -0.0007463002, 1.56343591  , -0.0175028872, 3.1686588E-05, 918.530457  , 29.6040535  , 820.226257  , 0.35        , 3           , 255         , 0           , 0
-0.173641324, -9.795328   , -0.07247331 , -1.097651E-06, -0.000198968744, 5.37003143E-06, 1.56343591  , -0.0175029561, 2.96969774E-05, 918.530457  , 29.6040535  , 820.2263    , 0.36        , 3           , 255         , 0           , 0
-0.169182569, -9.793129   , -0.07303736 , 0.000382934173, 0.000145193626, 0.0003149961, 1.56343985  , -0.0175060965, 3.117242E-05, 918.530457  , 29.6040535  , 820.2264    , 0.37        , 3           , 255         , 0           , 0
-0.173938021, -9.798579   , -0.07275802 , 0.000207666322, -0.000164457946, -0.00103425747, 1.56344175  , -0.0174957663, 2.94519959E-05, 918.530457  , 29.6040535  , 820.22644   , 0.38        , 3           , 255         , 0           , 0
-0.181978434, -9.795046   , -0.06884714 , -0.000280499749, -0.000303107547, -0.00114684808, 1.563439    , -0.01748432 , 2.63371749E-05, 918.530457  , 29.6040535  , 820.2265    , 0.39        , 3           , 255         , 0           , 0
-0.179097265, -9.790342   , -0.06800848 , -0.0005315568, -3.1328178E-05, -0.0002831956, 1.56343365  , -0.0174814947, 2.60027755E-05, 918.530457  , 29.6040535  , 820.226563  , 0.4         , 3           , 255         , 0           , 0
-0.166725278, -9.796305   , -0.06455869 , -0.000130961314, -0.000106086954, -1.256392E-05, 1.56343138  , -0.0174896251, 2.49586046E-05, 918.530457  , 29.6040535  , 820.236755  , 0.41        , 3           , 255         , 0           , 0
-0.162636712, -9.80594349 , -0.0665399  , 0.000180252333, -0.000292765326, 0.0001831192, 1.56343317  , -0.0174914785, 2.204312E-05, 918.530457  , 29.6040535  , 820.2368    , 0.42        , 3           , 255         , 0           , 0
-0.18288219 , -9.77588    , -0.0701987147, -0.000290695345, 0.000208290119, -0.000187817554, 1.56343031  , -0.0174895823, 2.41128382E-05, 918.545     , 29.619318   , 820.2369    , 0.43        , 3           , 255         , 0           , 0
-0.1650832  , -9.783588   , -0.08237399 , 0.000161049567, 0.0002977432, -9.16220961E-05, 1.563432    , -0.01748865 , 2.70832752E-05, 918.545     , 29.619318   , 820.236938  , 0.44        , 3           , 255         , 0           , 0
-0.164939687, -9.791773   , -0.07083408 , 0.000536640757, 9.632349E-05, -0.000920806429, 1.56343734  , -0.0174794327, 2.79793421E-05, 918.545     , 29.619318   , 820.237     , 0.45        , 3           , 255         , 0           , 0
-0.1643413  , -9.792444   , -0.06949916 , 0.000242270151, -0.000133654452, 0.000126959523, 1.56343973  , -0.0174807124, 2.66520055E-05, 918.545     , 29.619318   , 820.237061  , 0.46        , 3           , 255         , 0           , 0
-0.170462638, -9.795863   , -0.07250097 , 0.000443244731, 0.000275657338, 0.0002746298, 1.56344414  , -0.01748344 , 2.94287038E-05, 918.545     , 29.619318   , 820.2371    , 0.47        , 3           , 255         , 0           , 0
-0.165869519, -9.792981   , -0.07122444 , -3.66850945E-05, 0.000288560317, -0.000268260133, 1.56344366  , -0.0174807347, 3.2295753E-05, 918.545     , 29.619318   , 820.2372    , 0.48        , 3           , 255         , 0           , 0
-0.17238839 , -9.7866     , -0.0679060742, 0.000548362732, 0.000183545024, -0.0004429081, 1.56344914  , -0.0174762942, 3.40981351E-05, 918.545     , 29.619318   , 820.237244  , 0.49        , 3           , 255         , 0           , 0
-0.17155768 , -9.785944   , -0.0701179057, 0.000222958421, 0.0005498432, -0.000171717635, 1.56345129  , -0.017474534, 3.958446E-05, 918.545     , 29.619318   , 820.2373    , 0.5         , 3           , 255         , 0           , 0
-0.181777567, -9.79599    , -0.07046613 , 0.000339352264, 0.0004122421, 0.0005524172, 1.56346071  , -0.0174698886, 4.36419141E-05, 918.545     , 29.619318   , 820.2168    , 0.51        , 3           , 255         , 0           , 0
-0.1768785  , -9.804433   , -0.07521544 , -0.000250022451, 0.000136427756, -0.000141662313, 1.5634582   , -0.0174684618, 4.49962645E-05, 918.545     , 29.619318   , 820.216858  , 0.52        , 3           , 255         , 0           , 0
-0.182776049, -9.792264   , -0.07521258 , 0.000557024265, 0.000432796776, 1.81342548E-05, 1.56346381  , -0.0174686126, 4.93257139E-05, 918.5545    , 29.6272564  , 820.2169    , 0.53        , 3           , 255         , 0           , 0
-0.170676   , -9.791025   , -0.07525895 , -2.29975558E-05, -0.000217193039, 0.000399480865, 1.56346357  , -0.0174726229, 4.71824133E-05, 918.5545    , 29.6272564  , 820.217     , 0.54        , 3           , 255         , 0           , 0
-0.178612918, -9.78958    , -0.0674507  , -4.78970542E-05, -2.21905648E-05, 0.000111551068, 1.56346309  , -0.01747374 , 4.696911E-05, 918.5545    , 29.6272564  , 820.217041  , 0.55        , 3           , 255         , 0           , 0
-0.17758    , -9.784351   , -0.0697836354, -8.830374E-05, -0.000202994677, 0.0001173089, 1.56346226  , -0.0174749289, 4.49478321E-05, 918.5545    , 29.6272564  , 820.2171    , 0.56        , 3           , 255         , 0           , 0
-0.170117244, -9.790375   , -0.07470158 , 0.000337347 , -0.00016842992, -0.000134937072, 1.5634656   , -0.0174735915, 4.32525667E-05, 918.5545    , 29.6272564  , 820.217163  , 0.57        , 3           , 255         , 0           , 0
-0.167454645, -9.79072952 , -0.07292523 , 0.000431640743, 0.0001894446, 0.00101358583, 1.56347     , -0.0174837131, 4.52216918E-05, 918.5545    , 29.6272564  , 820.2172    , 0.58        , 3           , 255         , 0           , 0
-0.163707823, -9.789083   , -0.06832318 , 0.00105339813, 2.19479552E-05, 1.02364429E-05, 1.5634805   , -0.0174838156, 4.54415167E-05, 918.5545    , 29.6272564  , 820.2173    , 0.59        , 3           , 255         , 0           , 0
-0.1788626  , -9.792414   , -0.06366547 , 0.0003996849, -2.17756024E-05, -0.000768500031, 1.56348455  , -0.0174761377, 4.51676569E-05, 918.5545    , 29.6272564  , 820.2174    , 0.6         , 3           , 255         , 0           , 0
-0.17778    , -9.79766    , -0.07027523 , -9.234817E-05, 0.000212774612, -0.000472041284, 1.5634855   , -0.0174844451, 4.72280735E-05, 918.5545    , 29.6272564  , 820.1883    , 0.61        , 3           , 255         , 0           , 0
-0.169077948, -9.79278851 , -0.0757682845, 0.000228198027, 0.0003813143, 0.000241574351, 1.56348777  , -0.017486833, 5.1058254E-05, 918.5545    , 29.6272564  , 820.188354  , 0.62        , 3           , 255         , 0           , 0
-0.17538771 , -9.79140949 , -0.0714388639, 0.00022703367, -0.000223496056, -0.000115526258, 1.56349     , -0.0174856968, 4.88152837E-05, 918.519165  , 29.6297665  , 820.1884    , 0.63        , 3           , 255         , 0           , 0
-0.172646254, -9.789686   , -0.06748447 , 0.0003909528, 0.00021408929, -0.000689241453, 1.563494    , -0.01747879 , 5.0905488E-05, 918.519165  , 29.6297665  , 820.1885    , 0.64        , 3           , 255         , 0           , 0
-0.167613655, -9.801554   , -0.07896744 , 0.000328051916, 0.000227762444, -0.000480690825, 1.56349719  , -0.017473964, 5.314845E-05, 918.519165  , 29.6297665  , 820.1886    , 0.65        , 3           , 255         , 0           , 0
-0.172847524, -9.788446   , -0.07350157 , 4.12833469E-05, 4.74599365E-05, -0.000371597067, 1.56349742  , -0.0174702462, 5.359741E-05, 918.519165  , 29.6297665  , 820.1887    , 0.66        , 3           , 255         , 0           , 0
-0.169535   , -9.791344   , -0.06489439 , 0.000651741051, -0.000161891978, -0.000269956159, 1.5635041   , -0.0174675565, 5.1957104E-05, 918.519165  , 29.6297665  , 820.188843  , 0.67        , 3           , 255         , 0           , 0
-0.173677564, -9.795569   , -0.07213927 , -0.000101445046, -0.0003667004, -0.000240593858, 1.56350315  , -0.01746518 , 4.82731557E-05, 918.519165  , 29.6297665  , 820.188965  , 0.68        , 3           , 255         , 0           , 0
-0.166795865, -9.80627    , -0.07229018 , -0.000363762345, 0.000706398336, 4.748085E-05, 1.56349945  , -0.0174656045, 5.53401733E-05, 918.519165  , 29.6297665  , 820.1891    , 0.69        , 3           , 255         , 0           , 0
-0.1660935  , -9.799297   , -0.07268628 , -0.000108690612, 0.000199409027, 0.0005012191, 1.56349838  , -0.0174706  , 5.736985E-05, 918.519165  , 29.6297665  , 820.1892    , 0.7         , 3           , 255         , 0           , 0
-0.165977284, -9.795885   , -0.0777334645, -1.25816441E-05, 0.0001961625, 0.000190747116, 1.56349707  , -0.0174723342, 5.93659679E-05, 918.519165  , 29.6297665  , 820.217041  , 0.71        , 3           , 255         , 0           , 0
-0.1738421  , -9.786786   , -0.07702598 , 0.000125878389, -5.45464572E-05, -0.000142804565, 1.56349814  , -0.01747091 , 5.88108269E-05, 918.519165  , 29.6297665  , 820.217163  , 0.72        , 3           , 255         , 0           , 0
-0.168633044, -9.790762   , -0.07591385 , 0.0005282394, -0.000453836, -0.000641315244, 1.5635035   , -0.0174645316, 5.42252128E-05, 918.4762    , 29.634243   , 820.2173    , 0.73        , 3           , 255         , 0           , 0
-0.164424315, -9.786361   , -0.07195758 , 0.000344739121, -0.000284111826, -2.14236425E-05, 1.563507    , -0.0174643379, 5.138332E-05, 918.4762    , 29.634243   , 820.2174    , 0.74        , 3           , 255         , 0           , 0
-0.1596424  , -9.783518   , -0.06951102 , 0.000154835943, -7.724663E-05, -7.375461E-05, 1.56350851  , -0.01746361 , 5.06055367E-05, 918.4762    , 29.634243   , 820.2175    , 0.75        , 3           , 255         , 0           , 0
-0.174651116, -9.7896     , -0.07392679 , 0.0003782023, -2.45366828E-05, 0.000264512724, 1.56351233  , -0.0174662527, 5.037827E-05, 918.4762    , 29.634243   , 820.217651  , 0.76        , 3           , 255         , 0           , 0
-0.180087954, -9.786249   , -0.06953973 , 0.000365224259, -8.13434E-05, 0.000228761171, 1.563516    , -0.0174685456, 4.95818676E-05, 918.4762    , 29.634243   , 820.2178    , 0.77        , 3           , 255         , 0           , 0
-0.173233956, -9.793783   , -0.07284275 , 0.000133967013, 0.0002956459, 0.000112194852, 1.56351733  , -0.0174696464, 5.25457872E-05, 918.4762    , 29.634243   , 820.2179    , 0.78        , 3           , 255         , 0           , 0
-0.174992979, -9.790579   , -0.07704953 , -7.882838E-05, 7.206897E-05, -0.000261354347, 1.5635165   , -0.0174670275, 5.324811E-05, 918.4762    , 29.634243   , 820.218     , 0.79        , 3           , 255         , 0           , 0
-0.174402922, -9.783697   , -0.07025476 , -0.000176375484, 0.000260098575, -1.69070117E-05, 1.56351471  , -0.0174668413, 5.58478278E-05, 918.4762    , 29.634243   , 820.21814   , 0.8         , 3           , 255         , 0           , 0
-0.169180244, -9.795378   , -0.0724846  , -0.0002669089, 0.000356525066, -3.54701078E-05, 1.56350243  , -0.0174665358, 5.95802121E-05, 918.4762    , 29.634243   , 820.2928    , 0.81        , 3           , 255         , 0           , 0
-0.17479074 , -9.800515   , -0.07214673 , -0.000237140412, 0.000425539765, 0.000376222248, 1.56349993  , -0.0174702648, 6.386309E-05, 918.4762    , 29.634243   , 820.292969  , 0.82        , 3           , 255         , 0           , 0
-0.164288   , -9.793855   , -0.07074712 , 4.63738543E-05, 0.000177031528, 0.00028436174, 1.5635004   , -0.017473096, 6.565429E-05, 918.513062  , 29.6398067  , 820.293152  , 0.83        , 3           , 255         , 0           , 0
-0.174179748, -9.787043   , -0.07078253 , 0.000330730749, -0.000323868939, 7.254479E-06, 1.56350386  , -0.0174731929, 6.2414656E-05, 918.513062  , 29.6398067  , 820.293335  , 0.84        , 3           , 255         , 0           , 0
-0.17140682 , -9.78658    , -0.076883   , 0.000239836867, 0.000123788515, 0.000149420623, 1.56350613  , -0.0174746774, 6.3663756E-05, 918.513062  , 29.6398067  , 820.2936    , 0.85        , 3           , 255         , 0           , 0
-0.170030624, -9.788271   , -0.07688997 , -0.0003184443, -2.78941588E-05, 0.0004069907, 1.563503    , -0.01747875 , 6.341505E-05, 918.513062  , 29.6398067  , 820.2938    , 0.86        , 3           , 255         , 0           , 0
-0.167465612, -9.79488    , -0.07055546 , 9.968216E-05, 0.000104477309, 0.000687132764, 1.563504    , -0.0174856111, 6.45104737E-05, 918.513062  , 29.6398067  , 820.294067  , 0.87        , 3           , 255         , 0           , 0
-0.177394211, -9.790369   , -0.06333046 , -8.324192E-05, 0.00011903391, -0.000134824586, 1.56350315  , -0.0174842551, 6.569064E-05, 918.513062  , 29.6398067  , 820.2943    , 0.88        , 3           , 255         , 0           , 0
-0.174027473, -9.801683   , -0.06434713 , -0.000243910588, -0.0001894196, -0.0005793546, 1.56350064  , -0.0174784809, 6.375505E-05, 918.513062  , 29.6398067  , 820.294556  , 0.89        , 3           , 255         , 0           , 0
-0.16691494 , -9.793069   , -0.06553629 , 0.0004076634, -0.000258281, -0.000443098281, 1.56350482  , -0.0174740646, 6.11404248E-05, 918.513062  , 29.6398067  , 820.2948    , 0.9         , 3           , 255         , 0           , 0
-0.170449361, -9.799052   , -0.06767662 , -0.000345841778, -0.000231798971, -0.0002595434, 1.56350434  , -0.01747096 , 5.875028E-05, 918.513062  , 29.6398067  , 820.311951  , 0.91        , 3           , 255         , 0           , 0
-0.168256924, -9.798807   , -0.06801606 , -0.000374567753, 0.000229055673, 8.98640137E-05, 1.56350064  , -0.01747184 , 6.10481948E-05, 918.513062  , 29.6398067  , 820.3122    , 0.92        , 3           , 255         , 0           , 0
-0.179455429, -9.780713   , -0.0683592558, -0.000445473648, 0.000228176068, -8.690712E-05, 1.56349611  , -0.0174709558, 6.332284E-05, 918.5328    , 29.6406879  , 820.312439  , 0.93        , 3           , 255         , 0           , 0
-0.179574028, -9.792633   , -0.0657637641, -0.0005710616, 0.000166377635, 0.000162644428, 1.56349039  , -0.01747257 , 6.4998545E-05, 918.5328    , 29.6406879  , 820.3127    , 0.94        , 3           , 255         , 0           , 0
-0.180363417, -9.79799652 , -0.0702137053, -0.000342455867, 8.589355E-05, -0.000247584831, 1.563487    , -0.01747009 , 6.58378E-05 , 918.5328    , 29.6406879  , 820.3129    , 0.95        , 3           , 255         , 0           , 0
-0.178472534, -9.795316   , -0.0718108341, -6.45646E-05, 0.000152039109, -0.0004082909, 1.56348634  , -0.0174659956, 6.732907E-05, 918.5328    , 29.6406879  , 820.3132    , 0.96        , 3           , 255         , 0           , 0
-0.175720483, -9.792227   , -0.06331993 , 0.000277366868, 0.000115879462, -0.000107702086, 1.56348908  , -0.0174649116, 6.848035E-05, 918.5328    , 29.6406879  , 820.3134    , 0.97        , 3           , 255         , 0           , 0
-0.167658329, -9.788556   , -0.07223273 , -0.0004950822, 0.000247908523, 0.0002721306, 1.56348419  , -0.0174676124, 7.09785454E-05, 918.5328    , 29.6406879  , 820.31366   , 0.98        , 3           , 255         , 0           , 0
-0.168894127, -9.79994    , -0.0778460354, -1.7916449E-05, 0.0001580969, 0.000164956466, 1.563484    , -0.0174692515, 7.257228E-05, 918.5328    , 29.6406879  , 820.3139    , 0.99        , 3           , 255         , 0           , 0
-0.180084556, -9.793948   , -0.07702516 , 2.77133076E-05, -0.000248941826, 0.000245396979, 1.56348443  , -0.0174717214, 7.010017E-05, 918.5328    , 29.6406879  , 820.314148  , 1           , 3           , 0           , 6.46123648  , 100
-0.1773088  , -9.784626   , -0.0804502442, -0.000336002617, -0.000165711972, 0.000163892313, 1.56348467  , -0.017483566, 6.839095E-05, 918.5328    , 29.6406879  , 820.3063    , 1.01        , 3           , 1           , 0           , 0
-0.172370836, -9.785859   , -0.07572708 , -0.0005982175, -0.0002401289, 0.000251961232, 1.56347883  , -0.0174861029, 6.600827E-05, 918.5328    , 29.6406879  , 820.3065    , 1.02        , 3           , 2           , 0           , 0
-0.180193171, -9.791037   , -0.0828717947, 0.000360010017, -0.000117007643, 0.000249831442, 1.56348228  , -0.01748861 , 6.4856984E-05, 918.503235  , 29.6440811  , 820.306763  , 1.03        , 3           , 3           , 0           , 0
-0.176572055, -9.795452   , -0.08506398 , 0.000558501342, 0.000651513 , -4.90185776E-05, 1.56348777  , -0.0174880717, 7.136886E-05, 918.503235  , 29.6440811  , 820.307     , 1.04        , 3           , 4           , 0           , 0
-0.19165206 , -9.789328   , -0.0786031038, 0.000352823641, 0.0005617399, 0.000336456345, 1.56349134  , -0.0174913965, 7.7009805E-05, 918.503235  , 29.6440811  , 820.307251  , 1.05        , 3           , 5           , 0           , 0
-0.180862635, -9.801609   , -0.08482442 , 0.000106028965, 0.00021148246, 0.000193567845, 1.5634923   , -0.0174933169, 7.914008E-05, 918.503235  , 29.6440811  , 820.3075    , 1.06        , 3           , 6           , 0           , 0
-0.1726916  , -9.792137   , -0.08627459 , -0.000262031419, 5.816942E-05, -2.92578552E-05, 1.56348968  , -0.0174930226, 7.972037E-05, 918.503235  , 29.6440811  , 820.307739  , 1.07        , 3           , 7           , 0           , 0
-0.168157458, -9.791632   , -0.09423749 , -7.695703E-05, -9.434536E-05, -1.78701157E-05, 1.56348884  , -0.0174928512, 7.877586E-05, 918.503235  , 29.6440811  , 820.308     , 1.08        , 3           , 8           , 5           , 5
-0.17530939 , -9.781182   , -0.09064897 , 0.000271131867, -0.000415676157, -0.000365762622, 1.56349158  , -0.0174892247, 7.459173E-05, 918.503235  , 29.6440811  , 820.3082    , 1.09        , 3           , 9           , 5           , 0.1
-0.1816911  , -9.785749   , -0.07884364 , 0.0007703   , -0.000106248714, -0.0007472887, 1.56349933  , -0.01748176 , 7.347396E-05, 918.503235  , 29.6440811  , 820.3085    , 1.1         , 3           , 10          , 0.1         , 0.1
-0.1773021  , -9.788701   , -0.0784334  , 2.73804471E-06, 0.000548187 , -0.0003939573, 1.56345642  , -0.0175003447, 7.967754E-05, 918.503235  , 29.6440811  , 820.332764  , 1.11        , 3           , 11          , 0.009144512 , 0.009144512
-0.165555537, -9.794076   , -0.07223086 , 4.05967876E-05, 0.000109775865, -0.000140783464, 1.56345677  , -0.01749893 , 8.076548E-05, 918.503235  , 29.6440811  , 820.333069  , 1.12        , 3           , 12          , 0.174642846 , 0
-0.164276108, -9.786602   , -0.0722     , 0.000163698714, -0.000170810672, -4.861682E-05, 1.56345856  , -0.0174984578, 7.90525155E-05, 918.5766    , 29.64347    , 820.3334    , 1.13        , 3           , 13          , 0           , 0
-0.166759223, -9.787801   , -0.06931624 , 0.000478912058, -0.000470457831, 0.0005475173, 1.56346333  , -0.0175039656, 7.43886849E-05, 918.5766    , 29.64347    , 820.3337    , 1.14        , 3           , 14          , 0.000157352915, -0.000529999146
-0.177041769, -9.79077148 , -0.04863479 , -7.037843E-05, -0.0002279788, -0.000210027269, 1.56346273  , -0.0175018832, 7.209262E-05, 918.5766    , 29.64347    , 820.334     , 1.15        , 3           , 15          , 0           , -4.872343E-05
-0.1652802  , -9.780851   , -0.04123    , 6.470745E-05, -1.39966141E-06, -0.000618154649, 1.56346333  , -0.0174957011, 7.20330063E-05, 918.5766    , 29.64347    , 820.3343    , 1.16        , 3           , 16          , 0           , 1.401298E-45
-0.166974753, -9.790918   , -0.03669432 , -1.32533023E-06, -3.668142E-05, -0.000263826951, 1.56346345  , -0.0174930673, 7.164643E-05, 918.5766    , 29.64347    , 820.3346    , 1.17        , 3           , 20          , 0           , 0
-0.166875288, -9.795423   , -0.04235246 , -5.03097472E-05, -0.0002814661, -0.0004138773, 1.56346285  , -0.01748895 , 6.880173E-05, 918.5766    , 29.64347    , 820.3349    , 1.18        , 3           , 21          , 0           , 0
-0.168303519, -9.797916   , -0.04155507 , 0.000126083731, -0.000174066634, 0.000171018823, 1.56346416  , -0.0174906719, 6.707387E-05, 918.5766    , 29.64347    , 820.335266  , 1.19        , 3           , 22          , 0           , 0
-0.170617372, -9.790777   , -0.05147519 , -0.0002166603, -0.000337855832, -2.72482357E-05, 1.563462    , -0.0174904242, 6.369358E-05, 918.5766    , 29.64347    , 820.335632  , 1.2         , 3           , 40          , 0           , 0
-0.1693687  , -9.78712749 , -0.07209542 , 0.000182920819, 0.000204470882, -0.00029781615, 1.56351876  , -0.0174791384, 6.47563647E-05, 918.5766    , 29.64347    , 820.2807    , 1.21        , 3           , 41          , 0           , 0
-0.17076917 , -9.795381   , -0.0986980945, -0.0005639289, 0.000112825568, -0.000527788652, 1.563513    , -0.01747385 , 6.584711E-05, 918.5766    , 29.64347    , 820.2809    , 1.22        , 3           , 42          , 0           , 0
-0.167712778, -9.800001   , -0.118856885, -0.0002821121, 0.0001441298, 0.0004012591, 1.56351018  , -0.0174778551, 6.7318826E-05, 918.537964  , 29.6480827  , 820.281067  , 1.23        , 3           , 255         , 0           , 0
-0.175119191, -9.797418   , -0.121824466, 0.000375725154, -1.58119947E-05, 0.0006744651, 1.56351388  , -0.017484596, 6.720986E-05, 918.537964  , 29.6480827  , 820.28125   , 1.24        , 3           , 255         , 0           , 0
-0.180611953, -9.786505   , -0.116195261, 0.000350884919, 0.000170164858, 0.0006424316, 1.56351745  , -0.01749101 , 6.895823E-05, 918.537964  , 29.6480827  , 820.281433  , 1.25        , 3           , 255         , 0           , 0
-0.1764647  , -9.780214   , -0.09164743 , 0.0007566615, -0.000158368843, 0.000115864488, 1.563525    , -0.0174921844, 6.738218E-05, 918.537964  , 29.6480827  , 820.2816    , 1.26        , 3           , 255         , 0           , 0
-0.1799061  , -9.78505    , -0.0483742  , 0.0008229487, -0.000204267737, 0.000314270757, 1.56353331  , -0.01749534 , 6.536183E-05, 918.537964  , 29.6480827  , 820.2818    , 1.27        , 3           , 255         , 0           , 0
-0.1800842  , -9.790807   , -0.0161108766, 0.000472045329, 9.80905E-05 , 0.0004724197, 1.56353807  , -0.0175000541, 6.637714E-05, 918.537964  , 29.6480827  , 820.282     , 1.28        , 3           , 255         , 0           , 0
-0.158322722, -9.803085   , -0.0277481414, -9.609471E-05, 0.000247197429, -9.42748447E-05, 1.563537    , -0.017499093, 6.884366E-05, 918.537964  , 29.6480827  , 820.282166  , 1.29        , 3           , 255         , 0           , 0
-0.146589428, -9.789777   , -0.0312060118, 0.000218961344, 0.000156633148, -0.000219424284, 1.56353915  , -0.0174968857, 7.03936239E-05, 918.537964  , 29.6480827  , 820.282349  , 1.3         , 3           , 255         , 0           , 0
-0.1573348  , -9.783305   , -0.045788724, 0.000668339548, 0.000141331839, -0.000146736129, 1.56353712  , -0.0174931716, 7.194636E-05, 918.537964  , 29.6480827  , 820.273254  , 1.31        , 3           , 255         , 0           , 0
-0.18347688 , -9.777368   , -0.0177096259, 0.0007831173, -0.000236180553, -0.00035036038, 1.563545    , -0.0174896866, 6.95599447E-05, 918.537964  , 29.6480827  , 820.2734    , 1.32        , 3           , 255         , 0           , 0
-0.200764015, -9.787483   , 0.00295600528, 0.0003910098, -0.000349093578, -8.533013E-05, 1.56354892  , -0.0174888577, 6.606415E-05, 918.515747  , 29.6488972  , 820.2735    , 1.33        , 3           , 255         , 0           , 0
-0.186903432, -9.794117   , -0.000604269851, -0.000450780848, -0.000119761447, -0.000408639578, 1.56354439  , -0.01748478 , 6.483741E-05, 918.515747  , 29.6488972  , 820.2737    , 1.34        , 3           , 255         , 0           , 0
-0.142895371, -9.8125515  , -0.0446777865, -0.0007199851, 0.000113322516, -0.0009357771, 1.56353712  , -0.017475415, 6.59030047E-05, 918.515747  , 29.6488972  , 820.273865  , 1.35        , 3           , 255         , 0           , 0
-0.130619049, -9.809139   , -0.070826076, 0.0003241364, 4.49972576E-05, -0.00021026234, 1.56354034  , -0.0174733084, 6.6338E-05  , 918.515747  , 29.6488972  , 820.274048  , 1.36        , 3           , 255         , 0           , 0
-0.142233163, -9.793051   , -0.08928864 , 8.81951E-05 , 7.69918552E-06, 5.99257837E-05, 1.56354117  , -0.0174739081, 6.641997E-05, 918.515747  , 29.6488972  , 820.274231  , 1.37        , 3           , 255         , 0           , 0
-0.167159125, -9.777451   , -0.09396905 , 0.0007406535, -8.44145543E-05, 0.000309767522, 1.56354856  , -0.0174770132, 6.559841E-05, 918.515747  , 29.6488972  , 820.2744    , 1.38        , 3           , 255         , 0           , 0
-0.19858487 , -9.783229   , -0.09994096 , -0.0002742807, -0.000305796217, -7.695038E-05, 1.563546    , -0.0174762644, 6.25338944E-05, 918.515747  , 29.6488972  , 820.2746    , 1.39        , 3           , 255         , 0           , 0
-0.211881846, -9.789146   , -0.1111984  , -0.000220246933, 0.000148620049, -0.0006792253, 1.56354368  , -0.01746946 , 6.397021E-05, 918.515747  , 29.6488972  , 820.2748    , 1.4         , 3           , 255         , 0           , 0
-0.211479023, -9.794218   , -0.129604891, -7.839229E-05, -0.000136049988, 0.000303607725, 1.56358552  , -0.0174756683, 6.18874546E-05, 918.515747  , 29.6488972  , 820.2893    , 1.41        , 3           , 255         , 0           , 0
-0.193680435, -9.809672   , -0.135757476, -9.326643E-06, -0.000207527366, -0.0002686475, 1.5635854   , -0.0174729954, 5.979352E-05, 918.515747  , 29.6488972  , 820.289551  , 1.42        , 3           , 255         , 0           , 0
-0.163847059, -9.802382   , -0.1420789  , -0.00027890777, -0.000235024258, -0.000532473845, 1.56358266  , -0.0174676925, 5.740617E-05, 918.5205    , 29.6492367  , 820.2898    , 1.43        , 3           , 255         , 0           , 0
-0.1484243  , -9.790956   , -0.1421868  , 0.0001665672, -0.000322235923, -0.0008662349, 1.56358433  , -0.0174590535, 5.41199552E-05, 918.5205    , 29.6492367  , 820.290039  , 1.44        , 3           , 255         , 0           , 0
-0.153091863, -9.796362   , -0.136407688, 0.00014825612, 0.000255643739, 0.000382721657, 1.56358576  , -0.01746286 , 5.67047719E-05, 918.5205    , 29.6492367  , 820.2903    , 1.45        , 3           , 255         , 0           , 0
-0.175299034, -9.80013752 , -0.1273853  , 0.000688216067, 0.000344632135, 6.480637E-05, 1.56359267  , -0.0174634848, 6.015585E-05, 918.5205    , 29.6492367  , 820.2905    , 1.46        , 3           , 255         , 0           , 0
-0.202823758, -9.798753   , -0.11804159 , -5.926509E-05, 0.000166047277, -0.000435191585, 1.563592    , -0.0174591243, 6.178404E-05, 918.5205    , 29.6492367  , 820.2908    , 1.47        , 3           , 255         , 0           , 0
-0.212912962, -9.788134   , -0.1070502  , 0.000427468447, 0.000591363758, 0.000571239041, 1.56359613  , -0.0174647924, 6.77398348E-05, 918.5205    , 29.6492367  , 820.291     , 1.48        , 3           , 255         , 0           , 0
-0.203358024, -9.786929   , -0.08393861 , 0.00067739503, 4.34221E-05 , 0.00013543744, 1.56360292  , -0.01746614 , 6.818415E-05, 918.5205    , 29.6492367  , 820.29126   , 1.49        , 3           , 255         , 0           , 0
-0.175532922, -9.782794   , -0.07606584 , -0.000473499531, -0.00016214 , -0.000141027063, 1.56359816  , -0.0174647439, 6.655222E-05, 918.5205    , 29.6492367  , 820.2915    , 1.5         , 3           , 255         , 0           , 0
-0.1559077  , -9.789067   , -0.0635302961, -0.000909700058, -0.0005980978, -0.0008218804, 1.56348586  , -0.017483823, 6.232059E-05, 918.5205    , 29.6492367  , 820.299561  , 1.51        , 3           , 255         , 0           , 0
-0.144576743, -9.795024   , -0.04506461 , -0.000162688215, -0.0004934928, -0.000524554867, 1.56348419  , -0.017478615, 5.734657E-05, 918.5205    , 29.6492367  , 820.299866  , 1.52        , 3           , 255         , 0           , 0
-0.147305474, -9.796814   , -0.043890886, 0.000204134965, -5.19906171E-05, -3.212847E-05, 1.56348622  , -0.0174782965, 5.682495E-05, 918.5775    , 29.6512032  , 820.3002    , 1.53        , 3           , 255         , 0           , 0
-0.1540546  , -9.790533   , -0.0284389015, -0.0002287071, -0.000692622038, -0.000199050235, 1.56348383  , -0.0174763575, 4.9884602E-05, 918.5775    , 29.6512032  , 820.3005    , 1.54        , 3           , 255         , 0           , 0
-0.177676588, -9.775114   , -0.0169576947, 0.0006538917, 0.000174834946, -0.000465782825, 1.56349039  , -0.0174716879, 5.15984866E-05, 918.5775    , 29.6512032  , 820.3008    , 1.55        , 3           , 255         , 0           , 0
-0.185156271, -9.799826   , -0.016692847, 0.000193832966, 3.29367467E-05, -0.000844265451, 1.5634923   , -0.0174632464, 5.186674E-05, 918.5775    , 29.6512032  , 820.3011    , 1.56        , 3           , 255         , 0           , 0
-0.179730132, -9.799431   , -0.0247696973, 0.000465319637, 0.000217956462, -2.16628068E-05, 1.563497    , -0.0174630117, 5.404451E-05, 918.5775    , 29.6512032  , 820.3014    , 1.57        , 3           , 255         , 0           , 0
-0.1659534  , -9.784244   , -0.028396029, -0.0001900437, 0.000385573861, -0.000243333372, 1.563495    , -0.0174605511, 5.788214E-05, 918.5775    , 29.6512032  , 820.3017    , 1.58        , 3           , 255         , 0           , 0
-0.157515764, -9.790873   , -0.04511646 , -0.000122327765, 0.000397130032, -0.000399751763, 1.56349385  , -0.0174565259, 6.18240956E-05, 918.5775    , 29.6512032  , 820.302     , 1.59        , 3           , 255         , 0           , 0
-0.156735256, -9.7880125  , -0.0522103421, 0.000440227363, 0.0003052103, 5.92452125E-05, 1.56349826  , -0.0174570978, 6.488023E-05, 918.5775    , 29.6512032  , 820.3023    , 1.6         , 3           , 255         , 0           , 0
-0.166498587, -9.787012   , -0.0464237444, 7.36177462E-05, -0.000287833973, 2.32624E-06 , 1.56360161  , -0.017431872, 6.021451E-05, 918.5775    , 29.6512032  , 820.2481    , 1.61        , 3           , 255         , 0           , 0
-0.176347584, -9.803449   , -0.04823544 , 3.72822979E-06, -5.00353053E-06, -0.000646209053, 1.56360149  , -0.0174254123, 6.011762E-05, 918.5775    , 29.6512032  , 820.2481    , 1.62        , 3           , 255         , 0           , 0
-0.180786252, -9.797667   , -0.06826098 , 0.000321969157, 0.000415134273, -0.000799067842, 1.56360471  , -0.0174173955, 6.421233E-05, 918.4977    , 29.6526966  , 820.2481    , 1.63        , 3           , 255         , 0           , 0
-0.170919329, -9.79317951 , -0.0763219  , -0.0002623279, -0.0001968792, -7.186991E-06, 1.563602    , -0.0174173415, 6.22432053E-05, 918.4977    , 29.6526966  , 820.2481    , 1.64        , 3           , 255         , 0           , 0
-0.168946058, -9.788113   , -0.08930431 , -0.0005564748, 0.000139394164, 0.0005462004, 1.56359649  , -0.01742279 , 6.367674E-05, 918.4977    , 29.6526966  , 820.2481    , 1.65        , 3           , 255         , 0           , 0
-0.168063372, -9.795706   , -0.102012917, -0.0009995698, -0.000324380526, 7.43362762E-05, 1.56358647  , -0.0174235571, 6.043804E-05, 918.4977    , 29.6526966  , 820.2481    , 1.66        , 3           , 255         , 0           , 0
-0.166442782, -9.810943   , -0.103256322, -0.0002559744, -0.000135176291, 0.000197811634, 1.563584    , -0.0174255464, 5.910046E-05, 918.4977    , 29.6526966  , 820.248169  , 1.67        , 3           , 255         , 0           , 0
-0.186127558, -9.808397   , -0.102904379, 2.79211672E-05, -0.000444345584, 0.000245273637, 1.56358433  , -0.0174280312, 5.46741467E-05, 918.4977    , 29.6526966  , 820.2482    , 1.68        , 3           , 255         , 0           , 0
-0.197005421, -9.789508   , -0.10124    , -0.000275613158, -0.000151409069, 0.0003243082, 1.56358159  , -0.0174312852, 5.318287E-05, 918.4977    , 29.6526966  , 820.2483    , 1.69        , 3           , 255         , 0           , 0
-0.186449155, -9.800421   , -0.103797495, -0.000182544391, -0.000430340762, -8.592816E-05, 1.5635798   , -0.0174304564, 4.88729856E-05, 918.4977    , 29.6526966  , 820.248352  , 1.7         , 3           , 255         , 0           , 0
-0.177091777, -9.788154   , -0.09103055 , 0.000461301155, -0.0001566105, -0.000127388237, 1.56355977  , -0.0174401272, 4.772823E-05, 918.4977    , 29.6526966  , 820.286865  , 1.71        , 3           , 255         , 0           , 0
-0.1556962  , -9.785836   , -0.105293706, -0.0004033749, 0.0003141453, 0.000308444258, 1.56355572  , -0.01744319 , 5.089148E-05, 918.4977    , 29.6526966  , 820.2871    , 1.72        , 3           , 255         , 0           , 0
-0.148361847, -9.809773   , -0.112626776, -0.0009927806, 0.000301652763, -0.00034267953, 1.5635457   , -0.01743974 , 5.38842833E-05, 918.5731    , 29.65446    , 820.287354  , 1.73        , 3           , 255         , 0           , 0
-0.1600294  , -9.808841   , -0.110180095, 0.000175255467, -3.54660442E-05, 9.90607E-05 , 1.56354737  , -0.0174407363, 5.35368381E-05, 918.5731    , 29.65446    , 820.2876    , 1.74        , 3           , 255         , 0           , 0
-0.17978856 , -9.780001   , -0.097770296, 0.000411377376, 0.000102580292, -7.793923E-05, 1.56355143  , -0.0174399484, 5.455772E-05, 918.5731    , 29.65446    , 820.287842  , 1.75        , 3           , 255         , 0           , 0
-0.185137838, -9.781237   , -0.0963473  , -0.0002795726, 0.0001026426, -8.078208E-06, 1.56354856  , -0.01743986 , 5.5583263E-05, 918.5731    , 29.65446    , 820.2881    , 1.76        , 3           , 255         , 0           , 0
-0.189276621, -9.777061   , -0.0855514258, 0.000286928465, 9.29039961E-05, 0.00110508478, 1.56355143  , -0.0174509063, 5.6592984E-05, 918.5731    , 29.65446    , 820.2883    , 1.77        , 3           , 255         , 0           , 0
-0.181304976, -9.78219    , -0.06488307 , -3.53661744E-05, -0.000366166118, 0.000569847471, 1.56355119  , -0.01745663 , 5.29723839E-05, 918.5731    , 29.65446    , 820.2886    , 1.78        , 3           , 255         , 0           , 0
-0.15795137 , -9.806142   , -0.0585623272, -0.000820769, -0.0003582858, -2.716987E-05, 1.563543    , -0.01745638 , 4.93881162E-05, 918.5731    , 29.65446    , 820.2888    , 1.79        , 3           , 255         , 0           , 0
-0.139529482, -9.813706   , -0.0593302734, -0.000123984355, 0.0005700653, 0.000317122118, 1.56354165  , -0.017459508, 5.511197E-05, 918.5731    , 29.65446    , 820.289063  , 1.8         , 3           , 255         , 0           , 0
-0.138139918, -9.797369   , -0.0583337061, 0.0007184797, 0.000364488515, 1.56043934E-05, 1.5635097   , -0.01745189 , 5.94413978E-05, 918.5731    , 29.65446    , 820.2384    , 1.81        , 3           , 255         , 0           , 0
-0.154610962, -9.780847   , -0.0563629158, 0.0005873467, 0.0006144586, 0.000226758857, 1.56351554  , -0.0174541119, 6.56030461E-05, 918.5731    , 29.65446    , 820.2384    , 1.82        , 3           , 255         , 0           , 0
-0.182095617, -9.789738   , -0.04763519 , 0.000904019456, -0.0002795973, 0.0008118822, 1.56352448  , -0.017462248, 6.28654743E-05, 918.5105    , 29.6508656  , 820.2384    , 1.83        , 3           , 255         , 0           , 0
-0.210468128, -9.796587   , -0.0292390026, 3.34623765E-05, -2.10847938E-05, -0.000439534953, 1.56352484  , -0.017457854, 6.262236E-05, 918.5105    , 29.6508656  , 820.2384    , 1.84        , 3           , 255         , 0           , 0
-0.1943719  , -9.787428   , -0.0204716828, -0.000148730323, 0.000195775647, -0.0004590734, 1.56352341  , -0.0174532514, 6.454677E-05, 918.5105    , 29.6508656  , 820.2384    , 1.85        , 3           , 255         , 0           , 0
-0.170369476, -9.793247   , -0.0267870836, -0.00053904095, 0.000329250528, -0.0001282647, 1.56351793  , -0.0174519457, 6.783017E-05, 918.5105    , 29.6508656  , 820.2384    , 1.86        , 3           , 255         , 0           , 0
-0.137239784, -9.802541   , -0.0560240857, -0.000108151537, 0.000344762579, -0.0006370204, 1.56351686  , -0.0174455531, 7.123094E-05, 918.5105    , 29.6508656  , 820.2384    , 1.87        , 3           , 255         , 0           , 0
-0.134807155, -9.795181   , -0.06324285 , 0.000226933829, -7.83912255E-05, -0.000103663871, 1.56351924  , -0.01744452 , 7.044013E-05, 918.5105    , 29.6508656  , 820.2384    , 1.88        , 3           , 255         , 0           , 0
-0.149747133, -9.79135    , -0.0531638265, 0.000342261454, 0.0002574598, 0.0002958472, 1.56352246  , -0.0174474586, 7.303613E-05, 918.5105    , 29.6508656  , 820.2384    , 1.89        , 3           , 255         , 0           , 0
-0.185125083, -9.798091   , -0.07152119 , -0.0007952385, 0.000416400057, -0.0004166103, 1.56351459  , -0.0174432639, 7.716996E-05, 918.5105    , 29.6508656  , 820.2384    , 1.9         , 3           , 255         , 0           , 0
-0.181003764, -9.80578    , -0.142711818, -0.00168149569, 0.000530696649, -0.000989455, 1.56355011  , -0.0174213126, 8.149192E-05, 918.5105    , 29.6508656  , 820.2653    , 1.91        , 3           , 255         , 0           , 0
-0.1838865  , -9.793074   , -0.201393515, -0.001486681, 0.0005378511, -0.0005727228, 1.56353521  , -0.01741555 , 8.68282659E-05, 918.5105    , 29.6508656  , 820.2655    , 1.92        , 3           , 255         , 0           , 0
-0.198459879, -9.799428   , -0.217758343, -0.0006833838, 0.000300428626, -0.000146898819, 1.5635283   , -0.0174140614, 8.982198E-05, 918.5073    , 29.6556129  , 820.2657    , 1.93        , 3           , 255         , 0           , 0
-0.209841579, -9.79153252 , -0.203740716, 0.0015423916, -0.000255646883, 0.0007994544, 1.5635438   , -0.01742207 , 8.73228855E-05, 918.5073    , 29.6556129  , 820.265869  , 1.94        , 3           , 255         , 0           , 0
-0.210100055, -9.79077148 , -0.150188714, 0.000481128634, -0.0008693988, 0.0005881557, 1.56354868  , -0.0174280144, 7.867239E-05, 918.5073    , 29.6556129  , 820.266052  , 1.95        , 3           , 255         , 0           , 0
-0.188642845, -9.78301048 , -0.146082908, -0.00103207375, -0.000229151919, -0.000451439642, 1.56353843  , -0.0174235161, 7.634838E-05, 918.5073    , 29.6556129  , 820.266235  , 1.96        , 3           , 255         , 0           , 0
-0.1553371  , -9.806614   , -0.106489673, 0.000854331767, -8.33369E-05, -0.00028358135, 1.5635469   , -0.0174206868, 7.549422E-05, 918.5073    , 29.6556129  , 820.2664    , 1.97        , 3           , 255         , 0           , 0
-0.13841942 , -9.805836   , -0.0977232  , 0.0006985327, 0.000180682371, 0.000397255557, 1.56355393  , -0.0174246468, 7.73301363E-05, 918.5073    , 29.6556129  , 820.2666    , 1.98        , 3           , 255         , 0           , 0
-0.1500561  , -9.797974   , -0.0589925572, 0.000266347284, 0.000264867034, 0.000644332 , 1.56355667  , -0.01743107 , 8.002581E-05, 918.5073    , 29.6556129  , 820.2668    , 1.99        , 3           , 255         , 0           , 0
-0.166415215, -9.795123   , -0.0516991243, 0.0009289909, 0.000238689187, 0.0007548437, 1.56356585  , -0.0174386017, 8.246812E-05, 918.5073    , 29.6556129  , 820.266968  , 2           , 3           , 0           , 7.46123648  , 200
-0.191440985, -9.791872   , -0.00107133575, 0.0008154678, -0.0002648892, 0.0009320413, 1.5634613   , -0.0174605623, 8.185245E-05, 918.5073    , 29.6556129  , 820.295166  , 2.01        , 3           , 1           , 0           , 0
-0.190829918, -9.797266   , 0.027158726 , 0.0006125029, -0.00010760274, 0.000109633009, 1.56346738  , -0.017461665, 8.078592E-05, 918.5073    , 29.6556129  , 820.295532  , 2.02        , 3           , 2           , 0           , 0
-0.180583075, -9.767642   , 0.03429227  , -0.0001353865, -0.000231642625, 0.000160719952, 1.56346607  , -0.0174632911, 7.848148E-05, 918.526855  , 29.6585312  , 820.2959    , 2.03        , 3           , 3           , 0           , 0
-0.141489983, -9.78608    , 0.0247169826, -0.0008571511, -0.000141633966, 0.000137576775, 1.56345749  , -0.0174646731, 7.70749757E-05, 918.526855  , 29.6585312  , 820.296265  , 2.04        , 3           , 4           , 0           , 0
-0.136158973, -9.797351   , 0.0212613959, -0.000212069775, -0.000269930635, 1.37907518E-05, 1.56345534  , -0.0174648333, 7.437745E-05, 918.526855  , 29.6585312  , 820.296631  , 2.05        , 3           , 5           , 0           , 0
-0.138961092, -9.790445   , 0.02434856  , 0.0008415991, -0.000512000348, 0.000295279839, 1.56346381  , -0.0174678247, 6.927862E-05, 918.526855  , 29.6585312  , 820.297     , 2.06        , 3           , 6           , 0           , 0
-0.156792372, -9.791306   , 0.0370078459, 0.0007417322, -2.23599491E-05, -0.0005562597, 1.5634712   , -0.0174622647, 6.901407E-05, 918.526855  , 29.6585312  , 820.297363  , 2.07        , 3           , 7           , 0           , 0
-0.163186222, -9.778718   , 0.0318101868, -0.000195593821, 0.000337785226, -0.0005473304, 1.56346917  , -0.0174567681, 7.23524354E-05, 918.526855  , 29.6585312  , 820.2977    , 2.08        , 3           , 8           , 5           , 5
-0.178758532, -9.78079    , 0.00308191217, -0.0004736971, 0.000283818226, -0.000468597369, 1.5634644   , -0.0174520612, 7.51561456E-05, 918.526855  , 29.6585312  , 820.2981    , 2.09        , 3           , 9           , 5           , 0.1
-0.17763114 , -9.789561   , -0.0236396641, -0.000344561471, 7.29596359E-05, -0.000297327526, 1.563461    , -0.0174490847, 7.58640454E-05, 918.526855  , 29.6585312  , 820.298462  , 2.1         , 3           , 10          , 0.1         , 0.1
-0.1801652  , -9.796158   , -0.03479544 , 0.000136780844, -0.0002004786, 0.000110023408, 1.56380475  , -0.0174297579, 6.789814E-05, 918.526855  , 29.6585312  , 820.2992    , 2.11        , 3           , 11          , 0.008058695 , 0.008058694
-0.175841838, -9.799162   , -0.0534490235, 0.000137804775, -0.00051689765, -0.0007188388, 1.56380618  , -0.017422609, 6.26782057E-05, 918.526855  , 29.6585312  , 820.299561  , 2.12        , 3           , 12          , 0.174643889 , 0
-0.164849252, -9.807023   , -0.06696395 , -0.00044748254, -0.000170906947, -0.0005890913, 1.56380177  , -0.0174167287, 6.0927985E-05, 918.566     , 29.656292   , 820.2999    , 2.13        , 3           , 13          , 0           , 0
-0.162790135, -9.797514   , -0.0971059948, -0.000425472681, 1.59384217E-05, -0.000436714472, 1.56379759  , -0.01741236 , 6.10555944E-05, 918.566     , 29.656292   , 820.3003    , 2.14        , 3           , 14          , 0.000156499213, -0.0005299847
-0.170738578, -9.798391   , -0.116950713, -0.000600013358, 0.000409515924, -0.0008800902, 1.56379151  , -0.0174035374, 6.50888E-05 , 918.566     , 29.656292   , 820.300659  , 2.15        , 3           , 15          , 0           , -4.866123E-05
-0.166998744, -9.79128    , -0.129283   , -0.000178672854, 0.000409196247, -0.000516902364, 1.56378961  , -0.0173983369, 6.914441E-05, 918.566     , 29.656292   , 820.301     , 2.16        , 3           , 16          , 0           , 1.401298E-45
-0.183576524, -9.790407   , -0.135612816, -0.0005636726, 0.0005072991, 5.10371028E-05, 1.563784    , -0.0173988137, 7.422274E-05, 918.566     , 29.656292   , 820.3014    , 2.17        , 3           , 20          , 0           , 0
-0.198501751, -9.801252   , -0.137158647, -0.000221870418, -0.000206278171, 0.000392083457, 1.56378174  , -0.01740275 , 7.218657E-05, 918.566     , 29.656292   , 820.301758  , 2.18        , 3           , 21          , 0           , 0
-0.196887553, -9.784925   , -0.105411485, 0.000732218439, -0.000340076571, 0.0003247551, 1.56378913  , -0.01740602 , 6.88081564E-05, 918.566     , 29.656292   , 820.3021    , 2.19        , 3           , 22          , 0           , 0
-0.2055968  , -9.778932   , -0.07836078 , 0.000765627658, -0.000482588541, 3.64949665E-05, 1.56379688  , -0.0174064189, 6.398503E-05, 918.566     , 29.656292   , 820.3025    , 2.2         , 3           , 40          , 0           , 0
-0.190076783, -9.796913   , -0.0592244454, -0.0003697828, -0.000469658, -4.29952161E-05, 1.5637424   , -0.0174249783, 6.0169772E-05, 918.566     , 29.656292   , 820.2532    , 2.21        , 3           , 41          , 0           , 0
-0.155028224, -9.801987   , -0.07093584 , -0.0007523306, 0.000268705451, 0.000700538047, 1.56373489  , -0.0174319632, 6.290551E-05, 918.566     , 29.656292   , 820.253235  , 2.22        , 3           , 42          , 0           , 0
-0.136946037, -9.781916   , -0.114158474, -0.0006705656, -4.63168253E-05, -1.01226506E-05, 1.56372809  , -0.0174318664, 6.244257E-05, 918.536255  , 29.6587353  , 820.2533    , 2.23        , 3           , 255         , 0           , 0
-0.1557859  , -9.798777   , -0.121281169, 0.000349266978, 0.000116347917, 0.000210235637, 1.56373167  , -0.0174339581, 6.361994E-05, 918.536255  , 29.6587353  , 820.253357  , 2.24        , 3           , 255         , 0           , 0
-0.19608292 , -9.806753   , -0.137138933, 0.000181759548, 0.000183442287, 0.000629756541, 1.56373358  , -0.0174402446, 6.54987E-05 , 918.536255  , 29.6587353  , 820.2534    , 2.25        , 3           , 255         , 0           , 0
-0.203942209, -9.792111   , -0.155818313, 0.00018004216, -6.086944E-05, 0.000361950573, 1.56373537  , -0.0174438674, 6.4914675E-05, 918.536255  , 29.6587353  , 820.2535    , 2.26        , 3           , 255         , 0           , 0
-0.202213243, -9.796067   , -0.156388268, -0.000506163167, 0.0005042143, 0.000335043645, 1.56373024  , -0.0174471829, 6.998092E-05, 918.536255  , 29.6587353  , 820.25354   , 2.27        , 3           , 255         , 0           , 0
-0.190126628, -9.783534   , -0.144853964, -4.73235559E-06, 8.475143E-05, 3.73413059E-07, 1.56373024  , -0.017447181, 7.08285443E-05, 918.536255  , 29.6587353  , 820.2536    , 2.28        , 3           , 255         , 0           , 0
-0.1851509  , -9.781601   , -0.116768286, 0.00082067895, 0.000172056549, 0.000883190369, 1.56373858  , -0.0174559988, 7.261046E-05, 918.536255  , 29.6587353  , 820.253662  , 2.29        , 3           , 255         , 0           , 0
-0.182685658, -9.791371   , -0.08362805 , 0.000639271166, 4.52044478E-05, 0.00063617056, 1.5637449   , -0.017462356, 7.310694E-05, 918.536255  , 29.6587353  , 820.2537    , 2.3         , 3           , 255         , 0           , 0
-0.178379253, -9.79377    , -0.06387389 , -0.0002129622, -9.834103E-05, -0.0002911055, 1.5636493   , -0.01747739 , 7.373569E-05, 918.536255  , 29.6587353  , 820.2485    , 2.31        , 3           , 255         , 0           , 0
-0.14646399 , -9.80367851 , -0.0581029281, -0.0002488906, 0.000279021217, -0.000255632971, 1.56364679  , -0.0174748134, 7.650773E-05, 918.536255  , 29.6587353  , 820.248535  , 2.32        , 3           , 255         , 0           , 0
-0.123805441, -9.806538   , -0.0586116239, -0.0005749384, 0.000387774518, -0.000529244833, 1.563641    , -0.0174694974, 8.034814E-05, 918.5428    , 29.66043    , 820.2486    , 2.33        , 3           , 255         , 0           , 0
-0.1435128  , -9.792782   , -0.0504138954, 7.972993E-05, 7.84824952E-05, -0.000380298443, 1.56364179  , -0.01746569 , 8.110449E-05, 918.5428    , 29.66043    , 820.248657  , 2.34        , 3           , 255         , 0           , 0
-0.175331309, -9.795769   , -0.0493555  , 0.000785726355, -0.000582282548, 0.000728098559, 1.56364977  , -0.01747301 , 7.533501E-05, 918.5428    , 29.66043    , 820.2487    , 2.35        , 3           , 255         , 0           , 0
-0.204204   , -9.793587   , -0.0211844426, 0.000643315958, -0.000623228, 0.0008301161, 1.56365621  , -0.0174813569, 6.91622045E-05, 918.5428    , 29.66043    , 820.2488    , 2.36        , 3           , 255         , 0           , 0
-0.1961662  , -9.806311   , -0.0126838116, 0.000279158266, 4.758808E-05, 0.000463294651, 1.563659    , -0.0174859837, 6.967079E-05, 918.5428    , 29.66043    , 820.24884   , 2.37        , 3           , 255         , 0           , 0
-0.171315029, -9.784534   , -0.0242954157, 9.568158E-05, -1.03871571E-06, -0.000358126272, 1.56366     , -0.0174824037, 6.9634465E-05, 918.5428    , 29.66043    , 820.2489    , 2.38        , 3           , 255         , 0           , 0
-0.149439365, -9.791072   , -0.0263333861, -0.000136234376, 6.98553049E-05, -0.0005674566, 1.5636586   , -0.0174767226, 7.02920661E-05, 918.5428    , 29.66043    , 820.248962  , 2.39        , 3           , 255         , 0           , 0
-0.137947217, -9.794837   , -0.0250136163, -7.139269E-05, 7.062865E-05, -0.000467391277, 1.56365788  , -0.0174720474, 7.096457E-05, 918.5428    , 29.66043    , 820.249     , 2.4         , 3           , 255         , 0           , 0
-0.144839466, -9.79884052 , -0.0166246947, 0.0001472503, 1.40938791E-05, -3.9401566E-06, 1.56371236  , -0.0174575243, 7.01812E-05 , 918.5428    , 29.66043    , 820.2354    , 2.41        , 3           , 255         , 0           , 0
-0.16595003 , -9.803288   , -0.0228055287, 0.000397178 , 0.0006602596, 4.548355E-05, 1.56371617  , -0.0174579322, 7.678714E-05, 918.5428    , 29.66043    , 820.2354    , 2.42        , 3           , 255         , 0           , 0
-0.181778818, -9.784755   , -0.0389112756, 0.000410067732, 0.000409207161, -1.85580029E-05, 1.56372023  , -0.017457718, 8.08790646E-05, 918.5128    , 29.6597519  , 820.2354    , 2.43        , 3           , 255         , 0           , 0
-0.192088708, -9.78433    , -0.0513150766, 0.000160728348, 0.000158635 , 1.548346E-05, 1.5637219   , -0.01745786 , 8.24662857E-05, 918.5128    , 29.6597519  , 820.2354    , 2.44        , 3           , 255         , 0           , 0
-0.190188169, -9.787366   , -0.06503874 , 5.82314533E-05, -0.0004259016, 0.000465455436, 1.56372237  , -0.0174625441, 7.82402349E-05, 918.5128    , 29.6597519  , 820.2354    , 2.45        , 3           , 255         , 0           , 0
-0.188990161, -9.786447   , -0.06901613 , -0.0001424032, -0.000188143749, -0.000113286093, 1.56372106  , -0.0174614247, 7.63503E-05 , 918.5128    , 29.6597519  , 820.2354    , 2.46        , 3           , 255         , 0           , 0
-0.174314409, -9.799487   , -0.07478426 , -0.00072989607, 0.000401304133, -0.00081195595, 1.56371379  , -0.0174532775, 8.030622E-05, 918.5128    , 29.6597519  , 820.2354    , 2.47        , 3           , 255         , 0           , 0
-0.16190815 , -9.810287   , -0.10347072 , -0.00025589508, 7.765542E-05, 0.000111329966, 1.56371117  , -0.0174543858, 8.109051E-05, 918.5128    , 29.6597519  , 820.2354    , 2.48        , 3           , 255         , 0           , 0
-0.151362032, -9.800943   , -0.114143156, 0.000223036332, 8.412634E-05, 0.000260133238, 1.56371343  , -0.0174569823, 8.195025E-05, 918.5128    , 29.6597519  , 820.2354    , 2.49        , 3           , 255         , 0           , 0
-0.161969572, -9.787325   , -0.124363519, 0.000660826568, 6.975231E-05, 0.000155404385, 1.56372     , -0.0174585283, 8.266003E-05, 918.5128    , 29.6597519  , 820.2354    , 2.5         , 3           , 255         , 0           , 0
-0.18587479 , -9.788515   , -0.117542624, 0.000472114247, 0.000195001921, 0.000323192246, 1.56372678  , -0.0174623057, 8.459282E-05, 918.5128    , 29.6597519  , 820.2636    , 2.51        , 3           , 255         , 0           , 0
-0.2088447  , -9.793607   , -0.101478949, -0.000180322313, 0.000124413549, -0.0004204313, 1.563725    , -0.0174580961, 8.58083658E-05, 918.5128    , 29.6597519  , 820.2638    , 2.52        , 3           , 255         , 0           , 0
-0.200698331, -9.777593   , -0.111778513, -0.00012997778, 0.000263040827, -0.000921058061, 1.56372368  , -0.0174488686, 8.83736138E-05, 918.536743  , 29.658123   , 820.264     , 2.53        , 3           , 255         , 0           , 0
-0.182330608, -9.801674   , -0.107229277, -1.84735109E-06, 0.000315943325, 7.5519E-05  , 1.56372356  , -0.0174496  , 9.15378E-05 , 918.536743  , 29.658123   , 820.26416   , 2.54        , 3           , 255         , 0           , 0
-0.159916863, -9.794179   , -0.09970759 , 0.000135869312, 0.0005698696, -0.000448536855, 1.56372488  , -0.0174450763, 9.720482E-05, 918.536743  , 29.658123   , 820.264343  , 2.55        , 3           , 255         , 0           , 0
-0.158631772, -9.79404449 , -0.08360101 , -0.0003780609, 0.000190747582, -0.000114482405, 1.56372106  , -0.0174439214, 9.910407E-05, 918.536743  , 29.658123   , 820.2645    , 2.56        , 3           , 255         , 0           , 0
-0.153590649, -9.792183   , -0.0742079243, -0.000209791469, 0.0004275185, 0.000536110951, 1.563719    , -0.0174492486, 0.000103417704, 918.536743  , 29.658123   , 820.2647    , 2.57        , 3           , 255         , 0           , 0
-0.158960462, -9.796312   , -0.06654774 , 0.0004910473, 0.00016814578, -9.37908044E-05, 1.56372392  , -0.0174482986, 0.000105093408, 918.536743  , 29.658123   , 820.2649    , 2.58        , 3           , 255         , 0           , 0
-0.176545575, -9.799926   , -0.0525198057, 8.96632555E-05, 0.00025837787, 0.00072947843, 1.56372464  , -0.017455576, 0.000107728527, 918.536743  , 29.658123   , 820.2651    , 2.59        , 3           , 255         , 0           , 0
-0.190072268, -9.788052   , -0.04833634 , 0.000109214714, -8.88702343E-05, 2.35455154E-05, 1.56372583  , -0.0174558181, 0.00010684177, 918.536743  , 29.658123   , 820.265259  , 2.6         , 3           , 255         , 0           , 0
-0.175528988, -9.79252052 , -0.0385156833, 0.000185953526, -4.4043E-05 , 0.000248416734, 1.56369352  , -0.01747166 , 0.000107015047, 918.536743  , 29.658123   , 820.2574    , 2.61        , 3           , 255         , 0           , 0
-0.161537185, -9.801717   , -0.0345378034, 0.000213414271, 1.03332568E-05, 0.0002050955, 1.56369579  , -0.01747371 , 0.000107131491, 918.536743  , 29.658123   , 820.2575    , 2.62        , 3           , 255         , 0           , 0
-0.1530518  , -9.788697   , -0.04356236 , 0.0001408982, -6.361853E-05, 7.335906E-05, 1.5636971   , -0.0174744483, 0.000106500884, 918.515259  , 29.65887    , 820.2576    , 2.63        , 3           , 255         , 0           , 0
-0.163606048, -9.792875   , -0.05034511 , 0.000466172 , 0.000279301079, 0.000367237924, 1.56370175  , -0.0174781028, 0.000109320434, 918.515259  , 29.65887    , 820.257751  , 2.64        , 3           , 255         , 0           , 0
-0.174437776, -9.801435   , -0.049796842, 0.00072882144, 0.000165791163, 0.000178884278, 1.563709    , -0.0174798779, 0.000110990557, 918.515259  , 29.65887    , 820.2579    , 2.65        , 3           , 255         , 0           , 0
-0.1854401  , -9.785301   , -0.04631696 , 0.0005753761, -0.000221229682, 0.0004908684, 1.56371474  , -0.017484799, 0.000108811881, 918.515259  , 29.65887    , 820.258     , 2.66        , 3           , 255         , 0           , 0
-0.179521754, -9.783149   , -0.05047085 , -0.000108354972, -0.000218172965, 0.000161936114, 1.56371379  , -0.0174864344, 0.000106641579, 918.515259  , 29.65887    , 820.2581    , 2.67        , 3           , 255         , 0           , 0
-0.162774488, -9.788172   , -0.0590332523, -0.0004512929, 9.893882E-05, -0.000481001072, 1.56370914  , -0.0174816214, 0.000107598156, 918.515259  , 29.65887    , 820.25824   , 2.68        , 3           , 255         , 0           , 0
-0.1544171  , -9.801376   , -0.08680409 , -4.68723E-05, -0.0005692979, 0.000487765967, 1.56370878  , -0.0174865369, 0.000101940466, 918.515259  , 29.65887    , 820.2584    , 2.69        , 3           , 255         , 0           , 0
-0.166027471, -9.808734   , -0.09275465 , 7.62858253E-05, -0.000100832724, 0.000291240925, 1.56370962  , -0.0174894575, 0.00010095218, 918.515259  , 29.65887    , 820.2586    , 2.7         , 3           , 255         , 0           , 0
-0.181165263, -9.79642    , -0.08603924 , -2.07692938E-05, 0.000271704834, 0.000259406981, 1.563735    , -0.0174856037, 0.000103240782, 918.515259  , 29.65887    , 820.2811    , 2.71        , 3           , 255         , 0           , 0
-0.167869955, -9.788742   , -0.09021877 , 1.45680533E-05, 0.00021330046, 0.0007576603, 1.56373513  , -0.0174931679, 0.000105426952, 918.515259  , 29.65887    , 820.281433  , 2.72        , 3           , 255         , 0           , 0
-0.175626427, -9.786085   , -0.0843966156, 0.00039691  , -0.000149781758, -0.000223327064, 1.56373906  , -0.0174909439, 0.000103913328, 918.4972    , 29.6618557  , 820.281738  , 2.73        , 3           , 255         , 0           , 0
-0.177735329, -9.791951   , -0.0888442844, 8.120951E-05, -0.00036210072, -0.0004187342, 1.5637399   , -0.0174867846, 0.000100262892, 918.4972    , 29.6618557  , 820.282043  , 2.74        , 3           , 255         , 0           , 0
-0.176537871, -9.802364   , -0.09500052 , 0.0003044125, -0.000238361012, 0.000103464961, 1.563743    , -0.017487837, 9.788579E-05, 918.4972    , 29.6618557  , 820.282349  , 2.75        , 3           , 255         , 0           , 0
-0.17221649 , -9.798559   , -0.09069273 , 0.000293541583, -2.10874714E-06, 3.2806638E-05, 1.56374586  , -0.0174881648, 9.786716E-05, 918.4972    , 29.6618557  , 820.282654  , 2.76        , 3           , 255         , 0           , 0
-0.170987129, -9.782857   , -0.0794033259, 0.0003469924, -0.000444432662, 0.000414790236, 1.56374943  , -0.0174923446, 9.345202E-05, 918.4972    , 29.6618557  , 820.282959  , 2.77        , 3           , 255         , 0           , 0
-0.16187489 , -9.78021049 , -0.06972154 , 0.000143624944, -0.000137517927, -6.84422557E-05, 1.56375086  , -0.0174916666, 9.20725361E-05, 918.4972    , 29.6618557  , 820.283264  , 2.78        , 3           , 255         , 0           , 0
-0.1638127  , -9.781446   , -0.0492432229, 0.000436401344, 0.000179547293, 0.0006078433, 1.56375527  , -0.0174977314, 9.391032E-05, 918.4972    , 29.6618557  , 820.283569  , 2.79        , 3           , 255         , 0           , 0
-0.175976649, -9.780634   , 0.0005668562, 0.00107310119, -0.0002400183, -0.000343603868, 1.563766    , -0.0174943153, 9.148665E-05, 918.4972    , 29.6618557  , 820.2839    , 2.8         , 3           , 255         , 0           , 0
-0.191312313, -9.782566   , 0.03759563  , 0.000437152485, 4.29741049E-05, -3.81589562E-05, 1.56375921  , -0.0174970273, 9.21088649E-05, 918.4972    , 29.6618557  , 820.328369  , 2.81        , 3           , 255         , 0           , 0
-0.1712889  , -9.784113   , 0.03906583  , -0.000331201823, 0.000259209948, -0.0005834988, 1.56375575  , -0.0174911749, 9.466014E-05, 918.4972    , 29.6618557  , 820.329     , 2.82        , 3           , 255         , 0           , 0
-0.137803331, -9.791962   , 0.00364353438, -0.0006405801, 0.0004848583, -0.0005074388, 1.56374931  , -0.0174860712, 9.947393E-05, 918.5437    , 29.6626015  , 820.3296    , 2.83        , 3           , 255         , 0           , 0
-0.1284301  , -9.794163   , -0.0323754922, 0.000246489682, 0.000136220508, -0.000183102064, 1.56375182  , -0.01748423 , 0.0001008227, 918.5437    , 29.6626015  , 820.3302    , 2.84        , 3           , 255         , 0           , 0
-0.150268853, -9.79453    , -0.06175343 , -0.000182598975, -3.61307757E-05, -0.000159927149, 1.56375     , -0.0174826346, 0.00010045011, 918.5437    , 29.6626015  , 820.3308    , 2.85        , 3           , 255         , 0           , 0
-0.180363089, -9.810878   , -0.08737187 , -0.0005079292, -1.53377769E-05, 0.000302479253, 1.563745    , -0.01748566 , 0.00010031784, 918.5437    , 29.6626015  , 820.3314    , 2.86        , 3           , 255         , 0           , 0
-0.197888583, -9.793628   , -0.113342419, -0.000103233942, 7.810211E-05, -9.843743E-05, 1.56374383  , -0.0174846686, 0.0001010919, 918.5437    , 29.6626015  , 820.332031  , 2.87        , 3           , 255         , 0           , 0
-0.193076447, -9.787903   , -0.128262967, -0.000176677684, 0.000286621653, -0.000306662754, 1.56374216  , -0.0174815841, 0.000103936582, 918.5437    , 29.6626015  , 820.332642  , 2.88        , 3           , 255         , 0           , 0
-0.185447738, -9.793965   , -0.141264051, -0.000342872, -0.0006258568, -0.0005057144, 1.5637387   , -0.0174765717, 9.76417359E-05, 918.5437    , 29.6626015  , 820.333252  , 2.89        , 3           , 255         , 0           , 0
-0.194570258, -9.804104   , -0.141355082, -0.0001279026, -0.000396517222, -0.000200677285, 1.56373751  , -0.0174745917, 9.366252E-05, 918.5437    , 29.6626015  , 820.333862  , 2.9         , 3           , 255         , 0           , 0
-0.188958675, -9.802608   , -0.1343611  , 0.000122710378, 0.000458001043, -8.958814E-05, 1.56375015  , -0.017476853, 9.803669E-05, 918.5437    , 29.6626015  , 820.306335  , 2.91        , 3           , 255         , 0           , 0
-0.175827116, -9.78923    , -0.143638119, -0.0002282455, 0.000458313967, -0.000952362956, 1.56374776  , -0.0174673013, 0.000102552389, 918.5437    , 29.6626015  , 820.306763  , 2.92        , 3           , 255         , 0           , 0
-0.1676458  , -9.795431   , -0.143634349, 0.000155214235, 0.0006456798, -0.000201323972, 1.56374919  , -0.0174652431, 0.000108995322, 918.5123    , 29.662466   , 820.3072    , 2.93        , 3           , 255         , 0           , 0
-0.17046693 , -9.78693    , -0.14797613 , 0.000596658268, 7.519149E-05, 0.000331799325, 1.56375515  , -0.017468553, 0.000109771252, 918.5123    , 29.662466   , 820.3076    , 2.94        , 3           , 255         , 0           , 0
-0.179393083, -9.787859   , -0.134689   , 0.00046913902, 0.000339534978, 0.0003479591, 1.56375992  , -0.0174720082, 0.000113190668, 918.5123    , 29.662466   , 820.308044  , 2.95        , 3           , 255         , 0           , 0
-0.194951758, -9.792735   , -0.120743074, -0.000114435155, 0.000215311273, 0.0005938669, 1.56375873  , -0.0174779333, 0.0001153852, 918.5123    , 29.662466   , 820.3085    , 2.96        , 3           , 255         , 0           , 0
-0.17825821 , -9.791861   , -0.104859427, 0.000143002268, -0.000162367185, 0.000613195647, 1.56376016  , -0.0174840726, 0.00011380545, 918.5123    , 29.662466   , 820.3089    , 2.97        , 3           , 255         , 0           , 0
-0.1784112  , -9.786871   , -0.08314635 , 0.000452275446, -0.000207245059, 0.0005331792, 1.56376469  , -0.01748942 , 0.000111769281, 918.5123    , 29.662466   , 820.3093    , 2.98        , 3           , 255         , 0           , 0
-0.172023684, -9.785773   , -0.06309286 , 0.000182337666, 0.00012533064, 0.00137347681, 1.5637666   , -0.0175031461, 0.000113119939, 918.5123    , 29.662466   , 820.309753  , 2.99        , 3           , 255         , 0           , 0
-0.161157385, -9.794299   , -0.0525838956, 0.000448317442, 4.85619821E-05, 0.000647575536, 1.563771    , -0.017509615, 0.000113650887, 918.5123    , 29.662466   , 820.3102    , 3           , 3           , 0           , 8.461237    , 300
-0.156882986, -9.793899   , -0.0377849154, -0.0002837552, 0.0002679492, 0.000691357069, 1.56368053  , -0.0175277069, 0.000117914242, 918.5123    , 29.662466   , 820.329956  , 3.01        , 3           , 1           , 0           , 0
-0.1631238  , -9.804331   , -0.03015418 , -0.0002983875, 0.0006831145, 9.498285E-05, 1.56367743  , -0.0175286084, 0.00012475306, 918.5123    , 29.662466   , 820.3305    , 3.02        , 3           , 2           , 0           , 0
-0.161408558, -9.77798748 , -0.0310329311, 5.50675468E-05, 0.000225259282, 0.000921673141, 1.56367791  , -0.0175378062, 0.000127072446, 918.493835  , 29.6660614  , 820.331055  , 3.03        , 3           , 3           , 0           , 0
-0.170262054, -9.788485   , -0.0200884044, 0.000229703 , 7.218975E-05, 0.0005167165, 1.56368029  , -0.0175429676, 0.000127829728, 918.493835  , 29.6660614  , 820.331665  , 3.04        , 3           , 4           , 0           , 0
-0.165962443, -9.790547   , -0.01809674 , 0.000695307739, 0.000152783585, 0.000986497 , 1.56368721  , -0.0175528228, 0.000129428154, 918.493835  , 29.6660614  , 820.3323    , 3.05        , 3           , 5           , 0           , 0
-0.169689581, -9.796191   , -0.0229486674, 3.80730926E-05, 0.000613525335, 0.000782627263, 1.56368744  , -0.0175606068, 0.000135620561, 918.493835  , 29.6660614  , 820.3329    , 3.06        , 3           , 6           , 0           , 0
-0.166576028, -9.797667   , -0.0269358214, -0.0006097991, 0.000333314616, -0.0009947354, 1.56368136  , -0.01755064 , 0.000138881573, 918.493835  , 29.6660614  , 820.3335    , 3.07        , 3           , 7           , 0           , 0
-0.164955571, -9.789904   , -0.03177338 , -0.000798846362, 0.000252432743, -0.000531973667, 1.56367338  , -0.0175453  , 0.000141369528, 918.493835  , 29.6660614  , 820.3341    , 3.08        , 3           , 8           , 5           , 5
-0.163574129, -9.797529   , -0.03822159 , -0.000125964929, 0.0003335168, 0.000171229782, 1.56367218  , -0.0175469872, 0.000144716279, 918.493835  , 29.6660614  , 820.3347    , 3.09        , 3           , 9           , 5           , 0.1
-0.169966221, -9.78712    , -0.05813974 , 0.0001719904, 5.30993566E-06, -3.25573565E-05, 1.56367385  , -0.0175466612, 0.000144768448, 918.493835  , 29.6660614  , 820.3353    , 3.1         , 3           , 10          , 0.1         , 0.1
-0.165706426, -9.786196   , -0.071749635, -0.0009935619, 0.000408455438, -8.723681E-05, 1.56373727  , -0.017533008, 0.000147559083, 918.493835  , 29.6660614  , 820.377747  , 3.11        , 3           , 11          , 0.007276487 , 0.00727648335
-0.172739089, -9.791567   , -0.07529205 , -0.0001941429, -0.0003368277, -0.000143750571, 1.56373537  , -0.0175315961, 0.000144180653, 918.493835  , 29.6660614  , 820.3786    , 3.12        , 3           , 12          , 0.174645633 , 0
-0.17454581 , -9.787107   , -0.08354673 , -0.000171416643, -9.666168E-05, 7.132574E-05, 1.5637337   , -0.0175323151, 0.000143220313, 918.5281    , 29.6630077  , 820.379456  , 3.13        , 3           , 13          , 0           , 0
-0.168374926, -9.79357052 , -0.09230855 , -0.00130566361, -9.54985153E-05, 0.0003887955, 1.56372058  , -0.0175362118, 0.0001422926, 918.5281    , 29.6630077  , 820.3803    , 3.14        , 3           , 14          , 0.000156856011, -0.000529990066
-0.177075192, -9.792409   , -0.100106835, -0.000755006447, -0.00019782118, -0.000386629225, 1.56371307  , -0.0175323579, 0.000140288073, 918.5281    , 29.6630077  , 820.381165  , 3.15        , 3           , 15          , 0           , -4.87771758E-05
-0.181099713, -9.785196   , -0.102720261, -0.000710374268, 6.463908E-05, -0.00103179319, 1.56370592  , -0.0175220389, 0.000140861812, 918.5281    , 29.6630077  , 820.382     , 3.16        , 3           , 16          , 0           , 1.401298E-45
-0.175590232, -9.790735   , -0.100645937, -0.001200062, 0.000391401059, -1.44094374E-05, 1.56369388  , -0.0175218638, 0.000144774909, 918.5281    , 29.6630077  , 820.3829    , 3.17        , 3           , 20          , 0           , 0
-0.168241456, -9.792353   , -0.105796   , -0.0005104817, 5.1793264E-05, -0.00070174993, 1.56368887  , -0.0175148472, 0.000145241545, 918.5281    , 29.6630077  , 820.3837    , 3.18        , 3           , 21          , 0           , 0
-0.171945572, -9.80318    , -0.102223061, 0.00026398804, 1.64588564E-05, -0.000957948738, 1.56369162  , -0.0175052658, 0.000145337472, 918.5281    , 29.6630077  , 820.3846    , 3.19        , 3           , 22          , 0           , 0
-0.1759827  , -9.794187   , -0.09457619 , 0.000112265305, -0.000177716021, 8.148996E-05, 1.56369281  , -0.0175060946, 0.000143564888, 918.5281    , 29.6630077  , 820.385437  , 3.2         , 3           , 40          , 0           , 0
-0.181221455, -9.798147   , -0.08652578 , -0.000335481658, -5.261565E-06, -0.000611206749, 1.56364417  , -0.01750271 , 0.0001442616, 918.5281    , 29.6630077  , 820.372131  , 3.21        , 3           , 41          , 0           , 0
-0.178604871, -9.794722   , -0.08013346 , -0.0004512346, 0.000157280156, -0.0006074376, 1.56363964  , -0.017496625, 0.000145790123, 918.5281    , 29.6630077  , 820.3729    , 3.22        , 3           , 42          , 0           , 0
-0.190328628, -9.792044   , -0.08509673 , -0.0007749762, 0.0006113074, -0.000357261073, 1.56363189  , -0.0174930077, 0.000151878208, 918.5209    , 29.6643658  , 820.3737    , 3.23        , 3           , 255         , 0           , 0
-0.173195213, -9.791072   , -0.0717409551, -0.000355282216, 9.986319E-05, -0.00028961245, 1.56362832  , -0.0174901038, 0.0001528553, 918.5209    , 29.6643658  , 820.3745    , 3.24        , 3           , 255         , 0           , 0
-0.1689705  , -9.783736   , -0.07586128 , -0.000702031655, 1.04453065E-05, -0.000430428481, 1.56362128  , -0.0174858011, 0.000152928857, 918.5209    , 29.6643658  , 820.3753    , 3.25        , 3           , 255         , 0           , 0
-0.176274508, -9.785082   , -0.07567853 , -0.000293410674, 7.89641053E-05, -0.000207714271, 1.56361842  , -0.0174837187, 0.000153701971, 918.5209    , 29.6643658  , 820.3761    , 3.26        , 3           , 255         , 0           , 0
-0.180710092, -9.789329   , -0.07361373 , -0.000501788047, 0.000274580845, 9.776262E-05, 1.56361341  , -0.0174846761, 0.000156456314, 918.5209    , 29.6643658  , 820.3769    , 3.27        , 3           , 255         , 0           , 0
-0.167544484, -9.810515   , -0.06003379 , -0.0003742777, 0.0004143247, 0.0003969695, 1.5636096   , -0.0174886174, 0.000160627416, 918.5209    , 29.6643658  , 820.3777    , 3.28        , 3           , 255         , 0           , 0
-0.175734475, -9.795443   , -0.05448211 , 0.000144500576, -0.000157721166, -0.000310861738, 1.56361115  , -0.017485518, 0.000159028088, 918.5209    , 29.6643658  , 820.3785    , 3.29        , 3           , 255         , 0           , 0
-0.171873018, -9.781354   , -0.0615232959, -2.58113141E-05, -0.0001713456, -0.000324153458, 1.56361079  , -0.0174822882, 0.000157291841, 918.5209    , 29.6643658  , 820.3793    , 3.3         , 3           , 255         , 0           , 0
-0.178967744, -9.77178    , -0.06503458 , -0.00116715231, -0.000162929529, -0.00071752537, 1.56359518  , -0.0174846351, 0.000155681322, 918.5209    , 29.6643658  , 820.377136  , 3.31        , 3           , 255         , 0           , 0
-0.175081357, -9.784151   , -0.06655643 , -0.0012527341, -0.000112322916, -0.0008819425, 1.56358266  , -0.0174758248, 0.000154494643, 918.5209    , 29.6643658  , 820.3779    , 3.32        , 3           , 255         , 0           , 0
-0.163123414, -9.790275   , -0.05768034 , -0.00108725415, 0.000262321584, -0.00037822075, 1.56357169  , -0.017472025, 0.000157090632, 918.5464    , 29.6644325  , 820.3787    , 3.33        , 3           , 255         , 0           , 0
-0.167247027, -9.82005    , -0.06919603 , -0.000633655756, -1.33099384E-05, 0.0001463377, 1.56356537  , -0.01747349 , 0.0001569686, 918.5464    , 29.6644325  , 820.3795    , 3.34        , 3           , 255         , 0           , 0
-0.172063321, -9.818415   , -0.0622127764, -0.000427964376, 9.165716E-05, -0.0006988145, 1.5635612   , -0.0174665023, 0.000157834816, 918.5464    , 29.6644325  , 820.3803    , 3.35        , 3           , 255         , 0           , 0
-0.16436328 , -9.78982    , -0.06289749 , 0.000542042835, 0.00037431618, 4.93111E-05 , 1.56356657  , -0.0174669679, 0.000161582109, 918.5464    , 29.6644325  , 820.3811    , 3.36        , 3           , 255         , 0           , 0
-0.175203651, -9.776355   , -0.0620434172, -0.0005691111, -3.788364E-05, -0.000345649547, 1.56356072  , -0.0174635146, 0.000161177828, 918.5464    , 29.6644325  , 820.3819    , 3.37        , 3           , 255         , 0           , 0
-0.175987735, -9.779589   , -0.07150577 , -0.0007004844, 0.000149344909, -0.000243464325, 1.56355381  , -0.0174610689, 0.00016265329, 918.5464    , 29.6644325  , 820.3827    , 3.38        , 3           , 255         , 0           , 0
-0.180428   , -9.812278   , -0.07626331 , -0.0005097594, 1.40254851E-05, 0.0003857296, 1.5635488   , -0.0174649265, 0.000162821889, 918.5464    , 29.6644325  , 820.3835    , 3.39        , 3           , 255         , 0           , 0
-0.176049083, -9.811839   , -0.07935779 , 0.00028442053, -9.167631E-05, -0.000454966677, 1.56355166  , -0.0174603816, 0.0001618718, 918.5464    , 29.6644325  , 820.3843    , 3.4         , 3           , 255         , 0           , 0
-0.167821   , -9.783228   , -0.069434166, 0.000442639517, 8.266745E-05, -0.00055922434, 1.5635612   , -0.0174572952, 0.000162565688, 918.5464    , 29.6644325  , 820.3451    , 3.41        , 3           , 255         , 0           , 0
-0.160565883, -9.773049   , -0.08035676 , 0.000234561958, -6.743806E-05, -0.0006750605, 1.56356359  , -0.0174505468, 0.00016184288, 918.5464    , 29.6644325  , 820.345642  , 3.42        , 3           , 255         , 0           , 0
-0.16212526 , -9.754195   , -0.08380697 , 0.0003617471, 0.000164346216, 0.000216252229, 1.56356716  , -0.0174526982, 0.000163502758, 918.5012    , 29.6643658  , 820.3462    , 3.43        , 3           , 255         , 0           , 0
-0.1702728  , -9.786005   , -0.08424264 , -0.000485918252, 0.000294552359, 0.00104180141, 1.56356227  , -0.0174630936, 0.000166524464, 918.5012    , 29.6643658  , 820.346741  , 3.44        , 3           , 255         , 0           , 0
-0.175453037, -9.796625   , -0.08374998 , 0.000258941262, 0.000436931528, 0.0002546438, 1.56356478  , -0.0174656119, 0.000170912579, 918.5012    , 29.6643658  , 820.3473    , 3.45        , 3           , 255         , 0           , 0
-0.175811619, -9.794373   , -0.08554675 , 0.00118682964, 0.000221884286, 0.000259307941, 1.56357658  , -0.0174681861, 0.00017314998, 918.5012    , 29.6643658  , 820.347839  , 3.46        , 3           , 255         , 0           , 0
-0.166369468, -9.79284    , -0.08547436 , 0.0003361124, 0.0005866621, 0.000619500235, 1.56357992  , -0.01747434 , 0.000179060138, 918.5012    , 29.6643658  , 820.3484    , 3.47        , 3           , 255         , 0           , 0
-0.162756413, -9.787752   , -0.08175671 , -0.000593841833, 0.000574770849, 0.0002117726, 1.563574    , -0.0174764171, 0.000184822187, 918.5012    , 29.6643658  , 820.348938  , 3.48        , 3           , 255         , 0           , 0
-0.162964553, -9.793713   , -0.0842769444, -0.000543386966, 0.0002201355, -0.000348387926, 1.56356859  , -0.0174729172, 0.000186999008, 918.5012    , 29.6643658  , 820.3495    , 3.49        , 3           , 255         , 0           , 0
-0.170013145, -9.80871    , -0.08841528 , -0.000629720744, -0.000189251383, 0.000261570676, 1.56356239  , -0.0174755454, 0.0001851249, 918.5012    , 29.6643658  , 820.350037  , 3.5         , 3           , 255         , 0           , 0
-0.177332565, -9.807699   , -0.08653675 , 0.000458788418, -1.73721346E-05, 0.000320762425, 1.563533    , -0.01746873 , 0.000185565485, 918.5012    , 29.6643658  , 820.3799    , 3.51        , 3           , 255         , 0           , 0
-0.1961037  , -9.788595   , -0.07465129 , 0.00107272272, -0.000175583584, -0.0002878825, 1.5635438   , -0.0174658652, 0.000183789161, 918.5012    , 29.6643658  , 820.3806    , 3.52        , 3           , 255         , 0           , 0
-0.189542264, -9.765287   , -0.06311796 , 0.000143668032, -0.000131353445, 0.0006114731, 1.56354523  , -0.0174719859, 0.00018252054, 918.6       , 29.6676216  , 820.381348  , 3.53        , 3           , 255         , 0           , 0
-0.148673609, -9.775617   , -0.07487342 , -0.001081761, 0.0004951302, -0.000411468063, 1.56353438  , -0.0174678378, 0.000187442391, 918.6       , 29.6676216  , 820.3821    , 3.54        , 3           , 255         , 0           , 0
-0.120655216, -9.804474   , -0.09230219 , -0.000412638357, 0.000558560365, 0.000662405044, 1.56353021  , -0.0174744222, 0.000193075917, 918.6       , 29.6676216  , 820.3828    , 3.55        , 3           , 255         , 0           , 0
-0.159964114, -9.815045   , -0.0772865638, 0.000397716183, 8.261134E-05, -0.000128240034, 1.56353414  , -0.017473137, 0.000193891843, 918.6       , 29.6676216  , 820.383545  , 3.56        , 3           , 255         , 0           , 0
-0.199910074, -9.79674    , -0.0668547  , 0.001717006 , 0.000279421045, -0.000841617351, 1.56355131  , -0.0174647029, 0.000196625668, 918.6       , 29.6676216  , 820.3843    , 3.57        , 3           , 255         , 0           , 0
-0.210049748, -9.759237   , -0.041537445, 0.0009415626, 0.0004313419, -1.26171872E-05, 1.56356072  , -0.0174645465, 0.000200939277, 918.6       , 29.6676216  , 820.385     , 3.58        , 3           , 255         , 0           , 0
-0.189262941, -9.759669   , -0.0393422022, -0.000853746256, 7.46448641E-05, -0.000894577941, 1.56355214  , -0.0174556  , 0.0002016201, 918.6       , 29.6676216  , 820.385742  , 3.59        , 3           , 255         , 0           , 0
-0.173825145, -9.787632   , -0.0552511029, -0.00135985261, 0.000155593618, -0.000388005661, 1.56353855  , -0.0174517054, 0.000203147749, 918.6       , 29.6676216  , 820.3865    , 3.6         , 3           , 255         , 0           , 0
-0.150299832, -9.824057   , -0.0568348877, -0.0004926017, 0.0002373409, -0.0006482054, 1.563546    , -0.0174624752, 0.000205260352, 918.6       , 29.6676216  , 820.2703    , 3.61        , 3           , 255         , 0           , 0
-0.124843754, -9.824126   , -0.0831906646, 0.000545540068, 0.000349693728, -0.00133264554, 1.56355131  , -0.0174491275, 0.000208661077, 918.6       , 29.6676216  , 820.2703    , 3.62        , 3           , 255         , 0           , 0
-0.151188344, -9.782634   , -0.0707381442, 0.00105414412, -0.000160288007, 0.0002375337, 1.56356192  , -0.0174515173, 0.0002070748, 918.5132    , 29.6650429  , 820.2704    , 3.63        , 3           , 255         , 0           , 0
-0.187623739, -9.77444649 , -0.05556079 , 0.000564599643, 0.000118505995, 0.000365366082, 1.56356752  , -0.0174551588, 0.00020828571, 918.5132    , 29.6650429  , 820.270447  , 3.64        , 3           , 255         , 0           , 0
-0.199144512, -9.791056   , -0.0644665062, 8.71771044E-05, 0.000212836341, -9.7236385E-05, 1.56356835  , -0.0174541716, 0.0002104076, 918.5132    , 29.6650429  , 820.2705    , 3.65        , 3           , 255         , 0           , 0
-0.184054121, -9.812107   , -0.06177944 , -0.0008169756, -3.42702842E-05, -9.99485856E-05, 1.56356013  , -0.0174531788, 0.000210057333, 918.5132    , 29.6650429  , 820.270569  , 3.66        , 3           , 255         , 0           , 0
-0.172051   , -9.780385   , -0.0882771462, -0.00048459915, -3.4546596E-05, -8.977435E-05, 1.56355524  , -0.017452281, 0.000209707141, 918.5132    , 29.6650429  , 820.2706    , 3.67        , 3           , 255         , 0           , 0
-0.180674255, -9.796038   , -0.0828437954, 0.0002763996, -0.000132184534, -0.000111185385, 1.563558    , -0.017451182, 0.000208376965, 918.5132    , 29.6650429  , 820.2707    , 3.68        , 3           , 255         , 0           , 0
-0.1659613  , -9.784329   , -0.084305726, -0.0007370915, -7.8967656E-05, -0.000333137228, 1.56355059  , -0.0174478553, 0.000207563789, 918.5132    , 29.6650429  , 820.270752  , 3.69        , 3           , 255         , 0           , 0
-0.1403035  , -9.782835   , -0.111513481, -0.002214156, 0.000277129642, -0.000368707173, 1.56352842  , -0.01744415 , 0.000210309736, 918.5132    , 29.6650429  , 820.2708    , 3.7         , 3           , 255         , 0           , 0
-0.139806166, -9.798732   , -0.108574748, -0.000471791747, -0.000165594334, 0.0007937168, 1.5635165   , -0.017444605, 0.000208837111, 918.5132    , 29.6650429  , 820.294739  , 3.71        , 3           , 255         , 0           , 0
-0.157574773, -9.8103     , -0.08742783 , 0.00102323585, -0.0007230517, 0.00162785477, 1.56352675  , -0.0174609367, 0.0002017245, 918.5132    , 29.6650429  , 820.2949    , 3.72        , 3           , 255         , 0           , 0
-0.0945411548, -9.797977   , -0.024181366, 0.009288475 , -0.04337066 , 0.007397711 , 1.56362712  , -0.0175380334, -0.000231492551, 918.5391    , 29.6645012  , 820.2951    , 3.73        , 3           , 255         , 0           , 0
-0.17058225 , -9.797594   , 0.00674274424, 0.00484329136, -0.136340633, 0.007966444 , 1.5636996   , -0.0176274143, -0.00159447885, 918.5391    , 29.6645012  , 820.2953    , 3.74        , 3           , 255         , 0           , 0
-0.2003541  , -9.75527    , -0.171749026, 0.008717733 , -0.126664147, 0.009354142 , 1.563809    , -0.0177298915, -0.0028606  , 918.5391    , 29.6645012  , 820.2955    , 3.75        , 3           , 255         , 0           , 0
-0.124827385, -9.759091   , -0.17822665 , 0.0249784309, -0.06619303 , 0.02164618  , 1.5640707   , -0.017950898, -0.00352112064, 918.5391    , 29.6645012  , 820.295654  , 3.76        , 3           , 255         , 0           , 0
0.154450491 , -9.778146   , -0.0478977934, 0.0469198339, -0.05863696 , 0.0364967175, 1.56455052  , -0.018319644, -0.004105191, 918.5391    , 29.6645012  , 820.295837  , 3.77        , 3           , 255         , 0           , 0
0.344506383 , -9.787929   , 0.0462928861, 0.05696493  , -0.09434533 , 0.04071124  , 1.56513762  , -0.0187323466, -0.005046345, 918.5391    , 29.6645012  , 820.296     , 3.78        , 3           , 255         , 0           , 0
0.0978341848, -9.804512   , -0.0063567413, 0.05644128  , -0.09402679 , 0.05066068  , 1.56571972  , -0.0192439854, -0.005984036, 918.5391    , 29.6645012  , 820.2962    , 3.79        , 3           , 255         , 0           , 0
-0.0686887354, -9.854225   , 0.09273327  , 0.0216035247, -0.075119935, 0.0182423312, 1.56595     , -0.0194301  , -0.006734441, 918.5391    , 29.6645012  , 820.2964    , 3.8         , 3           , 255         , 0           , 0
-0.0353651568, -9.741148   , -0.0551118366, 0.00340584153, -0.06785655 , 0.002576284 , 1.56602979  , -0.01923937 , -0.007413612, 918.5391    , 29.6645012  , 820.279968  , 3.81        , 3           , 255         , 0           , 0
-0.295797139, -9.822249   , -0.0606283322, 0.0267527234, -0.0349187478, 0.0240554363, 1.56630409  , -0.01948154 , -0.007761735, 918.5391    , 29.6645012  , 820.2801    , 3.82        , 3           , 255         , 0           , 0
