Acc X       , Acc Y       , Acc Z       , Gyro X      , Gyro Y      , Gyro Z      , Euler X     , Euler Y     , Euler Z     , Pres X      , Pres Y      , Pres Z      , Time        , Status      , LowRate X   , LowRate Y   , LowRate Z    
9.766524    , 0.5981232   , -0.286771923, 0           , 0           , 0           , -1.12372112 , 1.50298309  , 0.623359442 , 918.6026    , 30.7725639  , 819.6158    , 0           , 2           , 0           , 5.4392314   , 0
9.763422    , 0.461592257 , -0.3062818  , -0.0157517865, 0.003592327 , -0.00169538881, -1.12446094 , 1.5029825   , 0.622775435 , 918.6026    , 30.7725639  , 819.6158    , 0.01        , 7           , 1           , 0           , 0
9.759265    , 0.488449275 , -0.29850468 , -0.01731494 , 0.001461721 , -0.00145759678, -1.12492144 , 1.50297463  , 0.6224872   , 918.6026    , 30.7725639  , 819.6158    , 0.02        , 7           , 2           , 0           , 0
9.777625    , 0.5179551   , -0.302893251, -0.0165654421, -0.00105778431, 0.000450955733, -1.1249187  , 1.50297463  , 0.6226566   , 918.5968    , 30.3303032  , 819.6158    , 0.03        , 7           , 3           , 0           , 0
9.770271    , 0.5262267   , -0.358637154, -0.005186264, 0.00282811513, 0.00218244083, -1.12520611 , 1.50300717  , 0.6224204   , 918.5968    , 30.3303032  , 819.6158    , 0.04        , 7           , 4           , 0           , 0
9.791948    , 0.506503463 , -0.2783334  , -0.00443656929, -0.00264031976, -0.000196675712, -1.12491024 , 1.50299311  , 0.6227609   , 918.5968    , 30.3303032  , 819.6158    , 0.05        , 7           , 5           , 0           , 0
9.811706    , 0.557566643 , -0.367632061, -0.007436068, -0.000397982541, -0.000473272172, -1.12496078 , 1.50298786  , 0.622785032 , 918.5968    , 30.3303032  , 819.6158    , 0.06        , 7           , 6           , 0           , 0
9.808821    , 0.5510558   , -0.340175927, -0.0005632939, 0.007099364 , 0.006119976 , -1.12552142 , 1.503074    , 0.6222283   , 918.5968    , 30.3303032  , 819.6158    , 0.07        , 7           , 7           , 0           , 0
9.793995    , 0.522432864 , -0.3124012  , -0.004399153, 0.0033223338, 0.00333089  , -1.12579608 , 1.503119    , 0.621997535 , 918.5968    , 30.3303032  , 819.6158    , 0.08        , 7           , 8           , 5           , 5
9.789401    , 0.508598566 , -0.338152736, -0.008919113, 0.00611131359, 0.00425334461, -1.12643    , 1.50318432  , 0.6214509   , 918.5968    , 30.3303032  , 819.6158    , 0.09        , 7           , 9           , 5           , 0.1
9.780417    , 0.5035035   , -0.288604438, -0.009640149, 0.0007524432, 0.004782801 , -1.126322   , 1.50323009  , 0.6216567   , 918.5968    , 30.3303032  , 819.6158    , 0.1         , 7           , 10          , 0.1         , 0.1
9.775482    , 0.503740847 , -0.314939082, -0.00341020734, -0.005005153, 0.007949404 , -1.12269068 , 1.50343621  , 0.625318646 , 918.5968    , 30.3303032  , 819.6689    , 0.11        , 7           , 11          , 0.0109544508, 0.0109544508
9.749967    , 0.4700842   , -0.310912818, -0.00169043033, -0.007744992, 0.008031432 , -1.12115777 , 1.50347519  , 0.626872659 , 918.5968    , 30.3303032  , 819.6689    , 0.12        , 7           , 12          , 0.0346410163, 0
9.760489    , 0.4519542   , -0.320415825, -0.00291320635, -0.00059458497, 0.00358324964, -1.12087572 , 1.50350523  , 0.627184451 , 918.5713    , 30.3687687  , 819.6689    , 0.13        , 7           , 13          , 0           , 0
9.785665    , 0.482459843 , -0.267572016, -0.0100599257, -0.0022784723, -0.00285169 , -1.12085581 , 1.50347161  , 0.6273042   , 918.5713    , 30.3687687  , 819.6689    , 0.14        , 7           , 14          , 0.00374905928, -0.00314983912
9.780298    , 0.5060133   , -0.3063436  , -0.008950807, -0.006199739, -0.00253978488, -1.1202817  , 1.503422    , 0.627969861 , 918.5713    , 30.3687687  , 819.6689    , 0.15        , 7           , 15          , 0           , -0.0006396591
9.790487    , 0.48631987  , -0.323782951, -0.005755364, -0.007812131, -0.00384107162, -1.11954653 , 1.50335038  , 0.628764033 , 918.5713    , 30.3687687  , 819.668945  , 0.16        , 7           , 16          , 0           , 1.401298E-45
9.795666    , 0.5018746   , -0.293960154, -0.009527543, -0.00884484 , -0.00360759324, -1.11869693 , 1.50328052  , 0.629711449 , 918.5713    , 30.3687687  , 819.669     , 0.17        , 7           , 20          , 0           , 0
9.787793    , 0.5177843   , -0.340526581, -0.00724120438, -0.0076681925, 0.0003084101, -1.11772978 , 1.50324869  , 0.6307537   , 918.5713    , 30.3687687  , 819.669067  , 0.18        , 7           , 21          , 0           , 0
9.799162    , 0.499262482 , -0.3314889  , -0.000457437, -0.004300611, 0.004728306 , -1.11685634 , 1.50327349  , 0.6316329   , 918.5713    , 30.3687687  , 819.6691    , 0.19        , 7           , 22          , 0           , 0
9.802253    , 0.504874349 , -0.320689619, 0.00305115  , -0.00351508055, 0.008914955 , -1.11577857 , 1.50333881  , 0.6326828   , 918.5713    , 30.3687687  , 819.6692    , 0.2         , 7           , 40          , 0           , 0
9.79894352  , 0.492130667 , -0.308072776, 0.00544591947, -0.005620205, 0.0125302291, -1.11124992 , 1.50365353  , 0.6371542   , 918.5713    , 30.3687687  , 819.784363  , 0.21        , 7           , 41          , 0           , 0
9.773503    , 0.466407925 , -0.355071634, 0.0109983236, -0.006794492, 0.01224386  , -1.10942459 , 1.50373256  , 0.6388733   , 918.5713    , 30.3687687  , 819.7844    , 0.22        , 7           , 42          , 1           , 0
9.759349    , 0.432215542 , -0.303972721, 0.01126706  , -0.0071158  , 0.009287841 , -1.10774767 , 1.50378418  , 0.6404411   , 918.5911    , 30.3945484  , 819.7845    , 0.23        , 7           , 255         , 0           , 0
9.746524    , 0.419468075 , -0.328642219, 0.009486398 , -0.004157534, 0.006279861 , -1.10668075 , 1.50382161  , 0.641415238 , 918.5911    , 30.3945484  , 819.784546  , 0.24        , 7           , 255         , 0           , 0
9.749794    , 0.409163147 , -0.323673546, 0.00419612275, -0.00465017557, 0.0004586848, -1.10598838 , 1.50380552  , 0.642067254 , 918.5911    , 30.3945484  , 819.7846    , 0.25        , 7           , 255         , 0           , 0
9.778073    , 0.456779152 , -0.335370272, 0.0005268296, -0.00515004061, -0.00617005443, -1.10570884 , 1.5037272   , 0.6423411   , 918.5911    , 30.3945484  , 819.784668  , 0.26        , 7           , 255         , 0           , 0
9.772947    , 0.4800388   , -0.314573079, 0.0009488459, -0.00680411234, -0.0115047861, -1.10556245 , 1.50359392  , 0.642479    , 918.5911    , 30.3945484  , 819.7847    , 0.27        , 7           , 255         , 0           , 0
9.76123     , 0.486576378 , -0.308454216, 0.000767671037, -0.0094079785, -0.0121783111, -1.10511887 , 1.50344241  , 0.6429159   , 918.5911    , 30.3945484  , 819.7848    , 0.28        , 7           , 255         , 0           , 0
9.768316    , 0.5215988   , -0.315887451, 0.00377457263, -0.008743418, -0.005763625, -1.10430694 , 1.50335479  , 0.6436918   , 918.5911    , 30.3945484  , 819.784851  , 0.29        , 7           , 255         , 0           , 0
9.780269    , 0.5391046   , -0.335298061, 0.0134019665, -0.008195534, 0.00221832818, -1.10294247 , 1.503337    , 0.644925952 , 918.5911    , 30.3945484  , 819.7849    , 0.3         , 7           , 255         , 0           , 0
9.783469    , 0.5324316   , -0.342603624, 0.0277897771, -0.004514628, 0.0125067793, -1.08960032 , 1.50430691  , 0.657967448 , 918.5911    , 30.3945484  , 819.763     , 0.31        , 7           , 255         , 0           , 0
9.787281    , 0.481214821 , -0.328207731, 0.0317934155, -0.00361920567, 0.0167333744, -1.08763385 , 1.50443721  , 0.6596192   , 918.5911    , 30.3945484  , 819.763062  , 0.32        , 7           , 255         , 0           , 0
9.776647    , 0.4396112   , -0.374143183, 0.0201488752, 0.00360409543, 0.00845702  , -1.087321   , 1.50453067  , 0.6597307   , 918.580139  , 30.4127979  , 819.7631    , 0.33        , 7           , 255         , 0           , 0
9.784269    , 0.5151463   , -0.3077653  , 0.0177076329, 0.006013866 , 0.0025295862, -1.087771   , 1.50457752  , 0.659102142 , 918.580139  , 30.4127979  , 819.7632    , 0.34        , 7           , 255         , 0           , 0
9.772652    , 0.5165973   , -0.322058976, 0.0150805963, 0.00158754713, 0.00748132262, -1.087308   , 1.50465238  , 0.659415066 , 918.580139  , 30.4127979  , 819.763245  , 0.35        , 7           , 255         , 0           , 0
9.779878    , 0.5011499   , -0.327088743, 0.007819781 , 0.00263199117, 0.007167485 , -1.08707786 , 1.50473082  , 0.6595669   , 918.580139  , 30.4127979  , 819.7633    , 0.36        , 7           , 255         , 0           , 0
9.778056    , 0.500497341 , -0.326955467, -0.00109543838, 0.00435799267, 0.00618257839, -1.08723676 , 1.5048058   , 0.6594188   , 918.580139  , 30.4127979  , 819.763367  , 0.37        , 7           , 255         , 0           , 0
9.790506    , 0.495461047 , -0.3219803  , -0.000885103364, 0.00346464757, 0.00604285765, -1.08728361 , 1.50487459  , 0.6593811   , 918.580139  , 30.4127979  , 819.7634    , 0.38        , 7           , 255         , 0           , 0
9.808813    , 0.477151483 , -0.348560333, -0.00269570574, 0.000591360731, 0.00579488324, -1.08698177 , 1.504928    , 0.659710348 , 918.580139  , 30.4127979  , 819.7635    , 0.39        , 7           , 255         , 0           , 0
9.768311    , 0.4473824   , -0.361062467, -0.007492218, 0.002990163 , 0.00336366333, -1.08722126 , 1.50497234  , 0.659544945 , 918.580139  , 30.4127979  , 819.76355   , 0.4         , 7           , 255         , 0           , 0
9.785814    , 0.512726665 , -0.314296067, -0.0108465  , 0.00472258264, 0.00620949455, -1.08496344 , 1.50518751  , 0.6619056   , 918.580139  , 30.4127979  , 819.777954  , 0.41        , 7           , 255         , 0           , 0
9.798294    , 0.5336678   , -0.375563353, -0.000317410333, 0.00272308849, 0.0116903214, -1.08450162 , 1.505304    , 0.662371159 , 918.580139  , 30.4127979  , 819.778     , 0.42        , 7           , 255         , 0           , 0
9.798792    , 0.493026167 , -0.3621406  , 0.0175461434, 0.00562434737, 0.0139151523, -1.0840919  , 1.50545442  , 0.6626065   , 918.59314   , 30.4221611  , 819.7781    , 0.43        , 7           , 255         , 0           , 0
9.772879    , 0.4671523   , -0.329538524, 0.0244432483, 0.0049592494, 0.01421505  , -1.08350074 , 1.50560331  , 0.6629541   , 918.59314   , 30.4221611  , 819.778137  , 0.44        , 7           , 255         , 0           , 0
9.775       , 0.467595667 , -0.336064816, 0.0195256267, 0.006933014 , 0.011635473 , -1.08340979 , 1.50573885  , 0.6628498   , 918.59314   , 30.4221611  , 819.7782    , 0.45        , 7           , 255         , 0           , 0
9.774526    , 0.470116556 , -0.324259579, 0.0125286849, 0.008510894 , 0.0110541517, -1.083645   , 1.50587571  , 0.6624884   , 918.59314   , 30.4221611  , 819.778259  , 0.46        , 7           , 255         , 0           , 0
9.757744    , 0.4564209   , -0.333053172, 0.007229803 , 0.01191086  , 0.0122180376, -1.084313   , 1.50603664  , 0.661746    , 918.59314   , 30.4221611  , 819.7783    , 0.47        , 7           , 255         , 0           , 0
9.768976    , 0.4359992   , -0.304713666, -0.00222592149, 0.0156014273, 0.00848710351, -1.085853   , 1.506186    , 0.6602252   , 918.59314   , 30.4221611  , 819.7784    , 0.48        , 7           , 255         , 0           , 0
9.784868    , 0.459271044 , -0.31553787 , -0.007338969, 0.0111703249, 0.00343619  , -1.087208   , 1.50626922  , 0.6589401   , 918.59314   , 30.4221611  , 819.7785    , 0.49        , 7           , 255         , 0           , 0
9.786467    , 0.481027365 , -0.3190829  , -0.005484398, 0.0104664247, 0.00477869157, -1.088354   , 1.5063616   , 0.6578467   , 918.59314   , 30.4221611  , 819.7786    , 0.5         , 7           , 255         , 0           , 0
9.779924    , 0.465604722 , -0.306742221, -0.002956216, 0.0059508495, 0.005123821 , -1.08580911 , 1.50660276  , 0.6604148   , 918.59314   , 30.4221611  , 819.7629    , 0.51        , 7           , 255         , 0           , 0
9.784666    , 0.4517718   , -0.285340577, -0.00366829638, 0.00168693846, 0.00547376927, -1.08568144 , 1.50666046  , 0.6605793   , 918.59314   , 30.4221611  , 819.763     , 0.52        , 7           , 255         , 0           , 0
9.76619148  , 0.454307854 , -0.314683765, -0.005915061, -0.00268468866, 0.006365237 , -1.084907   , 1.506705    , 0.6614143   , 918.621155  , 30.4303684  , 819.7631    , 0.53        , 7           , 255         , 0           , 0
9.777444    , 0.468699783 , -0.347272843, -0.00436773431, 0.00112069212, 0.00555314776, -1.08469915 , 1.506759    , 0.661666751 , 918.621155  , 30.4303684  , 819.763245  , 0.54        , 7           , 255         , 0           , 0
9.784549    , 0.470331758 , -0.35992223 , 0.001034834 , 0.004434224 , 0.003592182 , -1.08503926 , 1.50680935  , 0.66131556  , 918.621155  , 30.4303684  , 819.763367  , 0.55        , 7           , 255         , 0           , 0
9.780466    , 0.487411171 , -0.3168621  , 0.0061252825, 0.00316375517, 0.00522522349, -1.085033   , 1.506871    , 0.6612605   , 918.621155  , 30.4303684  , 819.7635    , 0.56        , 7           , 255         , 0           , 0
9.76713848  , 0.472621858 , -0.334306657, 0.007584173 , 0.00319458242, 0.0072246   , -1.08487165 , 1.50694752  , 0.6613461   , 918.621155  , 30.4303684  , 819.7636    , 0.57        , 7           , 255         , 0           , 0
9.778343    , 0.466072023 , -0.352353126, 0.00644286536, 0.00758289266, 0.00752211176, -1.08530712 , 1.50705314  , 0.66084516  , 918.621155  , 30.4303684  , 819.763733  , 0.58        , 7           , 255         , 0           , 0
9.78291     , 0.46603018  , -0.339432418, 0.005691102 , 0.0112046991, 0.00658065267, -1.08632445 , 1.50716174  , 0.659767449 , 918.621155  , 30.4303684  , 819.763855  , 0.59        , 7           , 255         , 0           , 0
9.781373    , 0.470520437 , -0.336409152, 0.006197512 , 0.0157071352, 0.00668846536, -1.08795977 , 1.507296    , 0.6580683   , 918.621155  , 30.4303684  , 819.764     , 0.6         , 7           , 255         , 0           , 0
9.777952    , 0.471025169 , -0.321739316, 0.00434686244, 0.0117826909, 0.006637809 , -1.08536816 , 1.50759912  , 0.660605431 , 918.621155  , 30.4303684  , 819.7094    , 0.61        , 7           , 255         , 0           , 0
9.77733     , 0.443646044 , -0.322054625, 0.000347672263, 0.0112266932, 0.004722214 , -1.08658886 , 1.50769353  , 0.6593796   , 918.621155  , 30.4303684  , 819.709534  , 0.62        , 7           , 255         , 0           , 0
9.76158     , 0.426248252 , -0.320137352, -0.009056107, 0.0144653134, -0.000165672973, -1.0887202  , 1.50776076  , 0.657334566 , 918.5948    , 30.4358654  , 819.709656  , 0.63        , 7           , 255         , 0           , 0
9.75498     , 0.444380462 , -0.3099939  , -0.0168210585, 0.0150207225, -0.0018824134, -1.09113443 , 1.50781369  , 0.6550834   , 918.5948    , 30.4358654  , 819.7098    , 0.64        , 7           , 255         , 0           , 0
9.776421    , 0.449144363 , -0.320796072, -0.0210678875, 0.013946997 , -0.003609584, -1.09357369 , 1.50784409  , 0.65285033  , 918.5948    , 30.4358654  , 819.7099    , 0.65        , 7           , 255         , 0           , 0
9.787165    , 0.463285625 , -0.340619355, -0.0223941077, 0.0138289593, -0.0075158556, -1.09629571 , 1.50784314  , 0.6503476   , 918.5948    , 30.4358654  , 819.71      , 0.66        , 7           , 255         , 0           , 0
9.781445    , 0.458230436 , -0.317129433, -0.0194528084, 0.0165957   , -0.008087279, -1.09941745 , 1.50784588  , 0.6474149   , 918.5948    , 30.4358654  , 819.710144  , 0.67        , 7           , 255         , 0           , 0
9.788555    , 0.4632291   , -0.3046506  , -0.01703172 , 0.0138323177, -0.00769568 , -1.10209632 , 1.50784028  , 0.644900858 , 918.5948    , 30.4358654  , 819.710266  , 0.68        , 7           , 255         , 0           , 0
9.797095    , 0.5008267   , -0.325014383, -0.0128157865, 0.0121077858, -0.00552856131, -1.10433269 , 1.50784492  , 0.6427879   , 918.5948    , 30.4358654  , 819.7104    , 0.69        , 7           , 255         , 0           , 0
9.785966    , 0.514671147 , -0.3283209  , -0.00586883537, 0.007807436 , -0.00156989251, -1.105611   , 1.50786388  , 0.6415661   , 918.5948    , 30.4358654  , 819.7105    , 0.7         , 7           , 255         , 0           , 0
9.795112    , 0.5044619   , -0.3221218  , 0.00300857937, 0.00476250052, 0.004664607 , -1.1024071  , 1.50810707  , 0.644733131 , 918.5948    , 30.4358654  , 819.7072    , 0.71        , 7           , 255         , 0           , 0
9.795206    , 0.476868629 , -0.326341331, 0.008900648 , 0.00421089027, 0.00742517738, -1.10238409 , 1.50819266  , 0.6446671   , 918.5948    , 30.4358654  , 819.707336  , 0.72        , 7           , 255         , 0           , 0
9.784007    , 0.470721245 , -0.316050828, 0.008434465 , 0.005286869 , 0.006031079 , -1.10261774 , 1.50827086  , 0.644348    , 918.5885    , 30.4411564  , 819.707458  , 0.73        , 7           , 255         , 0           , 0
9.769122    , 0.471486956 , -0.306721538, 0.009854751 , 0.00563452439, 0.00651758444, -1.10285425 , 1.50835586  , 0.64401263  , 918.5885    , 30.4411564  , 819.7076    , 0.74        , 7           , 255         , 0           , 0
9.765706    , 0.452920824 , -0.3007127  , 0.008416483 , 0.00534259062, 0.00659916457, -1.10305715 , 1.5084399   , 0.64372474  , 918.5885    , 30.4411564  , 819.7077    , 0.75        , 7           , 255         , 0           , 0
9.769856    , 0.429451138 , -0.310563773, 0.0005158759, 0.00529704  , 0.002643391 , -1.10361707 , 1.50848687  , 0.6431592   , 918.5885    , 30.4411564  , 819.7078    , 0.76        , 7           , 255         , 0           , 0
9.767838    , 0.4224564   , -0.308677971, -0.0104177492, 0.00707582757, -0.00356973615, -1.10499084 , 1.50848687  , 0.6418863   , 918.5885    , 30.4411564  , 819.707947  , 0.77        , 7           , 255         , 0           , 0
9.768871    , 0.44551897  , -0.3149131  , -0.0185082518, 0.007188238 , -0.008288199, -1.10680163 , 1.50844288  , 0.640257835 , 918.5885    , 30.4411564  , 819.708069  , 0.78        , 7           , 255         , 0           , 0
9.770975    , 0.464634567 , -0.317647278, -0.01925394 , 0.007555076 , -0.008660108, -1.10869682 , 1.50839889  , 0.638551831 , 918.5885    , 30.4411564  , 819.7082    , 0.79        , 7           , 255         , 0           , 0
9.780624    , 0.455295652 , -0.3184341  , -0.0214005429, 0.00776261836, -0.01088692 , -1.11079741 , 1.50833774  , 0.6366622   , 918.5885    , 30.4411564  , 819.7083    , 0.8         , 7           , 255         , 0           , 0
9.78181     , 0.473116547 , -0.324587524, -0.0218090955, 0.009718418 , -0.0118333092, -1.10902631 , 1.50849068  , 0.6386377   , 918.5885    , 30.4411564  , 819.7133    , 0.81        , 7           , 255         , 0           , 0
9.785185    , 0.504642069 , -0.314980149, -0.0160161443, 0.008217871 , -0.00945928 , -1.11103916 , 1.508439    , 0.636781454 , 918.5885    , 30.4411564  , 819.71344   , 0.82        , 7           , 255         , 0           , 0
9.796785    , 0.525908053 , -0.310914576, -0.005392462, 0.00404950324, -0.0037097272, -1.11193633 , 1.50842559  , 0.6359365   , 918.620239  , 30.441021   , 819.713562  , 0.83        , 7           , 255         , 0           , 0
9.796834    , 0.51576674  , -0.3230875  , 0.001141516 , 0.00143938349, 0.00147051224, -1.112029   , 1.50844479  , 0.635833    , 918.620239  , 30.441021   , 819.7137    , 0.84        , 7           , 255         , 0           , 0
9.792463    , 0.5127195   , -0.3167654  , 0.00761692831, 0.00445416942, 0.00742471451, -1.11206651 , 1.50853086  , 0.6357189   , 918.620239  , 30.441021   , 819.7138    , 0.85        , 7           , 255         , 0           , 0
9.788661    , 0.484343857 , -0.295651138, 0.009894969 , 0.00117191  , 0.0110766273, -1.11134815 , 1.50863445  , 0.636338949 , 918.620239  , 30.441021   , 819.7139    , 0.86        , 7           , 255         , 0           , 0
9.785521    , 0.459025919 , -0.322322041, 0.00720377872, 0.00310861575, 0.008172493 , -1.11114156 , 1.50872278  , 0.6364742   , 918.620239  , 30.441021   , 819.71405   , 0.87        , 7           , 255         , 0           , 0
9.766889    , 0.448262125 , -0.312096715, 0.0007243855, 0.00464853225, 0.00416252855, -1.11150718 , 1.50878048  , 0.636100531 , 918.620239  , 30.441021   , 819.7142    , 0.88        , 7           , 255         , 0           , 0
9.75274     , 0.4506485   , -0.3128739  , 0.00207452057, 0.0040792306, 0.00364527386, -1.11181545 , 1.50883234  , 0.6357709   , 918.620239  , 30.441021   , 819.7143    , 0.89        , 7           , 255         , 0           , 0
9.769095    , 0.434000671 , -0.3088616  , 0.00245229341, 0.00648276834, 0.00399810541, -1.11244261 , 1.508894    , 0.635118365 , 918.620239  , 30.441021   , 819.7144    , 0.9         , 7           , 255         , 0           , 0
9.760066    , 0.432669252 , -0.307243764, -0.00441327738, 0.00633936469, 0.0006456045, -1.110707   , 1.50902426  , 0.636890769 , 918.620239  , 30.441021   , 819.681763  , 0.91        , 7           , 255         , 0           , 0
9.763633    , 0.463635534 , -0.28806895 , -0.009483767, 0.007422722 , -0.00360402046, -1.11213541 , 1.50902522  , 0.6355544   , 918.620239  , 30.441021   , 819.6819    , 0.92        , 7           , 255         , 0           , 0
9.781575    , 0.495765746 , -0.303042024, -0.0131405881, 0.00343788438, -0.00481998874, -1.11310971 , 1.50899816  , 0.634709835 , 918.6272    , 30.44638    , 819.682     , 0.93        , 7           , 255         , 0           , 0
9.780873    , 0.493670464 , -0.331993461, -0.0166915432, 0.00821136  , -0.00272527244, -1.11466265 , 1.50900781  , 0.633321345 , 918.6272    , 30.44638    , 819.6821    , 0.94        , 7           , 255         , 0           , 0
9.798635    , 0.491304249 , -0.312904716, -0.0172861051, 0.0108981356, -0.00299128518, -1.11663032 , 1.509029    , 0.6315231   , 918.6272    , 30.44638    , 819.682251  , 0.95        , 7           , 255         , 0           , 0
9.817249    , 0.5209047   , -0.326714158, -0.009506347, 0.009415383 , 0.0004545396, -1.11806321 , 1.50907731  , 0.630182862 , 918.6272    , 30.44638    , 819.6824    , 0.96        , 7           , 255         , 0           , 0
9.811493    , 0.501079738 , -0.297922045, -0.00126930256, 0.007296943 , 0.0051168   , -1.11877656 , 1.50915277  , 0.629481435 , 918.6272    , 30.44638    , 819.6825    , 0.97        , 7           , 255         , 0           , 0
9.768099    , 0.459000349 , -0.309086025, -0.0028943466, 0.000866887858, 0.00225115987, -1.11877155 , 1.509176    , 0.6295147   , 918.6272    , 30.44638    , 819.6826    , 0.98        , 7           , 255         , 0           , 0
9.760164    , 0.450754732 , -0.324653924, -0.005820589, 0.00502185756, 0.0011479666, -1.119481   , 1.509207    , 0.628862    , 918.6272    , 30.44638    , 819.682739  , 0.99        , 7           , 255         , 0           , 0
9.774752    , 0.48925963  , -0.349471748, -0.00144538819, 0.0121108405, 0.004517046 , -1.12094569 , 1.509302    , 0.6274096   , 918.6272    , 30.44638    , 819.682861  , 1           , 7           , 0           , 6.439236    , 100
9.77862     , 0.480129063 , -0.3283555  , 0.01280587  , 0.007876669 , 0.009033572 , -1.11859989 , 1.50950015  , 0.6296214   , 918.6272    , 30.44638    , 819.648     , 1.01        , 7           , 1           , 0           , 0
9.771194    , 0.4569487   , -0.313185781, 0.0203452632, 0.00105658243, 0.0108112087, -1.11778045 , 1.50960338  , 0.6302385   , 918.6272    , 30.44638    , 819.6481    , 1.02        , 7           , 2           , 0           , 0
9.77316     , 0.432719648 , -0.281579316, 0.0151922908, 0.000308307121, 0.005363871 , -1.11729    , 1.50965309  , 0.6305769   , 918.6241    , 30.4460411  , 819.648132  , 1.03        , 7           , 3           , 0           , 0
9.758863    , 0.441236824 , -0.280968368, 0.004877144 , -0.000825540861, 0.000712461944, -1.11706889 , 1.50965607  , 0.630750358 , 918.6241    , 30.4460411  , 819.6482    , 1.04        , 7           , 4           , 0           , 0
9.768059    , 0.4520642   , -0.281452119, -0.00357611477, 0.0004478169, -0.0008998905, -1.117235   , 1.50965011  , 0.630619049 , 918.6241    , 30.4460411  , 819.648254  , 1.05        , 7           , 5           , 0           , 0
9.77518     , 0.461779058 , -0.30161    , -0.0106127691, 0.00136550283, -0.004343466, -1.11785185 , 1.509617    , 0.630107164 , 918.6241    , 30.4460411  , 819.6483    , 1.06        , 7           , 6           , 0           , 0
9.785481    , 0.491262674 , -0.3252652  , -0.0100110415, 0.00373483542, -0.00390424021, -1.11878049 , 1.50959945  , 0.629277349 , 918.6241    , 30.4460411  , 819.6484    , 1.07        , 7           , 7           , 0           , 0
9.783452    , 0.4938518   , -0.3112448  , -0.00238921051, 0.0005912285, 0.000140678836, -1.118882   , 1.50960338  , 0.629199564 , 918.6241    , 30.4460411  , 819.648438  , 1.08        , 7           , 8           , 5           , 5
9.756642    , 0.448967934 , -0.2988215  , -0.00116829854, -0.0004313162, 0.00161948381, -1.11871493 , 1.50961506  , 0.629378438 , 918.6241    , 30.4460411  , 819.6485    , 1.09        , 7           , 9           , 5           , 0.1
9.755217    , 0.445738733 , -0.319282025, -0.008913007, 0.0042772796, -0.0009876147, -1.11950326 , 1.50962281  , 0.628678    , 918.6241    , 30.4460411  , 819.64856   , 1.1         , 7           , 10          , 0.1         , 0.1
9.788453    , 0.48142162  , -0.320071846, -0.00829774 , 0.007817142 , -0.00170978042, -1.11290312 , 1.50998569  , 0.6353439   , 918.6241    , 30.4460411  , 819.622253  , 1.11        , 7           , 11          , 0.009191541 , 0.00919154
9.791859    , 0.5206772   , -0.326836765, -0.000377011718, 0.00270493049, 0.00216226513, -1.11314809 , 1.510018    , 0.635102451 , 918.6241    , 30.4460411  , 819.622253  , 1.12        , 7           , 12          , 0.0346428268, 0
9.800821    , 0.5046501   , -0.32074222 , 0.00757361436, 0.0001476293, 0.005614667 , -1.11268663 , 1.510069    , 0.635488868 , 918.6145    , 30.4478722  , 819.622253  , 1.13        , 7           , 13          , 0           , 0
9.792936    , 0.491033852 , -0.301854044, 0.0107909013, -0.00154613191, 0.00738705229, -1.11181355 , 1.51013     , 0.6362559   , 918.6145    , 30.4478722  , 819.622253  , 1.14        , 7           , 14          , 0.00374893332, -0.0031487816
9.786721    , 0.460374057 , -0.317714155, 0.003937616 , 0.00106915063, 0.004131416 , -1.11163032 , 1.51017129  , 0.6364001   , 918.6145    , 30.4478722  , 819.622253  , 1.15        , 7           , 15          , 0           , -0.000641849532
9.7898      , 0.464587629 , -0.304911047, -0.00295291236, 0.005242954 , 0.00133732322, -1.11233616 , 1.5102067   , 0.635722458 , 918.6145    , 30.4478722  , 819.622253  , 1.16        , 7           , 16          , 0           , 1.401298E-45
9.769911    , 0.468693256 , -0.3037564  , -0.00539452629, 0.00458770059, 0.0016434174, -1.1129483  , 1.5102402   , 0.635162234 , 918.6145    , 30.4478722  , 819.622253  , 1.17        , 7           , 20          , 0           , 0
9.77769     , 0.462128162 , -0.316127121, -0.005777966, 0.004076289 , 0.00317416782, -1.11337924 , 1.51028645  , 0.634788632 , 918.6145    , 30.4478722  , 819.622253  , 1.18        , 7           , 21          , 0           , 0
9.771559    , 0.453660876 , -0.33151418 , -0.008737251, 0.00835024752, 0.002266692 , -1.11454022 , 1.51034474  , 0.6337134   , 918.6145    , 30.4478722  , 819.622253  , 1.19        , 7           , 22          , 0           , 0
9.769567    , 0.4601501   , -0.324713767, -0.0113136247, 0.0108586513, -0.0006259898, -1.11631107 , 1.51038611  , 0.6320528   , 918.6145    , 30.4478722  , 819.622253  , 1.2         , 7           , 40          , 0           , 0
9.786505    , 0.4766632   , -0.312142819, -0.0110562891, 0.009781731 , -0.00103395223, -1.115665   , 1.51047111  , 0.63280195  , 918.6145    , 30.4478722  , 819.609436  , 1.21        , 7           , 41          , 0           , 0
9.778201    , 0.466655433 , -0.3121056  , -0.009386085, 0.008870985 , -0.001603361, -1.11719429 , 1.51049685  , 0.6313638   , 918.6145    , 30.4478722  , 819.609436  , 1.22        , 7           , 42          , 1           , 0
9.780406    , 0.463471651 , -0.299891561, -0.006093358, 0.00757893734, 0.00130120246, -1.118289   , 1.51053834  , 0.6303279   , 918.5604    , 30.4474659  , 819.609436  , 1.23        , 7           , 255         , 0           , 0
9.78700352  , 0.459781736 , -0.301253557, -0.004753168, 0.00565505959, 0.00285587762, -1.11897373 , 1.51059186  , 0.629689932 , 918.5604    , 30.4474659  , 819.609436  , 1.24        , 7           , 255         , 0           , 0
9.787241    , 0.483160317 , -0.2990875  , -0.00288134138, 0.0019830917, 0.00226064678, -1.11913562 , 1.51061964  , 0.629557    , 918.5604    , 30.4474659  , 819.609436  , 1.25        , 7           , 255         , 0           , 0
9.782689    , 0.4740789   , -0.322227985, -0.00131066237, 0.000950747635, 0.00272071827, -1.11909318 , 1.51064932  , 0.6296129   , 918.5604    , 30.4474659  , 819.609436  , 1.26        , 7           , 255         , 0           , 0
9.776608    , 0.456124932 , -0.3342903  , 0.000222701114, 0.00636789948, 0.003703576 , -1.1197753  , 1.51071084  , 0.6289275   , 918.5604    , 30.4474659  , 819.609436  , 1.27        , 7           , 255         , 0           , 0
9.778528    , 0.4698922   , -0.321910322, 0.00437107543, 0.004637658 , 0.0046855323, -1.12008572 , 1.51077235  , 0.628572047 , 918.5604    , 30.4474659  , 819.609436  , 1.28        , 7           , 255         , 0           , 0
9.776461    , 0.4465146   , -0.342782646, 0.00261292933, 0.00700271828, 0.00257125543, -1.12092233 , 1.51082611  , 0.627708435 , 918.5604    , 30.4474659  , 819.609436  , 1.29        , 7           , 255         , 0           , 0
9.770136    , 0.458187282 , -0.3279523  , 0.001835194 , 0.008411334 , 0.002984892 , -1.12195075 , 1.51088679  , 0.6266602   , 918.5604    , 30.4474659  , 819.609436  , 1.3         , 7           , 255         , 0           , 0
9.7684145   , 0.468419373 , -0.315459073, 0.00469281431, 0.008019812 , 0.00513606332, -1.11953533 , 1.51104522  , 0.6290205   , 918.5604    , 30.4474659  , 819.6536    , 1.31        , 7           , 255         , 0           , 0
9.783185    , 0.4672753   , -0.295505583, 0.0058030067, 0.005963093 , 0.00369149749, -1.1201067  , 1.51110423  , 0.62839     , 918.5604    , 30.4474659  , 819.6538    , 1.32        , 7           , 255         , 0           , 0
9.779394    , 0.4655703   , -0.273295581, 0.00518877339, 0.004331533 , 0.00240083435, -1.12053263 , 1.51114511  , 0.627910852 , 918.6102    , 30.449501   , 819.654     , 1.33        , 7           , 255         , 0           , 0
9.753678    , 0.44734937  , -0.264461577, 0.00189334829, -0.000127712963, 0.00142828526, -1.12039042 , 1.51115823  , 0.6280344   , 918.6102    , 30.449501   , 819.6542    , 1.34        , 7           , 255         , 0           , 0
9.764632    , 0.440862834 , -0.286167681, -0.00593103468, -0.001004704, -0.000873351761, -1.12036276 , 1.51114416  , 0.628122    , 918.6102    , 30.449501   , 819.654358  , 1.35        , 7           , 255         , 0           , 0
9.787393    , 0.4777162   , -0.29123947 , -0.00625250954, -0.00557080843, -0.00147506967, -1.11969507 , 1.51110721  , 0.6288529   , 918.6102    , 30.449501   , 819.654541  , 1.36        , 7           , 255         , 0           , 0
9.780516    , 0.4708322   , -0.29982084 , 0.000922015635, -0.0152525464, 0.00616949238, -1.116939   , 1.51109719  , 0.631605148 , 918.6102    , 30.449501   , 819.6547    , 1.37        , 7           , 255         , 0           , 0
9.779553    , 0.423665047 , -0.321321219, 0.00134718954, -0.0172539912, 0.00272359326, -1.11413407 , 1.51104522  , 0.634401441 , 918.6102    , 30.449501   , 819.6549    , 1.38        , 7           , 255         , 0           , 0
9.757471    , 0.4411952   , -0.340646416, -0.00460124528, -0.0118402923, -0.00322923 , -1.11264467 , 1.51096153  , 0.635939538 , 918.6102    , 30.449501   , 819.6551    , 1.39        , 7           , 255         , 0           , 0
9.764184    , 0.502292037 , -0.3290351  , -0.0039453865, -0.0100174267, -0.002861351, -1.11139774 , 1.5108918   , 0.6372278   , 918.6102    , 30.449501   , 819.6553    , 1.4         , 7           , 255         , 0           , 0
9.789183    , 0.5004088   , -0.367916971, -0.00440991623, -0.00461378926, -0.00246891333, -1.10479271 , 1.51103926  , 0.64386797  , 918.6102    , 30.449501   , 819.6432    , 1.41        , 7           , 255         , 0           , 0
9.775673    , 0.486839443 , -0.338535   , -0.006933581, 0.00156048371, -0.00090125564, -1.10516369 , 1.5110383   , 0.6435652   , 918.6102    , 30.449501   , 819.6433    , 1.42        , 7           , 255         , 0           , 0
9.800977    , 0.486073345 , -0.3519039  , -0.007151911, 0.00235247938, 0.000478087 , -1.10555    , 1.51105225  , 0.6432499   , 918.5829    , 30.4493656  , 819.643433  , 1.43        , 7           , 255         , 0           , 0
9.814898    , 0.510816634 , -0.34750244 , -0.00590957142, 0.00350923254, 0.00018776345, -1.10611939 , 1.51106918  , 0.6427386   , 918.5829    , 30.4493656  , 819.643555  , 1.44        , 7           , 255         , 0           , 0
9.796679    , 0.512705564 , -0.325899184, -0.00186686963, 0.00193390029, -0.000193880522, -1.10644126 , 1.51107717  , 0.6424347   , 918.5829    , 30.4493656  , 819.6437    , 1.45        , 7           , 255         , 0           , 0
9.79093     , 0.489983022 , -0.324278176, 6.131828E-06, 0.00225077337, 0.00238968362, -1.10659838 , 1.51110816  , 0.6422767   , 918.5829    , 30.4493656  , 819.6438    , 1.46        , 7           , 255         , 0           , 0
9.784968    , 0.4963842   , -0.3214442  , -0.00144503987, 0.001609808 , 0.003105782 , -1.10662115 , 1.51114321  , 0.642269    , 918.5829    , 30.4493656  , 819.6439    , 1.47        , 7           , 255         , 0           , 0
9.77838     , 0.4900934   , -0.3029529  , -0.001957961, 0.000207400182, 0.003393937 , -1.106418   , 1.51117313  , 0.6424926   , 918.5829    , 30.4493656  , 819.644043  , 1.48        , 7           , 255         , 0           , 0
9.786265    , 0.483349979 , -0.310047328, -0.00383686554, -0.0009581647, 0.00319540221, -1.10607374 , 1.51119924  , 0.6428758   , 918.5829    , 30.4493656  , 819.644165  , 1.49        , 7           , 255         , 0           , 0
9.7764225   , 0.470380217 , -0.31631127 , -0.00410140865, 0.0005310427, 0.00315177767, -1.10595787 , 1.51123118  , 0.6430323   , 918.5829    , 30.4493656  , 819.6443    , 1.5         , 7           , 255         , 0           , 0
9.768539    , 0.450548351 , -0.320123047, -0.009227892, 0.00274223951, 0.00256253034, -1.1046201  , 1.51126027  , 0.64445895  , 918.5829    , 30.4493656  , 819.6619    , 1.51        , 7           , 255         , 0           , 0
9.765217    , 0.436609268 , -0.313510269, -0.015662428, 0.006800194 , 0.000343478285, -1.10577154 , 1.51129127  , 0.643463254 , 918.5829    , 30.4493656  , 819.6622    , 1.52        , 7           , 255         , 0           , 0
9.767677    , 0.436570942 , -0.303167015, -0.01929429 , 0.00554864947, -0.000882659748, -1.10686314 , 1.51130939  , 0.6425627   , 918.6031    , 30.4513321  , 819.6624    , 1.53        , 7           , 255         , 0           , 0
9.758468    , 0.440315485 , -0.32861042 , -0.0187371187, 0.00462416047, -0.0018092338, -1.10788167 , 1.51131332  , 0.641729832 , 918.6031    , 30.4513321  , 819.662659  , 1.54        , 7           , 255         , 0           , 0
9.769388    , 0.4449811   , -0.3239829  , -0.0178601909, 0.00731925573, -0.00208154577, -1.10931611 , 1.51132846  , 0.6404716   , 918.6031    , 30.4513321  , 819.6629    , 1.55        , 7           , 255         , 0           , 0
9.768494    , 0.434505641 , -0.319301456, -0.0131605156, 0.006949041 , -0.0029507596, -1.11071348 , 1.51133347  , 0.639202356 , 918.6031    , 30.4513321  , 819.663147  , 1.56        , 7           , 255         , 0           , 0
9.7826      , 0.463574469 , -0.3297933  , -0.0075439387, 0.00711536128, -0.00171829411, -1.11198843 , 1.51135051  , 0.6380027   , 918.6031    , 30.4513321  , 819.6634    , 1.57        , 7           , 255         , 0           , 0
9.80101     , 0.4663958   , -0.3112529  , 0.000628840644, 0.00320717  , 0.001996314 , -1.11231828 , 1.5113796   , 0.6376655   , 918.6031    , 30.4513321  , 819.663635  , 1.58        , 7           , 255         , 0           , 0
9.801016    , 0.460495383 , -0.3248662  , 0.0103975795, -0.002428346, 0.004399009 , -1.11152124 , 1.51140773  , 0.63836     , 918.6031    , 30.4513321  , 819.6639    , 1.59        , 7           , 255         , 0           , 0
9.780759    , 0.4486515   , -0.340615064, 0.00783824548, 0.00253191171, 0.004600154 , -1.11148143 , 1.511462    , 0.638321042 , 918.6031    , 30.4513321  , 819.6641    , 1.6         , 7           , 255         , 0           , 0
9.772696    , 0.4490283   , -0.2940306  , 0.0002526124, 0.00655338448, 0.000174544315, -1.1080184  , 1.51160491  , 0.6417721   , 918.6031    , 30.4513321  , 819.6582    , 1.61        , 7           , 255         , 0           , 0
9.774939    , 0.469117939 , -0.300237775, -0.000624199631, 0.00399437174, 0.00473640673, -1.10827136 , 1.51166534  , 0.6415247   , 918.6031    , 30.4513321  , 819.6584    , 1.62        , 7           , 255         , 0           , 0
9.776574    , 0.461069673 , -0.317055553, 0.00196610577, 0.00349195069, 0.007986107 , -1.1081773  , 1.51175416  , 0.6415993   , 918.6446    , 30.4516029  , 819.658569  , 1.63        , 7           , 255         , 0           , 0
9.775129    , 0.4307643   , -0.305204451, 0.00195205025, -0.000193522079, 0.008632637 , -1.10747552 , 1.51183     , 0.642282367 , 918.6446    , 30.4516029  , 819.658752  , 1.64        , 7           , 255         , 0           , 0
9.774221    , 0.4149986   , -0.3213815  , -0.00374883041, 0.0006939522, 0.00444328133, -1.10728133 , 1.51187146  , 0.6425143   , 918.6446    , 30.4516029  , 819.658936  , 1.65        , 7           , 255         , 0           , 0
9.764011    , 0.42208153  , -0.300122023, -0.00779464236, -0.00105459359, -0.00343509 , -1.10746    , 1.511835    , 0.6424141   , 918.6446    , 30.4516029  , 819.6591    , 1.66        , 7           , 255         , 0           , 0
9.753234    , 0.428093046 , -0.2822264  , -0.0110239424, -0.00330203 , -0.006844949, -1.10758877 , 1.51176023  , 0.6423944   , 918.6446    , 30.4516029  , 819.6593    , 1.67        , 7           , 255         , 0           , 0
9.75727749  , 0.4543139   , -0.303903133, -0.0184336  , -0.00486717746, -0.01133242 , -1.10789108 , 1.51163507  , 0.6422758   , 918.6446    , 30.4516029  , 819.6595    , 1.68        , 7           , 255         , 0           , 0
9.771154    , 0.4870282   , -0.324383318, -0.0215426348, -0.0030937877, -0.0108966026, -1.10845852 , 1.51152527  , 0.6419246   , 918.6446    , 30.4516029  , 819.659668  , 1.69        , 7           , 255         , 0           , 0
9.784658    , 0.500872135 , -0.325521916, -0.023164656, -0.003856641, -0.0106646949, -1.10891116 , 1.51141071  , 0.6417032   , 918.6446    , 30.4516029  , 819.659851  , 1.7         , 7           , 255         , 0           , 0
9.790421    , 0.5140749   , -0.360682428, -0.02211779 , -0.001759452, -0.0105233453, -1.10214877 , 1.51152229  , 0.6486727   , 918.6446    , 30.4516029  , 819.6086    , 1.71        , 7           , 255         , 0           , 0
9.811254    , 0.528752267 , -0.374769866, -0.0180890132, 0.00474228244, -0.007269708, -1.10359466 , 1.511479    , 0.6474049   , 918.6446    , 30.4516029  , 819.6085    , 1.72        , 7           , 255         , 0           , 0
9.807207    , 0.550064445 , -0.346732944, -0.0105142426, 0.00719894376, -0.00161522208, -1.104905   , 1.51149809  , 0.646198332 , 918.5935    , 30.4540462  , 819.608459  , 1.73        , 7           , 255         , 0           , 0
9.816023    , 0.5539164   , -0.336230338, 0.00338222645, 0.00578944571, 0.00626093475, -1.105269   , 1.51157665  , 0.645799041 , 918.5935    , 30.4540462  , 819.6084    , 1.74        , 7           , 255         , 0           , 0
9.810817    , 0.508990467 , -0.329602718, 0.0104891146, 0.00478868932, 0.0110002775, -1.10505342 , 1.51169765  , 0.6459106   , 918.5935    , 30.4540462  , 819.608337  , 1.75        , 7           , 255         , 0           , 0
9.79008     , 0.481409729 , -0.331261575, 0.0124727609, 0.00463047065, 0.0112427445, -1.104774   , 1.51181984  , 0.646065056 , 918.5935    , 30.4540462  , 819.6083    , 1.76        , 7           , 255         , 0           , 0
9.76362     , 0.475920916 , -0.313889325, 0.0144341839, 0.00106415572, 0.0117443064, -1.10389483 , 1.51193023  , 0.646801531 , 918.5935    , 30.4540462  , 819.6082    , 1.77        , 7           , 255         , 0           , 0
9.769539    , 0.452634156 , -0.321570516, 0.0146176917, -0.002474733, 0.0120587051, -1.10244954 , 1.51202655  , 0.6481028   , 918.5935    , 30.4540462  , 819.608154  , 1.78        , 7           , 255         , 0           , 0
9.774454    , 0.4148582   , -0.325210035, 0.006906758 , 0.00165751961, 0.007578398 , -1.10205019 , 1.51210272  , 0.648433447 , 918.5935    , 30.4540462  , 819.6081    , 1.79        , 7           , 255         , 0           , 0
9.778041    , 0.410553068 , -0.318260163, -0.0045789443, 0.00515848771, 0.0002756981, -1.1028595  , 1.51212907  , 0.6476681   , 918.5935    , 30.4540462  , 819.608032  , 1.8         , 7           , 255         , 0           , 0
9.767932    , 0.442460716 , -0.3194136  , -0.011310542, 0.008693721 , -0.00180047459, -1.10290277 , 1.51214135  , 0.647732258 , 918.5935    , 30.4540462  , 819.619263  , 1.81        , 7           , 255         , 0           , 0
9.763922    , 0.433410168 , -0.3043533  , -0.01698269 , 0.0112573169, -0.0037796963, -1.10507524 , 1.51215959  , 0.645727    , 918.5935    , 30.4540462  , 819.619263  , 1.82        , 7           , 255         , 0           , 0
9.767933    , 0.456586927 , -0.301825553, -0.02009311 , 0.007967113 , -0.00566329062, -1.10692108 , 1.51214337  , 0.6440797   , 918.5839    , 30.4528923  , 819.619263  , 1.83        , 7           , 255         , 0           , 0
9.775521    , 0.483874738 , -0.3254599  , -0.01845524 , 0.006879757 , -0.00347643252, -1.10841656 , 1.51214135  , 0.642766356 , 918.5839    , 30.4528923  , 819.6193    , 1.84        , 7           , 255         , 0           , 0
9.790395    , 0.479601234 , -0.3547522  , -0.0127531588, 0.008202027 , 0.00165570551, -1.10966921 , 1.51219416  , 0.641638935 , 918.5839    , 30.4528923  , 819.6194    , 1.85        , 7           , 255         , 0           , 0
9.790345    , 0.456389    , -0.356379569, -0.0101512587, 0.0117915859, 0.00195841864, -1.1114248  , 1.51226342  , 0.6399824   , 918.5839    , 30.4528923  , 819.619446  , 1.86        , 7           , 255         , 0           , 0
9.797073    , 0.4651095   , -0.354873329, -0.003378819, 0.009524323 , 0.00208385615, -1.11275864 , 1.51232564  , 0.6386803   , 918.5839    , 30.4528923  , 819.6195    , 1.87        , 7           , 255         , 0           , 0
9.79447     , 0.474197328 , -0.3466167  , 0.008516974 , 0.00603258237, 0.00409413874, -1.113288   , 1.51238787  , 0.6380637   , 918.5839    , 30.4528923  , 819.619568  , 1.88        , 7           , 255         , 0           , 0
9.786875    , 0.4779524   , -0.35010162 , 0.0154554415, 0.002008772 , 0.006133472 , -1.11297822 , 1.51245224  , 0.638219357 , 918.5839    , 30.4528923  , 819.6196    , 1.89        , 7           , 255         , 0           , 0
9.768469    , 0.4949674   , -0.32666415 , 0.0179661419, 0.007914197 , 0.008956146 , -1.11333668 , 1.5125699   , 0.637680352 , 918.5839    , 30.4528923  , 819.6197    , 1.9         , 7           , 255         , 0           , 0
9.764976    , 0.479280651 , -0.276185334, 0.0214471444, 0.00292988284, 0.0123948166, -1.109679   , 1.51270735  , 0.641119838 , 918.5839    , 30.4528923  , 819.6413    , 1.91        , 7           , 255         , 0           , 0
9.770654    , 0.463256121 , -0.290168375, 0.0198733415, -0.002034351, 0.0110692047, -1.10831785 , 1.51279771  , 0.642284    , 918.5839    , 30.4528923  , 819.6415    , 1.92        , 7           , 255         , 0           , 0
9.766792    , 0.4578229   , -0.289148   , 0.0152542088, -0.00430267025, 0.00650607748, -1.1070019  , 1.51283479  , 0.643449664 , 918.6415    , 30.4538422  , 819.641663  , 1.93        , 7           , 255         , 0           , 0
9.763919    , 0.441701472 , -0.2962349  , 0.008632468 , -0.00523574 , 0.00211368734, -1.10594523 , 1.51283276  , 0.6444209   , 918.6415    , 30.4538422  , 819.641846  , 1.94        , 7           , 255         , 0           , 0
9.764539    , 0.448030382 , -0.300292552, -0.00325625413, -0.00295890472, -0.00107869483, -1.10560465 , 1.512808    , 0.644794941 , 918.6415    , 30.4538422  , 819.642     , 1.95        , 7           , 255         , 0           , 0
9.778593    , 0.47718668  , -0.317008644, -0.0123509327, -0.000607236056, -0.004419322, -1.10597742 , 1.51276791  , 0.644545436 , 918.6415    , 30.4538422  , 819.6422    , 1.96        , 7           , 255         , 0           , 0
9.78897     , 0.481072843 , -0.321913362, -0.01714125 , 0.000266889576, -0.004232409, -1.106517   , 1.51272893  , 0.6441761   , 918.6415    , 30.4538422  , 819.6424    , 1.97        , 7           , 255         , 0           , 0
9.775795    , 0.489113241 , -0.341373444, -0.0211612172, 0.002388057 , -0.005207757, -1.10749829 , 1.512694    , 0.6434053   , 918.6415    , 30.4538422  , 819.6426    , 1.98        , 7           , 255         , 0           , 0
9.78095     , 0.499679983 , -0.352141321, -0.0189121179, 0.007886997 , -0.002119842, -1.10906553 , 1.51271141  , 0.6420251   , 918.6415    , 30.4538422  , 819.642761  , 1.99        , 7           , 255         , 0           , 0
9.80787     , 0.4926803   , -0.3441593  , -0.0145513238, 0.00765558332, -0.000413735979, -1.1104213  , 1.51274014  , 0.6408124   , 918.6415    , 30.4538422  , 819.642944  , 2           , 7           , 0           , 7.439236    , 200
9.806772    , 0.512759566 , -0.355672181, -0.009567883, 0.008388117 , -0.000300701824, -1.10894656 , 1.51278543  , 0.6423762   , 918.6415    , 30.4538422  , 819.5928    , 2.01        , 7           , 1           , 0           , 0
9.812615    , 0.521886    , -0.344389379, -0.00172977382, 0.0108916946, 0.00570839876, -1.11020827 , 1.51288629  , 0.6411296   , 918.6415    , 30.4538422  , 819.592651  , 2.02        , 7           , 2           , 0           , 0
9.783339    , 0.491322845 , -0.319536835, 0.0117178084, 0.00503881741, 0.0120748254, -1.10994315 , 1.51301718  , 0.6412772   , 918.612366  , 30.4514675  , 819.5925    , 2.03        , 7           , 3           , 0           , 0
9.766412    , 0.4505604   , -0.309229344, 0.0177166369, -0.000784423668, 0.0148563031, -1.10849988 , 1.51314843  , 0.642545462 , 918.612366  , 30.4514675  , 819.5924    , 2.04        , 7           , 4           , 0           , 0
9.755193    , 0.439799845 , -0.314797759, 0.0184384044, -0.00541689573, 0.01111638  , -1.10661459 , 1.51321983  , 0.644249558 , 918.612366  , 30.4514675  , 819.5923    , 2.05        , 7           , 5           , 0           , 0
9.761175    , 0.435386717 , -0.3172374  , 0.0114077255, 0.0005617612, 0.006199931 , -1.10610521 , 1.51327884  , 0.644646049 , 918.612366  , 30.4514675  , 819.592163  , 2.06        , 7           , 6           , 0           , 0
9.769       , 0.451505572 , -0.3067998  , 0.00509860367, 0.00512251956, 0.00141391193, -1.10674024 , 1.51331627  , 0.6439582   , 918.612366  , 30.4514675  , 819.592041  , 2.07        , 7           , 7           , 0           , 0
9.77644348  , 0.468843877 , -0.2930885  , 0.002917119 , 0.0025272097, 0.0001429544, -1.10709214 , 1.51332867  , 0.643576443 , 918.612366  , 30.4514675  , 819.5919    , 2.08        , 7           , 8           , 5           , 5
9.773007    , 0.4620537   , -0.300582   , -0.00286680879, -0.000105163082, 0.0002655402, -1.10708165 , 1.5133276   , 0.643615663 , 918.612366  , 30.4514675  , 819.5918    , 2.09        , 7           , 9           , 5           , 0.1
9.775118    , 0.48537606  , -0.314901918, -0.00711332168, 0.00013810955, 0.001282309 , -1.107074   , 1.513339    , 0.6436946   , 918.612366  , 30.4514675  , 819.5917    , 2.1         , 7           , 10          , 0.1         , 0.1
9.796659    , 0.504411161 , -0.350034177, -0.00563439168, 0.000173654873, 0.0054087406, -1.1040132  , 1.51338685  , 0.6468076   , 918.612366  , 30.4514675  , 819.582764  , 2.11        , 7           , 11          , 0.007850004 , 0.007850001
9.802553    , 0.476120949 , -0.347413361, 0.005079196 , -0.000430312, 0.00959104  , -1.10314572 , 1.51347208  , 0.6476255   , 918.612366  , 30.4514675  , 819.582642  , 2.12        , 7           , 12          , 0.0346481539, 0
9.773165    , 0.418983221 , -0.342589885, 0.005662932 , 0.00106555386, 0.00735579571, -1.10267806 , 1.51354492  , 0.6480379   , 918.6082    , 30.4574375  , 819.5825    , 2.13        , 7           , 13          , 0           , 0
9.779137    , 0.427530676 , -0.338703781, 0.0006981774, 0.007387002 , 0.00234774547, -1.10363579 , 1.51359916  , 0.6470713   , 918.6082    , 30.4574375  , 819.5824    , 2.14        , 7           , 14          , 0.00374864857, -0.003145282
9.77883148  , 0.453257948 , -0.322465837, -0.000213570427, 0.00983563  , 0.003161136 , -1.10492361 , 1.51367116  , 0.6457834   , 918.6082    , 30.4574375  , 819.5823    , 2.15        , 7           , 15          , 0           , -0.0006450444
9.771907    , 0.454947174 , -0.333166063, 0.00296014338, 0.008575398 , 0.00497665862, -1.10584426 , 1.51375163  , 0.644832    , 918.6082    , 30.4574375  , 819.582153  , 2.16        , 7           , 16          , 0           , 1.401298E-45
9.778683    , 0.44756943  , -0.330894321, 0.00483576953, 0.009262761 , 0.006343657 , -1.10674822 , 1.51385307  , 0.6438779   , 918.6082    , 30.4574375  , 819.582031  , 2.17        , 7           , 20          , 0           , 0
9.773785    , 0.4280098   , -0.330346584, 0.006661284 , 0.00556780538, 0.007881177 , -1.10693622 , 1.51394641  , 0.6436227   , 918.6082    , 30.4574375  , 819.5819    , 2.18        , 7           , 21          , 0           , 0
9.752787    , 0.385253668 , -0.328264326, 0.00610221364, 0.00651871925, 0.00665104669, -1.10737634 , 1.51403451  , 0.643120766 , 918.6082    , 30.4574375  , 819.5818    , 2.19        , 7           , 22          , 0           , 0
9.742668    , 0.382340461 , -0.308772326, 0.00307166786, 0.007202712 , 0.00162763812, -1.108352   , 1.51407969  , 0.642112434 , 918.6082    , 30.4574375  , 819.581665  , 2.2         , 7           , 40          , 0           , 0
9.754799    , 0.414764225 , -0.2982374  , -0.0007576416, 0.005430043 , -0.001897723, -1.10423207 , 1.5141418   , 0.6462307   , 918.6082    , 30.4574375  , 819.579041  , 2.21        , 7           , 41          , 0           , 0
9.759759    , 0.44472307  , -0.2942115  , -0.00107755861, 0.00487139355, -0.00431512436, -1.10535157 , 1.514127    , 0.645119965 , 918.6082    , 30.4574375  , 819.578857  , 2.22        , 7           , 42          , 1           , 0
9.764948    , 0.45379585  , -0.284227818, -0.00489933044, 0.00180861889, -0.00672244374, -1.10621679 , 1.51407444  , 0.6443031   , 918.623     , 30.45615    , 819.5787    , 2.23        , 7           , 255         , 0           , 0
9.777059    , 0.4738494   , -0.321638316, -0.01349114 , 0.0019520747, -0.009732164, -1.10742521 , 1.51399672  , 0.643226266 , 918.623     , 30.45615    , 819.5785    , 2.24        , 7           , 255         , 0           , 0
9.783385    , 0.503926456 , -0.328894079, -0.0187710337, 0.00248439284, -0.009325386, -1.10873544 , 1.51392329  , 0.6421029   , 918.623     , 30.45615    , 819.5783    , 2.25        , 7           , 255         , 0           , 0
9.786799    , 0.4956395   , -0.355062962, -0.021378465, 0.00178161543, -0.00677809538, -1.10975766 , 1.51386881  , 0.6412935   , 918.623     , 30.45615    , 819.5781    , 2.26        , 7           , 255         , 0           , 0
9.802335    , 0.51519686  , -0.3761506  , -0.019650314, 0.00862116  , -0.00579550164, -1.11176276 , 1.51385832  , 0.639482    , 918.623     , 30.45615    , 819.578     , 2.27        , 7           , 255         , 0           , 0
9.810004    , 0.543969333 , -0.38118276 , -0.0104665421, 0.0125534879, -0.00330673647, -1.11409974 , 1.51388347  , 0.6372451   , 918.623     , 30.45615    , 819.5779    , 2.28        , 7           , 255         , 0           , 0
9.805232    , 0.5563014   , -0.369848132, 0.005054429 , 0.009348158 , 0.00408661645, -1.11520815 , 1.51396108  , 0.636085033 , 918.623     , 30.45615    , 819.577759  , 2.29        , 7           , 255         , 0           , 0
9.81695     , 0.5207985   , -0.3730541  , 0.0121815065, 0.0105870832, 0.009385768 , -1.11603284 , 1.51409233  , 0.6351378   , 918.623     , 30.45615    , 819.577637  , 2.3         , 7           , 255         , 0           , 0
9.804426    , 0.508102536 , -0.34311536 , 0.0167091042, 0.0133310631, 0.009852028 , -1.1154418  , 1.51420081  , 0.6355558   , 918.623     , 30.45615    , 819.5566    , 2.31        , 7           , 255         , 0           , 0
9.792841    , 0.5058431   , -0.3083078  , 0.0189849548, 0.009725214 , 0.012562057 , -1.11582053 , 1.51435268  , 0.6349861   , 918.623     , 30.45615    , 819.556335  , 2.32        , 7           , 255         , 0           , 0
9.776596    , 0.472649723 , -0.2908699  , 0.0206372309, 0.008418197 , 0.0131898876, -1.11592829 , 1.51451361  , 0.634672165 , 918.6529    , 30.4546566  , 819.5561    , 2.33        , 7           , 255         , 0           , 0
9.753589    , 0.444238842 , -0.2789422  , 0.01617584  , 0.00407924  , 0.01372778  , -1.11534572 , 1.51465046  , 0.635092735 , 918.6529    , 30.4546566  , 819.555847  , 2.34        , 7           , 255         , 0           , 0
9.75414     , 0.423867464 , -0.270141363, 0.0114092641, 0.002099182 , 0.0127143031, -1.1145699  , 1.5147748   , 0.6357557   , 918.6529    , 30.4546566  , 819.5556    , 2.35        , 7           , 255         , 0           , 0
9.75023651  , 0.415682852 , -0.2864253  , 0.00539202476, -0.00131111848, 0.00955196  , -1.113554   , 1.5148536   , 0.6367188   , 918.6529    , 30.4546566  , 819.555359  , 2.36        , 7           , 255         , 0           , 0
9.757771    , 0.4120887   , -0.3149174  , -0.00334855681, -0.0005667447, 0.00447633024, -1.11314344 , 1.51489     , 0.6371636   , 918.6529    , 30.4546566  , 819.5551    , 2.37        , 7           , 255         , 0           , 0
9.753843    , 0.422598064 , -0.33764717 , -0.0152323786, 0.008403753 , -0.0007427769, -1.11470163 , 1.5149219   , 0.635755062 , 918.6529    , 30.4546566  , 819.5549    , 2.38        , 7           , 255         , 0           , 0
9.752513    , 0.437692255 , -0.338801771, -0.0238406733, 0.01821185  , -0.003848511, -1.11816847 , 1.51496673  , 0.6325221   , 918.6529    , 30.4546566  , 819.5546    , 2.39        , 7           , 255         , 0           , 0
9.758379    , 0.459502846 , -0.331097364, -0.0245448742, 0.0191837121, -0.004175485, -1.12183118 , 1.51501489  , 0.629098833 , 918.6529    , 30.4546566  , 819.5544    , 2.4         , 7           , 255         , 0           , 0
9.784559    , 0.4859592   , -0.3228212  , -0.02130413 , 0.0176599585, -0.00384053448, -1.06396711 , 1.51529562  , 0.687079549 , 918.6529    , 30.4546566  , 819.4961    , 2.41        , 7           , 255         , 0           , 0
9.795778    , 0.5018896   , -0.300946772, -0.013086034, 0.0114388289, -0.00127321272, -1.06601036 , 1.51533973  , 0.6851647   , 918.6529    , 30.4546566  , 819.4955    , 2.42        , 7           , 255         , 0           , 0
9.815841    , 0.50996244  , -0.312500417, -0.00574274873, 0.00497403741, -0.0001187328, -1.06686187 , 1.51536119  , 0.684369743 , 918.619141  , 30.45459    , 819.4949    , 2.43        , 7           , 255         , 0           , 0
9.840671    , 0.5109116   , -0.328577369, 0.00157757243, 0.00247295387, 0.005588928 , -1.06675112 , 1.51542366  , 0.6844641   , 918.619141  , 30.45459    , 819.494263  , 2.44        , 7           , 255         , 0           , 0
9.815053    , 0.483196437 , -0.365267575, 0.00257604476, 0.006661075 , 0.00703285029, -1.06716406 , 1.51551855  , 0.684024155 , 918.619141  , 30.45459    , 819.493652  , 2.45        , 7           , 255         , 0           , 0
9.79003     , 0.466316044 , -0.339691222, 0.002341013 , 0.0117082158, 0.009904136 , -1.06813228 , 1.51566112  , 0.6830321   , 918.619141  , 30.45459    , 819.493042  , 2.46        , 7           , 255         , 0           , 0
9.770994    , 0.433957279 , -0.3225791  , 0.00108186062, 0.0111581087, 0.0150910709, -1.06857848 , 1.51584744  , 0.6825737   , 918.619141  , 30.45459    , 819.492432  , 2.47        , 7           , 255         , 0           , 0
9.75889     , 0.375186622 , -0.311577767, -0.00678828172, 0.0159589518, 0.0137636969, -1.06999052 , 1.516041    , 0.681228    , 918.619141  , 30.45459    , 819.4918    , 2.48        , 7           , 255         , 0           , 0
9.742206    , 0.366029173 , -0.295445383, -0.019193884, 0.0201209951, 0.005287837 , -1.07294917 , 1.51618934  , 0.6784575   , 918.619141  , 30.45459    , 819.4912    , 2.49        , 7           , 255         , 0           , 0
9.72385     , 0.385555983 , -0.273173481, -0.02894285 , 0.0221657436, -0.00145634392, -1.0769341  , 1.51628113  , 0.6747562   , 918.619141  , 30.45459    , 819.4906    , 2.5         , 7           , 255         , 0           , 0
9.736284    , 0.385929972 , -0.3038064  , -0.04085483 , 0.0268296525, -0.006169857, -1.081239   , 1.51634681  , 0.670850933 , 918.619141  , 30.45459    , 819.485657  , 2.51        , 7           , 255         , 0           , 0
9.738605    , 0.4069119   , -0.3012975  , -0.0551502332, 0.0398328938, -0.00655318471, -1.08882284 , 1.51647508  , 0.6638083   , 918.619141  , 30.45459    , 819.485     , 2.52        , 7           , 255         , 0           , 0
9.755957    , 0.431552023 , -0.3080905  , -0.063872546, 0.04268166  , -0.00670998 , -1.09700871 , 1.51660812  , 0.6562492   , 918.6413    , 30.4558773  , 819.4843    , 2.53        , 7           , 255         , 0           , 0
9.808722    , 0.456238836 , -0.3739662  , -0.07392482 , 0.0585418232, -0.00669811573, -1.107955   , 1.51681542  , 0.646027267 , 918.6413    , 30.4558773  , 819.483643  , 2.54        , 7           , 255         , 0           , 0
9.80839     , 0.499476135 , -0.358063519, -0.0766453  , 0.07548259  , -0.0031459746, -1.12155676 , 1.51711774  , 0.633173645 , 918.6413    , 30.4558773  , 819.483     , 2.55        , 7           , 255         , 0           , 0
9.785576    , 0.485546649 , -0.355619669, -0.08240753 , 0.09293284  , 0.00375539227, -1.13778591 , 1.51754725  , 0.617746353 , 918.6413    , 30.4558773  , 819.482361  , 2.56        , 7           , 255         , 0           , 0
9.792696    , 0.491771519 , -0.369132847, -0.08928202 , 0.11170654  , 0.009249514 , -1.15716982 , 1.5180943   , 0.5992298   , 918.6413    , 30.4558773  , 819.48175   , 2.57        , 7           , 255         , 0           , 0
9.811148    , 0.5174086   , -0.389769256, -0.100510262, 0.136212587 , 0.0155932708, -1.18092978 , 1.51877069  , 0.5764433   , 918.6413    , 30.4558773  , 819.48114   , 2.58        , 7           , 255         , 0           , 0
9.815129    , 0.479545653 , -0.2741924  , -0.10512615 , 0.142437369 , 0.017384626 , -1.20634258 , 1.51945376  , 0.5520488   , 918.6413    , 30.4558773  , 819.4805    , 2.59        , 7           , 255         , 0           , 0
9.795043    , 0.5267557   , -0.255760729, -0.1128937  , 0.138567537 , 0.0218997579, -1.23147631 , 1.520139    , 0.5280127   , 918.6413    , 30.4558773  , 819.4799    , 2.6         , 7           , 255         , 0           , 0
9.804238    , 0.4460321   , -0.173786864, -0.11591427 , 0.1364248   , 0.018144859 , -1.25563014 , 1.5207262   , 0.504985332 , 918.6413    , 30.4558773  , 819.446167  , 2.61        , 7           , 255         , 0           , 0
9.806944    , 0.440967083 , -0.185732991, -0.1244697  , 0.114741482 , 0.00328546925, -1.27860975 , 1.52110279  , 0.483223528 , 918.6413    , 30.4558773  , 819.4453    , 2.62        , 7           , 255         , 0           , 0
9.790281    , 0.468944222 , -0.176937431, -0.133543983, 0.116200104 , -0.00475114258, -1.30272555 , 1.52137589  , 0.4604148   , 918.570557  , 30.456625   , 819.444458  , 2.63        , 7           , 255         , 0           , 0
9.76623249  , 0.515204966 , -0.159556881, -0.128929868, 0.110226646 , -0.00181424711, -1.32572222 , 1.52163959  , 0.438681036 , 918.570557  , 30.456625   , 819.443665  , 2.64        , 7           , 255         , 0           , 0
9.787187    , 0.487757117 , -0.109516822, -0.103317417, 0.0926530361, 0.00512566837, -1.34487391 , 1.521906    , 0.4205413   , 918.570557  , 30.456625   , 819.4429    , 2.65        , 7           , 255         , 0           , 0
9.790773    , 0.458051115 , -0.115105867, -0.0833386853, 0.0709384754, 0.00690889638, -1.35958481 , 1.52212727  , 0.406646043 , 918.570557  , 30.456625   , 819.4421    , 2.66        , 7           , 255         , 0           , 0
9.77837     , 0.448284    , -0.133861572, -0.06672569 , 0.0585417226, 0.006459198 , -1.371771   , 1.522309    , 0.395114064 , 918.570557  , 30.456625   , 819.4413    , 2.67        , 7           , 255         , 0           , 0
9.79422     , 0.4919942   , -0.158504575, -0.0515457243, 0.0508441664, 0.00758357765, -1.382285   , 1.52248013  , 0.385103732 , 918.570557  , 30.456625   , 819.4405    , 2.68        , 7           , 255         , 0           , 0
9.782834    , 0.5281115   , -0.216837719, -0.0292434525, 0.0592728667, 0.0215559732, -1.39386034 , 1.52280211  , 0.373807937 , 918.570557  , 30.456625   , 819.4397    , 2.69        , 7           , 255         , 0           , 0
9.815672    , 0.435144663 , -0.144870713, -0.00610213075, 0.05551334  , 0.029903207 , -1.4042896  , 1.52319252  , 0.363427818 , 918.570557  , 30.456625   , 819.4389    , 2.7         , 7           , 255         , 0           , 0
9.80267     , 0.375033379 , -0.15938133 , -0.0142576881, 0.0537328571, 0.02108828  , -1.414226   , 1.52347648  , 0.35362184  , 918.570557  , 30.456625   , 819.508362  , 2.71        , 7           , 255         , 0           , 0
9.757389    , 0.4135887   , -0.13765274 , -0.004409162, 0.0530777648, 0.01631197  , -1.4248594  , 1.52371907  , 0.343019843 , 918.570557  , 30.456625   , 819.508     , 2.72        , 7           , 255         , 0           , 0
9.786903    , 0.384221256 , -0.09895382 , -0.0009152042, 0.04385955  , 0.01631198  , -1.43361747 , 1.52394116  , 0.334261477 , 918.56604   , 30.45642    , 819.5076    , 2.73        , 7           , 255         , 0           , 0
9.770071    , 0.343996853 , -0.1405973  , -0.0230066981, 0.0447554551, 0.00288486  , -1.44323719 , 1.52403033  , 0.3248621   , 918.56604   , 30.45642    , 819.507263  , 2.74        , 7           , 255         , 0           , 0
9.748851    , 0.3682127   , -0.1481306  , -0.03860039 , 0.0474084467, -0.00763472542, -1.45387447 , 1.52401     , 0.314599037 , 918.56604   , 30.45642    , 819.5069    , 2.75        , 7           , 255         , 0           , 0
9.749961    , 0.362686217 , -0.136067346, -0.0452911332, 0.0572522059, -0.0133987786, -1.46678615 , 1.52393866  , 0.302127153 , 918.56604   , 30.45642    , 819.506531  , 2.76        , 7           , 255         , 0           , 0
9.806984    , 0.3955171   , -0.1926836  , -0.0510584973, 0.06784124  , -0.0202864222, -1.48209023 , 1.52380526  , 0.287317365 , 918.56604   , 30.45642    , 819.506165  , 2.77        , 7           , 255         , 0           , 0
9.843092    , 0.43819505  , -0.256324857, -0.07321432 , 0.09736672  , -0.0334525667, -1.503962   , 1.523547    , 0.266153842 , 918.56604   , 30.45642    , 819.5058    , 2.78        , 7           , 255         , 0           , 0
9.87383652  , 0.549299836 , -0.176831841, -0.06950679 , 0.119248316 , -0.0309717283, -1.53012443 , 1.52330291  , 0.240657777 , 918.56604   , 30.45642    , 819.5055    , 2.79        , 7           , 255         , 0           , 0
9.8292675   , 0.5810982   , -0.0715613142, -0.0378054567, 0.105635665 , -0.0123218512, -1.55277264 , 1.52320886  , 0.218362063 , 918.56604   , 30.45642    , 819.5052    , 2.8         , 7           , 255         , 0           , 0
9.833754    , 0.5439562   , -0.06754319 , -0.0318630636, 0.102778263 , 0.00345871388, -1.57342362 , 1.52327406  , 0.198004186 , 918.56604   , 30.45642    , 819.5724    , 2.81        , 7           , 255         , 0           , 0
9.753718    , 0.416362822 , 0.0246838257, -0.0231427941, 0.09043938  , 0.00432362128, -1.59268928 , 1.52330661  , 0.178948775 , 918.56604   , 30.45642    , 819.5725    , 2.82        , 7           , 255         , 0           , 0
9.72100449  , 0.419079363 , -0.0345011652, -0.01952765 , 0.0813287646, 0.00420119427, -1.61001658 , 1.52331924  , 0.161797181 , 918.5747    , 30.4549274  , 819.572632  , 2.83        , 7           , 255         , 0           , 0
9.722162    , 0.4376425   , -0.1274995  , -0.0176058859, 0.08632399  , 0.00215755077, -1.62835824 , 1.52330041  , 0.1436117   , 918.5747    , 30.4549274  , 819.572754  , 2.84        , 7           , 255         , 0           , 0
9.777701    , 0.3913322   , -0.09042459 , -0.01086512 , 0.08973425  , -0.00189770968, -1.64726126 , 1.52322257  , 0.124794863 , 918.5747    , 30.4549274  , 819.5729    , 2.85        , 7           , 255         , 0           , 0
9.755658    , 0.366680741 , -0.124033011, -0.0122720031, 0.109453358 , -0.0153070139, -1.66994464 , 1.52297509  , 0.102209277 , 918.5747    , 30.4549274  , 819.573     , 2.86        , 7           , 255         , 0           , 0
9.722312    , 0.350969821 , -0.06638154 , -0.0193428323, 0.130089849 , -0.0270697046, -1.6964004  , 1.522558    , 0.07591626  , 918.5747    , 30.4549274  , 819.5731    , 2.87        , 7           , 255         , 0           , 0
9.71960449  , 0.3978932   , 0.09439042  , -0.01979109 , 0.111389056 , -0.0317885764, -1.71845579 , 1.52209294  , 0.05403297  , 918.5747    , 30.4549274  , 819.5732    , 2.88        , 7           , 255         , 0           , 0
9.745817    , 0.445975542 , 0.08977912  , -0.0301458966, 0.1021085   , -0.04272623 , -1.73795819 , 1.5215112   , 0.0348089263, 918.5747    , 30.4549274  , 819.573242  , 2.89        , 7           , 255         , 0           , 0
9.737094    , 0.465702474 , 0.08330145  , -0.0376449525, 0.0978580341, -0.047601033, -1.75606143 , 1.52086926  , 0.0170602873, 918.5747    , 30.4549274  , 819.5733    , 2.9         , 7           , 255         , 0           , 0
9.774556    , 0.4975992   , 0.09914158  , -0.0312035065, 0.08682691  , -0.046670936, -1.77087831 , 1.52028036  , 0.00253560883, 918.5747    , 30.4549274  , 819.6191    , 2.91        , 7           , 255         , 0           , 0
9.810592    , 0.5853531   , 0.104677215 , -0.0126700886, 0.06766103  , -0.03343759 , -1.78269839 , 1.51981509  , -0.009172713, 918.5747    , 30.4549274  , 819.619446  , 2.92        , 7           , 255         , 0           , 0
9.831933    , 0.610747159 , 0.0947170258, 0.00705712661, 0.0515897535, -0.0118163023, -1.791985   , 1.519591    , -0.0185418222, 918.5894    , 30.4553356  , 819.6198    , 2.93        , 7           , 255         , 0           , 0
