Acc X       , Acc Y       , Acc Z       , Gyro X      , Gyro Y      , Gyro Z      , Euler X     , Euler Y     , Euler Z     , Pres X      , Pres Y      , Pres Z      , Time        , Status      , LowRate X   , LowRate Y   , LowRate Z    
-0.15776898 , 0.129886582 , -9.784896   , 0           , 0           , 0           , -0.0132734124, -0.0161209088, 0           , 923.636841  , 31.2412167  , 774.339661  , 0           , 2           , 0           , 5.46323156  , 0
-0.165508777, 0.119117156 , -9.794741   , -3.49558832E-05, 0.0002444537, 0.000161480726, -0.0132736685, -0.01611861 , 1.58238447E-06, 923.636841  , 31.2412167  , 774.339661  , 0.01        , 3           , 1           , 0           , 0
-0.154757768, 0.131198138 , -9.789706   , 0.000199691945, 3.09745228E-05, 0.000493669766, -0.0132717509, -0.016118234, 6.51505525E-06, 923.636841  , 31.2412167  , 774.339661  , 0.02        , 3           , 2           , 0           , 0
-0.157635182, 0.13014923  , -9.795926   , 0.0002488011, -0.0003301888, -0.000136179748, -0.013269241, -0.0161215514, 5.19704827E-06, 923.600342  , 30.8063488  , 774.339661  , 0.03        , 3           , 3           , 0           , 0
-0.15668112 , 0.130258948 , -9.785913   , 0.000254314218, 0.000194856373, 6.50859438E-05, -0.01326671 , -0.0161196  , 5.822075E-06, 923.600342  , 30.8063488  , 774.339661  , 0.04        , 3           , 4           , 0           , 0
-0.148293659, 0.129461378 , -9.791826   , -0.000193653017, 1.45275262E-05, -0.0001828535, -0.0132686161, -0.0161194783, 3.99158534E-06, 923.600342  , 30.8063488  , 774.339661  , 0.05        , 3           , 5           , 0           , 0
-0.15707545 , 0.119594179 , -9.796896   , -0.000257653155, -0.000310560776, 0.000452913053, -0.0132712647, -0.0161225218, 8.561997E-06, 923.600342  , 30.8063488  , 774.339661  , 0.06        , 3           , 6           , 0           , 0
-0.1649719  , 0.121463217 , -9.787676   , -0.0005087765, -0.00014624215, 0.000565167167, -0.0132764438, -0.0161239076, 1.42331792E-05, 923.600342  , 30.8063488  , 774.339661  , 0.07        , 3           , 7           , 0           , 0
-0.15833579 , 0.127988309 , -9.793978   , -0.000139905984, -0.00045514488, 0.000311541837, -0.013277893, -0.0161284171, 1.74090765E-05, 923.600342  , 30.8063488  , 774.339661  , 0.08        , 3           , 8           , 5           , 5
-0.155091673, 0.131717518 , -9.789351   , 0.000231054146, -0.000143873884, 8.47546762E-05, -0.0132755972, -0.016129842, 1.8275734E-05, 923.600342  , 30.8063488  , 774.339661  , 0.09        , 3           , 9           , 5           , 0.1
-0.153355271, 0.134905741 , -9.793196   , 7.797769E-05, 0.000216814835, -0.000469933031, -0.0132747414, -0.0161277372, 1.35475429E-05, 923.600342  , 30.8063488  , 774.339661  , 0.1         , 3           , 10          , 0.1         , 0.1
-0.158739492, 0.132238388 , -9.791124   , -0.000619963859, 0.000156068141, 7.714472E-05, -0.0132711222, -0.0161232371, 1.41397786E-05, 923.600342  , 30.8063488  , 774.6648    , 0.11        , 3           , 11          , 0.0109544508, 0.0109544508
-0.161905646, 0.124938667 , -9.794905   , -0.000776484259, 0.000461815216, 1.08007807E-05, -0.0132788895, -0.0161186159, 1.41864757E-05, 923.600342  , 30.8063488  , 774.6648    , 0.12        , 3           , 12          , 0.174642488 , 0
-0.155534461, 0.13306804  , -9.795294   , -0.000344924658, -0.000111613772, -0.000354364543, -0.0132822795, -0.01611978 , 1.06575926E-05, 923.5756    , 30.8438663  , 774.6648    , 0.13        , 3           , 13          , 0           , 0
-0.15471068 , 0.125482872 , -9.794214   , 0.0007149184, 2.79424421E-05, -0.001277143, -0.0132749248, -0.016119672, -2.117768E-06, 923.5756    , 30.8438663  , 774.6648    , 0.14        , 3           , 14          , -0.000469501741, -0.0002480934
-0.16913259 , 0.127641574 , -9.792929   , 0.00019971517, 0.00018806888, -0.000166753467, -0.0132729011, -0.0161178131, -3.81029531E-06, 923.5756    , 30.8438663  , 774.6648    , 0.15        , 3           , 15          , 0           , 0.000154894384
-0.154432818, 0.129184052 , -9.78644    , -0.000151378248, -0.0003494568, -0.00072895817, -0.013274298, -0.0161214  , -1.10536166E-05, 923.5756    , 30.8438663  , 774.6648    , 0.16        , 3           , 16          , 0           , 1.401298E-45
-0.151814714, 0.1288704   , -9.795144   , -0.00011371242, 0.000425727456, -0.000297978928, -0.0132753858, -0.0161171816, -1.40899774E-05, 923.5756    , 30.8438663  , 774.6648    , 0.17        , 3           , 20          , 0           , 0
-0.16437979 , 0.13320899  , -9.786742   , 0.000495535 , -0.000136267219, -0.000987163, -0.0132702738, -0.0161186773, -2.39436886E-05, 923.5756    , 30.8438663  , 774.6648    , 0.18        , 3           , 21          , 0           , 0
-0.156757385, 0.1252226   , -9.795083   , -0.0003710582, -0.000139018171, -0.000712739246, -0.0132738687, -0.0161201637, -3.1052743E-05, 923.5756    , 30.8438663  , 774.664856  , 0.19        , 3           , 22          , 0           , 0
-0.158943132, 0.120698966 , -9.792783   , -0.000271076482, 6.15977042E-05, -0.000373048271, -0.0132765183, -0.0161195938, -3.479148E-05, 923.5756    , 30.8438663  , 774.6649    , 0.2         , 3           , 40          , 0           , 0
-0.162561685, 0.127862483 , -9.78908    , -0.000203626463, 8.120599E-05, -0.0006342809, -0.01327095 , -0.0161218438, -4.12661E-05, 923.5756    , 30.8438663  , 774.7775    , 0.21        , 3           , 41          , 0           , 0
-0.160957128, 0.1245303   , -9.794758   , -0.000291145348, -1.48582621E-05, -0.000665296568, -0.0132737542, -0.01612208 , -4.791721E-05, 923.5756    , 30.8438663  , 774.7776    , 0.22        , 3           , 42          , 0           , 0
-0.158723757, 0.128357515 , -9.792954   , -0.00051178725, 0.0002668064, -0.000315233425, -0.0132788215, -0.0161194559, -5.1105013E-05, 923.6411    , 30.8684921  , 774.777649  , 0.23        , 3           , 255         , 0           , 0
-0.165364951, 0.128300235 , -9.795112   , -0.000517001143, -0.000157456758, -0.000844351132, -0.0132838534, -0.0161211379, -5.95277743E-05, 923.6411    , 30.8684921  , 774.7777    , 0.24        , 3           , 255         , 0           , 0
-0.150574341, 0.128318429 , -9.797266   , 3.049054E-05, -2.72156612E-05, -0.00049174 , -0.01328347 , -0.0161214769, -6.444164E-05, 923.6411    , 30.8684921  , 774.7778    , 0.25        , 3           , 255         , 0           , 0
-0.152986586, 0.122719884 , -9.796548   , -0.000167477992, -7.625701E-05, 0.0001666441, -0.0132851712, -0.0161222164, -6.276505E-05, 923.6411    , 30.8684921  , 774.777832  , 0.26        , 3           , 255         , 0           , 0
-0.16429083 , 0.131667748 , -9.796147   , -0.000452440348, -0.000237501692, 0.0005316544, -0.0132897822, -0.01612452 , -5.74168625E-05, 923.6411    , 30.8684921  , 774.7779    , 0.27        , 3           , 255         , 0           , 0
-0.158948854, 0.1285846   , -9.786207   , -0.000323086744, -0.000329758215, 0.000580628868, -0.0132931052, -0.016127741, -5.15666325E-05, 923.6411    , 30.8684921  , 774.777954  , 0.28        , 3           , 255         , 0           , 0
-0.163437441, 0.124370381 , -9.790553   , 0.00021105443, -3.882585E-05, 0.0007945962, -0.0132911243, -0.0161280241, -4.36153678E-05, 923.6411    , 30.8684921  , 774.778     , 0.29        , 3           , 255         , 0           , 0
-0.157182962, 0.1286765   , -9.7937     , 7.835764E-05, -8.344263E-05, 0.000320378225, -0.0132903932, -0.0161288157, -4.040043E-05, 923.6411    , 30.8684921  , 774.7781    , 0.3         , 3           , 255         , 0           , 0
-0.16160576 , 0.134898543 , -9.784647   , -0.0007428514, 0.000286952971, 3.756296E-05, -0.01328803 , -0.01613161 , -4.02209553E-05, 923.6411    , 30.8684921  , 774.617859  , 0.31        , 3           , 255         , 0           , 0
-0.160473824, 0.134471327 , -9.79303    , -0.0006328494, 0.00048667693, -0.00031024206, -0.0132943084, -0.0161267817, -4.33881323E-05, 923.6411    , 30.8684921  , 774.6179    , 0.32        , 3           , 255         , 0           , 0
-0.153704569, 0.133341312 , -9.791898   , -0.00022794 , 0.000204311829, 0.0004661691, -0.0132966628, -0.0161246788, -3.87535219E-05, 923.6365    , 30.885725   , 774.618     , 0.33        , 3           , 255         , 0           , 0
-0.160881028, 0.1322212   , -9.792719   , -8.04365E-05, 0.000180233415, 0.000742386736, -0.0132975848, -0.0161227789, -3.135349E-05, 923.6365    , 30.885725   , 774.618042  , 0.34        , 3           , 255         , 0           , 0
-0.165355161, 0.131116062 , -9.790665   , 5.83128131E-05, 0.00010843901, 0.0003275785, -0.013297054, -0.01612165 , -2.809207E-05, 923.6365    , 30.885725   , 774.6181    , 0.35        , 3           , 255         , 0           , 0
-0.159807622, 0.127153769 , -9.795499   , 0.000321542 , 0.0002327934, -4.79774462E-05, -0.0132938325, -0.01611933 , -2.86028226E-05, 923.6365    , 30.885725   , 774.618164  , 0.36        , 3           , 255         , 0           , 0
-0.152189761, 0.131864339 , -9.795954   , -8.94803961E-05, -3.34946963E-05, 0.000603442953, -0.0132948244, -0.0161195844, -2.25638378E-05, 923.6365    , 30.885725   , 774.6182    , 0.37        , 3           , 255         , 0           , 0
-0.1539922  , 0.13608256  , -9.787469   , -5.18662564E-05, 0.000239507848, -2.82363035E-05, -0.0132953385, -0.0161171928, -2.28780391E-05, 923.6365    , 30.885725   , 774.6183    , 0.38        , 3           , 255         , 0           , 0
-0.148817688, 0.131377771 , -9.792935   , -0.0003077543, -0.000129047927, -0.000288833078, -0.01329837 , -0.01611852 , -2.57492484E-05, 923.6365    , 30.885725   , 774.618347  , 0.39        , 3           , 255         , 0           , 0
-0.146324277, 0.128017277 , -9.784922   , -0.000502832234, -0.000161725038, 0.000354920921, -0.013303455, -0.0161200929, -2.217845E-05, 923.6365    , 30.885725   , 774.6184    , 0.4         , 3           , 255         , 0           , 0
-0.153670073, 0.133585185 , -9.792936   , -0.0006065547, -7.398095E-05, -0.000478192058, -0.0133168828, -0.0161146186, -2.68307522E-05, 923.6365    , 30.885725   , 774.5485    , 0.41        , 3           , 255         , 0           , 0
-0.159235537, 0.136710823 , -9.78799248 , -0.000357378274, 7.939161E-05, -0.0001293332, -0.0133204339, -0.0161138382, -2.81346747E-05, 923.6365    , 30.885725   , 774.5486    , 0.42        , 3           , 255         , 0           , 0
-0.15667212 , 0.1388514   , -9.78831    , -0.000237196917, 7.533E-05   , 0.000261120673, -0.01332285 , -0.01611305 , -2.5533458E-05, 923.5597    , 30.8948841  , 774.548645  , 0.43        , 3           , 255         , 0           , 0
-0.16240406 , 0.134339556 , -9.784348   , -9.776768E-05, -0.0001538333, -0.000149713131, -0.0133238034, -0.01611461 , -2.70101082E-05, 923.5597    , 30.8948841  , 774.5487    , 0.44        , 3           , 255         , 0           , 0
-0.162183955, 0.134488359 , -9.793043   , 7.294369E-05, 0.00028189813, -0.000356857025, -0.0133230165, -0.0161118358, -3.061631E-05, 923.5597    , 30.8948841  , 774.548767  , 0.45        , 3           , 255         , 0           , 0
-0.159474015, 0.135256    , -9.79448    , 0.000388342654, -3.05043068E-06, -0.00015188659, -0.0133191086, -0.0161118861, -3.213478E-05, 923.5597    , 30.8948841  , 774.5488    , 0.46        , 3           , 255         , 0           , 0
-0.161704421, 0.136482716 , -9.786686   , 0.0004408555, 2.31272716E-05, -0.000748055871, -0.0133145815, -0.0161117557, -3.96185278E-05, 923.5597    , 30.8948841  , 774.5489    , 0.47        , 3           , 255         , 0           , 0
-0.156106159, 0.133806854 , -9.79334    , 0.00030961202, 0.000134683389, 9.250031E-05, -0.0133114988, -0.0161104  , -3.87114269E-05, 923.5597    , 30.8948841  , 774.54895   , 0.48        , 3           , 255         , 0           , 0
-0.15293406 , 0.124862075 , -9.789966   , -7.42512639E-05, 0.000132948539, -7.807082E-05, -0.013312229, -0.01610908 , -3.950985E-05, 923.5597    , 30.8948841  , 774.549     , 0.49        , 3           , 255         , 0           , 0
-0.1503053  , 0.124727629 , -9.786795   , -0.000121120829, -6.592716E-06, 0.0001689903, -0.0133134667, -0.016109122, -3.78190562E-05, 923.5597    , 30.8948841  , 774.5491    , 0.5         , 3           , 255         , 0           , 0
-0.161483467, 0.118796088 , -9.7906065  , 0.000109576125, 0.000334749115, 0.0002152671, -0.0133245457, -0.0161044728, -3.55154152E-05, 923.5597    , 30.8948841  , 774.6481    , 0.51        , 3           , 255         , 0           , 0
-0.167659   , 0.119964734 , -9.792169   , 2.69115844E-05, 9.040983E-05, -1.84853852E-05, -0.0133242728, -0.01610357 , -3.571232E-05, 923.5597    , 30.8948841  , 774.6482    , 0.52        , 3           , 255         , 0           , 0
-0.165233716, 0.129377067 , -9.794477   , 1.18331518E-05, 0.000117720541, 0.00029660092, -0.013324202, -0.016102355, -3.27619455E-05, 923.6428    , 30.90438    , 774.6483    , 0.53        , 3           , 255         , 0           , 0
-0.157414913, 0.132790253 , -9.796589   , 0.000403937 , -0.000257699983, 0.000161772565, -0.01332019 , -0.0161049087, -3.11098556E-05, 923.6428    , 30.90438    , 774.648438  , 0.54        , 3           , 255         , 0           , 0
-0.167566746, 0.131020814 , -9.790529   , 0.000495095563, 0.000161427961, -0.000161243865, -0.0133152129, -0.01610332 , -3.27438247E-05, 923.6428    , 30.90438    , 774.64856   , 0.55        , 3           , 255         , 0           , 0
-0.153091043, 0.131836742 , -9.792105   , -6.134217E-05, -0.0003500774, 0.0005217654, -0.0133159114, -0.016106749, -2.74794784E-05, 923.6428    , 30.90438    , 774.6487    , 0.56        , 3           , 255         , 0           , 0
-0.15201211 , 0.135178939 , -9.798717   , -0.000777957845, -2.109664E-05, 0.000260469329, -0.0133237327, -0.0161069259, -2.487191E-05, 923.6428    , 30.90438    , 774.6488    , 0.57        , 3           , 255         , 0           , 0
-0.160846382, 0.134285852 , -9.793382   , -4.06003965E-05, -0.000182065472, -0.000303808833, -0.01332409 , -0.0161087867, -2.788579E-05, 923.6428    , 30.90438    , 774.6489    , 0.58        , 3           , 255         , 0           , 0
-0.16518192 , 0.1301795   , -9.795944   , 0.000324899971, 0.000147279032, -0.000128274449, -0.0133208213, -0.01610733 , -2.91881752E-05, 923.6428    , 30.90438    , 774.649048  , 0.59        , 3           , 255         , 0           , 0
-0.156714112, 0.126441121 , -9.799931   , -2.4794921E-05, 4.467224E-05, -0.0005097757, -0.0133209871, -0.01610695 , -3.42919775E-05, 923.6428    , 30.90438    , 774.6492    , 0.6         , 3           , 255         , 0           , 0
-0.1623632  , 0.124857761 , -9.792023   , -0.000173769309, -7.651225E-05, -0.0004675446, -0.0133183831, -0.0161164664, -3.902605E-05, 923.6428    , 30.90438    , 774.585754  , 0.61        , 3           , 255         , 0           , 0
-0.1580503  , 0.133164212 , -9.797907   , 5.4117234E-05, -0.000105818646, -0.000217185632, -0.0133178076, -0.0161175542, -4.11838519E-05, 923.6428    , 30.90438    , 774.5858    , 0.62        , 3           , 255         , 0           , 0
-0.163256735, 0.135111988 , -9.798317   , 0.0003501845, 0.000597022241, -0.0002550212, -0.0133142648, -0.016111616, -4.381362E-05, 923.593262  , 30.90723    , 774.585938  , 0.63        , 3           , 255         , 0           , 0
-0.157694966, 0.122385964 , -9.798895   , 1.27085077E-05, 4.906615E-07, -0.000316606776, -0.0133140869, -0.0161116533, -4.697979E-05, 923.593262  , 30.90723    , 774.58606   , 0.64        , 3           , 255         , 0           , 0
-0.165731832, 0.1306766   , -9.785201   , 8.29950441E-05, -4.498899E-06, -0.0001538937, -0.0133132329, -0.01611172 , -4.85181481E-05, 923.593262  , 30.90723    , 774.5862    , 0.65        , 3           , 255         , 0           , 0
-0.160659611, 0.136071563 , -9.785185   , 0.000427174615, -0.000198711961, 7.3369054E-05, -0.0133089731, -0.0161137  , -4.77579924E-05, 923.593262  , 30.90723    , 774.5863    , 0.66        , 3           , 255         , 0           , 0
-0.160345525, 0.124866866 , -9.795428   , -0.00032981002, -0.000205257442, 0.0005028507, -0.0133123528, -0.0161156859, -4.27020932E-05, 923.593262  , 30.90723    , 774.5864    , 0.67        , 3           , 255         , 0           , 0
-0.155505851, 0.124066487 , -9.792804   , -0.000205382472, 0.000216442641, 0.000334395736, -0.0133144585, -0.016113475, -3.93869E-05, 923.593262  , 30.90723    , 774.586548  , 0.68        , 3           , 255         , 0           , 0
-0.154008269, 0.13029924  , -9.794969   , 0.000129774067, -0.000245939038, -4.872916E-05, -0.0133131538, -0.016115943, -3.984145E-05, 923.593262  , 30.90723    , 774.5867    , 0.69        , 3           , 255         , 0           , 0
-0.155757755, 0.12888743  , -9.79612    , 0.0004226124, -0.000231473387, -0.000816165, -0.013308797, -0.0161183663, -4.79724222E-05, 923.593262  , 30.90723    , 774.5868    , 0.7         , 3           , 255         , 0           , 0
-0.1539534  , 0.124967456 , -9.796262   , 0.000134505681, 0.000259352062, -0.000632756331, -0.0133032864, -0.0161203872, -5.4400105E-05, 923.593262  , 30.90723    , 774.609131  , 0.71        , 3           , 255         , 0           , 0
-0.155668586, 0.1329759   , -9.804472   , 0.0003190507, -0.00010438863, -0.0006426159, -0.0132999932, -0.016121516, -6.08124974E-05, 923.593262  , 30.90723    , 774.609253  , 0.72        , 3           , 255         , 0           , 0
-0.156479746, 0.123538196 , -9.780799   , 0.000183743017, -9.67556E-05, -0.000976247829, -0.0132979983, -0.0161226131, -7.056226E-05, 923.640442  , 30.9121151  , 774.6094    , 0.73        , 3           , 255         , 0           , 0
-0.154939249, 0.131085277 , -9.78041649 , 0.000359760132, -0.00036257293, 8.268353E-05, -0.0132944146, -0.0161262248, -6.968722E-05, 923.640442  , 30.9121151  , 774.6095    , 0.74        , 3           , 255         , 0           , 0
-0.166893691, 0.13744694  , -9.787842   , -0.00035477872, -3.749365E-05, 0.000414586044, -0.0132980281, -0.0161265451, -6.55363256E-05, 923.640442  , 30.9121151  , 774.6096    , 0.75        , 3           , 255         , 0           , 0
-0.150740311, 0.119918749 , -9.798193   , -8.333323E-05, 8.142553E-06, -0.000213430962, -0.0132988291, -0.0161264911, -6.767175E-05, 923.640442  , 30.9121151  , 774.609741  , 0.76        , 3           , 255         , 0           , 0
-0.15794763 , 0.1262068   , -9.795172   , 0.000327191956, 5.06826182E-05, -0.000173443856, -0.0132955285, -0.0161260068, -6.94129558E-05, 923.640442  , 30.9121151  , 774.609863  , 0.77        , 3           , 255         , 0           , 0
-0.162559718, 0.125949591 , -9.781095   , -0.000138574978, -0.000458609866, -9.54485658E-05, -0.0132968994, -0.0161306076, -7.030647E-05, 923.640442  , 30.9121151  , 774.61      , 0.78        , 3           , 255         , 0           , 0
-0.154249161, 0.132660687 , -9.786733   , -0.00015975663, -0.0005645716, -0.000134743328, -0.013298477, -0.01613627 , -7.15788556E-05, 923.640442  , 30.9121151  , 774.6101    , 0.79        , 3           , 255         , 0           , 0
-0.154109329, 0.135843128 , -9.79729748 , -0.000217758236, -0.000162803684, 0.00023573103, -0.0133006917, -0.0161378644, -6.919984E-05, 923.640442  , 30.9121151  , 774.6102    , 0.8         , 3           , 255         , 0           , 0
-0.1545871  , 0.137680009 , -9.787222   , -0.000370262744, -3.876086E-05, 0.0007946509, -0.0133004971, -0.0161340125, -6.1313E-05 , 923.640442  , 30.9121151  , 774.5683    , 0.81        , 3           , 255         , 0           , 0
-0.151781216, 0.120496348 , -9.790553   , -0.00010423208, 0.000201672883, 0.000155667236, -0.0133015625, -0.0161319766, -5.978312E-05, 923.640442  , 30.9121151  , 774.5684    , 0.82        , 3           , 255         , 0           , 0
-0.14902544 , 0.135229141 , -9.78607    , 0.000232194623, 0.000124679587, -0.000342516752, -0.0132991849, -0.0161307752, -6.322494E-05, 923.619141  , 30.9176788  , 774.568542  , 0.83        , 3           , 255         , 0           , 0
-0.150809   , 0.139088929 , -9.79258    , 3.94072267E-05, -0.0003108907, 0.000895877951, -0.0132989371, -0.0161337648, -5.422464E-05, 923.619141  , 30.9176788  , 774.568665  , 0.84        , 3           , 255         , 0           , 0
-0.154888928, 0.14013359  , -9.796116   , 0.000259654626, -0.000620015664, -0.0003197104, -0.01329629 , -0.0161400046, -5.73393663E-05, 923.619141  , 30.9176788  , 774.5688    , 0.85        , 3           , 255         , 0           , 0
-0.170051336, 0.1304532   , -9.795652   , -0.000199020345, -0.0001546198, 0.000215221124, -0.0132983159, -0.01614152 , -5.51665544E-05, 923.619141  , 30.9176788  , 774.5689    , 0.86        , 3           , 255         , 0           , 0
-0.162778422, 0.134248555 , -9.785425   , -0.0001187404, -0.0002462323, -0.000104086874, -0.0132994866, -0.0161439963, -5.617469E-05, 923.619141  , 30.9176788  , 774.569031  , 0.87        , 3           , 255         , 0           , 0
-0.162345022, 0.127703562 , -9.784176   , 8.123345E-05, 0.0003169903, -0.00125982054, -0.0132984705, -0.0161409937, -6.881526E-05, 923.619141  , 30.9176788  , 774.569153  , 0.88        , 3           , 255         , 0           , 0
-0.167126209, 0.131174669 , -9.792761   , -0.000134253729, -0.000112057896, 6.00015919E-05, -0.0132998219, -0.0161421057, -6.820035E-05, 923.619141  , 30.9176788  , 774.5693    , 0.89        , 3           , 255         , 0           , 0
-0.16589725 , 0.128293931 , -9.792379   , -0.000291010976, -7.587482E-05, 0.0005450724, -0.0133028189, -0.01614279 , -6.273943E-05, 923.619141  , 30.9176788  , 774.5694    , 0.9         , 3           , 255         , 0           , 0
-0.154600129, 0.123254143 , -9.795      , -0.0002624673, 0.0003778376, 0.000318189268, -0.0133135282, -0.0161422063, -5.94780649E-05, 923.619141  , 30.9176788  , 774.560547  , 0.91        , 3           , 255         , 0           , 0
-0.153759748, 0.118861362 , -9.809225   , -0.000196246256, -0.000267337, 0.000364455162, -0.013315551, -0.0161448326, -5.57978638E-05, 923.619141  , 30.9176788  , 774.560669  , 0.92        , 3           , 255         , 0           , 0
-0.158315584, 0.11645101  , -9.787795   , 0.000126111321, -0.0001313191, -7.967108E-05, -0.0133142769, -0.0161461551, -5.65770933E-05, 923.668152  , 30.9175434  , 774.5608    , 0.93        , 3           , 255         , 0           , 0
-0.157130212, 0.123962283 , -9.78821    , -0.000217903289, 0.000134959555, -0.000226065662, -0.013316419, -0.0161448345, -5.88557632E-05, 923.668152  , 30.9175434  , 774.5609    , 0.94        , 3           , 255         , 0           , 0
-0.1601176  , 0.129953951 , -9.792576   , 0.000295540929, -0.000153824541, 4.25131147E-05, -0.01331347 , -0.0161463656, -5.84101435E-05, 923.668152  , 30.9175434  , 774.561035  , 0.95        , 3           , 255         , 0           , 0
-0.155879587, 0.134600431 , -9.799303   , 0.0003247102, -8.746429E-05, 0.000214697109, -0.0133102592, -0.0161472112, -5.6251487E-05, 923.668152  , 30.9175434  , 774.561157  , 0.96        , 3           , 255         , 0           , 0
-0.16225715 , 0.142291114 , -9.79122448 , -1.73431472E-05, -0.000297736115, -0.000186221878, -0.0133104036, -0.0161502138, -5.80741071E-05, 923.668152  , 30.9175434  , 774.5613    , 0.97        , 3           , 255         , 0           , 0
-0.162160486, 0.1353575   , -9.790924   , 0.0004367538, 0.000169171966, -9.505442E-06, -0.0133060347, -0.0161485225, -5.81916865E-05, 923.668152  , 30.9175434  , 774.5614    , 0.98        , 3           , 255         , 0           , 0
-0.156124547, 0.146237046 , -9.791102   , 7.479792E-05, -0.0005340985, -0.0002550239, -0.0133052459, -0.0161538944, -6.06708927E-05, 923.668152  , 30.9175434  , 774.5615    , 0.99        , 3           , 255         , 0           , 0
-0.157502666, 0.135182589 , -9.794077   , 0.000354062446, -0.000628469861, -0.000135945273, -0.0133016855, -0.0161602  , -6.19467537E-05, 923.668152  , 30.9175434  , 774.561646  , 1           , 3           , 0           , 6.46323633  , 100
-0.158146113, 0.1325746   , -9.791646   , -0.000326660374, -0.000360249163, 8.812637E-05, -0.0133055113, -0.0161627922, -6.10087227E-05, 923.668152  , 30.9175434  , 774.5006    , 1.01        , 3           , 1           , 0           , 0
-0.16398859 , 0.134525254 , -9.793689   , -0.000276300561, 0.000172836721, 0.000144707941, -0.0133082978, -0.0161610451, -5.95846068E-05, 923.668152  , 30.9175434  , 774.5006    , 1.02        , 3           , 2           , 0           , 0
-0.155812711, 0.129053921 , -9.795765   , -0.000565289054, -0.000186499121, -0.000200755923, -0.0133139174, -0.0161629338, -6.15674E-05, 923.6144    , 30.9216137  , 774.5006    , 1.03        , 3           , 3           , 0           , 0
-0.156501472, 0.130561754 , -9.78838348 , -0.0006353465, -2.16311309E-05, -0.000238612192, -0.0133202327, -0.0161631834, -6.395066E-05, 923.6144    , 30.9216137  , 774.5006    , 1.04        , 3           , 4           , 0           , 0
-0.150696442, 0.13182573  , -9.785888   , -0.000312584249, -7.469804E-05, -0.000326848327, -0.0133233061, -0.0161639731, -6.72092356E-05, 923.6144    , 30.9216137  , 774.5006    , 1.05        , 3           , 5           , 0           , 0
-0.155602217, 0.128512651 , -9.785882   , 0.0001732514, -0.000103935134, 0.000694450457, -0.0133216865, -0.01616492 , -6.025077E-05, 923.6144    , 30.9216137  , 774.5006    , 1.06        , 3           , 6           , 0           , 0
-0.154731676, 0.1179598   , -9.796498   , -0.0002015862, 0.0001817832, 0.0006710794, -0.01332381 , -0.0161630139, -5.35640756E-05, 923.6144    , 30.9216137  , 774.5006    , 1.07        , 3           , 7           , 0           , 0
-0.1587375  , 0.118245505 , -9.792733   , -0.0006721573, -0.000257709326, -0.000449570653, -0.0133304568, -0.01616565 , -5.80255255E-05, 923.6144    , 30.9216137  , 774.5006    , 1.08        , 3           , 8           , 5           , 5
-0.153242931, 0.129514188 , -9.801327   , -0.000479845883, 0.000491055136, -0.000641266233, -0.0133351516, -0.0161608271, -6.450376E-05, 923.6144    , 30.9216137  , 774.5006    , 1.09        , 3           , 9           , 5           , 0.1
-0.161126718, 0.128083587 , -9.787541   , 0.000108102307, -0.000188888342, -0.000248346943, -0.0133340294, -0.0161627475, -6.696208E-05, 923.6144    , 30.9216137  , 774.5006    , 1.1         , 3           , 10          , 0.1         , 0.1
-0.1610138  , 0.124459282 , -9.787604   , 0.0003423116, 0.000157436327, 2.27967976E-05, -0.0133235343, -0.016156869, -6.68694338E-05, 923.6144    , 30.9216137  , 774.505249  , 1.11        , 3           , 11          , 0.00918163  , 0.00918163
-0.1593121  , 0.131337717 , -9.804875   , 0.0007954177, 0.000324819121, 0.000209818856, -0.0133156152, -0.0161535926, -6.481448E-05, 923.6144    , 30.9216137  , 774.505249  , 1.12        , 3           , 12          , 0.174642846 , 0
-0.1574702  , 0.13058129  , -9.789255   , 0.0002523689, -5.07466029E-06, 0.000182048621, -0.0133131193, -0.0161536187, -6.29932838E-05, 923.5906    , 30.9216137  , 774.505249  , 1.13        , 3           , 13          , 0           , 0
-0.160702974, 0.127046734 , -9.789253   , -9.283726E-05, -9.42702754E-05, 0.000656687655, -0.0133141559, -0.0161544755, -5.641374E-05, 923.5906    , 30.9216137  , 774.505249  , 1.14        , 3           , 14          , -0.0004695062, -0.000248092751
-0.162815586, 0.1301608   , -9.78612    , -0.000102312944, -7.885578E-05, -7.46933947E-05, -0.0133151673, -0.0161552746, -5.71501878E-05, 923.5906    , 30.9216137  , 774.505249  , 1.15        , 3           , 15          , 0           , 0.000154894515
-0.1619244  , 0.133581311 , -9.785949   , 4.40389267E-05, 9.099167E-06, -0.00046830278, -0.01331465 , -0.0161552448, -6.183451E-05, 923.5906    , 30.9216137  , 774.505249  , 1.16        , 3           , 16          , 0           , 1.401298E-45
-0.159606621, 0.128144264 , -9.789199   , -3.296224E-05, 0.000134192713, -0.0009418627, -0.0133148273, -0.0161540285, -7.127117E-05, 923.5906    , 30.9216137  , 774.505249  , 1.17        , 3           , 20          , 0           , 0
-0.161439925, 0.123265959 , -9.794779   , -0.0005168374, 7.759723E-05, -0.0004969104, -0.0133199152, -0.0161533188, -7.625068E-05, 923.5906    , 30.9216137  , 774.5053    , 1.18        , 3           , 21          , 0           , 0
-0.158446521, 0.1315364   , -9.793041   , -0.00011653913, -0.0003109541, 5.74829319E-05, -0.0133210905, -0.0161564164, -7.563443E-05, 923.5906    , 30.9216137  , 774.5054    , 1.19        , 3           , 22          , 0           , 0
-0.152383953, 0.125315    , -9.792938   , -0.000358030084, -1.19359174E-05, -0.000175666268, -0.0133246407, -0.01615656 , -7.738954E-05, 923.5906    , 30.9216137  , 774.505432  , 1.2         , 3           , 40          , 0           , 0
-0.156471461, 0.112228967 , -9.794461   , -0.0003710544, -0.000141341181, -0.000248367433, -0.0133227622, -0.01616196 , -7.994411E-05, 923.5906    , 30.9216137  , 774.5341    , 1.21        , 3           , 41          , 0           , 0
-0.157802358, 0.116829313 , -9.790657   , -0.000607744267, 0.000171529668, 0.000265117968, -0.013328881, -0.01616021 , -7.731574E-05, 923.5906    , 30.9216137  , 774.534241  , 1.22        , 3           , 42          , 0           , 0
-0.15577057 , 0.11784561  , -9.795695   , 0.000179580762, 2.67419819E-05, -3.91997964E-05, -0.0133270808, -0.016159948, -7.771129E-05, 923.597351  , 30.9221554  , 774.534363  , 1.23        , 3           , 255         , 0           , 0
-0.154487878, 0.133918852 , -9.79286    , -0.000207959558, 0.000380444515, 3.76327953E-05, -0.0133291651, -0.016156137, -7.738568E-05, 923.597351  , 30.9221554  , 774.5345    , 1.24        , 3           , 255         , 0           , 0
-0.1549665  , 0.143390462 , -9.789328   , -0.000225635886, 0.000679989 , -0.0003919357, -0.0133313574, -0.0161493924, -8.13957449E-05, 923.597351  , 30.9221554  , 774.5346    , 1.25        , 3           , 255         , 0           , 0
-0.160731   , 0.141138852 , -9.790637   , 8.775835E-05, 2.18635832E-05, -0.000128112428, -0.01333046 , -0.0161491912, -8.26798E-05, 923.597351  , 30.9221554  , 774.5347    , 1.26        , 3           , 255         , 0           , 0
-0.148271635, 0.137169361 , -9.789096   , 2.10490252E-05, -6.145146E-05, 0.000180502087, -0.0133302789, -0.0161497816, -8.08665645E-05, 923.597351  , 30.9221554  , 774.534851  , 1.27        , 3           , 255         , 0           , 0
-0.154868588, 0.131624788 , -9.789352   , -0.000145378348, -0.000129335473, -0.000168380575, -0.0133317048, -0.0161510967, -8.253315E-05, 923.597351  , 30.9221554  , 774.535     , 1.28        , 3           , 255         , 0           , 0
-0.15741089 , 0.126323357 , -9.788558   , -0.0003376039, -0.000400842167, -7.64449942E-05, -0.0133350687, -0.0161551144, -8.32441656E-05, 923.597351  , 30.9221554  , 774.5351    , 1.29        , 3           , 255         , 0           , 0
-0.158784851, 0.128215984 , -9.787603   , -6.398355E-05, -0.0002721685, -0.000288043462, -0.0133356629, -0.016157873, -8.608836E-05, 923.597351  , 30.9221554  , 774.5352    , 1.3         , 3           , 255         , 0           , 0
-0.165353492, 0.1333789   , -9.797126   , 0.000185513665, 0.000245063682, 2.772316E-05, -0.0133287441, -0.0161486473, -8.592564E-05, 923.597351  , 30.9221554  , 774.5536    , 1.31        , 3           , 255         , 0           , 0
-0.162176967, 0.131323665 , -9.790765   , 0.000650153961, -0.000146543374, -0.000454453577, -0.0133221718, -0.0161501728, -9.045072E-05, 923.597351  , 30.9221554  , 774.5538    , 1.32        , 3           , 255         , 0           , 0
-0.158617288, 0.12499889  , -9.795581   , 0.000575546932, -0.000255167019, -0.00025652707, -0.0133163761, -0.0161527563, -9.298202E-05, 923.5883    , 30.9238529  , 774.553955  , 1.33        , 3           , 255         , 0           , 0
-0.164893955, 0.12760523  , -9.800222   , 0.000633675139, 0.000147832689, 0.0005290046, -0.013310126, -0.01615121 , -8.771159E-05, 923.5883    , 30.9238529  , 774.554138  , 1.34        , 3           , 255         , 0           , 0
-0.166302   , 0.125372842 , -9.791194   , 0.0007250318, 0.000167097431, 0.000435224472, -0.0133029455, -0.01614948 , -8.338153E-05, 923.5883    , 30.9238529  , 774.5544    , 1.35        , 3           , 255         , 0           , 0
-0.162507921, 0.122083127 , -9.798421   , 0.000288338138, 4.08898632E-06, 3.410678E-06, -0.013300064, -0.0161494389, -8.334796E-05, 923.5883    , 30.9238529  , 774.5546    , 1.36        , 3           , 255         , 0           , 0
-0.161997482, 0.1362346   , -9.792501   , -0.000651640934, -5.634775E-05, 0.0005050793, -0.0133066615, -0.0161499344, -7.828959E-05, 923.5883    , 30.9238529  , 774.5549    , 1.37        , 3           , 255         , 0           , 0
-0.162738055, 0.139984682 , -9.790672   , -0.000114290393, 0.000190505409, 0.000116434734, -0.0133078219, -0.016148014, -7.71505656E-05, 923.5883    , 30.9238529  , 774.5551    , 1.38        , 3           , 255         , 0           , 0
-0.157030866, 0.130831659 , -9.784425   , 0.0006276278, 6.22973457E-05, 0.000441105134, -0.0133016175, -0.0161473323, -7.27477454E-05, 923.5883    , 30.9238529  , 774.555359  , 1.39        , 3           , 255         , 0           , 0
-0.164656922, 0.128557    , -9.801913   , -0.000355246884, 0.0002499009, 0.0005143635, -0.0133052524, -0.0161447655, -6.763726E-05, 923.5883    , 30.9238529  , 774.5556    , 1.4         , 3           , 255         , 0           , 0
-0.161991164, 0.140388623 , -9.796747   , -0.0005558883, 0.000203538337, 0.000106976251, -0.0133101493, -0.016153004, -6.66055348E-05, 923.5883    , 30.9238529  , 774.581055  , 1.41        , 3           , 255         , 0           , 0
-0.153162181, 0.132391334 , -9.790711   , -0.00019875876, -0.0001560075, -0.000390282163, -0.0133120734, -0.0161546152, -7.04876657E-05, 923.5883    , 30.9238529  , 774.58136   , 1.42        , 3           , 255         , 0           , 0
-0.150742859, 0.131236479 , -9.79726    , -7.40549E-05, -0.000344186585, 0.000125923718, -0.0133128343, -0.01615804 , -6.918258E-05, 923.6455    , 30.9254131  , 774.581665  , 1.43        , 3           , 255         , 0           , 0
-0.161976025, 0.132977992 , -9.799439   , -0.000433425739, 0.000167813967, -4.449219E-06, -0.01331717 , -0.0161563624, -6.924941E-05, 923.6455    , 30.9254131  , 774.582031  , 1.44        , 3           , 255         , 0           , 0
-0.1642695  , 0.131126553 , -9.795126   , 0.000432716566, -0.000230559235, -0.0010111779, -0.0133126779, -0.0161588  , -7.93306754E-05, 923.6455    , 30.9254131  , 774.5824    , 1.45        , 3           , 255         , 0           , 0
-0.159930557, 0.137419924 , -9.798339   , 0.0004928477, -0.00023503456, -0.0004490799, -0.0133076776, -0.016161209, -8.379026E-05, 923.6455    , 30.9254131  , 774.582764  , 1.46        , 3           , 255         , 0           , 0
-0.159361169, 0.131557465 , -9.7946     , 0.0005687879, -0.000221099937, -0.0001352756, -0.0133019686, -0.0161634423, -8.51136356E-05, 923.6455    , 30.9254131  , 774.5831    , 1.47        , 3           , 255         , 0           , 0
-0.158520237, 0.1259642   , -9.786214   , 0.000375760836, -0.000395912, -0.00081097323, -0.0132980812, -0.0161675047, -9.317085E-05, 923.6455    , 30.9254131  , 774.5835    , 1.48        , 3           , 255         , 0           , 0
-0.155509338, 0.123143017 , -9.78684    , 0.000442259974, -0.000333439064, -0.0005053185, -0.0132935774, -0.016170904, -9.817979E-05, 923.6455    , 30.9254131  , 774.583862  , 1.49        , 3           , 255         , 0           , 0
-0.15548864 , 0.125333726 , -9.785609   , 0.000897729537, 3.464702E-05, -0.000738595554, -0.01328448 , -0.01617065 , -0.000105570485, 923.6455    , 30.9254131  , 774.5842    , 1.5         , 3           , 255         , 0           , 0
-0.158945844, 0.13151519  , -9.792017   , -0.000318616454, 0.000352665578, -0.0005443452, -0.0132894423, -0.0161667857, -0.000111030757, 923.6455    , 30.9254131  , 774.5472    , 1.51        , 3           , 255         , 0           , 0
-0.157960027, 0.129803509 , -9.799566   , -0.000528881967, 0.000266456947, -0.000114357419, -0.0132947117, -0.0161641389, -0.000112209767, 923.6455    , 30.9254131  , 774.547363  , 1.52        , 3           , 255         , 0           , 0
-0.160194442, 0.130739    , -9.785921   , -0.0002542212, -1.08769746E-06, 5.760914E-06, -0.0132972542, -0.01616415 , -0.000112152, 923.636353  , 30.9240551  , 774.547546  , 1.53        , 3           , 255         , 0           , 0
-0.162193626, 0.125153273 , -9.791057   , -5.544594E-05, -0.0001227514, 0.000335719553, -0.0132978624, -0.0161653329, -0.000108778433, 923.636353  , 30.9240551  , 774.5477    , 1.54        , 3           , 255         , 0           , 0
-0.156843036, 0.133540347 , -9.7907     , -0.000204169017, -0.000235911284, 0.0002467843, -0.0132999429, -0.01616766 , -0.000106279171, 923.636353  , 30.9240551  , 774.5479    , 1.55        , 3           , 255         , 0           , 0
-0.151340872, 0.129510716 , -9.798861   , -0.000101310608, 4.568261E-05, -0.0001226152, -0.0133009367, -0.01616722 , -0.000107511434, 923.636353  , 30.9240551  , 774.5481    , 1.56        , 3           , 255         , 0           , 0
-0.157449037, 0.136225015 , -9.794762   , -5.92375873E-05, 0.000317700848, -0.0006155151, -0.0133014312, -0.016164124, -0.000113708942, 923.636353  , 30.9240551  , 774.5483    , 1.57        , 3           , 255         , 0           , 0
-0.1651102  , 0.137539744 , -9.795744   , 1.40143093E-05, 0.000120228127, -1.31778943E-05, -0.0133012878, -0.0161629226, -0.000113856724, 923.636353  , 30.9240551  , 774.548462  , 1.58        , 3           , 255         , 0           , 0
-0.164307564, 0.132876441 , -9.787653   , 0.000312552263, 0.000517969136, 0.000167754522, -0.0132981893, -0.0161577184, -0.000112248046, 923.636353  , 30.9240551  , 774.548645  , 1.59        , 3           , 255         , 0           , 0
-0.154793635, 0.127610952 , -9.789805   , 0.0006104165, -0.000166698126, -0.000615463534, -0.0132919848, -0.01615947 , -0.000118380623, 923.636353  , 30.9240551  , 774.5488    , 1.6         , 3           , 255         , 0           , 0
-0.157687545, 0.1338092   , -9.78638649 , 0.000437324634, -0.000141898723, -0.000321871863, -0.0132905664, -0.016162347, -0.000121531957, 923.636353  , 30.9240551  , 774.5246    , 1.61        , 3           , 255         , 0           , 0
-0.15823023 , 0.129724115 , -9.788567   , -0.000378121476, -0.000616183039, 0.000814699859, -0.0132944807, -0.0161684  , -0.000113302907, 923.636353  , 30.9240551  , 774.524658  , 1.62        , 3           , 255         , 0           , 0
-0.160794824, 0.131149441 , -9.795637   , -0.0005833396, -9.19305E-05, 0.000107359243, -0.0133003313, -0.0161693059, -0.00011221708, 923.618164  , 30.92487    , 774.5247    , 1.63        , 3           , 255         , 0           , 0
-0.157581121, 0.120953396 , -9.798212   , -0.000326064735, 0.000194253182, 0.000903705659, -0.0133037372, -0.01616724 , -0.000103205712, 923.618164  , 30.92487    , 774.5248    , 1.64        , 3           , 255         , 0           , 0
-0.157630175, 0.117626809 , -9.781013   , -0.0003100428, 0.0002803793, 0.0009886667, -0.0133069986, -0.0161643084, -9.33561751E-05, 923.618164  , 30.92487    , 774.524841  , 1.65        , 3           , 255         , 0           , 0
-0.162042171, 0.1312826   , -9.78887    , -0.000322668842, -0.0003930969, 2.71942554E-05, -0.0133102275, -0.0161682311, -9.303191E-05, 923.618164  , 30.92487    , 774.5249    , 1.66        , 3           , 255         , 0           , 0
-0.16289176 , 0.1333953   , -9.7863     , 6.93451439E-05, 0.0003725962, 0.0005643533, -0.013309625, -0.0161644313, -8.74378748E-05, 923.618164  , 30.92487    , 774.524963  , 1.67        , 3           , 255         , 0           , 0
-0.158654541, 0.135831386 , -9.793737   , 0.0002639374, 0.000418285432, 0.00136877759, -0.0133072073, -0.016160069, -7.38055242E-05, 923.618164  , 30.92487    , 774.525     , 1.68        , 3           , 255         , 0           , 0
-0.158512   , 0.127440974 , -9.790151   , 0.0003839676, 9.866677E-05, 0.000696134346, -0.01330348 , -0.0161589887, -6.685722E-05, 923.618164  , 30.92487    , 774.5251    , 1.69        , 3           , 255         , 0           , 0
-0.161134884, 0.124260463 , -9.799051   , 9.097022E-05, -0.000190981256, 0.000405775441, -0.0133026354, -0.0161608439, -6.277397E-05, 923.618164  , 30.92487    , 774.525146  , 1.7         , 3           , 255         , 0           , 0
-0.170171   , 0.124702714 , -9.792412   , 0.0006482563, -0.000222049828, 0.000879465952, -0.0132914931, -0.0161663163, -5.402727E-05, 923.618164  , 30.92487    , 774.522949  , 1.71        , 3           , 255         , 0           , 0
-0.164218441, 0.125352114 , -9.798038   , -3.660767E-06, 9.87948E-05 , -0.0002772772, -0.0132914837, -0.0161653645, -5.681322E-05, 923.618164  , 30.92487    , 774.523     , 1.72        , 3           , 255         , 0           , 0
-0.165040568, 0.131805032 , -9.79111    , 0.00082681037, -0.000207628676, -0.0007375373, -0.0132830972, -0.0161675382, -6.41611259E-05, 923.6235    , 30.9284649  , 774.5231    , 1.73        , 3           , 255         , 0           , 0
-0.155560777, 0.123659506 , -9.785      , 0.0007386314, -3.682531E-05, 0.000194955937, -0.0132757425, -0.01616788 , -6.220665E-05, 923.6235    , 30.9284649  , 774.523132  , 1.74        , 3           , 255         , 0           , 0
-0.160351753, 0.132179528 , -9.781627   , 0.0002662255, 0.000127343243, 0.00034258925, -0.0132731376, -0.01616656 , -5.87975919E-05, 923.6235    , 30.9284649  , 774.5232    , 1.75        , 3           , 255         , 0           , 0
-0.164337441, 0.133127674 , -9.792187   , 0.000147329643, -0.0003580662, -0.000340461964, -0.0132716075, -0.0161701851, -6.215476E-05, 923.6235    , 30.9284649  , 774.523254  , 1.76        , 3           , 255         , 0           , 0
-0.159112781, 0.135305136 , -9.79121    , -0.000351775, -0.000211899518, -7.21816759E-05, -0.0132751148, -0.0161723122, -6.28484559E-05, 923.6235    , 30.9284649  , 774.5233    , 1.77        , 3           , 255         , 0           , 0
-0.15946658 , 0.132051185 , -9.799559   , -0.000289260439, -0.000221342954, 0.000268556149, -0.01327805 , -0.0161744934, -6.01334541E-05, 923.6235    , 30.9284649  , 774.5234    , 1.78        , 3           , 255         , 0           , 0
-0.156659752, 0.124939963 , -9.793245   , 0.000214040949, -0.000141632481, -0.0008545141, -0.0132757714, -0.0161760226, -6.865993E-05, 923.6235    , 30.9284649  , 774.523438  , 1.79        , 3           , 255         , 0           , 0
-0.1404173  , 0.130123138 , -9.793683   , 0.0005491059, 0.000196236128, -0.0004037115, -0.013270217, -0.0161741134, -7.27231745E-05, 923.6235    , 30.9284649  , 774.5235    , 1.8         , 3           , 255         , 0           , 0
-0.147054046, 0.129427746 , -9.801696   , 0.00110587385, 0.0002789564, -0.0010466536, -0.0132573349, -0.0161744654, -8.325364E-05, 923.6235    , 30.9284649  , 774.5155    , 1.81        , 3           , 255         , 0           , 0
-0.14694193 , 0.139630631 , -9.79216    , 0.00034138374, 3.587571E-06, -0.0003884093, -0.0132538592, -0.01617448 , -8.71382654E-05, 923.6235    , 30.9284649  , 774.515564  , 1.82        , 3           , 255         , 0           , 0
-0.1670045  , 0.135121092 , -9.795483   , 0.00010999068, -0.0002435343, 0.0004806684, -0.0132528367, -0.0161768515, -8.229923E-05, 923.6623    , 30.92772    , 774.5156    , 1.83        , 3           , 255         , 0           , 0
-0.167758733, 0.129555449 , -9.800789   , 0.0004127234, 5.09249076E-05, -2.889747E-05, -0.0132487053, -0.01617635 , -8.259496E-05, 923.6623    , 30.92772    , 774.5157    , 1.84        , 3           , 255         , 0           , 0
-0.16195029 , 0.12656416  , -9.790126   , 0.000461975636, 1.37568277E-05, -0.000299524283, -0.0132440375, -0.016176248, -8.559208E-05, 923.6623    , 30.92772    , 774.515747  , 1.85        , 3           , 255         , 0           , 0
-0.156714752, 0.122765325 , -9.793304   , -0.00030579025, 5.24294155E-05, -0.000179187336, -0.0132470662, -0.0161757488, -8.739092E-05, 923.6623    , 30.92772    , 774.5158    , 1.86        , 3           , 255         , 0           , 0
-0.158238918, 0.130620867 , -9.799454   , -0.000367051369, 0.000264421949, 2.2490698E-05, -0.0132507393, -0.016173102, -8.720105E-05, 923.6623    , 30.92772    , 774.515869  , 1.87        , 3           , 255         , 0           , 0
-0.151729614, 0.126907676 , -9.79866    , -0.000524893054, 0.000118683936, 0.000973550137, -0.0132561466, -0.0161717869, -7.748109E-05, 923.6623    , 30.92772    , 774.5159    , 1.88        , 3           , 255         , 0           , 0
-0.163171366, 0.127447367 , -9.795176   , 0.000103867584, -0.0006691086, 0.000291193661, -0.0132551566, -0.0161784384, -7.44804E-05, 923.6623    , 30.92772    , 774.516     , 1.89        , 3           , 255         , 0           , 0
-0.1607525  , 0.129937291 , -9.793763   , 0.000235304891, -0.000566631, 0.0002753187, -0.01325285 , -0.0161840636, -7.16520444E-05, 923.6623    , 30.92772    , 774.516052  , 1.9         , 3           , 255         , 0           , 0
-0.15987207 , 0.132663578 , -9.790527   , 0.000315674464, -0.000353614625, -0.000178435235, -0.0132497242, -0.0161869489, -7.338861E-05, 923.6623    , 30.92772    , 774.4634    , 1.91        , 3           , 255         , 0           , 0
-0.164154142, 0.128819391 , -9.79398    , 0.000432914327, 0.000156091555, -0.000150639811, -0.0132453712, -0.0161854066, -7.491571E-05, 923.6623    , 30.92772    , 774.463135  , 1.92        , 3           , 255         , 0           , 0
-0.158107668, 0.12664637  , -9.79216    , 0.000657351338, 0.0005457925, -0.0002513016, -0.013238756, -0.0161799863, -7.750106E-05, 923.634766  , 30.927515   , 774.4629    , 1.93        , 3           , 255         , 0           , 0
-0.157649964, 0.139975026 , -9.792672   , -3.29500763E-05, 0.000193906279, 3.32811032E-06, -0.0132390857, -0.0161780473, -7.74934451E-05, 923.634766  , 30.927515   , 774.462646  , 1.94        , 3           , 255         , 0           , 0
-0.1618962  , 0.139274716 , -9.788594   , -0.000235972635, 0.000409739383, 0.000106786043, -0.0132414624, -0.0161739364, -7.647981E-05, 923.634766  , 30.927515   , 774.4624    , 1.95        , 3           , 255         , 0           , 0
-0.158649042, 0.133559823 , -9.791903   , 7.007999E-05, -0.0005566667, -4.59810835E-05, -0.0132407565, -0.0161795057, -7.686591E-05, 923.634766  , 30.927515   , 774.462158  , 1.96        , 3           , 255         , 0           , 0
-0.1640578  , 0.13225393  , -9.792004   , -0.000191675848, -0.0005851984, 0.00023478303, -0.0132427122, -0.0161853265, -7.444055E-05, 923.634766  , 30.927515   , 774.4619    , 1.97        , 3           , 255         , 0           , 0
-0.16215086 , 0.122401141 , -9.781734   , -0.00013852393, -8.058146E-05, -6.14138844E-06, -0.0132440953, -0.016186133, -7.4491305E-05, 923.634766  , 30.927515   , 774.4617    , 1.98        , 3           , 255         , 0           , 0
-0.156073809, 0.127626315 , -9.78883648 , -5.71696437E-05, -0.0002040955, 0.000330386683, -0.0132447211, -0.0161881316, -7.116033E-05, 923.634766  , 30.927515   , 774.4614    , 1.99        , 3           , 255         , 0           , 0
-0.151228935, 0.129940391 , -9.791094   , -0.000410830253, 0.000173508641, -0.000126858489, -0.01324881 , -0.01618641 , -7.245192E-05, 923.634766  , 30.927515   , 774.4612    , 2           , 3           , 0           , 7.46323633  , 200
-0.156847775, 0.125483036 , -9.786481   , 0.000313579483, -0.000230565231, 0.0004218954, -0.0132502317, -0.016191313, -6.812962E-05, 923.634766  , 30.927515   , 774.4469    , 2.01        , 3           , 1           , 0           , 0
-0.148735   , 0.133693233 , -9.789159   , 0.000390137371, -5.13691339E-06, -0.0003785147, -0.01324627 , -0.0161914136, -7.191416E-05, 923.634766  , 30.927515   , 774.4466    , 2.02        , 3           , 2           , 0           , 0
-0.166086107, 0.141894713 , -9.79876    , -0.0004125081, -0.000273846264, -0.000416491355, -0.0132503277, -0.0161942076, -7.60428738E-05, 923.644348  , 30.92738    , 774.4463    , 2.03        , 3           , 3           , 0           , 0
-0.167810172, 0.125968248 , -9.792137   , -0.0002504654, -0.000232778752, -0.0008851106, -0.0132526895, -0.0161966532, -8.486328E-05, 923.644348  , 30.92738    , 774.446     , 2.04        , 3           , 4           , 0           , 0
-0.16426222 , 0.13171488  , -9.792078   , 4.75917477E-06, 7.60718831E-06, -0.000213528983, -0.0132526057, -0.0161966048, -8.69996E-05, 923.644348  , 30.92738    , 774.4457    , 2.05        , 3           , 5           , 0           , 0
-0.16509214 , 0.138304576 , -9.78829    , -0.0002199533, 0.000364472216, -6.601667E-05, -0.0132547943, -0.01619297 , -8.770809E-05, 923.644348  , 30.92738    , 774.4454    , 2.06        , 3           , 6           , 0           , 0
-0.1613692  , 0.137093082 , -9.793858   , -0.0002844216, 0.0003512981, -0.000253930863, -0.0132575985, -0.0161894914, -9.029401E-05, 923.644348  , 30.92738    , 774.445068  , 2.07        , 3           , 7           , 0           , 0
-0.157671988, 0.130799189 , -9.795664   , 0.000445544778, 0.000238464068, -0.00024311211, -0.0132531039, -0.0161871426, -9.27567744E-05, 923.644348  , 30.92738    , 774.444763  , 2.08        , 3           , 8           , 5           , 5
-0.157164052, 0.125408664 , -9.78661    , -0.000165357778, 3.06452421E-05, -0.0003755322, -0.0132546946, -0.0161868837, -9.651623E-05, 923.644348  , 30.92738    , 774.444458  , 2.09        , 3           , 9           , 5           , 0.1
-0.159209982, 0.129530162 , -9.793935   , -0.000187801023, -9.874246E-05, 1.38088071E-05, -0.013256575, -0.01618787 , -9.636504E-05, 923.644348  , 30.92738    , 774.444153  , 2.1         , 3           , 10          , 0.1         , 0.1
-0.157470256, 0.132046625 , -9.796555   , 0.0003399445, -3.629166E-05, 0.000445443176, -0.0132584525, -0.01619241 , -9.182144E-05, 923.644348  , 30.92738    , 774.4196    , 2.11        , 3           , 11          , 0.008081913 , 0.008081912
-0.167374566, 0.118585184 , -9.790129   , -0.0005698835, -0.000227428856, 0.0002987258, -0.0132642007, -0.0161946453, -8.880396E-05, 923.644348  , 30.92738    , 774.4191    , 2.12        , 3           , 12          , 0.174643889 , 0
-0.165409356, 0.119722232 , -9.799533   , -0.000373029674, -0.000216088141, -0.000109639353, -0.013267912, -0.01619682 , -8.987171E-05, 923.626     , 30.9297543  , 774.41864   , 2.13        , 3           , 13          , 0           , 0
-0.16041562 , 0.123246633 , -9.793982   , -0.000216615037, 5.865212E-05, 0.000504690339, -0.01327016 , -0.0161961671, -8.483249E-05, 923.626     , 30.9297543  , 774.4182    , 2.14        , 3           , 14          , -0.000469500432, -0.0002480446
-0.17006661 , 0.127182752 , -9.78735352 , -0.00028331473, -0.000279246771, 0.000295441278, -0.01327304 , -0.0161989182, -8.18409753E-05, 923.626     , 30.9297543  , 774.4178    , 2.15        , 3           , 15          , 0           , 0.000154895039
-0.165143639, 0.129865319 , -9.78803    , -4.77348221E-05, -0.000319662038, 9.897683E-05, -0.0132735353, -0.0162021033, -8.08087352E-05, 923.626     , 30.9297543  , 774.417358  , 2.16        , 3           , 16          , 0           , 1.401298E-45
-0.160865456, 0.130811721 , -9.794188   , -0.000272413658, -8.748329E-05, -0.000702852849, -0.0132761458, -0.0162030719, -8.782578E-05, 923.626     , 30.9297543  , 774.416931  , 2.17        , 3           , 20          , 0           , 0
-0.160637528, 0.127946317 , -9.792707   , -0.000231219572, 0.0002660591, -0.0005925284, -0.0132783623, -0.01620049 , -9.378649E-05, 923.626     , 30.9297543  , 774.4165    , 2.18        , 3           , 21          , 0           , 0
-0.155190349, 0.127783284 , -9.792351   , -0.000363831816, -0.000295434555, 0.000497546163, -0.01328208 , -0.0162033755, -8.877171E-05, 923.626     , 30.9297543  , 774.4161    , 2.19        , 3           , 22          , 0           , 0
-0.163742542, 0.135172009 , -9.791793   , 0.000555351551, -0.000193537708, 0.000843869755, -0.0132766627, -0.0162052  , -8.03071744E-05, 923.626     , 30.9297543  , 774.415649  , 2.2         , 3           , 40          , 0           , 0
-0.156392336, 0.131490365 , -9.796725   , 5.442268E-05, -3.69658228E-05, 0.000145348167, -0.01327025 , -0.016214123, -7.89443147E-05, 923.626     , 30.9297543  , 774.4173    , 2.21        , 3           , 41          , 0           , 0
-0.157171518, 0.13774997  , -9.795019   , -6.96289062E-05, -0.000250196143, -0.0004291484, -0.0132708773, -0.0162166841, -8.320267E-05, 923.626     , 30.9297543  , 774.4169    , 2.22        , 3           , 42          , 0           , 0
-0.1524859  , 0.136210844 , -9.7947     , -9.935806E-05, 0.000116530486, -3.121003E-05, -0.0132718654, -0.0162155237, -8.353025E-05, 923.6721    , 30.9294147  , 774.416443  , 2.23        , 3           , 255         , 0           , 0
-0.160787851, 0.122726426 , -9.794261   , -0.000160252821, -0.000117789808, 0.000222819013, -0.0132735046, -0.0162166711, -8.128638E-05, 923.6721    , 30.9294147  , 774.416     , 2.24        , 3           , 255         , 0           , 0
-0.158284351, 0.131410927 , -9.795141   , 0.000117278309, 6.464933E-05, 0.0004112175, -0.0132723982, -0.0162159689, -7.718272E-05, 923.6721    , 30.9294147  , 774.4156    , 2.25        , 3           , 255         , 0           , 0
-0.157408386, 0.126968965 , -9.794967   , 3.05670546E-05, 0.000124028025, -0.00020175433, -0.01327206 , -0.0162147544, -7.921676E-05, 923.6721    , 30.9294147  , 774.415161  , 2.26        , 3           , 255         , 0           , 0
-0.16124858 , 0.1283685   , -9.79921    , 5.421831E-05, 0.000423197926, 0.000394587521, -0.01327158 , -0.01621047 , -7.53269851E-05, 923.6721    , 30.9294147  , 774.414734  , 2.27        , 3           , 255         , 0           , 0
-0.15768154 , 0.12536332  , -9.800469   , 0.000369077025, 0.000429701264, 0.0006794287, -0.013268   , -0.0162060857, -6.858959E-05, 923.6721    , 30.9294147  , 774.4143    , 2.28        , 3           , 255         , 0           , 0
-0.159869045, 0.132140726 , -9.789394   , -0.000428004743, 6.68694556E-05, -0.000203636562, -0.0132722463, -0.0162054431, -7.063488E-05, 923.6721    , 30.9294147  , 774.4139    , 2.29        , 3           , 255         , 0           , 0
-0.155169278, 0.1393011   , -9.789354   , -0.000147394749, 0.000132903908, -0.000451013184, -0.0132736471, -0.0162041746, -7.516273E-05, 923.6721    , 30.9294147  , 774.413452  , 2.3         , 3           , 255         , 0           , 0
-0.15256694 , 0.140121    , -9.789191   , -0.000323307147, 1.17798336E-05, 9.251411E-05, -0.0132790208, -0.0162018184, -7.420472E-05, 923.6721    , 30.9294147  , 774.3562    , 2.31        , 3           , 255         , 0           , 0
-0.160839558, 0.1291306   , -9.799042   , -7.598943E-05, 0.0003412154, -2.87160947E-05, -0.0132797761, -0.0161984079, -7.45372E-05, 923.6721    , 30.9294147  , 774.3554    , 2.32        , 3           , 255         , 0           , 0
-0.150836542, 0.130085036 , -9.797763   , -0.0005123038, -4.750886E-05, -0.000824946153, -0.0132847633, -0.01619899 , -8.278052E-05, 923.645569  , 30.9305687  , 774.3546    , 2.33        , 3           , 255         , 0           , 0
-0.147383124, 0.141446874 , -9.789853   , -0.000215880485, 0.000160720971, -0.0010587594, -0.01328675 , -0.016197525, -9.33896663E-05, 923.645569  , 30.9305687  , 774.3538    , 2.34        , 3           , 255         , 0           , 0
-0.164199337, 0.1312257   , -9.789274   , 0.000434365473, 0.0002738024, -0.000477308873, -0.0132823288, -0.01619485 , -9.819923E-05, 923.645569  , 30.9305687  , 774.353     , 2.35        , 3           , 255         , 0           , 0
-0.158620372, 0.13273105  , -9.79549    , -8.71369E-05, 0.000226233708, 0.000184946446, -0.01328323 , -0.0161925629, -9.637978E-05, 923.645569  , 30.9305687  , 774.352234  , 2.36        , 3           , 255         , 0           , 0
-0.157958373, 0.138073042 , -9.789945   , -3.2804237E-05, -0.0005436735, 0.0001473874, -0.0132835843, -0.01619798 , -9.483363E-05, 923.645569  , 30.9305687  , 774.35144   , 2.37        , 3           , 255         , 0           , 0
-0.164264813, 0.137548819 , -9.799647   , 0.000128339045, -0.000102467195, 0.00010656628, -0.0132823167, -0.016198989, -9.37543446E-05, 923.645569  , 30.9305687  , 774.350647  , 2.38        , 3           , 255         , 0           , 0
-0.152758867, 0.131796792 , -9.808142   , 0.000251229852, -3.118362E-05, -4.57666829E-05, -0.0132797984, -0.0161993057, -9.42079E-05, 923.645569  , 30.9305687  , 774.3499    , 2.39        , 3           , 255         , 0           , 0
-0.155603573, 0.131354064 , -9.793475   , -6.94958726E-06, 0.000207722216, -0.000155970672, -0.0132798431, -0.01619725 , -9.57952143E-05, 923.645569  , 30.9305687  , 774.3492    , 2.4         , 3           , 255         , 0           , 0
-0.1584999  , 0.136102527 , -9.79881    , 0.000380392885, -4.8607093E-05, -4.65077319E-05, -0.0132835172, -0.0161939  , -9.613262E-05, 923.645569  , 30.9305687  , 774.3343    , 2.41        , 3           , 255         , 0           , 0
-0.155377626, 0.129459143 , -9.785101   , 0.00013757433, -0.000106026186, 5.267946E-05, -0.01328215 , -0.0161949527, -9.559174E-05, 923.645569  , 30.9305687  , 774.333435  , 2.42        , 3           , 255         , 0           , 0
-0.1610397  , 0.121920027 , -9.79101    , 0.000160928874, 0.0003018065, 8.518278E-05, -0.0132805547, -0.016191924, -9.477997E-05, 923.651062  , 30.9274483  , 774.3326    , 2.43        , 3           , 255         , 0           , 0
-0.1621954  , 0.130152941 , -9.790897   , -8.62155E-05, 8.03875155E-05, -0.000404273975, -0.01328135 , -0.0161911752, -9.883344E-05, 923.651062  , 30.9274483  , 774.3317    , 2.44        , 3           , 255         , 0           , 0
-0.1572417  , 0.129886776 , -9.794701   , 0.0007152512, -0.0003815098, -0.000287231465, -0.0132741537, -0.0161950253, -0.000101655161, 923.651062  , 30.9274483  , 774.3309    , 2.45        , 3           , 255         , 0           , 0
-0.15900147 , 0.126495674 , -9.800352   , 0.00024386865, -0.0002657124, -0.000444145, -0.0132716428, -0.016197741, -0.000106061416, 923.651062  , 30.9274483  , 774.33      , 2.46        , 3           , 255         , 0           , 0
-0.155800268, 0.126771227 , -9.806175   , -0.0001401924, 0.000374159717, 0.000143545054, -0.0132730668, -0.01619398 , -0.000104675622, 923.651062  , 30.9274483  , 774.329163  , 2.47        , 3           , 255         , 0           , 0
-0.15792641 , 0.134435758 , -9.792684   , 1.73536828E-05, 0.000446343562, -0.0002383772, -0.0132728536, -0.0161895473, -0.000107118693, 923.651062  , 30.9274483  , 774.3283    , 2.48        , 3           , 255         , 0           , 0
-0.163460508, 0.1375478   , -9.79008    , -0.000101504789, 6.366994E-05, -0.000650804257, -0.0132737635, -0.0161889978, -0.0001136353, 923.651062  , 30.9274483  , 774.327454  , 2.49        , 3           , 255         , 0           , 0
-0.162418768, 0.1333117   , -9.790482   , -8.096243E-05, -2.40677036E-05, -0.0002046754, -0.0132745393, -0.0161892641, -0.000115678908, 923.651062  , 30.9274483  , 774.3266    , 2.5         , 3           , 255         , 0           , 0
-0.15718165 , 0.1331187   , -9.784865   , 9.186071E-05, -0.0001578565, -0.000624254637, -0.0132745756, -0.0161921754, -0.0001218835, 923.651062  , 30.9274483  , 774.3072    , 2.51        , 3           , 255         , 0           , 0
-0.157843083, 0.135004088 , -9.788947   , 0.000197674526, -0.000211816514, -0.000353870564, -0.0132725425, -0.0161943417, -0.000125394145, 923.651062  , 30.9274483  , 774.3062    , 2.52        , 3           , 255         , 0           , 0
-0.1605448  , 0.134115338 , -9.79173    , -0.00080661173, 0.000214135827, 0.000363164232, -0.0132806674, -0.0161921512, -0.000121790872, 923.632141  , 30.9291439  , 774.305237  , 2.53        , 3           , 255         , 0           , 0
-0.153772652, 0.13567701  , -9.788957   , -0.000245529285, -0.000219416543, 0.0003973398, -0.0132831875, -0.0161942951, -0.000117788259, 923.632141  , 30.9291439  , 774.3043    , 2.54        , 3           , 255         , 0           , 0
-0.162112743, 0.127839312 , -9.795473   , -0.000570747769, 0.0002988229, 0.000540405337, -0.0132889822, -0.0161912367, -0.0001124238, 923.632141  , 30.9291439  , 774.3034    , 2.55        , 3           , 255         , 0           , 0
-0.156102657, 0.1383375   , -9.791138   , -0.000557685737, -0.000409762783, 0.000449065585, -0.0132946307, -0.016195273, -0.000107878586, 923.632141  , 30.9291439  , 774.3025    , 2.56        , 3           , 255         , 0           , 0
-0.156277046, 0.1372472   , -9.794205   , 0.000199696573, 0.000111934831, -0.000182039323, -0.0132926041, -0.01619418 , -0.000109713888, 923.632141  , 30.9291439  , 774.3016    , 2.57        , 3           , 255         , 0           , 0
-0.160921052, 0.1332084   , -9.793699   , -8.970004E-05, 9.475343E-05, -0.00015011213, -0.0132934768, -0.0161932521, -0.000111227637, 923.632141  , 30.9291439  , 774.300659  , 2.58        , 3           , 255         , 0           , 0
-0.156206682, 0.131623358 , -9.789255   , -9.843544E-05, 0.000405858038, 0.0006465471, -0.0132945655, -0.0161891077, -0.000104816005, 923.632141  , 30.9291439  , 774.299744  , 2.59        , 3           , 255         , 0           , 0
-0.153641865, 0.12612614  , -9.790333   , 0.000159416872, 4.79580776E-05, 0.000133002744, -0.0132929934, -0.01618861 , -0.000103492326, 923.632141  , 30.9291439  , 774.2988    , 2.6         , 3           , 255         , 0           , 0
-0.158723578, 0.1274655   , -9.79303    , 9.096632E-05, -0.000172537344, 0.000666378764, -0.0132993516, -0.01618772 , -9.6689575E-05, 923.632141  , 30.9291439  , 774.3091    , 2.61        , 3           , 255         , 0           , 0
-0.156570747, 0.12843655  , -9.794223   , 6.457427E-05, -0.0002161556, 0.00043565032, -0.0132987769, -0.0161898248, -9.230424E-05, 923.632141  , 30.9291439  , 774.3082    , 2.62        , 3           , 255         , 0           , 0
-0.158436149, 0.133088261 , -9.788579   , 0.0007486087, 0.000440683682, -0.000146663224, -0.0132912677, -0.01618544 , -9.382949E-05, 923.656433  , 30.9285336  , 774.3074    , 2.63        , 3           , 255         , 0           , 0
-0.160588965, 0.130126491 , -9.795248   , 0.000411859073, 0.000250936719, -6.738699E-05, -0.0132871382, -0.0161829386, -9.45367137E-05, 923.656433  , 30.9285336  , 774.3065    , 2.64        , 3           , 255         , 0           , 0
-0.157395557, 0.130764335 , -9.796632   , 0.000499127433, -7.943131E-05, 8.383315E-06, -0.0132821491, -0.01618373 , -9.444235E-05, 923.656433  , 30.9285336  , 774.305664  , 2.65        , 3           , 255         , 0           , 0
-0.155395985, 0.13023673  , -9.792401   , 7.65101E-05 , -0.000403921236, 4.49398067E-06, -0.0132813854, -0.01618777 , -9.434375E-05, 923.656433  , 30.9285336  , 774.3048    , 2.66        , 3           , 255         , 0           , 0
-0.1526542  , 0.132145    , -9.788279   , 0.000113855553, 0.0004965774, -0.000368444656, -0.0132801868, -0.016182851, -9.809422E-05, 923.656433  , 30.9285336  , 774.303955  , 2.67        , 3           , 255         , 0           , 0
-0.149846226, 0.137272179 , -9.794426   , -0.000369414367, 0.0002228554, -0.0004302007, -0.0132838106, -0.01618068 , -0.000102425911, 923.656433  , 30.9285336  , 774.3031    , 2.68        , 3           , 255         , 0           , 0
-0.1592931  , 0.14258118  , -9.795227   , 0.000162705284, -1.444621E-05, 0.000271735684, -0.0132822283, -0.01618079 , -9.970658E-05, 923.656433  , 30.9285336  , 774.302246  , 2.69        , 3           , 255         , 0           , 0
-0.160550624, 0.13318871  , -9.80176449 , 0.000215662119, 5.61599736E-05, 9.605562E-05, -0.0132800881, -0.0161802135, -9.875347E-05, 923.656433  , 30.9285336  , 774.3014    , 2.7         , 3           , 255         , 0           , 0
-0.149384335, 0.13521257  , -9.795917   , -0.00019190702, 0.000442324963, 0.0003954611, -0.0132864323, -0.01617288 , -9.47869848E-05, 923.656433  , 30.9285336  , 774.2781    , 2.71        , 3           , 255         , 0           , 0
-0.165214673, 0.128503412 , -9.794442   , -4.164249E-05, 0.0005737627, -0.000302040251, -0.0132867983, -0.0161671843, -9.788367E-05, 923.656433  , 30.9285336  , 774.2771    , 2.72        , 3           , 255         , 0           , 0
-0.1627732  , 0.123799205 , -9.792637   , 8.787293E-05, -0.0004880788, -0.000392029877, -0.0132858595, -0.0161721148, -0.000101739191, 923.609741  , 30.9290085  , 774.2761    , 2.73        , 3           , 255         , 0           , 0
-0.153034523, 0.13322711  , -9.799089   , 0.000112398178, -0.000393662078, -0.001129242, -0.0132845519, -0.0161762051, -0.00011297952, 923.609741  , 30.9290085  , 774.275146  , 2.74        , 3           , 255         , 0           , 0
-0.15399614 , 0.133925453 , -9.804492   , 3.18707316E-06, 0.0003117123, -0.0007444177, -0.0132844  , -0.0161731839, -0.000120465229, 923.609741  , 30.9290085  , 774.2742    , 2.75        , 3           , 255         , 0           , 0
-0.158125073, 0.135338441 , -9.797697   , 0.000365421176, -3.26221634E-05, 9.464985E-05, -0.0132807624, -0.0161734968, -0.000119514385, 923.609741  , 30.9290085  , 774.2732    , 2.76        , 3           , 255         , 0           , 0
-0.169733375, 0.132031173 , -9.794591   , 0.00115089584, -0.0005864528, 0.000605740468, -0.0132693527, -0.0161792785, -0.000113379021, 923.609741  , 30.9290085  , 774.2722    , 2.77        , 3           , 255         , 0           , 0
-0.161177859, 0.134988934 , -9.792006   , 9.54743E-05 , -0.000432802131, -0.000627402333, -0.0132682966, -0.01618369 , -0.000119595716, 923.609741  , 30.9290085  , 774.27124   , 2.78        , 3           , 255         , 0           , 0
-0.15623796 , 0.134978756 , -9.793818   , 0.0006243371, 0.000137881259, 0.00011616596, -0.0132620735, -0.016182296, -0.000118452313, 923.609741  , 30.9290085  , 774.270264  , 2.79        , 3           , 255         , 0           , 0
-0.167471364, 0.141105443 , -9.795321   , 0.0007744094, -5.81845525E-05, -0.000492583436, -0.01325425 , -0.016182946, -0.000123370526, 923.609741  , 30.9290085  , 774.2693    , 2.8         , 3           , 255         , 0           , 0
-0.167841941, 0.138022333 , -9.787857   , 0.000104294391, 6.814266E-05, -0.000508727564, -0.0132581042, -0.0161842816, -0.000128386382, 923.609741  , 30.9290085  , 774.315247  , 2.81        , 3           , 255         , 0           , 0
-0.159945458, 0.12468908  , -9.799053   , -0.0002489564, 0.000102508595, 6.20547362E-05, -0.0132606039, -0.0161832478, -0.0001277794, 923.609741  , 30.9290085  , 774.3146    , 2.82        , 3           , 255         , 0           , 0
-0.160606638, 0.128787875 , -9.795103   , -0.000127488485, -6.596223E-05, -5.5549026E-06, -0.0132618779, -0.0161839072, -0.0001278262, 923.654968  , 30.92989    , 774.3139    , 2.83        , 3           , 255         , 0           , 0
-0.1606585  , 0.128988847 , -9.793486   , -0.000161610515, 0.000183545548, -0.000213205567, -0.0132634593, -0.0161821  , -0.00012998264, 923.654968  , 30.92989    , 774.313232  , 2.84        , 3           , 255         , 0           , 0
-0.151275977, 0.132345736 , -9.794674   , -0.00044703568, 2.84957787E-05, -3.14800564E-05, -0.0132679231, -0.01618182 , -0.000130301225, 923.654968  , 30.92989    , 774.312561  , 2.85        , 3           , 255         , 0           , 0
-0.157871857, 0.130423427 , -9.793863   , 0.000315773359, -0.000243809918, -0.000304249465, -0.0132647175, -0.0161842983, -0.000133311434, 923.654968  , 30.92989    , 774.3119    , 2.86        , 3           , 255         , 0           , 0
-0.166415408, 0.129387751 , -9.791261   , 0.0006585913, -3.35008372E-06, -0.0005287191, -0.0132580465, -0.0161844  , -0.000138598291, 923.654968  , 30.92989    , 774.3112    , 2.87        , 3           , 255         , 0           , 0
-0.15042536 , 0.132018447 , -9.78899    , 0.000232105056, 0.000234377454, -8.41835354E-05, -0.0132557126, -0.0161820687, -0.000139471173, 923.654968  , 30.92989    , 774.310547  , 2.88        , 3           , 255         , 0           , 0
-0.158213422, 0.135037109 , -9.795896   , 0.00016314126, 0.000421748584, 8.469049E-05, -0.013254093, -0.01617784 , -0.000138680189, 923.654968  , 30.92989    , 774.3099    , 2.89        , 3           , 255         , 0           , 0
-0.1569382  , 0.13703528  , -9.790989   , -3.45060835E-06, 6.78963E-05 , -0.0006239705, -0.013254026, -0.0161772445, -0.000144929, 923.654968  , 30.92989    , 774.3092    , 2.9         , 3           , 255         , 0           , 0
-0.150972649, 0.134796113 , -9.78432    , 0.00027069432, -0.000301097025, 0.000211661245, -0.0132545829, -0.0161811877, -0.00014272015, 923.654968  , 30.92989    , 774.286865  , 2.91        , 3           , 255         , 0           , 0
-0.15959236 , 0.1382161   , -9.796741   , 0.000303977 , -0.000383371225, 0.0003538585, -0.0132516026, -0.0161849726, -0.000139130731, 923.654968  , 30.92989    , 774.2861    , 2.92        , 3           , 255         , 0           , 0
-0.161962628, 0.131089821 , -9.7943325  , 0.000349936425, 0.000312493474, -0.000373533723, -0.0132480441, -0.0161818974, -0.000142907535, 923.6147    , 30.9273129  , 774.2853    , 2.93        , 3           , 255         , 0           , 0
-0.160776317, 0.126079589 , -9.789015   , 0.00012556056, -0.000334383425, -0.000536590931, -0.0132467011, -0.0161853116, -0.000148229243, 923.6147    , 30.9273129  , 774.2845    , 2.94        , 3           , 255         , 0           , 0
-0.162098616, 0.13111335  , -9.796712   , 0.000725409947, -6.526796E-06, 0.000130580942, -0.0132394675, -0.0161853582, -0.000146922524, 923.6147    , 30.9273129  , 774.2837    , 2.95        , 3           , 255         , 0           , 0
-0.163753   , 0.123570755 , -9.790518   , 0.000387651526, -0.0001452757, 0.000286610943, -0.0132356388, -0.0161867756, -0.000144037156, 923.6147    , 30.9273129  , 774.2829    , 2.96        , 3           , 255         , 0           , 0
-0.156786829, 0.124117091 , -9.799676   , -0.000343453023, 4.45436162E-05, 0.0005405416, -0.0132391592, -0.016186256, -0.000138637479, 923.6147    , 30.9273129  , 774.2821    , 2.97        , 3           , 255         , 0           , 0
-0.165355116, 0.124166921 , -9.791849   , -0.0007549469, 0.000367829343, 0.000191065978, -0.0132467421, -0.0161825549, -0.000136775488, 923.6147    , 30.9273129  , 774.2813    , 2.98        , 3           , 255         , 0           , 0
-0.16347082 , 0.129158273 , -9.79571    , 3.12343182E-05, 1.25757651E-07, 0.00032049694, -0.0132464822, -0.016182512, -0.000133570473, 923.6147    , 30.9273129  , 774.2805    , 2.99        , 3           , 255         , 0           , 0
-0.15729551 , 0.124255121 , -9.794879   , 0.000114384922, 0.0003751897, 0.000307232345, -0.0132453879, -0.01617872 , -0.000130547778, 923.6147    , 30.9273129  , 774.2797    , 3           , 3           , 0           , 8.463237    , 300
-0.156447873, 0.129632071 , -9.796951   , 0.0002439348, 0.000302578352, -0.000267433061, -0.013241048, -0.0161787122, -0.000133292269, 923.6147    , 30.9273129  , 774.3181    , 3.01        , 3           , 1           , 0           , 0
-0.15367201 , 0.13141039  , -9.801638   , -0.0001308432, -0.000241451547, 2.71034223E-05, -0.0132423621, -0.0161811244, -0.000132989255, 923.6147    , 30.9273129  , 774.3176    , 3.02        , 3           , 2           , 0           , 0
-0.159511283, 0.137225583 , -9.794178   , -0.000387790031, 0.0005885051, -0.00040412572, -0.013246173, -0.0161752924, -0.000137108538, 923.634338  , 30.9290085  , 774.317139  , 3.03        , 3           , 3           , 0           , 0
-0.164442152, 0.127842277 , -9.797865   , -0.0007641065, 0.000306815 , 0.00097103545, -0.013253971, -0.0161720961, -0.000127438689, 923.634338  , 30.9290085  , 774.31665   , 3.04        , 3           , 4           , 0           , 0
-0.162169069, 0.130292341 , -9.795264   , -0.00018617243, -0.000323804561, -0.000277408049, -0.0132557871, -0.0161753688, -0.000130169879, 923.634338  , 30.9290085  , 774.316162  , 3.05        , 3           , 5           , 0           , 0
-0.165672392, 0.128754541 , -9.799104   , 0.000203642645, 0.0003135287, 0.00052668195, -0.0132538378, -0.0161721613, -0.000124944534, 923.634338  , 30.9290085  , 774.3157    , 3.06        , 3           , 6           , 0           , 0
-0.156739742, 0.13334313  , -9.794063   , -0.000311879616, 8.834354E-05, 2.40493246E-05, -0.0132569587, -0.0161712766, -0.000124715749, 923.634338  , 30.9290085  , 774.3152    , 3.07        , 3           , 7           , 0           , 0
-0.162364513, 0.127476186 , -9.799636   , 0.000281833 , 0.000361854618, -0.000596530444, -0.0132540455, -0.0161677375, -0.00013072911, 923.634338  , 30.9290085  , 774.3147    , 3.08        , 3           , 8           , 5           , 5
-0.156274   , 0.133695692 , -9.793581   , -7.230381E-05, -0.0002634524, -0.0002833418, -0.0132547207, -0.0161704086, -0.000133527676, 923.634338  , 30.9290085  , 774.3142    , 3.09        , 3           , 9           , 5           , 0.1
-0.155852765, 0.133332461 , -9.788658   , -0.000157005619, -0.000164149358, -0.0007891212, -0.0132561643, -0.0161721539, -0.00014139725, 923.634338  , 30.9290085  , 774.3137    , 3.1         , 3           , 10          , 0.1         , 0.1
-0.150011182, 0.131308243 , -9.786986   , -0.0001064853, 0.000204579716, -0.000698705029, -0.0132592721, -0.0161714647, -0.000148376639, 923.634338  , 30.9290085  , 774.3198    , 3.11        , 3           , 11          , 0.00737722  , 0.007377218
-0.165171161, 0.124484614 , -9.792574   , 0.000190524326, -0.000309265481, -0.000147810177, -0.0132573424, -0.0161745753, -0.000149813743, 923.634338  , 30.9290085  , 774.3194    , 3.12        , 3           , 12          , 0.174645633 , 0
-0.153849185, 0.130420536 , -9.7907505  , 0.000210938364, -0.0003872074, -0.00115569681, -0.0132550476, -0.0161785986, -0.000161319607, 923.6177    , 30.9305687  , 774.319     , 3.13        , 3           , 13          , 0           , 0
-0.1558153  , 0.1187651   , -9.791067   , -9.844612E-05, -0.000368943118, 4.51206433E-05, -0.01325604 , -0.0161822811, -0.000160819458, 923.6177    , 30.9305687  , 774.318542  , 3.14        , 3           , 14          , -0.000469396735, -0.000248022232
-0.166019484, 0.121632636 , -9.797873   , -0.000193353771, -0.000280799024, 0.0008528252, -0.0132581117, -0.0161849763, -0.000152253851, 923.6177    , 30.9305687  , 774.3181    , 3.15        , 3           , 15          , 0           , 0.000154893656
-0.161720723, 0.124735281 , -9.795332   , -0.0008370717, 7.927825E-05, 0.000163991514, -0.0132665085, -0.0161841623, -0.0001506244, 923.6177    , 30.9305687  , 774.3177    , 3.16        , 3           , 16          , 0           , 1.401298E-45
-0.163063437, 0.122173704 , -9.79754448 , -0.0003314021, 9.276686E-06, 0.000422210724, -0.01326989 , -0.01618401 , -0.000146403443, 923.6177    , 30.9305687  , 774.317261  , 3.17        , 3           , 20          , 0           , 0
-0.161974281, 0.118969306 , -9.793615   , -2.29802972E-05, 0.000463460659, 0.0008098905, -0.01327025 , -0.0161792673, -0.000138365911, 923.6177    , 30.9305687  , 774.316833  , 3.18        , 3           , 21          , 0           , 0
-0.156684443, 0.134421244 , -9.794062   , 0.0003243702, 0.000388111337, 0.000219172347, -0.0132670393, -0.0161753614, -0.000136225659, 923.6177    , 30.9305687  , 774.3164    , 3.19        , 3           , 22          , 0           , 0
-0.161236048, 0.130996183 , -9.793685   , 0.0006489454, 2.4026609E-05, -0.000148052466, -0.0132605284, -0.0161751378, -0.000137709343, 923.6177    , 30.9305687  , 774.316     , 3.2         , 3           , 40          , 0           , 0
-0.155947834, 0.135248    , -9.789194   , 0.0009166774, -3.37128877E-05, -0.000185871468, -0.01324427 , -0.0161772985, -0.000139677883, 923.6177    , 30.9305687  , 774.345642  , 3.21        , 3           , 41          , 0           , 0
-0.15388009 , 0.130375355 , -9.79575    , 0.0005707759, 0.0003519069, 0.000111122776, -0.0132385818, -0.0161737651, -0.000138613235, 923.6177    , 30.9305687  , 774.3454    , 3.22        , 3           , 42          , 0           , 0
-0.162897259, 0.130129859 , -9.789094   , 0.000202816824, 0.000487455225, 0.000223482974, -0.0132365888, -0.0161688644, -0.0001364429, 923.645447  , 30.9288044  , 774.345154  , 3.23        , 3           , 255         , 0           , 0
-0.162369415, 0.134264857 , -9.792914   , 0.000325133151, 2.27342389E-05, 0.000432038039, -0.0132334065, -0.0161685757, -0.000132125453, 923.645447  , 30.9288044  , 774.3449    , 3.24        , 3           , 255         , 0           , 0
-0.156545967, 0.137814432 , -9.790096   , 0.000294977683, -0.000265624927, 5.413752E-05, -0.0132304644, -0.0161712244, -0.000131548935, 923.645447  , 30.9288044  , 774.344666  , 3.25        , 3           , 255         , 0           , 0
-0.162293166, 0.122929193 , -9.794107   , -0.00036265573, -1.01891637E-05, -0.000117686111, -0.0132340733, -0.0161713436, -0.000132724468, 923.645447  , 30.9288044  , 774.3444    , 3.26        , 3           , 255         , 0           , 0
-0.154507309, 0.128271058 , -9.794172   , 0.000289686 , 0.000304932939, 0.000171125736, -0.0132312039, -0.01616827 , -0.00013105353, 923.645447  , 30.9288044  , 774.3442    , 3.27        , 3           , 255         , 0           , 0
-0.154169127, 0.125329986 , -9.800756   , 0.000236251348, 0.0004619963, -3.01349646E-05, -0.0132288346, -0.0161636584, -0.000131416033, 923.645447  , 30.9288044  , 774.343933  , 3.28        , 3           , 255         , 0           , 0
-0.161313415, 0.118456826 , -9.797075   , 0.0004587906, 0.000152065171, 0.000370505557, -0.0132243084, -0.0161620881, -0.000127731022, 923.645447  , 30.9288044  , 774.3437    , 3.29        , 3           , 255         , 0           , 0
-0.155354172, 0.121351287 , -9.792067   , 0.000350100745, -0.00021029872, 0.000270789256, -0.0132208494, -0.0161641538, -0.000124995277, 923.645447  , 30.9288044  , 774.343445  , 3.3         , 3           , 255         , 0           , 0
-0.153481409, 0.134846464 , -9.791597   , 0.000117791205, -2.22376548E-05, 0.000627232832, -0.0132177817, -0.0161635056, -0.00011875209, 923.645447  , 30.9288044  , 774.3298    , 3.31        , 3           , 255         , 0           , 0
-0.15745686 , 0.135971621 , -9.79797649 , -0.000128046115, 0.000404197373, -0.0001416273, -0.01321904 , -0.0161594842, -0.000120221812, 923.645447  , 30.9288044  , 774.329468  , 3.32        , 3           , 255         , 0           , 0
-0.1579575  , 0.134873822 , -9.797663   , 0.00032923292, -8.555889E-05, -6.756143E-05, -0.0132157365, -0.0161603484, -0.000120886143, 923.665649  , 30.92989    , 774.329163  , 3.33        , 3           , 255         , 0           , 0
-0.154923826, 0.1334266   , -9.788828   , 0.0005141392, -2.83260015E-05, 0.000623277854, -0.0132106962, -0.0161605515, -0.0001146495, 923.665649  , 30.92989    , 774.328857  , 3.34        , 3           , 255         , 0           , 0
-0.161934122, 0.134685948 , -9.7897     , 0.000205406366, -5.488284E-06, -0.0004907445, -0.0132085625, -0.0161606669, -0.000119556316, 923.665649  , 30.92989    , 774.328552  , 3.35        , 3           , 255         , 0           , 0
-0.166412413, 0.127638608 , -9.790354   , -0.000432384171, -9.031847E-05, 0.000388278335, -0.0132129481, -0.01616152 , -0.000115661533, 923.665649  , 30.92989    , 774.328247  , 3.36        , 3           , 255         , 0           , 0
-0.165584564, 0.134633049 , -9.792625   , -0.000340015657, 3.18561943E-05, 0.000251244579, -0.0132163912, -0.016161168, -0.000113153241, 923.665649  , 30.92989    , 774.327942  , 3.37        , 3           , 255         , 0           , 0
-0.15598233 , 0.133385032 , -9.795959   , 0.000785566168, -0.000432436558, -0.000340637576, -0.0132084815, -0.01616554 , -0.000116502546, 923.665649  , 30.92989    , 774.327637  , 3.38        , 3           , 255         , 0           , 0
-0.163479686, 0.140261054 , -9.789851   , 0.0002481706, -0.000416838535, 0.0003193426, -0.0132060507, -0.01616966 , -0.000113254027, 923.665649  , 30.92989    , 774.327332  , 3.39        , 3           , 255         , 0           , 0
-0.156834126, 0.131971911 , -9.787359   , -0.000368258945, -7.325626E-05, -2.813431E-05, -0.0132097285, -0.0161703955, -0.0001135257, 923.665649  , 30.92989    , 774.327     , 3.4         , 3           , 255         , 0           , 0
-0.159962028, 0.1374707   , -9.796016   , -0.000266916322, -0.000345979555, -0.000161975186, -0.0132211018, -0.016175922, -0.000114958566, 923.665649  , 30.92989    , 774.287354  , 3.41        , 3           , 255         , 0           , 0
-0.159291744, 0.130614176 , -9.796758   , 0.000262080343, -0.000128991378, 0.00032658194, -0.0132185332, -0.01617717 , -0.000111675647, 923.665649  , 30.92989    , 774.2868    , 3.42        , 3           , 255         , 0           , 0
-0.155467436, 0.130754426 , -9.791136   , 0.0002959808, -4.563821E-05, 0.0005157563, -0.0132156583, -0.0161775574, -0.000106511943, 923.6544    , 30.9309082  , 774.286255  , 3.43        , 3           , 255         , 0           , 0
-0.151569724, 0.125077322 , -9.794446   , 8.275348E-05, 0.000198408583, -0.000166030411, -0.0132148033, -0.016175596, -0.0001081985, 923.6544    , 30.9309082  , 774.2857    , 3.44        , 3           , 255         , 0           , 0
-0.150791377, 0.126476169 , -9.787626   , -0.000135739014, 3.72842769E-05, 0.000245754054, -0.0132162012, -0.01617519 , -0.000105745836, 923.6544    , 30.9309082  , 774.285156  , 3.45        , 3           , 255         , 0           , 0
-0.1600107  , 0.12849015  , -9.794698   , -0.0006621375, -0.0002743729, -0.0001632401, -0.013222794, -0.016177956, -0.000107342006, 923.6544    , 30.9309082  , 774.2846    , 3.46        , 3           , 255         , 0           , 0
-0.153868243, 0.124902487 , -9.791896   , -0.000371728, -7.962555E-05, 0.000480158546, -0.0132265911, -0.016178688, -0.0001025298, 923.6544    , 30.9309082  , 774.284058  , 3.47        , 3           , 255         , 0           , 0
-0.1552237  , 0.127557009 , -9.790846   , 0.000318494975, -0.00018952848, -0.0003709673, -0.0132233445, -0.0161806326, -0.00010621448, 923.6544    , 30.9309082  , 774.2835    , 3.48        , 3           , 255         , 0           , 0
-0.154375121, 0.142595    , -9.7908535  , -0.000375668373, -0.000320976047, -0.000205169345, -0.0132270688, -0.0161838681, -0.000108223758, 923.6544    , 30.9309082  , 774.282959  , 3.49        , 3           , 255         , 0           , 0
-0.1591525  , 0.134248182 , -9.79242    , -0.000470103143, -0.000502388342, 0.000266192772, -0.013231812, -0.0161888562, -0.0001054953, 923.6544    , 30.9309082  , 774.2824    , 3.5         , 3           , 255         , 0           , 0
-0.15388976 , 0.134418219 , -9.79142952 , 7.057274E-05, -0.000492271851, 0.000457093935, -0.0132336058, -0.01618945 , -0.000100819911, 923.6544    , 30.9309082  , 774.2651    , 3.51        , 3           , 255         , 0           , 0
-0.153561458, 0.12972562  , -9.78726    , 0.000584099 , 0.0002831513, 0.00074759277, -0.0132278875, -0.0161865186, -9.338132E-05, 923.6544    , 30.9309082  , 774.264465  , 3.52        , 3           , 255         , 0           , 0
-0.155071676, 0.131973878 , -9.796263   , 0.000278041058, 5.10163663E-05, -0.00028992095, -0.01322506 , -0.0161860455, -9.628733E-05, 923.6334    , 30.9306355  , 774.263855  , 3.53        , 3           , 255         , 0           , 0
-0.1531272  , 0.1321357   , -9.784116   , -4.74369444E-05, -0.0003797327, 0.000252941332, -0.013225575, -0.016189808, -9.370765E-05, 923.6334    , 30.9306355  , 774.263245  , 3.54        , 3           , 255         , 0           , 0
-0.149429724, 0.130911514 , -9.79247    , -0.000244525931, -0.000329779345, 0.000112070251, -0.0132280383, -0.01619309 , -9.254332E-05, 923.6334    , 30.9306355  , 774.262634  , 3.55        , 3           , 255         , 0           , 0
-0.14863    , 0.126954183 , -9.792963   , -0.0002601878, 0.000225073018, 0.0003051845, -0.01323069 , -0.016190799, -8.952118E-05, 923.6334    , 30.9306355  , 774.262     , 3.56        , 3           , 255         , 0           , 0
-0.156163663, 0.134981439 , -9.786314   , -3.71535134E-05, -4.255009E-05, -0.0004928477, -0.01323098 , -0.01619129 , -9.444413E-05, 923.6334    , 30.9306355  , 774.2614    , 3.57        , 3           , 255         , 0           , 0
-0.1602166  , 0.123102859 , -9.796212   , 0.0003046781, -1.004411E-05, -0.0009200947, -0.0132277869, -0.0161915123, -0.000103643906, 923.6334    , 30.9306355  , 774.2608    , 3.58        , 3           , 255         , 0           , 0
-0.156702787, 0.131615371 , -9.794457   , -0.000154004, -0.000276760315, -0.0010099808, -0.0132291624, -0.0161944125, -0.000113707305, 923.6334    , 30.9306355  , 774.2602    , 3.59        , 3           , 255         , 0           , 0
-0.161219716, 0.131741345 , -9.794465   , 0.0003918598, 0.0001616691, -0.000305184483, -0.0132251941, -0.0161928367, -0.000116780589, 923.6334    , 30.9306355  , 774.2596    , 3.6         , 3           , 255         , 0           , 0
-0.158717722, 0.136546344 , -9.789091   , 0.000193414773, -9.827057E-05, -0.0003438191, -0.0132254884, -0.0161868911, -0.000120168916, 923.6334    , 30.9306355  , 774.2752    , 3.61        , 3           , 255         , 0           , 0
-0.15961729 , 0.137013763 , -9.799511   , 0.000219713751, -0.000188739446, -0.0006466701, -0.0132231861, -0.0161888637, -0.000126610757, 923.6334    , 30.9306355  , 774.2747    , 3.62        , 3           , 255         , 0           , 0
-0.154387429, 0.129397392 , -9.790603   , 0.0005052579, -0.000166102924, 0.000362007151, -0.0132181905, -0.0161904767, -0.000122968675, 923.6501    , 30.9337578  , 774.274231  , 3.63        , 3           , 255         , 0           , 0
-0.153071821, 0.133601353 , -9.791544   , 0.0003847269, -0.000280376524, 0.0007438554, -0.0132144643, -0.0161931813, -0.000115492934, 923.6501    , 30.9337578  , 774.273743  , 3.64        , 3           , 255         , 0           , 0
-0.148519635, 0.130931541 , -9.792751   , 0.0001701864, -0.0005715224, 0.0005968788, -0.0132128615, -0.0161988176, -0.000109448512, 923.6501    , 30.9337578  , 774.273254  , 3.65        , 3           , 255         , 0           , 0
-0.166152582, 0.134232685 , -9.7969     , 0.000325168658, -2.5166024E-05, -5.434762E-06, -0.0132096093, -0.01619907 , -0.000109499524, 923.6501    , 30.9337578  , 774.272766  , 3.66        , 3           , 255         , 0           , 0
-0.160112515, 0.1351707   , -9.78961    , 0.0002750302, -0.000140919379, -0.000354483258, -0.0132068023, -0.0162005238, -0.000113025817, 923.6501    , 30.9337578  , 774.2723    , 3.67        , 3           , 255         , 0           , 0
-0.157355472, 0.127454534 , -9.796025   , 0.0003874005, 0.000116751311, -0.0006823351, -0.013202819, -0.01619945 , -0.000119864708, 923.6501    , 30.9337578  , 774.2718    , 3.68        , 3           , 255         , 0           , 0
-0.166410044, 0.122471176 , -9.79029    , 9.097837E-05, 0.000247936 , -0.000376812, -0.0132018467, -0.0161970146, -0.000123665654, 923.6501    , 30.9337578  , 774.2713    , 3.69        , 3           , 255         , 0           , 0
-0.156315446, 0.1293169   , -9.788534   , 0.000341114122, -8.278867E-05, -0.000683612539, -0.0131983263, -0.0161979329, -0.000130490967, 923.6501    , 30.9337578  , 774.2708    , 3.7         , 3           , 255         , 0           , 0
-0.159003228, 0.126964286 , -9.793458   , 7.021212E-06, 0.0003851002, -0.0005680993, -0.013201924, -0.0161931943, -0.000136162009, 923.6501    , 30.9337578  , 774.261658  , 3.71        , 3           , 255         , 0           , 0
-0.1624541  , 0.127584711 , -9.79826    , 0.00041661362, -0.000152720459, -8.527604E-05, -0.0131977461, -0.0161947329, -0.0001369946, 923.6501    , 30.9337578  , 774.2611    , 3.72        , 3           , 255         , 0           , 0
-0.1541343  , 0.1278404   , -9.801272   , -0.0003764032, 5.865557E-06, -0.00040869505, -0.0132014425, -0.01619473 , -0.000141082419, 923.6548    , 30.9315186  , 774.260559  , 3.73        , 3           , 255         , 0           , 0
-0.146066427, 0.133572578 , -9.792455   , -7.52070046E-05, -0.000331513846, -2.45592819E-05, -0.01320219 , -0.0161980484, -0.000141284225, 923.6548    , 30.9315186  , 774.26      , 3.74        , 3           , 255         , 0           , 0
-0.157912523, 0.1280481   , -9.795688   , -0.000118080614, -0.00019138772, 0.000235601066, -0.0132034086, -0.01619993 , -0.000138902935, 923.6548    , 30.9315186  , 774.25946   , 3.75        , 3           , 255         , 0           , 0
-0.167739183, 0.133533448 , -9.792177   , 0.0002247006, -0.0002721911, 0.00039736848, -0.0132012283, -0.0162026  , -0.000134893242, 923.6548    , 30.9315186  , 774.2589    , 3.76        , 3           , 255         , 0           , 0
-0.157407746, 0.139101475 , -9.792601   , 0.000101956655, 0.000313441851, 4.368258E-05, -0.0132002151, -0.0161994584, -0.000134497765, 923.6548    , 30.9315186  , 774.258362  , 3.77        , 3           , 255         , 0           , 0
-0.162246972, 0.1332868   , -9.796186   , 0.000566795759, 0.0004301669, -0.0004866977, -0.0131944679, -0.01619522 , -0.0001394216, 923.6548    , 30.9315186  , 774.2578    , 3.78        , 3           , 255         , 0           , 0
-0.160568252, 0.130719259 , -9.794283   , -0.0003876258, 0.0002472284, -0.000150246648, -0.0131983189, -0.01619277 , -0.0001409567, 923.6548    , 30.9315186  , 774.257263  , 3.79        , 3           , 255         , 0           , 0
-0.156713516, 0.134897321 , -9.790697   , 0.000109019078, 0.000153084271, -0.0004518619, -0.0131971566, -0.0161912981, -0.000145495636, 923.6548    , 30.9315186  , 774.2567    , 3.8         , 3           , 255         , 0           , 0
-0.168730021, 0.12820223  , -9.802925   , -1.60840573E-05, -0.000373706, -0.0005663293, -0.0132004619, -0.01619472 , -0.000151057291, 923.6548    , 30.9315186  , 774.243     , 3.81        , 3           , 255         , 0           , 0
-0.161647871, 0.130738154 , -9.794893   , -0.000263158116, 8.700034E-05, -0.000182131611, -0.0132030621, -0.0161938742, -0.000152890134, 923.6548    , 30.9315186  , 774.2424    , 3.82        , 3           , 255         , 0           , 0
-0.156417087, 0.120185256 , -9.786121   , -0.000232126389, -6.89307344E-05, 0.000451906759, -0.0132054565, -0.0161945038, -0.000148361883, 923.65      , 30.934164   , 774.24176   , 3.83        , 3           , 255         , 0           , 0
-0.161205009, 0.128012583 , -9.789159   , 0.000411047135, -9.78221942E-05, 0.000290723343, -0.0132013923, -0.0161954425, -0.000145441692, 923.65      , 30.934164   , 774.24115   , 3.84        , 3           , 255         , 0           , 0
-0.163178772, 0.127713874 , -9.798128   , 6.43139356E-06, -0.0001423994, 3.1131407E-05, -0.0132013345, -0.0161968619, -0.000145111539, 923.65      , 30.934164   , 774.24054   , 3.85        , 3           , 255         , 0           , 0
-0.156794265, 0.128808364 , -9.794352   , 0.000252721162, 0.000137370327, -4.21182558E-05, -0.0131987995, -0.0161954928, -0.000145550861, 923.65      , 30.934164   , 774.2399    , 3.86        , 3           , 255         , 0           , 0
-0.162848011, 0.12716262  , -9.792239   , 0.000276302861, 0.000131588633, -5.84215741E-06, -0.0131960334, -0.0161941778, -0.000145626676, 923.65      , 30.934164   , 774.2393    , 3.87        , 3           , 255         , 0           , 0
-0.160770908, 0.122173034 , -9.787499   , -0.00023669115, -0.000225141237, 3.811234E-06, -0.0131984018, -0.0161964279, -0.000145558821, 923.65      , 30.934164   , 774.2387    , 3.88        , 3           , 255         , 0           , 0
-0.1616482  , 0.124383889 , -9.796132   , 0.000138701318, -0.000197517977, -0.000154104651, -0.0131969908, -0.0161984246, -0.000147073864, 923.65      , 30.934164   , 774.2381    , 3.89        , 3           , 255         , 0           , 0
-0.157436118, 0.132237643 , -9.790216   , 0.0005341936, -0.000309946015, -5.33216225E-05, -0.01319164 , -0.0162015315, -0.0001475662, 923.65      , 30.934164   , 774.2375    , 3.9         , 3           , 255         , 0           , 0
-0.1582207  , 0.138854951 , -9.79064751 , 0.000365609158, -9.80194E-05, 0.000191222076, -0.0131843379, -0.0162063166, -0.000145700615, 923.65      , 30.934164   , 774.233337  , 3.91        , 3           , 255         , 0           , 0
-0.162531331, 0.1415225   , -9.797006   , -6.62735838E-05, -0.000137152441, 0.000533066748, -0.0131850867, -0.0162076168, -0.000140351767, 923.65      , 30.934164   , 774.2327    , 3.92        , 3           , 255         , 0           , 0
-0.1604977  , 0.139771283 , -9.794245   , 0.00027661823, 0.000258394721, -9.768115E-05, -0.0131823057, -0.0162050445, -0.00014136266, 923.6769    , 30.9340286  , 774.2321    , 3.93        , 3           , 255         , 0           , 0
-0.158992022, 0.13486737  , -9.795076   , -0.000223383046, -0.000173496315, -0.000308283634, -0.0131844888, -0.01620682 , -0.000144422724, 923.6769    , 30.9340286  , 774.2315    , 3.94        , 3           , 255         , 0           , 0
-0.162701622, 0.123411477 , -9.793828   , 0.0008860471, 0.000272049161, -0.0003595155, -0.0131755713, -0.0162041485, -0.000148053776, 923.6769    , 30.9340286  , 774.2309    , 3.95        , 3           , 255         , 0           , 0
-0.161972523, 0.123352841 , -9.792157   , 0.000764492434, 0.000492    , 0.000152598732, -0.01316795 , -0.0161992069, -0.000146592545, 923.6769    , 30.9340286  , 774.2303    , 3.96        , 3           , 255         , 0           , 0
-0.163886309, 0.126118913 , -9.791366   , 0.000246596668, -0.00027977323, -0.0004746075, -0.0131654069, -0.01620207 , -0.000151301909, 923.6769    , 30.9340286  , 774.2297    , 3.97        , 3           , 255         , 0           , 0
-0.160594851, 0.116644643 , -9.792435   , 8.350704E-05, -9.575291E-05, 0.000326220645, -0.0131646246, -0.0162029844, -0.000148027, 923.6769    , 30.9340286  , 774.229065  , 3.98        , 3           , 255         , 0           , 0
-0.155352443, 0.129153624 , -9.790006   , -7.533099E-05, -0.000461460819, 0.000833815138, -0.0131655149, -0.01620749 , -0.000139627926, 923.6769    , 30.9340286  , 774.228455  , 3.99        , 3           , 255         , 0           , 0
-0.16117996 , 0.128131956 , -9.80157    , -1.56375463E-05, -0.00020728758, 0.000104888386, -0.0131656881, -0.0162095446, -0.000138551681, 923.6769    , 30.9340286  , 774.227844  , 4           , 3           , 0           , 9.463237    , 400
-0.159477085, 0.123682991 , -9.797737   , -0.0001272815, -0.000318599457, 0.0005236214, -0.0131686861, -0.0162154231, -0.000133246853, 923.6769    , 30.9340286  , 774.187256  , 4.01        , 3           , 1           , 0           , 0
-0.161082417, 0.122537911 , -9.793145   , -0.000346212619, -0.000285418762, 9.874944E-05, -0.0131721646, -0.0162182637, -0.000132221743, 923.6769    , 30.9340286  , 774.1864    , 4.02        , 3           , 2           , 0           , 0
-0.165993571, 0.1263484   , -9.786566   , -0.000130135886, 0.000246376061, -0.000496030261, -0.0131733855, -0.0162158664, -0.0001372146, 923.6251    , 30.9310436  , 774.185547  , 4.03        , 3           , 3           , 0           , 0
-0.156071991, 0.132750377 , -9.794735   , 5.57465537E-05, 0.000267223775, 0.00010811165, -0.0131728435, -0.0162131786, -0.000136168674, 923.6251    , 30.9310436  , 774.1847    , 4.04        , 3           , 4           , 0           , 0
-0.158892438, 0.136273861 , -9.792139   , -0.000318019447, 8.562472E-05, 0.000179822469, -0.0131760528, -0.0162123  , -0.0001343817, 923.6251    , 30.9310436  , 774.183838  , 4.05        , 3           , 5           , 0           , 0
-0.15481022 , 0.139667958 , -9.786901   , -7.92458E-05, 7.925989E-05, -0.000375000673, -0.013176783, -0.0162115563, -0.0001381422, 923.6251    , 30.9310436  , 774.183     , 4.06        , 3           , 6           , 0           , 0
-0.161989763, 0.136318281 , -9.796886   , 0.000440402568, -8.057372E-05, 0.0005214269, -0.0131724654, -0.0162122939, -0.000132917237, 923.6251    , 30.9310436  , 774.1821    , 4.07        , 3           , 7           , 0           , 0
-0.151433885, 0.131851822 , -9.798483   , 8.627033E-05, 0.0001513485, -0.000388594752, -0.01317154 , -0.01621083 , -0.00013682319, 923.6251    , 30.9310436  , 774.1813    , 4.08        , 3           , 8           , 5           , 5
-0.161267281, 0.1380862   , -9.797572   , 0.000192082342, 0.00017608187, -0.000336574216, -0.0131695652, -0.0162091181, -0.0001402122, 923.6251    , 30.9310436  , 774.1804    , 4.09        , 3           , 9           , 5           , 0.1
-0.152029186, 0.1326904   , -9.79101    , -0.000305389432, 8.43433954E-05, 0.0005329192, -0.0131727057, -0.0162082  , -0.000134894013, 923.6251    , 30.9310436  , 774.179565  , 4.1         , 3           , 10          , 0.1         , 0.1
-0.155072182, 0.126771763 , -9.797369   , -0.0005232671, -0.0006365543, -0.000319444, -0.0131823681, -0.0162138529, -0.000137931958, 923.6251    , 30.9310436  , 774.218933  , 4.11        , 3           , 11          , 0.006840747 , 0.00684074452
-0.161273822, 0.129043117 , -9.80179    , -0.0003005826, -0.0004931893, 1.56564056E-07, -0.0131853744, -0.0162187871, -0.000137865383, 923.6251    , 30.9310436  , 774.2183    , 4.12        , 3           , 12          , 0.174648076 , 0
-0.156792492, 0.122887358 , -9.772066   , 0.0005223993, -0.0003444829, 0.000863700057, -0.01318029 , -0.0162221137, -0.000129182779, 923.6437    , 30.9317226  , 774.2177    , 4.13        , 3           , 13          , 0           , 0
-0.157314792, 0.115153827 , -9.789213   , -2.22687668E-05, -0.00010903267, 0.000542996 , -0.0131806005, -0.0162231326, -0.000123738369, 923.6437    , 30.9317226  , 774.2171    , 4.14        , 3           , 14          , -0.0004693018, -0.000248041935
-0.1578716  , 0.124089859 , -9.78733349 , -0.000212304381, 4.12490044E-05, -0.000276504143, -0.0131826783, -0.0162227564, -0.0001265089, 923.6437    , 30.9317226  , 774.2165    , 4.15        , 3           , 15          , 0           , 0.000154891837
-0.151251391, 0.12611866  , -9.785787   , 4.90720558E-05, -0.000132253772, 0.0001856884, -0.0131822182, -0.0162240528, -0.000124634535, 923.6437    , 30.9317226  , 774.2159    , 4.16        , 3           , 16          , 0           , 1.401298E-45
-0.148516327, 0.130947292 , -9.791413   , 0.0002663185, 2.09747377E-05, 0.000446158025, -0.0131796282, -0.0162237845, -0.000120175631, 923.6437    , 30.9317226  , 774.2153    , 4.17        , 3           , 20          , 0           , 0
-0.158619151, 0.128530785 , -9.795723   , 0.000384008657, 0.000127994674, 0.0003348503, -0.0131758424, -0.01622246 , -0.000116843941, 923.6437    , 30.9317226  , 774.2147    , 4.18        , 3           , 21          , 0           , 0
-0.16291596 , 0.12975575  , -9.79673    , 5.63047652E-05, 0.000227995377, -0.000366833876, -0.0131752184, -0.0162202325, -0.000120542405, 923.6437    , 30.9317226  , 774.2142    , 4.19        , 3           , 22          , 0           , 0
-0.16056    , 0.125562757 , -9.799365   , -0.000190306659, 4.60636074E-05, -0.0006354921, -0.0131770186, -0.0162198544, -0.000126903513, 923.6437    , 30.9317226  , 774.2136    , 4.2         , 3           , 40          , 0           , 0
-0.1617227  , 0.125482783 , -9.788473   , -0.000232924242, 2.83232075E-05, -0.0003227536, -0.0131738931, -0.01621647 , -0.000130222514, 923.6437    , 30.9317226  , 774.222046  , 4.21        , 3           , 41          , 0           , 0
-0.163939461, 0.121564373 , -9.791097   , 0.000470603554, 0.0002534511, 0.000455485366, -0.0131692588, -0.0162138734, -0.000125700972, 923.6437    , 30.9317226  , 774.221558  , 4.22        , 3           , 42          , 0           , 0
-0.154898971, 0.128587708 , -9.794653   , 7.853846E-05, 3.28273745E-05, -0.000221785856, -0.0131684383, -0.0162135754, -0.0001279232, 923.59      , 30.9273129  , 774.221069  , 4.23        , 3           , 255         , 0           , 0
-0.158997089, 0.135447711 , -9.797026   , 0.000129358668, -8.48620839E-05, 0.000115951596, -0.0131671643, -0.01621441 , -0.000126752464, 923.59      , 30.9273129  , 774.2206    , 4.24        , 3           , 255         , 0           , 0
-0.163626119, 0.139345944 , -9.796616   , -0.000184328353, 6.361981E-06, -0.000149489424, -0.0131689822, -0.0162143633, -0.000128248226, 923.59      , 30.9273129  , 774.2201    , 4.25        , 3           , 255         , 0           , 0
-0.165703759, 0.134469748 , -9.803291   , 0.000476733 , -8.529436E-05, -0.0004495271, -0.0131641431, -0.0162152741, -0.000132732341, 923.59      , 30.9273129  , 774.2196    , 4.26        , 3           , 255         , 0           , 0
-0.158875912, 0.120463632 , -9.79572    , 0.0001103917, 0.000196507783, 0.000104482475, -0.0131630572, -0.0162132941, -0.000131713372, 923.59      , 30.9273129  , 774.2191    , 4.27        , 3           , 255         , 0           , 0
-0.15823172 , 0.1302059   , -9.796612   , -0.0003898677, 6.351693E-05, -0.000146289967, -0.0131669315, -0.01621268 , -0.000133184672, 923.59      , 30.9273129  , 774.2186    , 4.28        , 3           , 255         , 0           , 0
-0.1692998  , 0.124482647 , -9.793437   , -6.684335E-05, -0.000346075656, 2.92943E-05 , -0.0131676057, -0.0162161384, -0.000132846151, 923.59      , 30.9273129  , 774.21814   , 4.29        , 3           , 255         , 0           , 0
-0.167698368, 0.118758842 , -9.793267   , -0.000232851948, 4.21274162E-05, -5.68843243E-05, -0.0131699238, -0.0162157249, -0.00013342053, 923.59      , 30.9273129  , 774.217651  , 4.3         , 3           , 255         , 0           , 0
-0.163086876, 0.136391968 , -9.797051   , -3.96294345E-05, -5.72360877E-05, -0.000536189938, -0.0131687578, -0.0162209552, -0.000138798961, 923.59      , 30.9273129  , 774.301758  , 4.31        , 3           , 255         , 0           , 0
-0.15787442 , 0.144862726 , -9.792401   , 0.0005617789, 0.000134807779, 0.000958313642, -0.0131632956, -0.01621948 , -0.0001292334, 923.59      , 30.9273129  , 774.301758  , 4.32        , 3           , 255         , 0           , 0
-0.156124622, 0.136333689 , -9.79285049 , 0.000336416648, -0.00014040072, 0.000479916926, -0.013160008, -0.0162208211, -0.000124415659, 923.5824    , 30.93016    , 774.3018    , 4.33        , 3           , 255         , 0           , 0
-0.15498063 , 0.1332019   , -9.796818   , -0.0002815225, -0.000322193955, 0.00012265805, -0.0131628457, -0.0162240248, -0.000123146645, 923.5824    , 30.93016    , 774.3019    , 4.34        , 3           , 255         , 0           , 0
-0.158817917, 0.1325577   , -9.792722   , -3.181756E-05, -0.000167431077, -0.000254030339, -0.0131631223, -0.01622573 , -0.000125664941, 923.5824    , 30.93016    , 774.301941  , 4.35        , 3           , 255         , 0           , 0
-0.156473786, 0.129696682 , -9.79238    , 0.000401586323, -0.000624668261, -0.000795954664, -0.013158978, -0.0162320845, -0.000133542431, 923.5824    , 30.93016    , 774.302     , 4.36        , 3           , 255         , 0           , 0
-0.163526922, 0.132447258 , -9.795275   , 0.000851860736, 3.257548E-05, -0.000464487879, -0.0131503856, -0.0162318181, -0.00013819171, 923.5824    , 30.93016    , 774.302063  , 4.37        , 3           , 255         , 0           , 0
-0.163355276, 0.135528058 , -9.792983   , 0.000431535329, -0.000207338715, 0.000229126235, -0.013146108, -0.01623386 , -0.000135873139, 923.5824    , 30.93016    , 774.3021    , 4.38        , 3           , 255         , 0           , 0
-0.156420141, 0.1322838   , -9.785258   , 0.0006047955, -0.000326544745, 0.000219471884, -0.0131400963, -0.016237095, -0.000133635462, 923.5824    , 30.93016    , 774.3022    , 4.39        , 3           , 255         , 0           , 0
-0.163236916, 0.133366942 , -9.790591   , 9.800127E-05, -0.0005930343, -0.000557845167, -0.0131390272, -0.0162430964, -0.0001391361, 923.5824    , 30.93016    , 774.302246  , 4.4         , 3           , 255         , 0           , 0
-0.160096109, 0.12916851  , -9.799062   , 0.000608642236, 8.06201E-05 , -0.000240485155, -0.0131415594, -0.01624303 , -0.000141410972, 923.5824    , 30.93016    , 774.3848    , 4.41        , 3           , 255         , 0           , 0
-0.158356547, 0.134549081 , -9.793722   , 0.0005467315, 0.000280597073, 0.000167897844, -0.0131361214, -0.0162402019, -0.0001397688, 923.5824    , 30.93016    , 774.3854    , 4.42        , 3           , 255         , 0           , 0
-0.1608983  , 0.131590888 , -9.784766   , -0.000206488359, 0.0001755043, -0.0004977582, -0.0131381042, -0.0162385125, -0.000144769539, 923.6127    , 30.930975   , 774.3859    , 4.43        , 3           , 255         , 0           , 0
-0.154081836, 0.133587271 , -9.794088   , -0.000182158547, -0.000116910407, 1.08634122E-05, -0.0131399287, -0.01623968 , -0.000144645572, 923.6127    , 30.930975   , 774.3865    , 4.44        , 3           , 255         , 0           , 0
-0.155552581, 0.132751748 , -9.795164   , 0.0005837733, -0.00026126462, -0.0003947378, -0.0131340269, -0.0162423421, -0.0001485587, 923.6127    , 30.930975   , 774.387     , 4.45        , 3           , 255         , 0           , 0
-0.163538173, 0.13281256  , -9.792245   , 0.0001985672, -4.50886437E-05, -0.000352566072, -0.0131319826, -0.0162428375, -0.000152078515, 923.6127    , 30.930975   , 774.3876    , 4.46        , 3           , 255         , 0           , 0
-0.15741463 , 0.133533239 , -9.796347   , 0.000263730559, -0.000281707733, 0.000294254132, -0.0131293936, -0.0162456166, -0.000149098909, 923.6127    , 30.930975   , 774.3881    , 4.47        , 3           , 255         , 0           , 0
-0.149381325, 0.132571563 , -9.79516    , 0.000283173518, -0.000356561271, 0.00030471434, -0.0131266126, -0.01624914 , -0.000146004924, 923.6127    , 30.930975   , 774.3887    , 4.48        , 3           , 255         , 0           , 0
-0.157670826, 0.126174226 , -9.788465   , 0.000219160167, -0.0006711516, 0.00046908806, -0.0131245  , -0.0162557885, -0.000141225843, 923.6127    , 30.930975   , 774.3892    , 4.49        , 3           , 255         , 0           , 0
-0.164763272, 0.132886857 , -9.78401    , -0.000232715392, -7.25108548E-05, -3.10008181E-06, -0.0131268259, -0.0162565149, -0.0001412473, 923.6127    , 30.930975   , 774.3898    , 4.5         , 3           , 255         , 0           , 0
-0.161925465, 0.139785558 , -9.79282951 , -0.000590695767, -0.000262319081, -0.000411597372, -0.013137796, -0.0162578132, -0.0001452455, 923.6127    , 30.930975   , 774.4174    , 4.51        , 3           , 255         , 0           , 0
-0.166897386, 0.138541237 , -9.80421    , -0.000109932007, 0.000200365059, 9.535991E-05, -0.0131389108, -0.0162557978, -0.000144318212, 923.6127    , 30.930975   , 774.418152  , 4.52        , 3           , 255         , 0           , 0
-0.1604728  , 0.135999188 , -9.777288   , -0.000284934038, 0.000483127777, -8.69289E-05, -0.0131417438, -0.0162509773, -0.00014525099, 923.640137  , 30.9302979  , 774.4189    , 4.53        , 3           , 255         , 0           , 0
-0.156561151, 0.124003552 , -9.79863548 , -0.000126681727, -0.000286694121, -0.000129872657, -0.01314299 , -0.0162538625, -0.000146512073, 923.640137  , 30.9302979  , 774.4196    , 4.54        , 3           , 255         , 0           , 0
-0.152926564, 0.126211986 , -9.786693   , -2.929024E-05, 7.118011E-06, -0.000101054327, -0.0131432656, -0.0162538029, -0.000147523577, 923.640137  , 30.9302979  , 774.420349  , 4.55        , 3           , 255         , 0           , 0
-0.157853752, 0.121340558 , -9.788103   , 0.000265114824, 2.18187488E-05, -0.000243665854, -0.0131405769, -0.0162536167, -0.000149963147, 923.640137  , 30.9302979  , 774.4211    , 4.56        , 3           , 255         , 0           , 0
-0.168940619, 0.123307228 , -9.79121    , -9.307932E-05, -7.456547E-06, -1.8427163E-05, -0.0131415036, -0.016253693, -0.000150146443, 923.640137  , 30.9302979  , 774.4218    , 4.57        , 3           , 255         , 0           , 0
-0.161984965, 0.123047665 , -9.797249   , -0.000507565448, 0.000306155736, -0.000158265277, -0.0131465523, -0.0162506551, -0.000151769389, 923.640137  , 30.9302979  , 774.422546  , 4.58        , 3           , 255         , 0           , 0
-0.156641722, 0.116987981 , -9.794841   , -0.000449004438, 0.000298489118, -0.000691224064, -0.01315093 , -0.01624776 , -0.000158720984, 923.640137  , 30.9302979  , 774.4233    , 4.59        , 3           , 255         , 0           , 0
-0.148519278, 0.122925617 , -9.78646851 , -0.000111631205, -0.0002382223, -0.000205977922, -0.0131520145, -0.016250167, -0.000160749449, 923.640137  , 30.9302979  , 774.424     , 4.6         , 3           , 255         , 0           , 0
-0.15722768 , 0.125895888 , -9.797236   , 0.000327004236, -0.000155886984, 0.000272617151, -0.0131464219, -0.0162518341, -0.0001580412, 923.640137  , 30.9302979  , 774.4077    , 4.61        , 3           , 255         , 0           , 0
-0.154724121, 0.131758645 , -9.791043   , -3.01201653E-05, 3.56531818E-05, -0.000199996211, -0.013146691, -0.0162515044, -0.000160045864, 923.640137  , 30.9302979  , 774.4084    , 4.62        , 3           , 255         , 0           , 0
-0.169247791, 0.120286748 , -9.795694   , -0.000379665027, -0.000363847765, -0.000349837472, -0.01315043 , -0.0162551887, -0.000163496457, 923.645142  , 30.9294834  , 774.409058  , 4.63        , 3           , 255         , 0           , 0
-0.155894846, 0.139874414 , -9.797043   , 6.165411E-05, -0.0007863759, -0.000303809415, -0.0131497663, -0.0162630919, -0.0001664312, 923.645142  , 30.9294834  , 774.4097    , 4.64        , 3           , 255         , 0           , 0
-0.1551243  , 0.1457207   , -9.792612   , 0.0006460243, -0.000480324321, -0.000194120759, -0.0131432759, -0.0162679181, -0.000168309329, 923.645142  , 30.9294834  , 774.4104    , 4.65        , 3           , 255         , 0           , 0
-0.157014713, 0.1375016   , -9.791787   , 0.0003695995, -0.000162120443, 0.000397881842, -0.0131396456, -0.0162694864, -0.000164309109, 923.645142  , 30.9294834  , 774.4111    , 4.66        , 3           , 255         , 0           , 0
-0.1560863  , 0.135756731 , -9.79248    , -0.000251760561, -8.874631E-05, -0.000333364966, -0.01314211 , -0.0162704177, -0.000167631151, 923.645142  , 30.9294834  , 774.411743  , 4.67        , 3           , 255         , 0           , 0
-0.158782363, 0.131927386 , -9.793486   , -8.265601E-05, -6.073143E-05, 0.0008405815, -0.013143071, -0.0162709132, -0.00015921719, 923.645142  , 30.9294834  , 774.4124    , 4.68        , 3           , 255         , 0           , 0
-0.163750336, 0.134085029 , -9.787615   , -6.1781E-05 , 0.000117633957, 0.000772770436, -0.0131438142, -0.0162696354, -0.000151504792, 923.645142  , 30.9294834  , 774.4131    , 4.69        , 3           , 255         , 0           , 0
-0.158711061, 0.136222169 , -9.793978   , -0.000181188778, -9.64838E-05, 0.000410837878, -0.0131456936, -0.0162705444, -0.000147383675, 923.645142  , 30.9294834  , 774.413757  , 4.7         , 3           , 255         , 0           , 0
-0.1584085  , 0.132634535 , -9.784975   , 1.52130669E-05, -0.0003512949, 2.627373E-05, -0.0131527781, -0.0162731167, -0.000146957042, 923.645142  , 30.9294834  , 774.3918    , 4.71        , 3           , 255         , 0           , 0
-0.15983589 , 0.116241857 , -9.786249   , -0.0003068132, 7.760302E-05, 0.00118936552, -0.01315604 , -0.0162721816, -0.000135073336, 923.645142  , 30.9294834  , 774.392334  , 4.72        , 3           , 255         , 0           , 0
-0.164082915, 0.118884124 , -9.789431   , 0.000303922629, -6.759542E-05, 0.000244604948, -0.0131530408, -0.0162728224, -0.000132618356, 923.6179    , 30.9319935  , 774.3929    , 4.73        , 3           , 255         , 0           , 0
-0.1581898  , 0.121822044 , -9.796146   , -0.000274681, -0.0001706621, -0.0003328176, -0.0131557323, -0.0162745733, -0.000135924143, 923.6179    , 30.9319935  , 774.393433  , 4.74        , 3           , 255         , 0           , 0
-0.154933572, 0.131614074 , -9.793087   , -0.000348063564, -0.000154640176, -0.000557005638, -0.0131591214, -0.0162761938, -0.000141473967, 923.6179    , 30.9319935  , 774.394     , 4.75        , 3           , 255         , 0           , 0
-0.162790373, 0.126025066 , -9.799211   , -0.000178104587, -0.000411254034, -0.0005070343, -0.013160822, -0.0162803736, -0.000146490289, 923.6179    , 30.9319935  , 774.394531  , 4.76        , 3           , 255         , 0           , 0
