Acc X       , Acc Y       , Acc Z       , Gyro X      , Gyro Y      , Gyro Z      , Euler X     , Euler Y     , Euler Z     , Pres X      , Pres Y      , Pres Z      , Time        , Status      , LowRate X   , LowRate Y   , LowRate Z    
-0.130460456, 0.105864637 , -9.78465748 , 0           , 0           , 0           , -0.0108190309, -0.0133315949, 0           , 923.190063  , 29.78743    , 778.3481    , 0           , 2           , 0           , 5.44923162  , 0
-0.142221376, 0.135672837 , -9.808216   , 0.000367317 , -0.0008269142, 0.0002133654, -0.010815097, -0.0133399619, 2.2231045E-06, 923.190063  , 29.78743    , 778.3481    , 0.01        , 3           , 1           , 0           , 0
-0.136456683, 0.121543959 , -9.787079   , 0.00106948882, -0.0007186713, 0.000192181542, -0.01080443 , -0.0133471256, 4.222629E-06, 923.190063  , 29.78743    , 778.3481    , 0.02        , 3           , 2           , 0           , 0
-0.122232355, 0.111341514 , -9.764391   , 0.000769103761, -0.0003627264, 0.000135405062, -0.0107967574, -0.0133507373, 5.61585966E-06, 923.200562  , 29.3564987  , 778.3481    , 0.03        , 3           , 3           , 0           , 0
-0.122319914, 0.11322169  , -9.791999   , -0.000191662228, -0.000380085548, -0.0008526141, -0.0107985595, -0.01335463 , -2.8692898E-06, 923.200562  , 29.3564987  , 778.3481    , 0.04        , 3           , 4           , 0           , 0
-0.131420657, 0.101366088 , -9.806159   , 0.000260767527, -0.000461401418, 0.000183320182, -0.010795977, -0.0133592244, -9.862569E-07, 923.200562  , 29.3564987  , 778.3481    , 0.05        , 3           , 5           , 0           , 0
-0.134215012, 0.08743602  , -9.803543   , 0.00099869  , -0.0008707824, -0.000207819321, -0.0107859615, -0.0133679546, -2.970493E-06, 923.200562  , 29.3564987  , 778.3481    , 0.06        , 3           , 6           , 0           , 0
-0.12865217 , 0.0858414   , -9.794233   , 0.0013730597, -0.0007723004, -0.0007586101, -0.01077213 , -0.0133757554, -1.04734045E-05, 923.200562  , 29.3564987  , 778.3481    , 0.07        , 3           , 7           , 0           , 0
-0.139979944, 0.0880141854, -9.78948    , 0.000655329 , -0.000789975747, -0.000366658234, -0.0107655283, -0.0133836968, -1.40549373E-05, 923.200562  , 29.3564987  , 778.3481    , 0.08        , 3           , 8           , 5           , 5
-0.140811846, 0.0683936   , -9.775972   , 0.000115175615, -0.00034770777, -1.43597572E-05, -0.0107643763, -0.0133871725, -1.41611126E-05, 923.200562  , 29.3564987  , 778.3481    , 0.09        , 3           , 9           , 5           , 0.1
-0.130583137, 0.06519737  , -9.789402   , 0.0006633317, -0.000919967657, -1.248678E-05, -0.0107577415, -0.013396373, -1.41869823E-05, 923.200562  , 29.3564987  , 778.3481    , 0.1         , 3           , 10          , 0.1         , 0.1
-0.125877455, 0.05670784  , -9.789673   , 0.000424893573, -0.0007367562, -0.000224063726, -0.0107160807, -0.0134136407, -1.68498536E-05, 923.200562  , 29.3564987  , 778.255737  , 0.11        , 3           , 11          , 0.0109544508, 0.0109544508
-0.1259055  , 0.06254769  , -9.800029   , 0.000387641485, -0.0002997261, 0.0007009706, -0.0107122976, -0.0134165632, -9.807986E-06, 923.200562  , 29.3564987  , 778.255737  , 0.12        , 3           , 12          , 0.174642488 , 0
-0.1206127  , 0.063989915 , -9.79416752 , 0.0007009946, -0.000258592481, 0.0006268733, -0.0107053714, -0.0134190824, -3.51150356E-06, 923.1454    , 29.3927937  , 778.255737  , 0.13        , 3           , 13          , 0           , 0
-0.134320855, 0.06108896  , -9.790739   , 0.000563125359, -0.0001752756, 0.000458440569, -0.010699803, -0.0134207848, 1.09168843E-06, 923.1454    , 29.3927937  , 778.255737  , 0.14        , 3           , 14          , 0.000697347568, 0.00107403961
-0.145164013, 0.06954126  , -9.784358   , 0.0008945856, -0.000784078438, -0.000492819352, -0.01069079 , -0.01342868 , -3.75268019E-06, 923.1454    , 29.3927937  , 778.255737  , 0.15        , 3           , 15          , 0           , 0.0002139123
-0.136526614, 0.08711036  , -9.791255   , 0.0009163858, -0.0009522218, 0.000203877848, -0.0106816562, -0.0134381792, -1.61212643E-06, 923.1454    , 29.3927937  , 778.255737  , 0.16        , 3           , 16          , 0           , 1.401298E-45
-0.129932716, 0.110545442 , -9.8041935  , 0.00080318423, -0.0009951968, 0.0014161428, -0.0106738145, -0.0134479767, 1.26556806E-05, 923.1454    , 29.3927937  , 778.255737  , 0.17        , 3           , 20          , 0           , 0
-0.13076742 , 0.109895445 , -9.796072   , 0.00128274621, -0.000572099932, 0.000733148539, -0.0106610851, -0.0134536214, 2.00482536E-05, 923.1454    , 29.3927937  , 778.255737  , 0.18        , 3           , 21          , 0           , 0
-0.12891522 , 0.109406278 , -9.783758   , 0.00124009454, -0.0006595274, 0.000565647439, -0.0106487609, -0.0134601519, 2.57750326E-05, 923.1454    , 29.3927937  , 778.255737  , 0.19        , 3           , 22          , 0           , 0
-0.129237816, 0.115283117 , -9.78541851 , 0.0003404317, -0.000742577133, 0.000748692 , -0.0106454575, -0.0134674953, 3.33410826E-05, 923.1454    , 29.3927937  , 778.255737  , 0.2         , 3           , 40          , 0           , 0
-0.13389042 , 0.116042927 , -9.795104   , 0.0006398299, -0.0003151893, 0.000337028236, -0.0105534941, -0.0134674255, 3.55919656E-05, 923.1454    , 29.3927937  , 778.5034    , 0.21        , 3           , 41          , 0           , 0
-0.1352478  , 0.1092762   , -9.803996   , 0.0005948447, -0.000423371268, 0.0004055067, -0.0105476007, -0.0134716174, 3.96917349E-05, 923.1454    , 29.3927937  , 778.5035    , 0.22        , 3           , 42          , 0           , 0
-0.131763324, 0.122238681 , -9.805819   , 0.000254674582, -0.0002236336, 0.000373245741, -0.0105451038, -0.0134738134, 4.3447817E-05, 923.1739    , 29.4194565  , 778.50354   , 0.23        , 3           , 255         , 0           , 0
-0.135605812, 0.114769004 , -9.782412   , 0.0006328203, -0.000141680357, 0.0001538825, -0.0105387988, -0.0134752123, 4.50016E-05 , 923.1739    , 29.4194565  , 778.5036    , 0.24        , 3           , 255         , 0           , 0
-0.139685974, 0.106783763 , -9.787621   , 0.000835996936, -0.000207872188, 0.0008457756, -0.0105305519, -0.0134772034, 5.348134E-05, 923.1739    , 29.4194565  , 778.503662  , 0.25        , 3           , 255         , 0           , 0
-0.132991433, 0.108218096 , -9.786184   , 0.000819932437, 0.0003470477, 0.000644201762, -0.0105224382, -0.0134736663, 5.988689E-05, 923.1739    , 29.4194565  , 778.5037    , 0.26        , 3           , 255         , 0           , 0
-0.136378139, 0.0918858945, -9.790522   , 0.001631088 , -0.000264525646, 0.0003787242, -0.01050618 , -0.01347627 , 6.370196E-05, 923.1739    , 29.4194565  , 778.5038    , 0.27        , 3           , 255         , 0           , 0
-0.134918928, 0.0928267762, -9.786566   , 0.000622785534, -0.000430803222, 7.226852E-05, -0.0104999607, -0.01348057 , 6.44698957E-05, 923.1739    , 29.4194565  , 778.503845  , 0.28        , 3           , 255         , 0           , 0
-0.132580012, 0.09075065  , -9.78821    , 0.000486324541, -0.00052933034, 0.000427209539, -0.010495156, -0.0134858182, 6.87976062E-05, 923.1739    , 29.4194565  , 778.5039    , 0.29        , 3           , 255         , 0           , 0
-0.1286288  , 0.0850941   , -9.792432   , 0.000303566572, -0.0004078456, 0.000396470248, -0.0104921758, -0.0134898555, 7.280515E-05, 923.1739    , 29.4194565  , 778.503967  , 0.3         , 3           , 255         , 0           , 0
-0.124271728, 0.100659534 , -9.794213   , -5.25256037E-05, -0.0003544588, 0.0003067236, -0.0104953218, -0.01350223 , 7.594446E-05, 923.1739    , 29.4194565  , 778.5006    , 0.31        , 3           , 255         , 0           , 0
-0.128147736, 0.09847185  , -9.798536   , 0.0001059568, -0.00049513136, -0.000448974781, -0.0104942014, -0.0135072256, 7.150662E-05, 923.1739    , 29.4194565  , 778.5007    , 0.32        , 3           , 255         , 0           , 0
-0.123621166, 0.1039329   , -9.786125   , -5.043781E-05, -0.0006433735, 0.00037617897, -0.0104947574, -0.0135136209, 7.533596E-05, 923.1835    , 29.4354668  , 778.500732  , 0.33        , 3           , 255         , 0           , 0
-0.128211454, 0.124292158 , -9.782225   , 0.000240516674, -0.000287746836, 0.0005682128, -0.01049243 , -0.0135164382, 8.104835E-05, 923.1835    , 29.4354668  , 778.5008    , 0.34        , 3           , 255         , 0           , 0
-0.128079742, 0.127425879 , -9.796099   , 7.9008285E-05, -0.000217989844, 0.000336551428, -0.0104916859, -0.013518583, 8.44367751E-05, 923.1835    , 29.4354668  , 778.500854  , 0.35        , 3           , 255         , 0           , 0
-0.1324909  , 0.110375047 , -9.786349   , 0.000105915067, -0.0005840177, 0.0009206536, -0.0104907509, -0.0135243256, 9.37046862E-05, 923.1835    , 29.4354668  , 778.5009    , 0.36        , 3           , 255         , 0           , 0
-0.135669157, 0.11667069  , -9.785157   , -4.13740054E-05, -0.000163092569, 0.000344925647, -0.010491211, -0.01352592 , 9.71711E-05 , 923.1835    , 29.4354668  , 778.501     , 0.37        , 3           , 255         , 0           , 0
-0.124663785, 0.121117815 , -9.791364   , 0.00040966447, -0.000580204069, 5.30609977E-05, -0.0104871225, -0.0135317156, 9.776259E-05, 923.1835    , 29.4354668  , 778.501038  , 0.38        , 3           , 255         , 0           , 0
-0.120461844, 0.114768788 , -9.784493   , 0.000718675 , -0.00115624163, 0.000459252478, -0.0104800006, -0.0135432314, 0.000102476377, 923.1835    , 29.4354668  , 778.5011    , 0.39        , 3           , 255         , 0           , 0
-0.134185046, 0.111190751 , -9.794816   , 0.00019066059, -0.0006336132, 0.0005176341, -0.010478165, -0.0135495123, 0.000107719192, 923.1835    , 29.4354668  , 778.50116   , 0.4         , 3           , 255         , 0           , 0
-0.1298088  , 0.103885636 , -9.792799   , 0.0002515795, -9.465485E-05, 0.000578307954, -0.0105218478, -0.0135305626, 0.0001141363, 923.1835    , 29.4354668  , 778.4779    , 0.41        , 3           , 255         , 0           , 0
-0.130320817, 0.09378867  , -9.791127   , 0.000382301 , -0.000559914042, -7.630828E-05, -0.0105180154, -0.0135361692, 0.000113432121, 923.1835    , 29.4354668  , 778.477966  , 0.42        , 3           , 255         , 0           , 0
-0.12778151 , 0.09511903  , -9.7863     , 0.0007557071, -0.000316472375, -0.000278556778, -0.0105104214, -0.0135393636, 0.000110679786, 923.1674    , 29.4470673  , 778.478     , 0.43        , 3           , 255         , 0           , 0
-0.134112254, 0.0838256   , -9.792662   , 0.0007383214, -0.0006138972, 0.00045321713, -0.0105031  , -0.0135454535, 0.000115276525, 923.1674    , 29.4470673  , 778.4781    , 0.44        , 3           , 255         , 0           , 0
-0.1349425  , 0.08102985  , -9.798166   , 0.00168719771, -0.000880530453, -8.151212E-05, -0.0104862191, -0.0135542694, 0.000114553804, 923.1674    , 29.4470673  , 778.478149  , 0.45        , 3           , 255         , 0           , 0
-0.128212735, 0.08347182  , -9.789816   , 0.00133855315, -0.0005750126, -0.000192735155, -0.0104728071, -0.0135600381, 0.000112686685, 923.1674    , 29.4470673  , 778.4782    , 0.46        , 3           , 255         , 0           , 0
-0.134630546, 0.08791356  , -9.783548   , 0.00169153442, -0.0003751344, -0.000587655057, -0.0104558133, -0.01356385 , 0.000106849322, 923.1674    , 29.4470673  , 778.4783    , 0.47        , 3           , 255         , 0           , 0
-0.135175839, 0.08440928  , -9.77915    , 0.00135956239, 1.071929E-05, -0.000121440018, -0.0104422  , -0.0135637587, 0.000105633771, 923.1674    , 29.4470673  , 778.478333  , 0.48        , 3           , 255         , 0           , 0
-0.134388   , 0.09060717  , -9.782706   , 0.000511705468, -0.000718578, -0.000255181279, -0.010437049, -0.013570969, 0.000103156934, 923.1674    , 29.4470673  , 778.4784    , 0.49        , 3           , 255         , 0           , 0
-0.13073872 , 0.09866412  , -9.79392052 , 0.000153414148, -0.000778334, -7.505712E-05, -0.0104355058, -0.01357876 , 0.000102487589, 923.1674    , 29.4470673  , 778.478455  , 0.5         , 3           , 255         , 0           , 0
-0.138494   , 0.0981402844, -9.795687   , 0.000203365984, -0.000400524121, 0.0002425759, -0.0103737656, -0.01357961 , 0.000104143932, 923.1674    , 29.4470673  , 778.493652  , 0.51        , 3           , 255         , 0           , 0
-0.1369991  , 0.109169148 , -9.7981205  , 0.0005841874, -0.0004968823, 0.00011617814, -0.0103679411, -0.0135845672, 0.000105357256, 923.1674    , 29.4470673  , 778.4937    , 0.52        , 3           , 255         , 0           , 0
-0.127589941, 0.112187251 , -9.7885685  , 0.000742288947, -0.0006089937, 0.000619524159, -0.0103606032, -0.01359059 , 0.0001116157, 923.1855    , 29.4509335  , 778.4938    , 0.53        , 3           , 255         , 0           , 0
-0.126111314, 0.102053441 , -9.786197   , 0.0007059223, -0.000459780684, 0.0006665292, -0.010353636, -0.01359512 , 0.0001183287, 923.1855    , 29.4509335  , 778.493835  , 0.54        , 3           , 255         , 0           , 0
-0.133728132, 0.09871689  , -9.785069   , 0.00042729493, -0.0006640825, 0.001207176 , -0.010349527, -0.0136016328, 0.000130469387, 923.1855    , 29.4509335  , 778.4939    , 0.55        , 3           , 255         , 0           , 0
-0.129610673, 0.0995460153, -9.78859    , 0.0004838482, -0.00062567764, 0.000117358417, -0.0103447055, -0.0136078773, 0.000131707726, 923.1855    , 29.4509335  , 778.493958  , 0.56        , 3           , 255         , 0           , 0
-0.132263809, 0.104829632 , -9.800743   , 0.000737922 , -0.0002823139, 0.000351585681, -0.0103373751, -0.0136106648, 0.00013525282, 923.1855    , 29.4509335  , 778.494     , 0.57        , 3           , 255         , 0           , 0
-0.128132418, 0.103140965 , -9.791522   , 0.0011653197, -0.000401048455, 0.0005296266, -0.0103257941, -0.01361462 , 0.000140590608, 923.1855    , 29.4509335  , 778.4941    , 0.58        , 3           , 255         , 0           , 0
-0.127740473, 0.109518245 , -9.774713   , 0.000354273652, -0.000447791477, 0.000232417326, -0.010322283, -0.0136190737, 0.000142961042, 923.1855    , 29.4509335  , 778.494141  , 0.59        , 3           , 255         , 0           , 0
-0.125635773, 0.1145704   , -9.772107   , -0.000171744381, -0.000171712774, 9.8528355E-05, -0.0103240153, -0.0136207808, 0.000143964047, 923.1855    , 29.4509335  , 778.4942    , 0.6         , 3           , 255         , 0           , 0
-0.129212648, 0.124233291 , -9.781201   , -0.000134392816, -0.000383040635, -3.226599E-05, -0.0103444541, -0.0136122853, 0.000143940939, 923.1855    , 29.4509335  , 778.476257  , 0.61        , 3           , 255         , 0           , 0
-0.1323638  , 0.137014508 , -9.805544   , 0.000130589819, -0.000119690609, -0.000147711835, -0.0103431288, -0.0136134969, 0.000142476158, 923.1855    , 29.4509335  , 778.4763    , 0.62        , 3           , 255         , 0           , 0
-0.13949953 , 0.138808534 , -9.804426   , 7.881166E-05, -4.47966158E-06, 0.000302755827, -0.0103423819, -0.01361351 , 0.000145504222, 923.1358    , 29.4603634  , 778.4764    , 0.63        , 3           , 255         , 0           , 0
-0.135858744, 0.1352651   , -9.806021   , 0.000817472057, -0.000107723696, 3.6002195E-05, -0.0103342133, -0.0136145847, 0.000145875412, 923.1358    , 29.4603634  , 778.47644   , 0.64        , 3           , 255         , 0           , 0
-0.132081866, 0.124544546 , -9.806444   , 0.0015955877, -0.00032997533, -0.000444629579, -0.0103181982, -0.0136179291, 0.000141463112, 923.1358    , 29.4603634  , 778.4765    , 0.65        , 3           , 255         , 0           , 0
-0.134305149, 0.117464818 , -9.782148   , 0.0007277986, -0.000941035338, -7.230471E-05, -0.0103109125, -0.0136273466, 0.000140837117, 923.1358    , 29.4603634  , 778.476563  , 0.66        , 3           , 255         , 0           , 0
-0.131550282, 0.112818882 , -9.781385   , 0.000471351144, -0.000415676041, 9.997017E-05, -0.0103062121, -0.0136314929, 0.0001418797, 923.1358    , 29.4603634  , 778.4766    , 0.67        , 3           , 255         , 0           , 0
-0.128801376, 0.108026877 , -9.7906     , 0.000510333164, -0.000340952771, -0.0004961459, -0.0103010433, -0.0136349536, 0.000136953313, 923.1358    , 29.4603634  , 778.4767    , 0.68        , 3           , 255         , 0           , 0
-0.1357802  , 0.106448315 , -9.794264   , 0.000167185324, -0.000267278345, 0.0005993461, -0.0102994544, -0.0136375651, 0.000142974386, 923.1358    , 29.4603634  , 778.4768    , 0.69        , 3           , 255         , 0           , 0
-0.128663734, 0.09801902  , -9.804334   , 0.00013073202, -0.000753633154, 0.000478371134, -0.0102982121, -0.013645052, 0.000147835774, 923.1358    , 29.4603634  , 778.4769    , 0.7         , 3           , 255         , 0           , 0
-0.118842222, 0.09706089  , -9.78656    , 0.000305474037, -0.00016758038, -0.0006503791, -0.0103452308, -0.0136452476, 0.000142033634, 923.1358    , 29.4603634  , 778.532349  , 0.71        , 3           , 255         , 0           , 0
-0.120700955, 0.092490904 , -9.779802   , 0.000282245222, 5.08407829E-05, -3.29680479E-05, -0.0103424042, -0.0136447428, 0.0001416987, 923.1358    , 29.4603634  , 778.5325    , 0.72        , 3           , 255         , 0           , 0
-0.1295346  , 0.0777867958, -9.791664   , -9.21428436E-05, -0.000132782559, 0.0007268117, -0.010343425, -0.0136459954, 0.000148980631, 923.1771    , 29.4631462  , 778.5326    , 0.73        , 3           , 255         , 0           , 0
-0.135356188, 0.08094065  , -9.800097   , 0.0003410764, -0.0005681572, 0.0003500415, -0.0103400629, -0.01365164 , 0.000152539884, 923.1771    , 29.4631462  , 778.5327    , 0.74        , 3           , 255         , 0           , 0
-0.137858421, 0.08055544  , -9.812336   , 0.00112396374, -0.0001750181, 0.000262235873, -0.0103288591, -0.013653365, 0.000155180358, 923.1771    , 29.4631462  , 778.532837  , 0.75        , 3           , 255         , 0           , 0
-0.133484259, 0.0812866539, -9.787188   , 0.000966990367, -0.000190194929, -5.206569E-05, -0.0103191826, -0.0136552714, 0.00015467935, 923.1771    , 29.4631462  , 778.532959  , 0.76        , 3           , 255         , 0           , 0
-0.126910821, 0.08420475  , -9.766795   , -1.54507E-05, 0.000305170543, 0.0004928359, -0.0103194043, -0.0136521682, 0.000159576288, 923.1771    , 29.4631462  , 778.5331    , 0.77        , 3           , 255         , 0           , 0
-0.12618275 , 0.09096344  , -9.771875   , -0.000573590165, -6.67788554E-05, 0.000526536256, -0.010325212, -0.013652782, 0.000164848621, 923.1771    , 29.4631462  , 778.5332    , 0.78        , 3           , 255         , 0           , 0
-0.135969788, 0.0975564048, -9.782242   , 8.57934356E-05, -0.000449513143, 0.000432984671, -0.0103244139, -0.0136572318, 0.00016922495, 923.1771    , 29.4631462  , 778.5333    , 0.79        , 3           , 255         , 0           , 0
-0.137337953, 0.104840659 , -9.8081255  , 0.0005971149, -0.0002571789, 0.0004243747, -0.0103185019, -0.0136597594, 0.000173495326, 923.1771    , 29.4631462  , 778.533447  , 0.8         , 3           , 255         , 0           , 0
-0.13388899 , 0.115035757 , -9.802222   , 0.000121342775, 3.2288488E-05, 0.0006412098, -0.0102624884, -0.01364414 , 0.000179155279, 923.1771    , 29.4631462  , 778.5242    , 0.81        , 3           , 255         , 0           , 0
-0.1314164  , 0.120521508 , -9.793577   , 0.000595403952, -0.00025485357, -4.29240172E-05, -0.01025653 , -0.013646692, 0.000178752191, 923.1771    , 29.4631462  , 778.5243    , 0.82        , 3           , 255         , 0           , 0
-0.125885323, 0.118420564 , -9.782168   , 0.000685978 , -0.000186785241, 0.000498116366, -0.0102497386, -0.0136485128, 0.000183752592, 923.1897    , 29.4679623  , 778.5244    , 0.83        , 3           , 255         , 0           , 0
-0.132391259, 0.1177247   , -9.789902   , 0.000146410253, -0.000100345118, 0.000306704955, -0.0102483146, -0.0136494832, 0.000186829988, 923.1897    , 29.4679623  , 778.524536  , 0.84        , 3           , 255         , 0           , 0
-0.128263012, 0.1167768   , -9.796881   , -7.772364E-05, -0.0001648537, -0.000105940948, -0.0102490773, -0.0136511428, 0.000185787445, 923.1897    , 29.4679623  , 778.524658  , 0.85        , 3           , 255         , 0           , 0
-0.133710653, 0.117279813 , -9.7823     , 0.0002620964, 3.43289E-05 , -0.000129581982, -0.01024644 , -0.0136508131, 0.0001844881, 923.1897    , 29.4679623  , 778.5248    , 0.86        , 3           , 255         , 0           , 0
-0.135288924, 0.110497609 , -9.775268   , 0.00022050913, -4.833564E-06, 0.00037169928, -0.0102442838, -0.0136508234, 0.000188205639, 923.1897    , 29.4679623  , 778.5249    , 0.87        , 3           , 255         , 0           , 0
-0.13579759 , 0.1127858   , -9.785147   , -9.15711862E-05, 0.0001831752, 0.000298992265, -0.01024524 , -0.0136489607, 0.000191176849, 923.1897    , 29.4679623  , 778.525     , 0.88        , 3           , 255         , 0           , 0
-0.126780078, 0.105359815 , -9.785463   , -0.000153869449, -0.000108672539, -0.000487032754, -0.0102467127, -0.0136500979, 0.000186317571, 923.1897    , 29.4679623  , 778.525146  , 0.89        , 3           , 255         , 0           , 0
-0.1323175  , 0.101016209 , -9.808088   , -5.862443E-06, 5.739485E-05, -0.000204224256, -0.0102467425, -0.0136495447, 0.0001842694, 923.1897    , 29.4679623  , 778.525269  , 0.9         , 3           , 255         , 0           , 0
-0.133872584, 0.09413714  , -9.7992     , 0.0009766817, -7.32772751E-05, -0.0001433363, -0.0102848615, -0.0136427367, 0.000183497075, 923.1897    , 29.4679623  , 778.50354   , 0.91        , 3           , 255         , 0           , 0
-0.129842952, 0.100965858 , -9.79208    , 0.000902385858, -0.0002993623, 0.00015404771, -0.0102758585, -0.013645716, 0.000185068362, 923.1897    , 29.4679623  , 778.503662  , 0.92        , 3           , 255         , 0           , 0
-0.119370364, 0.0929473   , -9.775326   , 0.0005451057, -0.000533341256, -0.000469983526, -0.0102703441, -0.0136510953, 0.000180423245, 923.136     , 29.4697952  , 778.5038    , 0.93        , 3           , 255         , 0           , 0
-0.13072972 , 0.0946084037, -9.78345    , 0.000665490341, -0.000244699069, 6.299958E-05, -0.0102636991, -0.0136535354, 0.000181078358, 923.136     , 29.4697952  , 778.5039    , 0.94        , 3           , 255         , 0           , 0
-0.137255743, 0.09833853  , -9.783482   , 0.000413571775, -0.0001378674, -0.000388129643, -0.0102595109, -0.0136549557, 0.000177211186, 923.136     , 29.4697952  , 778.504     , 0.95        , 3           , 255         , 0           , 0
-0.124810353, 0.106323168 , -9.80059052 , -6.682251E-05, -0.000655366457, -0.0007592733, -0.0102600763, -0.0136615839, 0.000169685562, 923.136     , 29.4697952  , 778.50415   , 0.96        , 3           , 255         , 0           , 0
-0.11648073 , 0.103133038 , -9.800229   , 0.000139688782, -0.000197347021, -0.000500894, -0.0102586113, -0.0136636095, 0.000164696787, 923.136     , 29.4697952  , 778.5043    , 0.97        , 3           , 255         , 0           , 0
-0.120301649, 0.108027734 , -9.796064   , 2.85038841E-05, 0.00010123197, 0.000182263466, -0.0102583505, -0.0136625776, 0.000166509053, 923.136     , 29.4697952  , 778.5044    , 0.98        , 3           , 255         , 0           , 0
-0.1294285  , 0.09126763  , -9.776475   , 2.03620875E-05, 0.000179653754, -0.0002381204, -0.0102581149, -0.0136608053, 0.0001641094, 923.136     , 29.4697952  , 778.5045    , 0.99        , 3           , 255         , 0           , 0
-0.149837881, 0.102543153 , -9.782011   , 0.000193296641, 0.000201059622, 0.0003543245, -0.01025623 , -0.0136587629, 0.000167632083, 923.136     , 29.4697952  , 778.504639  , 1           , 3           , 0           , 6.44923639  , 100
-0.16317381 , 0.103483163 , -9.79279    , -0.000737636641, 0.000280050328, 0.0009778962, -0.0102588814, -0.0136380168, 0.000177316222, 923.136     , 29.4697952  , 778.5449    , 1.01        , 3           , 1           , 0           , 0
-0.144047946, 0.107233778 , -9.800095   , -0.0008362693, 0.000264448929, 0.000746683741, -0.0102673452, -0.0136352945, 0.00018475602, 923.136     , 29.4697952  , 778.5451    , 1.02        , 3           , 2           , 0           , 0
-0.133553922, 0.116452932 , -9.786724   , -0.0001497271, 0.0008470252, -0.000256145751, -0.0102688065, -0.01362685 , 0.000182107542, 923.1298    , 29.4695911  , 778.5453    , 1.03        , 3           , 3           , 0           , 0
-0.11715202 , 0.12400277  , -9.789946   , -5.85885718E-05, 0.0006262165, -0.0009556163, -0.01026926 , -0.0136206876, 0.000172486922, 923.1298    , 29.4695911  , 778.5455    , 1.04        , 3           , 4           , 0           , 0
-0.124669626, 0.111986376 , -9.780252   , -0.000171605323, 0.00116557966, -1.57780451E-05, -0.0102709718, -0.0136090331, 0.000172209417, 923.1298    , 29.4695911  , 778.545654  , 1.05        , 3           , 5           , 0           , 0
-0.128590837, 0.109564006 , -9.787867   , 7.583026E-05, 0.0007764279, -0.000709112, -0.010270115, -0.0136013431, 0.000165038437, 923.1298    , 29.4695911  , 778.5459    , 1.06        , 3           , 6           , 0           , 0
-0.125441939, 0.120289639 , -9.813066   , -0.000607216032, 0.000199942267, -0.000418360636, -0.0102761313, -0.0135993864, 0.000160834228, 923.1298    , 29.4695911  , 778.546143  , 1.07        , 3           , 7           , 0           , 0
-0.118681408, 0.109284878 , -9.809649   , -0.000269396638, 0.0007773419, -0.0002238613, -0.0102787921, -0.013591636, 0.000158515672, 923.1298    , 29.4695911  , 778.5464    , 1.08        , 3           , 8           , 5           , 5
-0.130679056, 0.1012755   , -9.806941   , 0.000194082852, 0.0006461815, -0.000177627982, -0.010276828, -0.0135851931, 0.000156672962, 923.1298    , 29.4695911  , 778.546631  , 1.09        , 3           , 9           , 5           , 0.1
-0.141473621, 0.0840980262, -9.792847   , 0.000318074832, 0.000275940751, 0.0002505965, -0.01027368 , -0.0135824075, 0.0001591506, 923.1298    , 29.4695911  , 778.5469    , 1.1         , 3           , 10          , 0.1         , 0.1
-0.129377037, 0.07802601  , -9.772972   , 0.000580051856, -8.187676E-05, 0.000689219742, -0.0102862753, -0.0135817463, 0.0001662999, 923.1298    , 29.4695911  , 778.587463  , 1.11        , 3           , 11          , 0.008888355 , 0.00888835452
-0.124242879, 0.0814462   , -9.770803   , -0.0003447834, 0.000131700072, -0.0004397845, -0.0102896634, -0.013580475, 0.000161888442, 923.1298    , 29.4695911  , 778.587769  , 1.12        , 3           , 12          , 0.174642846 , 0
-0.131523117, 0.08684679  , -9.804999   , -0.000244656345, -0.000102130114, -0.000367465778, -0.0102920607, -0.0135815339, 0.00015822424, 923.158752  , 29.4778     , 778.5881    , 1.13        , 3           , 13          , 0           , 0
-0.132125929, 0.08492332  , -9.801044   , 0.000293741643, -0.000277796935, 4.11310029E-05, -0.0102891279, -0.0135843083, 0.000158664145, 923.158752  , 29.4778     , 778.5884    , 1.14        , 3           , 14          , 0.0006973921, 0.00107397872
-0.125521377, 0.0839581639, -9.798833   , 0.0007014705, -0.000359583646, -0.0005918213, -0.0102820331, -0.0135879647, 0.000152782828, 923.158752  , 29.4778     , 778.5887    , 1.15        , 3           , 15          , 0           , 0.000213911044
-0.131161138, 0.09045189  , -9.778218   , -0.000101574056, 0.000208942452, -0.00014485346, -0.0102830287, -0.0135858888, 0.0001513128, 923.158752  , 29.4778     , 778.589     , 1.16        , 3           , 16          , 0           , 1.401298E-45
-0.145166889, 0.093663834 , -9.773809   , -0.00046651403, -0.000130642438, -9.904302E-05, -0.0102876807, -0.0135872057, 0.000150335778, 923.158752  , 29.4778     , 778.5893    , 1.17        , 3           , 20          , 0           , 0
-0.135968715, 0.102012239 , -9.7885685  , 0.0005741055, -0.00015192281, -0.000525931129, -0.0102818692, -0.0135887787, 0.000145092039, 923.158752  , 29.4778     , 778.5896    , 1.18        , 3           , 21          , 0           , 0
-0.142928123, 0.110625982 , -9.812726   , 0.0003731654, -0.000141295779, 0.000130746586, -0.0102781551, -0.0135901785, 0.000146414051, 923.158752  , 29.4778     , 778.589966  , 1.19        , 3           , 22          , 0           , 0
-0.137577981, 0.114612438 , -9.80578    , 0.000652855437, 1.2621982E-05, -0.000464986661, -0.0102715641, -0.0135900993, 0.000141762823, 923.158752  , 29.4778     , 778.590332  , 1.2         , 3           , 40          , 0           , 0
-0.1259019  , 0.119403578 , -9.781182   , 0.000151369255, -0.0003775712, -0.000103432423, -0.0102445167, -0.0135955438, 0.0001404203, 923.158752  , 29.4778     , 778.5957    , 1.21        , 3           , 41          , 0           , 0
-0.127998   , 0.112175249 , -9.76562    , 7.787545E-05, -0.000192428939, 0.0006000898, -0.01024382 , -0.0135974064, 0.000146441016, 923.158752  , 29.4778     , 778.596069  , 1.22        , 3           , 42          , 0           , 0
-0.137736127, 0.1213197   , -9.778324   , -0.00051589 , 0.0007499842, 4.98597365E-05, -0.0102489851, -0.0135899009, 0.000146862774, 923.138367  , 29.4756966  , 778.596436  , 1.23        , 3           , 255         , 0           , 0
-0.136073411, 0.127236038 , -9.788962   , -0.000329144765, 0.0005295407, 1.08311215E-05, -0.0102522774, -0.0135846054, 0.000146916791, 923.138367  , 29.4756966  , 778.5968    , 1.24        , 3           , 255         , 0           , 0
-0.126691252, 0.116079248 , -9.800324   , -0.000680951634, 0.000234276173, 0.000385764462, -0.0102591384, -0.0135822222, 0.000150750464, 923.138367  , 29.4756966  , 778.597168  , 1.25        , 3           , 255         , 0           , 0
-0.133932561, 0.110271193 , -9.790582   , -0.00121864642, 0.000698813 , 0.000318208768, -0.0102713648, -0.0135752037, 0.000153860863, 923.138367  , 29.4756966  , 778.597534  , 1.26        , 3           , 255         , 0           , 0
-0.127725363, 0.107121781 , -9.784063   , -0.00118153472, 0.000603799359, 0.000111379268, -0.0102831945, -0.0135691557, 0.000154912617, 923.138367  , 29.4756966  , 778.5979    , 1.27        , 3           , 255         , 0           , 0
-0.133343041, 0.09060724  , -9.773549   , -0.0005710719, 0.000804059 , -0.000167291291, -0.01028888 , -0.0135611333, 0.000153156943, 923.138367  , 29.4756966  , 778.598267  , 1.28        , 3           , 255         , 0           , 0
-0.135812908, 0.0855439156, -9.78854752 , 0.000183446042, 0.000481689 , -0.0002445035, -0.010287011, -0.0135563426, 0.000150662308, 923.138367  , 29.4756966  , 778.598633  , 1.29        , 3           , 255         , 0           , 0
-0.128861412, 0.0954303   , -9.802034   , -0.0001977905, 0.000331797637, 0.000367155764, -0.0102890385, -0.013552987, 0.000154299792, 923.138367  , 29.4756966  , 778.599     , 1.3         , 3           , 255         , 0           , 0
-0.126831874, 0.09299257  , -9.808584   , -8.39708955E-05, 0.000408255146, 0.000140467761, -0.0103345448, -0.0135405436, 0.000156267037, 923.138367  , 29.4756966  , 778.624268  , 1.31        , 3           , 255         , 0           , 0
-0.13653329 , 0.0941209644, -9.792746   , -1.36496383E-05, 6.52077142E-06, 0.000233768267, -0.0103347134, -0.0135404542, 0.000158604089, 923.138367  , 29.4756966  , 778.624756  , 1.32        , 3           , 255         , 0           , 0
-0.135195345, 0.0965963155, -9.78494    , 0.000364123553, 0.000367417932, -7.555564E-05, -0.0103310617, -0.0135367885, 0.000157810558, 923.1966    , 29.4753571  , 778.625244  , 1.33        , 3           , 255         , 0           , 0
-0.139883325, 0.105139777 , -9.792547   , -3.959256E-05, 0.000318936654, 0.000256881234, -0.0103314919, -0.0135335755, 0.000160346433, 923.1966    , 29.4753571  , 778.625732  , 1.34        , 3           , 255         , 0           , 0
-0.133114651, 0.0992933959, -9.784941   , 0.000418670417, 1.80716161E-05, -0.000173684908, -0.0103272814, -0.0135334115, 0.000158607712, 923.1966    , 29.4753571  , 778.6262    , 1.35        , 3           , 255         , 0           , 0
-0.128358632, 0.09736752  , -9.786276   , 0.00019925629, 0.000102554332, 0.000156311362, -0.01032531 , -0.0135323694, 0.000160160242, 923.1966    , 29.4753571  , 778.6267    , 1.36        , 3           , 255         , 0           , 0
-0.124682546, 0.095904164 , -9.795801   , -0.0007449215, 3.649434E-05, 0.000387436943, -0.0103328107, -0.0135319643, 0.000164030891, 923.1966    , 29.4753571  , 778.6272    , 1.37        , 3           , 255         , 0           , 0
-0.1361851  , 0.109454513 , -9.792102   , -0.000651330454, 0.000335117569, 7.2521E-05  , -0.0103393318, -0.0135286069, 0.000164721452, 923.1966    , 29.4753571  , 778.6277    , 1.38        , 3           , 255         , 0           , 0
-0.13100788 , 0.110419609 , -9.780444   , -0.000145095342, 0.000449441955, 0.000360749953, -0.0103408312, -0.013524075, 0.000168282539, 923.1966    , 29.4753571  , 778.6282    , 1.39        , 3           , 255         , 0           , 0
-0.125712   , 0.10758052  , -9.789141   , -0.0005528567, 0.000635069446, 0.0007683315, -0.010346462, -0.0135176461, 0.000175900263, 923.1966    , 29.4753571  , 778.628662  , 1.4         , 3           , 255         , 0           , 0
-0.122692153, 0.114838287 , -9.791921   , -0.0004658318, 0.00088272267, 0.000399508339, -0.01035046 , -0.01350654 , 0.0001797944, 923.1966    , 29.4753571  , 778.5907    , 1.41        , 3           , 255         , 0           , 0
-0.133037567, 0.108520493 , -9.797296   , -0.000478523, 0.0006066174, 0.00043209776, -0.0103553031, -0.0135004306, 0.000184052624, 923.1966    , 29.4753571  , 778.591     , 1.42        , 3           , 255         , 0           , 0
-0.131615669, 0.111874342 , -9.800507   , -0.000335095159, 4.00770223E-05, 0.0006083417, -0.010358735, -0.0134999668, 0.000190131963, 923.183     , 29.4754925  , 778.5913    , 1.43        , 3           , 255         , 0           , 0
-0.13264291 , 0.1089259   , -9.795476   , 5.45170042E-05, 0.000332594849, 0.00079084764, -0.0103582963, -0.0134965591, 0.000198006092, 923.183     , 29.4754925  , 778.5916    , 1.44        , 3           , 255         , 0           , 0
-0.135315657, 0.109068729 , -9.793871   , -0.000569478434, 0.00028181274, 0.000855910068, -0.0103641059, -0.0134936543, 0.0002065361, 923.183     , 29.4754925  , 778.5919    , 1.45        , 3           , 255         , 0           , 0
-0.13938    , 0.105900779 , -9.79182148 , -0.0004807201, -0.000343970081, 5.891474E-05, -0.01036892 , -0.0134970853, 0.000207160861, 923.183     , 29.4754925  , 778.5922    , 1.46        , 3           , 255         , 0           , 0
-0.129904315, 0.109480523 , -9.792879   , 0.000195324945, -0.000119170058, -0.000287737348, -0.0103669278, -0.0134983081, 0.000204295808, 923.183     , 29.4754925  , 778.5925    , 1.47        , 3           , 255         , 0           , 0
-0.127616435, 0.114291035 , -9.798933   , 0.0009852819, -0.000224292336, -0.000236572829, -0.0103570428, -0.0135005759, 0.000201953328, 923.183     , 29.4754925  , 778.592834  , 1.48        , 3           , 255         , 0           , 0
-0.129379421, 0.113004908 , -9.798001   , 0.000120656448, 3.988715E-05, -0.000292214449, -0.0103557976, -0.0135002071, 0.00019902701, 923.183     , 29.4754925  , 778.59314   , 1.49        , 3           , 255         , 0           , 0
-0.123449758, 0.103802025 , -9.776946   , -8.638739E-05, -2.01425282E-05, 2.30145233E-05, -0.0103566656, -0.0135004064, 0.00019925923, 923.183     , 29.4754925  , 778.593445  , 1.5         , 3           , 255         , 0           , 0
-0.133360133, 0.100766912 , -9.778711   , -0.000552358339, -0.000233404338, 9.714482E-05, -0.0103813512, -0.0134989442, 0.000200513343, 923.183     , 29.4754925  , 778.572937  , 1.51        , 3           , 255         , 0           , 0
-0.1366534  , 0.103253864 , -9.787115   , -0.0005064446, -0.000116600888, -0.000535838, -0.0103863431, -0.0135001661, 0.000195167027, 923.183     , 29.4754925  , 778.5732    , 1.52        , 3           , 255         , 0           , 0
-0.127364427, 0.1018334   , -9.796896   , 0.0006477916, -0.000177980168, -0.000387832115, -0.0103798145, -0.0135019869, 0.000191307132, 923.2109    , 29.4763756  , 778.5734    , 1.53        , 3           , 255         , 0           , 0
-0.127126783, 0.107705928 , -9.805023   , -0.000115550531, -0.0002520539, 0.000302191416, -0.0103810122, -0.0135044754, 0.000194355249, 923.2109    , 29.4763756  , 778.573669  , 1.54        , 3           , 255         , 0           , 0
-0.132784247, 0.109829865 , -9.792333   , 0.000344834349, -0.000310764241, -0.000168006285, -0.0103775412, -0.0135076  , 0.000192707419, 923.2109    , 29.4763756  , 778.5739    , 1.55        , 3           , 255         , 0           , 0
-0.129929438, 0.1134835   , -9.787297   , 0.000253406 , -0.000177358277, -0.000539065339, -0.0103749344, -0.0135094291, 0.000187335114, 923.2109    , 29.4763756  , 778.574158  , 1.56        , 3           , 255         , 0           , 0
-0.131534368, 0.110015534 , -9.782953   , 0.000481512 , 0.000237920671, 0.000126242565, -0.0103701372, -0.0135070365, 0.000188572856, 923.2109    , 29.4763756  , 778.5744    , 1.57        , 3           , 255         , 0           , 0
-0.145797908, 0.09698319  , -9.787905   , -0.0004279837, -0.000422091456, -0.000220531481, -0.0103743868, -0.0135112777, 0.0001864113, 923.2109    , 29.4763756  , 778.574646  , 1.58        , 3           , 255         , 0           , 0
-0.133875534, 0.103408791 , -9.806315   , -0.000125920575, -0.000207819277, -0.000311462, -0.0103756031, -0.013513389, 0.000183318189, 923.2109    , 29.4763756  , 778.5749    , 1.59        , 3           , 255         , 0           , 0
-0.1381934  , 0.0963515043, -9.802233   , 4.66646743E-05, 0.000462971278, 0.0002779815, -0.0103751728, -0.0135087306, 0.00018605  , 923.2109    , 29.4763756  , 778.575134  , 1.6         , 3           , 255         , 0           , 0
-0.1384612  , 0.104960576 , -9.803811   , 0.0008589025, 8.425908E-05, 3.02543631E-05, -0.0103730718, -0.0135111772, 0.000186431411, 923.2109    , 29.4763756  , 778.5265    , 1.61        , 3           , 255         , 0           , 0
-0.124680415, 0.106572725 , -9.778033   , 0.0008748405, 0.0002640005, 0.000569708238, -0.0103643984, -0.01350848 , 0.000192101186, 923.2109    , 29.4763756  , 778.5265    , 1.62        , 3           , 255         , 0           , 0
-0.124189235, 0.109592415 , -9.781837   , 0.0005271851, -0.000155942282, -1.77702168E-06, -0.010359128, -0.0135100391, 0.000192099586, 923.196     , 29.4797     , 778.5265    , 1.63        , 3           , 255         , 0           , 0
-0.129155666, 0.1151041   , -9.797347   , 0.000443114026, -0.0005808945, 0.000336452445, -0.0103547433, -0.0135158133, 0.000195524291, 923.196     , 29.4797     , 778.5265    , 1.64        , 3           , 255         , 0           , 0
-0.123894669, 0.11423254  , -9.804776   , 0.000607830065, -0.000348852423, 0.000505689764, -0.0103487335, -0.0135192489, 0.0002006174, 923.196     , 29.4797     , 778.5265    , 1.65        , 3           , 255         , 0           , 0
-0.12533012 , 0.113361523 , -9.806614   , 0.000508554571, -3.79725825E-05, -0.0001474758, -0.01034363 , -0.0135196447, 0.000199146554, 923.196     , 29.4797     , 778.5265    , 1.66        , 3           , 255         , 0           , 0
-0.135789692, 0.112386249 , -9.789552   , 0.0009445218, -0.00023930741, 0.000386530068, -0.0103342375, -0.0135219982, 0.00020303663, 923.196     , 29.4797     , 778.5265    , 1.67        , 3           , 255         , 0           , 0
-0.146411434, 0.1114807   , -9.770388   , 0.0009858974, -3.54807125E-05, 0.0005377278, -0.01032445 , -0.0135222953, 0.000208417652, 923.196     , 29.4797     , 778.5265    , 1.68        , 3           , 255         , 0           , 0
-0.131502241, 0.112459108 , -9.769513   , -0.00036268757, -0.000592235068, 0.000264717819, -0.010328114, -0.0135281906, 0.000211126011, 923.196     , 29.4797     , 778.5265    , 1.69        , 3           , 255         , 0           , 0
-0.123770334, 0.10080906  , -9.79438    , -0.000296994229, -4.09258064E-06, 0.0003593893, -0.0103311324, -0.0135281943, 0.000214720363, 923.196     , 29.4797     , 778.5265    , 1.7         , 3           , 255         , 0           , 0
-0.134093314, 0.09197958  , -9.798628   , 0.0006090797, 2.94926576E-05, -0.0005310948, -0.0103509557, -0.0135219218, 0.00020975768, 923.196     , 29.4797     , 778.498169  , 1.71        , 3           , 255         , 0           , 0
-0.124453843, 0.08755687  , -9.794964   , 0.000380169833, -0.000156168418, -0.000532160164, -0.0103470813, -0.0135235395, 0.000204452183, 923.196     , 29.4797     , 778.498047  , 1.72        , 3           , 255         , 0           , 0
-0.1257309  , 0.08132903  , -9.786278   , 0.000694641145, 0.0006431012, 0.0002329058, -0.0103401653, -0.0135170855, 0.000206714758, 923.1564    , 29.4790878  , 778.4979    , 1.73        , 3           , 255         , 0           , 0
-0.132916957, 0.08185227  , -9.7907     , 0.000212052371, 0.0005341474, 9.07002E-06 , -0.0103380466, -0.0135117415, 0.000206750221, 923.1564    , 29.4790878  , 778.4978    , 1.74        , 3           , 255         , 0           , 0
-0.120548472, 0.08945402  , -9.793855   , 0.000476138317, 0.0002996684, 0.000368147448, -0.0103333341, -0.013508711, 0.000210400787, 923.1564    , 29.4790878  , 778.4977    , 1.75        , 3           , 255         , 0           , 0
-0.125348747, 0.0822654739, -9.789435   , 0.000269071839, 0.000284658978, 0.000215524356, -0.0103306714, -0.0135058425, 0.000212526662, 923.1564    , 29.4790878  , 778.497559  , 1.76        , 3           , 255         , 0           , 0
-0.127241179, 0.0956918448, -9.793211   , 0.000129325781, 0.000209910679, -3.20857653E-05, -0.010329375, -0.0135037471, 0.0002121841, 923.1564    , 29.4790878  , 778.497437  , 1.77        , 3           , 255         , 0           , 0
-0.130258575, 0.103238061 , -9.794397   , -0.000208774814, -4.40226868E-05, -0.000270834775, -0.0103314249, -0.0135042155, 0.000209480262, 923.1564    , 29.4790878  , 778.4973    , 1.78        , 3           , 255         , 0           , 0
-0.126919463, 0.108935133 , -9.788595   , 0.000337278354, 0.0001586437, -8.346033E-06, -0.0103280516, -0.01350263 , 0.000209380421, 923.1564    , 29.4790878  , 778.4972    , 1.79        , 3           , 255         , 0           , 0
-0.12363901 , 0.103579208 , -9.785884   , 0.0006982647, 8.599344E-05, -0.0007806105, -0.0103209624, -0.0135018509, 0.00020156533, 923.1564    , 29.4790878  , 778.4971    , 1.8         , 3           , 255         , 0           , 0
-0.129897833, 0.111481629 , -9.789903   , 0.000530089252, 9.36951255E-05, 0.000274816237, -0.010294239, -0.013487977, 0.000204014417, 923.1564    , 29.4790878  , 778.516357  , 1.81        , 3           , 255         , 0           , 0
-0.127183855, 0.109031379 , -9.790268   , -9.8030665E-05, -0.000484973658, -0.000244953175, -0.0102951862, -0.0134928524, 0.000201614777, 923.1564    , 29.4790878  , 778.516357  , 1.82        , 3           , 255         , 0           , 0
-0.133931592, 0.109413072 , -9.797868   , 0.000405888422, -0.000150907668, -0.000131640234, -0.01029111 , -0.0134943752, 0.0002003139, 923.161865  , 29.4815311  , 778.516357  , 1.83        , 3           , 255         , 0           , 0
-0.140035078, 0.11376363  , -9.792288   , 0.0005538196, -0.000405329221, 0.000266783929, -0.0102856085, -0.0134984  , 0.000203023446, 923.161865  , 29.4815311  , 778.516357  , 1.84        , 3           , 255         , 0           , 0
-0.129588261, 0.110802546 , -9.785093   , 0.000483061653, -0.000292575045, 0.0006411437, -0.0102808652, -0.01350126 , 0.000209465084, 923.161865  , 29.4815311  , 778.516357  , 1.85        , 3           , 255         , 0           , 0
-0.120975852, 0.124846838 , -9.795192   , 0.0001686319, -0.000189700513, 0.0007844555, -0.0102792839, -0.0135030774, 0.000217329231, 923.161865  , 29.4815311  , 778.516357  , 1.86        , 3           , 255         , 0           , 0
-0.120493732, 0.1315507   , -9.809562   , 7.02847E-05 , -0.0005103752, -9.934635E-05, -0.0102785686, -0.01350819 , 0.000216388216, 923.161865  , 29.4815311  , 778.516357  , 1.87        , 3           , 255         , 0           , 0
-0.127517208, 0.132547811 , -9.800753   , 0.0008188278, -0.000311394455, -0.000108212407, -0.0102703664, -0.0135113141, 0.000215338063, 923.161865  , 29.4815311  , 778.516357  , 1.88        , 3           , 255         , 0           , 0
-0.128440291, 0.119314753 , -9.792955   , 0.0009852976, -0.000290582422, 0.000481896743, -0.0102605792, -0.0135141714, 0.000220186921, 923.161865  , 29.4815311  , 778.516357  , 1.89        , 3           , 255         , 0           , 0
-0.131760269, 0.113173887 , -9.791083   , 0.0003560644, -0.0003024435, 0.000339696242, -0.0102570653, -0.01351716 , 0.000223614959, 923.161865  , 29.4815311  , 778.516357  , 1.9         , 3           , 255         , 0           , 0
-0.1325268  , 0.10487666  , -9.779263   , 0.000267692842, -5.189632E-05, -0.000390825619, -0.0102872029, -0.0135113653, 0.000220156042, 923.161865  , 29.4815311  , 778.527466  , 1.91        , 3           , 255         , 0           , 0
-0.125249565, 0.111341313 , -9.77434349 , 8.059823E-05, -9.962724E-05, -7.912256E-05, -0.0102863861, -0.01351237 , 0.00021937507, 923.161865  , 29.4815311  , 778.5275    , 1.92        , 3           , 255         , 0           , 0
-0.121466637, 0.10349039  , -9.786874   , 0.000358434918, -0.000153475383, -0.000286770432, -0.0102827642, -0.0135139348, 0.000216523127, 923.1735    , 29.4790878  , 778.5276    , 1.93        , 3           , 255         , 0           , 0
-0.122565664, 0.0953877   , -9.796755   , 0.000660970865, -6.739225E-05, 1.80572824E-05, -0.0102761574, -0.0135146072, 0.000216710614, 923.1735    , 29.4790878  , 778.527649  , 1.94        , 3           , 255         , 0           , 0
-0.122779049, 0.100969329 , -9.799399   , -0.00022850302, 5.449413E-05, 0.000326568668, -0.0102784848, -0.0135140289, 0.000219970738, 923.1735    , 29.4790878  , 778.5277    , 1.95        , 3           , 255         , 0           , 0
-0.132689655, 0.103641227 , -9.792736   , 4.073017E-05, 2.50160228E-05, -2.861947E-05, -0.0102780741, -0.0135137811, 0.00021968197, 923.1735    , 29.4790878  , 778.5278    , 1.96        , 3           , 255         , 0           , 0
-0.128590927, 0.102094725 , -9.7892     , 0.0006922724, -0.000442380842, 1.12856942E-05, -0.0102711543, -0.013518203, 0.0002198403, 923.1735    , 29.4790878  , 778.527832  , 1.97        , 3           , 255         , 0           , 0
-0.126612425, 0.09961827  , -9.786311   , 0.00084736204, -0.000634735, -7.48637831E-07, -0.0102626812, -0.0135245509, 0.000219897964, 923.1735    , 29.4790878  , 778.5279    , 1.98        , 3           , 255         , 0           , 0
-0.131772846, 0.09992336  , -9.783419   , 0.0005618167, -0.000308231683, 0.000234059888, -0.010257096, -0.0135276094, 0.000222270246, 923.1735    , 29.4790878  , 778.527954  , 1.99        , 3           , 255         , 0           , 0
-0.131574   , 0.095097445 , -9.786532   , 0.001160858 , -0.0002154616, 0.0005297823, -0.0102455588, -0.0135297077, 0.000227590208, 923.1735    , 29.4790878  , 778.528     , 2           , 3           , 0           , 7.44923639  , 200
-0.121719658, 0.08997847  , -9.778763   , 0.000873675453, -0.000290313328, 0.000265938521, -0.0102405082, -0.0135162212, 0.00023032866, 923.1735    , 29.4790878  , 778.5243    , 2.01        , 3           , 1           , 0           , 0
-0.128205016, 0.1056875   , -9.782839   , 0.000169204955, -0.00020045758, 0.000114531678, -0.0102388319, -0.0135182142, 0.000231494545, 923.1735    , 29.4790878  , 778.524353  , 2.02        , 3           , 2           , 0           , 0
-0.1249765  , 0.107925117 , -9.784794   , 0.000273345271, -0.000162218872, 0.00020521383, -0.0102361254, -0.0135198152, 0.000233563333, 923.140259  , 29.4805126  , 778.5244    , 2.03        , 3           , 3           , 0           , 0
-0.125758559, 0.10727267  , -9.792988   , 0.00027546013, -0.000214728585, -0.000133301714, -0.0102333529, -0.0135219758, 0.000232252249, 923.140259  , 29.4805126  , 778.5245    , 2.04        , 3           , 4           , 0           , 0
-0.122163668, 0.112955213 , -9.788989   , 0.000368844834, -0.000132707122, -0.000107573935, -0.01022965 , -0.0135233151, 0.0002311901, 923.140259  , 29.4805126  , 778.524536  , 2.05        , 3           , 5           , 0           , 0
-0.139395356, 0.110989057 , -9.789638   , 0.0002906532, 0.0002279327, -0.0003039622, -0.0102267023, -0.0135210659, 0.0002281271, 923.140259  , 29.4805126  , 778.5246    , 2.06        , 3           , 6           , 0           , 0
-0.135290712, 0.111255765 , -9.790911   , -0.000351532362, 0.0003685   , -0.000193638378, -0.01023019 , -0.0135174012, 0.000226153017, 923.140259  , 29.4805126  , 778.524658  , 2.07        , 3           , 7           , 0           , 0
-0.130696028, 0.106540129 , -9.782794   , -2.294482E-05, -2.07667472E-05, -0.000136919261, -0.0102304015, -0.0135176219, 0.000224785923, 923.140259  , 29.4805126  , 778.5247    , 2.08        , 3           , 8           , 5           , 5
-0.1302878  , 0.107934631 , -9.782829   , -0.000161868171, -6.10861462E-05, 0.0008874014, -0.0102321394, -0.0135181425, 0.0002336663, 923.140259  , 29.4805126  , 778.5248    , 2.09        , 3           , 9           , 5           , 0.1
-0.127790451, 0.110880435 , -9.794722   , 0.000459829345, -0.000527592143, 0.0007340949, -0.0102276411, -0.0135233449, 0.000241061309, 923.140259  , 29.4805126  , 778.524841  , 2.1         , 3           , 10          , 0.1         , 0.1
-0.1306071  , 0.10988301  , -9.798897   , -0.000212308165, -0.0003790852, 0.0006412593, -0.0102548273, -0.0135137588, 0.000247850257, 923.140259  , 29.4805126  , 778.5621    , 2.11        , 3           , 11          , 0.007699553 , 0.00769955246
-0.135600418, 0.102719031 , -9.797376   , 0.000379308069, 1.01462938E-05, 0.0003797406, -0.0102510843, -0.0135136181, 0.000251646677, 923.140259  , 29.4805126  , 778.5624    , 2.12        , 3           , 12          , 0.174643889 , 0
-0.138921767, 0.101840213 , -9.787614   , 0.000523428142, -0.0003439695, -0.000294127443, -0.0102458121, -0.0135170864, 0.0002487406, 923.192261  , 29.48031    , 778.5627    , 2.13        , 3           , 13          , 0           , 0
-0.132955521, 0.105450712 , -9.787176   , 0.0007738645, -0.0006411235, 0.000462532043, -0.0102381352, -0.013523452, 0.000253431645, 923.192261  , 29.48031    , 778.563     , 2.14        , 3           , 14          , 0.000697666139, 0.00107380771
-0.137192518, 0.103625044 , -9.787076   , 0.0006968765, -0.000854544749, 0.000157355491, -0.0102311894, -0.0135319773, 0.000255092658, 923.192261  , 29.48031    , 778.5633    , 2.15        , 3           , 15          , 0           , 0.000213905572
-0.130245849, 0.0889758542, -9.791714   , -0.0002280437, -0.000364407257, 0.000691649 , -0.0102335624, -0.0135355517, 0.000262046553, 923.192261  , 29.48031    , 778.5636    , 2.16        , 3           , 16          , 0           , 1.401298E-45
-0.129624173, 0.100375175 , -9.79392052 , 0.000243919611, -0.000217204681, 0.000198762762, -0.0102311522, -0.0135377031, 0.000264056434, 923.192261  , 29.48031    , 778.5639    , 2.17        , 3           , 20          , 0           , 0
-0.140196   , 0.11119388  , -9.790155   , 0.00101888389, -0.000393591, 0.0003441678, -0.01022101 , -0.0135416044, 0.0002675384, 923.192261  , 29.48031    , 778.5642    , 2.18        , 3           , 21          , 0           , 0
-0.139792368, 0.103267506 , -9.786141   , 8.08740151E-05, 0.000149027444, -0.0005837046, -0.0102201216, -0.0135401729, 0.000261686044, 923.192261  , 29.48031    , 778.5645    , 2.19        , 3           , 22          , 0           , 0
-0.1317486  , 0.0965714455, -9.789241   , 0.0003003984, 0.000493579661, -0.000311374839, -0.0102170752, -0.01353527 , 0.000258521846, 923.192261  , 29.48031    , 778.5648    , 2.2         , 3           , 40          , 0           , 0
-0.132448584, 0.100427493 , -9.793524   , 0.00042090856, 6.61658123E-06, 0.000349826878, -0.0102179823, -0.0135403024, 0.0002620881, 923.192261  , 29.48031    , 778.5325    , 2.21        , 3           , 41          , 0           , 0
-0.132806554, 0.09071626  , -9.789621   , 0.0004105633, -0.000101536745, 0.0004165104, -0.0102139339, -0.0135412747, 0.000266263669, 923.192261  , 29.48031    , 778.5326    , 2.22        , 3           , 42          , 0           , 0
-0.118331984, 0.08692777  , -9.784928   , 0.0003604713, -3.06454021E-05, -0.0008113637, -0.0102102188, -0.013541664, 0.000258153 , 923.171     , 29.4828873  , 778.5327    , 2.23        , 3           , 255         , 0           , 0
-0.117256   , 0.0957934856, -9.784244   , 0.0007616251, -0.00039330736, -0.000144517326, -0.0102025857, -0.0135456119, 0.000256748026, 923.171     , 29.4828873  , 778.532837  , 2.24        , 3           , 255         , 0           , 0
-0.130546063, 0.110515431 , -9.781597   , -3.98814445E-05, -0.000678419368, -0.000200075869, -0.0102029564, -0.0135524161, 0.0002548164, 923.171     , 29.4828873  , 778.532959  , 2.25        , 3           , 255         , 0           , 0
-0.130855039, 0.112457469 , -9.78594    , -2.62361718E-05, -0.000375759031, 0.000387495849, -0.010203273, -0.0135561349, 0.0002587298, 923.171     , 29.4828873  , 778.5331    , 2.26        , 3           , 255         , 0           , 0
-0.13223353 , 0.118364789 , -9.79365349 , 0.0006466961, -0.00042080105, 0.000382034341, -0.010196859, -0.0135603026, 0.0002625931, 923.171     , 29.4828873  , 778.5332    , 2.27        , 3           , 255         , 0           , 0
-0.138435841, 0.12154974  , -9.790659   , 0.0005345221, 0.000289181247, -0.000179450188, -0.010191489, -0.0135574285, 0.000260769128, 923.171     , 29.4828873  , 778.5333    , 2.28        , 3           , 255         , 0           , 0
-0.13595137 , 0.114329651 , -9.79447    , 0.0007812802, -3.00445827E-05, -0.000191685482, -0.010183651, -0.0135577479, 0.0002588553, 923.171     , 29.4828873  , 778.533447  , 2.29        , 3           , 255         , 0           , 0
-0.123761259, 0.111724034 , -9.796347   , -0.000192469161, 0.000293470221, -0.000431621418, -0.0101855174, -0.0135548618, 0.000254509127, 923.171     , 29.4828873  , 778.533569  , 2.3         , 3           , 255         , 0           , 0
-0.131944567, 0.106817804 , -9.791542   , 0.00012310117, 1.7758226E-05, 0.0001012884, -0.0102007659, -0.0135459248, 0.0002557433, 923.171     , 29.4828873  , 778.53186   , 2.31        , 3           , 255         , 0           , 0
-0.133671239, 0.1068305   , -9.798265   , 0.000468114566, 7.558777E-05, 0.000245594973, -0.01019612 , -0.0135451443, 0.000258191547, 923.171     , 29.4828873  , 778.532     , 2.32        , 3           , 255         , 0           , 0
-0.130392164, 0.0982613638, -9.796674   , 0.000380693178, 0.000305806985, 8.776304E-05, -0.0101923244, -0.0135420766, 0.000259038 , 923.1492    , 29.4817352  , 778.5321    , 2.33        , 3           , 255         , 0           , 0
-0.13282077 , 0.100690246 , -9.786127   , 0.0003228726, 6.866467E-05, 0.0008647196, -0.0101892119, -0.0135413017, 0.000267678348, 923.1492    , 29.4817352  , 778.5322    , 2.34        , 3           , 255         , 0           , 0
-0.118903615, 0.106544331 , -9.779665   , 0.000252233527, -0.000175238936, 0.000509151258, -0.0101867588, -0.0135430042, 0.000272787845, 923.1492    , 29.4817352  , 778.532349  , 2.35        , 3           , 255         , 0           , 0
-0.1283789  , 0.100360408 , -9.786436   , 0.0006078692, -0.0007933025, 6.43938838E-05, -0.0101806894, -0.0135509307, 0.00027351256, 923.1492    , 29.4817352  , 778.5325    , 2.36        , 3           , 255         , 0           , 0
-0.124568738, 0.0975905657, -9.80211449 , 0.000715677568, -0.000279249041, -0.00015550197, -0.0101735126, -0.0135537395, 0.000271985948, 923.1492    , 29.4817352  , 778.5326    , 2.37        , 3           , 255         , 0           , 0
-0.13734594 , 0.09428038  , -9.798133   , 0.000206187542, -0.0001926854, 0.000173644366, -0.0101714749, -0.0135556487, 0.000273742 , 923.1492    , 29.4817352  , 778.5327    , 2.38        , 3           , 255         , 0           , 0
-0.1398519  , 0.0934416056, -9.789377   , 0.000268371543, -0.0005326596, 7.902752E-05, -0.0101688029, -0.0135609657, 0.0002745865, 923.1492    , 29.4817352  , 778.532837  , 2.39        , 3           , 255         , 0           , 0
-0.138809875, 0.101189673 , -9.787579   , 0.000522145943, -0.000297157618, -0.000297016028, -0.010163541, -0.0135639664, 0.0002716465, 923.1492    , 29.4817352  , 778.532959  , 2.4         , 3           , 255         , 0           , 0
-0.134783581, 0.09380459  , -9.791804   , 0.000284597336, 0.000105980551, -0.000104362407, -0.01016246 , -0.0135609182, 0.0002706162, 923.1492    , 29.4817352  , 778.56      , 2.41        , 3           , 255         , 0           , 0
-0.131079227, 0.09465809  , -9.789488   , 0.0006167903, -0.000154497335, 1.21845951E-05, -0.0101562934, -0.01356246 , 0.000270753779, 923.1492    , 29.4817352  , 778.5603    , 2.42        , 3           , 255         , 0           , 0
-0.124746934, 0.104777023 , -9.790227   , 0.0002785069, -0.0003233946, -0.0005157793, -0.0101534389, -0.0135657471, 0.00026562874, 923.1826    , 29.48126    , 778.5606    , 2.43        , 3           , 255         , 0           , 0
-0.123910978, 0.102490231 , -9.798353   , 0.000113405113, -0.0001743405, -5.63762878E-05, -0.0101522971, -0.0135674961, 0.000265082665, 923.1826    , 29.48126    , 778.5609    , 2.44        , 3           , 255         , 0           , 0
-0.121917412, 0.112296008 , -9.802296   , 0.000640372338, 0.000291157048, -0.0005590273, -0.010145817, -0.0135646444, 0.000259462744, 923.1826    , 29.48126    , 778.5612    , 2.45        , 3           , 255         , 0           , 0
-0.117279723, 0.102728426 , -9.785121   , 0.000119196658, -0.0007484261, 0.0002593841, -0.0101446593, -0.0135721005, 0.000262132584, 923.1826    , 29.48126    , 778.5615    , 2.46        , 3           , 255         , 0           , 0
-0.131903768, 0.107743777 , -9.789923   , 0.000321716245, -0.0006523347, -0.000213335486, -0.0101414146, -0.0135786459, 0.000260065368, 923.1826    , 29.48126    , 778.5618    , 2.47        , 3           , 255         , 0           , 0
-0.1371012  , 0.110870361 , -9.79401    , 0.0005690306, -0.000224002521, -0.0003151632, -0.0101356832, -0.0135809174, 0.0002569364, 923.1826    , 29.48126    , 778.562134  , 2.48        , 3           , 255         , 0           , 0
-0.125591129, 0.112013318 , -9.784579   , 0.0004586664, 9.0164016E-05, -0.000238081455, -0.0101310629, -0.01358004 , 0.0002545464, 923.1826    , 29.48126    , 778.562439  , 2.49        , 3           , 255         , 0           , 0
-0.124798834, 0.116941318 , -9.794085   , -0.000268627366, -0.000405406, 0.000220847214, -0.0101337805, -0.0135840727, 0.000256796 , 923.1826    , 29.48126    , 778.562744  , 2.5         , 3           , 255         , 0           , 0
-0.125123858, 0.119404    , -9.789786   , -0.00020558422, -0.000316829653, -0.000122893543, -0.0101487869, -0.0135761239, 0.000255775172, 923.1826    , 29.48126    , 778.541748  , 2.51        , 3           , 255         , 0           , 0
-0.1294181  , 0.108013153 , -9.78441    , 0.0001858502, -0.000473708962, -1.04293431E-05, -0.010146928, -0.0135808624, 0.000255718973, 923.1826    , 29.48126    , 778.541931  , 2.52        , 3           , 255         , 0           , 0
-0.121387027, 0.110060856 , -9.791135   , -0.00048383174, -9.613717E-05, -0.000278180349, -0.01015173 , -0.0135818506, 0.0002529469, 923.1301    , 29.4845848  , 778.5421    , 2.53        , 3           , 255         , 0           , 0
-0.1283901  , 0.110607937 , -9.789202   , -0.0001458978, -0.000210072612, 5.10455429E-05, -0.0101531949, -0.013583947, 0.000253478676, 923.1301    , 29.4845848  , 778.5423    , 2.54        , 3           , 255         , 0           , 0
-0.131039381, 0.116225243 , -9.792193   , 0.000703566242, -0.000176931033, 0.000211173508, -0.0101461895, -0.0135856941, 0.000255608378, 923.1301    , 29.4845848  , 778.5425    , 2.55        , 3           , 255         , 0           , 0
-0.127783626, 0.106768265 , -9.792666   , -0.000416083232, -0.0003682988, 0.0009237496, -0.0101504754, -0.0135892816, 0.0002648834, 923.1301    , 29.4845848  , 778.542664  , 2.56        , 3           , 255         , 0           , 0
-0.130819768, 0.0961454362, -9.789541   , 7.436087E-05, -0.00018523779, 0.0005491606, -0.0101498077, -0.0135910781, 0.0002703939, 923.1301    , 29.4845848  , 778.542847  , 2.57        , 3           , 255         , 0           , 0
-0.131317779, 0.09807403  , -9.787642   , 0.000301742577, 0.0002152822, 0.000220123577, -0.0101468191, -0.0135889035, 0.000272573321, 923.1301    , 29.4845848  , 778.543     , 2.58        , 3           , 255         , 0           , 0
-0.123703048, 0.09914811  , -9.782474   , 0.000685249 , 0.000132226618, -0.000471947831, -0.0101399012, -0.0135876313, 0.000267840369, 923.1301    , 29.4845848  , 778.5432    , 2.59        , 3           , 255         , 0           , 0
-0.1288284  , 0.08878467  , -9.797347   , -0.0003345225, -0.000503465941, 0.000403547951, -0.0101433014, -0.0135926232, 0.000271926954, 923.1301    , 29.4845848  , 778.5434    , 2.6         , 3           , 255         , 0           , 0
-0.138318628, 0.0935812742, -9.793207   , -0.00045485716, 0.000130856642, 0.000108458276, -0.0101621468, -0.0135787856, 0.0002731922, 923.1301    , 29.4845848  , 778.5958    , 2.61        , 3           , 255         , 0           , 0
-0.133933038, 0.09611324  , -9.793231   , -0.000145289174, 0.000364408246, 0.000438574876, -0.0101636583, -0.0135750975, 0.000277541 , 923.1301    , 29.4845848  , 778.5964    , 2.62        , 3           , 255         , 0           , 0
-0.119075134, 0.103699848 , -9.796931   , 0.000468055485, -0.00058317685, 0.000599946536, -0.0101590613, -0.01358087 , 0.000283599831, 923.1929    , 29.4814625  , 778.5969    , 2.63        , 3           , 255         , 0           , 0
-0.123102084, 0.106740221 , -9.786196   , 0.00032238767, -0.000398771721, -0.000549849, -0.0101557635, -0.0135849137, 0.000278141757, 923.1929    , 29.4814625  , 778.5975    , 2.64        , 3           , 255         , 0           , 0
-0.120789327, 0.1048192   , -9.790868   , 0.00015187898, -3.41556733E-05, -0.000328020222, -0.0101542  , -0.013585289, 0.000274864928, 923.1929    , 29.4814625  , 778.598     , 2.65        , 3           , 255         , 0           , 0
-0.125484988, 0.0988418758, -9.796573   , 9.589945E-06, 0.000139757642, 0.000335748715, -0.0101541486, -0.0135838576, 0.0002782083, 923.1929    , 29.4814625  , 778.5986    , 2.66        , 3           , 255         , 0           , 0
-0.141039267, 0.09943492  , -9.802478   , 0.00022298767, -0.000253146747, 0.0008200735, -0.01015203 , -0.0135863051, 0.0002864349, 923.1929    , 29.4814625  , 778.5991    , 2.67        , 3           , 255         , 0           , 0
-0.140686274, 0.105853416 , -9.77885    , 0.000320949359, -0.0006410966, 0.0006990279, -0.0101489173, -0.0135926427, 0.000293490331, 923.1929    , 29.4814625  , 778.5997    , 2.68        , 3           , 255         , 0           , 0
-0.134729549, 0.100293316 , -9.783857   , 0.000213429448, 0.000275441445, 0.0001634672, -0.0101468042, -0.013589872, 0.000295097067, 923.1929    , 29.4814625  , 778.6002    , 2.69        , 3           , 255         , 0           , 0
-0.138536245, 0.111689828 , -9.7954     , -0.000335720455, -0.000452232547, -0.0002733526, -0.0101501253, -0.0135944216, 0.0002924094, 923.1929    , 29.4814625  , 778.600769  , 2.7         , 3           , 255         , 0           , 0
-0.140284687, 0.111856446 , -9.79584    , 7.317867E-07, -0.0007480221, -0.000329587259, -0.0101553053, -0.0135990568, 0.000289260526, 923.1929    , 29.4814625  , 778.5598    , 2.71        , 3           , 255         , 0           , 0
-0.130129814, 0.1149265   , -9.792923   , 0.000122281373, -0.0005193518, 0.0004211873, -0.0101541393, -0.0136042079, 0.000293525227, 923.1929    , 29.4814625  , 778.560059  , 2.72        , 3           , 255         , 0           , 0
-0.13127625 , 0.116555355 , -9.790204   , 0.000153458037, 3.051071E-05, 0.0007928513, -0.0101527125, -0.0136038223, 0.000301450753, 923.1809    , 29.4841766  , 778.5603    , 2.73        , 3           , 255         , 0           , 0
-0.134571716, 0.113902569 , -9.785334   , 4.663266E-05, 0.0001594316, 0.0001348659, -0.0101522645, -0.013602213, 0.0003027832, 923.1809    , 29.4841766  , 778.560547  , 2.74        , 3           , 255         , 0           , 0
-0.138096884, 0.115358993 , -9.789968   , -0.000151863846, -3.799773E-05, -0.000385076215, -0.0101537313, -0.0136026321, 0.00029893624, 923.1809    , 29.4841766  , 778.560852  , 2.75        , 3           , 255         , 0           , 0
-0.13038519 , 0.116275884 , -9.798253   , -0.0001518586, -3.35917575E-05, -0.000147908228, -0.0101552289, -0.0136029832, 0.00029746056, 923.1809    , 29.4841766  , 778.561157  , 2.76        , 3           , 255         , 0           , 0
-0.134200215, 0.112894617 , -9.800665   , -0.0002626797, -0.0003188193, 0.0010260999, -0.0101579959, -0.0136060659, 0.0003077541, 923.1809    , 29.4841766  , 778.561462  , 2.77        , 3           , 255         , 0           , 0
-0.132129982, 0.106912717 , -9.783812   , 8.680578E-05, -0.00045951386, 0.000570599339, -0.0101572061, -0.0136106033, 0.000313506869, 923.1809    , 29.4841766  , 778.561768  , 2.78        , 3           , 255         , 0           , 0
-0.133474052, 0.109576032 , -9.778154   , 4.174374E-05, -0.000704700535, 0.000111352128, -0.0101568038, -0.0136176385, 0.000314692 , 923.1809    , 29.4841766  , 778.5621    , 2.79        , 3           , 255         , 0           , 0
-0.128109261, 0.107413158 , -9.781405   , -0.000126051833, 0.000224487158, -0.000105570587, -0.0101580489, -0.0136154043, 0.000313613447, 923.1809    , 29.4841766  , 778.5624    , 2.8         , 3           , 255         , 0           , 0
-0.126382962, 0.109885432 , -9.789469   , 3.96654359E-05, 3.40006081E-05, -3.797299E-05, -0.0101874722, -0.013615259, 0.000313636323, 923.1809    , 29.4841766  , 778.542664  , 2.81        , 3           , 255         , 0           , 0
-0.137242541, 0.104636826 , -9.799635   , -9.006716E-05, 0.000185470213, 8.551069E-06, -0.0101883728, -0.0136134028, 0.000313702971, 923.1809    , 29.4841766  , 778.542847  , 2.82        , 3           , 255         , 0           , 0
-0.1274676  , 0.100281335 , -9.801302   , 0.000196272624, 0.000186785473, -7.491736E-05, -0.0101864012, -0.013611543, 0.000312934746, 923.1705    , 29.4830227  , 778.543     , 2.83        , 3           , 255         , 0           , 0
-0.118859768, 0.103284463 , -9.78506    , 3.08397E-05 , -0.000391760841, -0.000368572422, -0.0101860426, -0.0136154983, 0.00030928888, 923.1705    , 29.4830227  , 778.5432    , 2.84        , 3           , 255         , 0           , 0
-0.132000566, 0.09576772  , -9.778503   , 0.000483638025, -0.000261684938, -7.79297843E-05, -0.010181196, -0.0136181228, 0.000308536226, 923.1705    , 29.4830227  , 778.5434    , 2.85        , 3           , 255         , 0           , 0
-0.1359698  , 0.09067904  , -9.790972   , -6.24086242E-05, -8.455559E-05, -0.000258136366, -0.0101817856, -0.0136189945, 0.000305963447, 923.1705    , 29.4830227  , 778.5436    , 2.86        , 3           , 255         , 0           , 0
-0.130275652, 0.099334836 , -9.794461   , 0.0005487087, 0.000109052518, 0.000191077183, -0.0101763243, -0.0136178844, 0.0003078631, 923.1705    , 29.4830227  , 778.543762  , 2.87        , 3           , 255         , 0           , 0
-0.123487994, 0.09062674  , -9.787193   , 0.000215250358, -0.000352928415, 0.000120809389, -0.01017419 , -0.013621401, 0.000309107156, 923.1705    , 29.4830227  , 778.543945  , 2.88        , 3           , 255         , 0           , 0
-0.131606981, 0.100330949 , -9.791463   , -0.000365541724, -0.000279462431, -0.000121513265, -0.0101778284, -0.013624209, 0.000307920447, 923.1705    , 29.4830227  , 778.5441    , 2.89        , 3           , 255         , 0           , 0
-0.127989754, 0.110517621 , -9.807746   , -2.16781627E-05, -0.000167170074, 0.000512391853, -0.0101781162, -0.0136258285, 0.000313061464, 923.1705    , 29.4830227  , 778.5443    , 2.9         , 3           , 255         , 0           , 0
-0.130427331, 0.116577409 , -9.800203   , -0.000316442456, -0.000171790947, 0.000282576017, -0.0101827644, -0.0136199836, 0.000315924379, 923.1705    , 29.4830227  , 778.5418    , 2.91        , 3           , 255         , 0           , 0
-0.1378142  , 0.111825608 , -9.789009   , 2.85178539E-05, -7.104874E-05, -0.000755978166, -0.010182377, -0.0136207715, 0.0003083718, 923.1705    , 29.4830227  , 778.542     , 2.92        , 3           , 255         , 0           , 0
-0.139412478, 0.111728407 , -9.796437   , 0.000152807508, -8.363614E-05, -0.00107058755, -0.0101807015, -0.0136217177, 0.00029767424, 923.173767  , 29.4830227  , 778.5422    , 2.93        , 3           , 255         , 0           , 0
-0.131850079, 0.102559052 , -9.799189   , 0.000293587043, -0.000402155682, -2.51274469E-05, -0.0101777641, -0.013625741, 0.0002974639, 923.173767  , 29.4830227  , 778.542358  , 2.94        , 3           , 255         , 0           , 0
-0.133725718, 0.09729755  , -9.799398   , 0.0007403091, 0.000266495277, 0.000531219237, -0.0101704318, -0.0136230215, 0.000302749075, 923.173767  , 29.4830227  , 778.542542  , 2.95        , 3           , 255         , 0           , 0
-0.136838466, 0.0959880054, -9.788041   , 0.0006338687, -0.000153881381, -8.855054E-05, -0.0101640821, -0.0136245694, 0.0003018792, 923.173767  , 29.4830227  , 778.5427    , 2.96        , 3           , 255         , 0           , 0
-0.133098677, 0.0981808156, -9.786187   , -0.000470173167, 0.000274886377, -0.000280827022, -0.0101687452, -0.013621849, 0.000299042935, 923.173767  , 29.4830227  , 778.5429    , 2.97        , 3           , 255         , 0           , 0
-0.1350649  , 0.09529293  , -9.792562   , 0.000478143047, 0.000369974878, 0.000207757592, -0.01016399 , -0.0136181312, 0.0003010829, 923.173767  , 29.4830227  , 778.5431    , 2.98        , 3           , 255         , 0           , 0
-0.135124326, 0.0882008448, -9.78774452 , 0.000359110243, -0.000144430785, 0.0001664918, -0.010160422, -0.013619557, 0.000302762521, 923.173767  , 29.4830227  , 778.5433    , 2.99        , 3           , 255         , 0           , 0
-0.129074126, 0.100424506 , -9.781919   , -5.771796E-05, -0.000138658972, -0.000503546558, -0.01016093 , -0.013620995, 0.0002977411, 923.173767  , 29.4830227  , 778.543457  , 3           , 3           , 0           , 8.449237    , 300
-0.119491264, 0.0995302   , -9.785512   , -0.000256520783, -0.000363386178, 2.76268838E-05, -0.0101674488, -0.0136261052, 0.0002981081, 923.173767  , 29.4830227  , 778.5365    , 3.01        , 3           , 1           , 0           , 0
-0.132759243, 0.0961676762, -9.792101   , 0.000170154439, 7.873331E-05, 0.000503591145, -0.0101658162, -0.0136252679, 0.000303136068, 923.173767  , 29.4830227  , 778.5366    , 3.02        , 3           , 2           , 0           , 0
-0.138520733, 0.10734465  , -9.797396   , 0.0004653093, -0.000599324063, 0.0007486799, -0.0101612648, -0.0136311809, 0.0003106839, 923.1657    , 29.484787   , 778.536743  , 3.03        , 3           , 3           , 0           , 0
-0.127607077, 0.113762751 , -9.795237   , 0.000606054149, -0.00027250417, 4.25592443E-05, -0.0101552121, -0.0136339013, 0.0003111372, 923.1657    , 29.484787   , 778.536865  , 3.04        , 3           , 4           , 0           , 0
-0.128340214, 0.113434687 , -9.798616   , 0.000420093129, 0.0001291465, -3.597408E-05, -0.0101510054, -0.013632616, 0.000310764357, 923.1657    , 29.484787   , 778.537     , 3.05        , 3           , 5           , 0           , 0
-0.128177658, 0.119737707 , -9.79944    , 0.0005953672, 0.000279571745, 0.00034575694, -0.010145098, -0.0136297829, 0.0003141936, 923.1657    , 29.484787   , 778.5371    , 3.06        , 3           , 6           , 0           , 0
-0.135557532, 0.114940152 , -9.792947   , 0.000323164219, -0.000151270535, -0.000111629633, -0.0101418523, -0.0136313066, 0.000313092634, 923.1657    , 29.484787   , 778.537231  , 3.07        , 3           , 7           , 0           , 0
-0.14295575 , 0.118463874 , -9.792438   , 0.0003380031, -0.000210864, -6.07465481E-05, -0.0101384651, -0.0136334216, 0.000312506541, 923.1657    , 29.484787   , 778.537354  , 3.08        , 3           , 8           , 5           , 5
-0.1285717  , 0.1280672   , -9.791971   , 0.000309096358, 8.98306E-05 , -5.11081453E-05, -0.0101353657, -0.0136325285, 0.00031198634, 923.1657    , 29.484787   , 778.5375    , 3.09        , 3           , 9           , 5           , 0.1
-0.1174461  , 0.120373845 , -9.796753   , 0.000109356537, -0.000614415738, -0.0007049633, -0.0101341764, -0.0136387441, 0.0003049989, 923.1657    , 29.484787   , 778.5376    , 3.1         , 3           , 10          , 0.1         , 0.1
-0.124808766, 0.11481569  , -9.790949   , 0.00034955045, -0.0004944084, -0.000387155451, -0.0101515558, -0.0136382449, 0.000301462744, 923.1657    , 29.484787   , 778.542664  , 3.11        , 3           , 11          , 0.00690784864, 0.00690784724
-0.12065766 , 0.10726805  , -9.797347   , 0.0005182691, 3.775768E-05, -0.0006662489, -0.0101462808, -0.0136379339, 0.000294796278, 923.1657    , 29.484787   , 778.542847  , 3.12        , 3           , 12          , 0.174645633 , 0
-0.125526816, 0.111111566 , -9.788799   , 2.61768E-05 , 0.000343364431, -0.0006121771, -0.0101459352, -0.0136345671, 0.000288639567, 923.1779    , 29.48689    , 778.543     , 3.13        , 3           , 13          , 0           , 0
-0.134548858, 0.10334257  , -9.792955   , -0.00051557814, 0.000360277249, -0.00028539254, -0.01015105 , -0.0136309909, 0.000285749062, 923.1779    , 29.48689    , 778.5432    , 3.14        , 3           , 14          , 0.0006981681, 0.00107361656
-0.129137427, 0.09799174  , -9.800448   , -0.000421604025, 0.000109074055, 0.000373681862, -0.0101553164, -0.0136298621, 0.000289474876, 923.1779    , 29.48689    , 778.5434    , 3.15        , 3           , 15          , 0           , 0.000213896827
-0.121226743, 0.0997362658, -9.795764   , -0.000160491385, 0.000267210766, 0.000331941847, -0.0101569667, -0.0136271566, 0.000292767159, 923.1779    , 29.48689    , 778.5436    , 3.16        , 3           , 16          , 0           , 1.401298E-45
-0.12728563 , 0.09077422  , -9.797012   , 0.0004063226, 0.000373754418, 0.000891812262, -0.0101530217, -0.01362333 , 0.000301647524, 923.1779    , 29.48689    , 778.543762  , 3.17        , 3           , 20          , 0           , 0
-0.135381743, 0.09677981  , -9.79265    , -0.0002877573, 0.0006004622, 0.000697753741, -0.0101559935, -0.0136172539, 0.0003085642, 923.1779    , 29.48689    , 778.543945  , 3.18        , 3           , 21          , 0           , 0
-0.129042357, 0.09046747  , -9.793366   , -0.000192439824, 0.0003083276, 0.00047899285, -0.0101579838, -0.0136141218, 0.000313322846, 923.1779    , 29.48689    , 778.5441    , 3.19        , 3           , 22          , 0           , 0
-0.128984958, 0.0969135538, -9.79159    , 0.000505399832, -0.000173398759, 0.0007138377, -0.0101530263, -0.0136157824, 0.000320478954, 923.1779    , 29.48689    , 778.5443    , 3.2         , 3           , 40          , 0           , 0
-0.130118564, 0.091638    , -9.784871   , -6.82393438E-05, 0.000125488034, 0.0005665513, -0.010156041, -0.0136055015, 0.000326162466, 923.1779    , 29.48689    , 778.5314    , 3.21        , 3           , 41          , 0           , 0
-0.135473341, 0.08655928  , -9.793879   , 6.72016758E-05, -7.349136E-05, -2.34453619E-05, -0.0101553649, -0.0136062382, 0.000325935456, 923.1779    , 29.48689    , 778.5315    , 3.22        , 3           , 42          , 0           , 0
-0.13625066 , 0.0943223238, -9.791166   , 0.000377991877, -0.0005444896, 0.000177870024, -0.0101516107, -0.0136116641, 0.000327769434, 923.182739  , 29.4851265  , 778.5316    , 3.23        , 3           , 255         , 0           , 0
-0.129543811, 0.103844643 , -9.790885   , 0.0010213377, -0.000166829559, 0.000873141631, -0.0101415161, -0.0136132454, 0.000336517929, 923.182739  , 29.4851265  , 778.531738  , 3.24        , 3           , 255         , 0           , 0
-0.122108363, 0.111169361 , -9.79702    , 0.000813313934, -0.0004679162, 0.000278758176, -0.010133422, -0.0136178955, 0.000339353 , 923.182739  , 29.4851265  , 778.53186   , 3.25        , 3           , 255         , 0           , 0
-0.1254391  , 0.11150378  , -9.798387   , 0.000163616089, -0.00029429968, -0.0007264352, -0.0101316869, -0.0136209112, 0.000332118332, 923.182739  , 29.4851265  , 778.532     , 3.26        , 3           , 255         , 0           , 0
-0.134374976, 0.109912    , -9.796676   , 0.000329133531, 0.000145906117, -0.000193968008, -0.0101283686, -0.0136194723, 0.0003301638, 923.182739  , 29.4851265  , 778.5321    , 3.27        , 3           , 255         , 0           , 0
-0.124244019, 0.11380931  , -9.780714   , 0.000276136037, 0.0005641957, -0.000166057085, -0.010125584, -0.0136138517, 0.000328446127, 923.182739  , 29.4851265  , 778.5322    , 3.28        , 3           , 255         , 0           , 0
-0.127899915, 0.111159839 , -9.786303   , 0.000238244946, 0.000203269068, 0.0003367231, -0.0101232482, -0.0136117823, 0.0003317928, 923.182739  , 29.4851265  , 778.532349  , 3.29        , 3           , 255         , 0           , 0
-0.134209156, 0.119071044 , -9.803217   , 0.0002646112, -0.000320794759, -3.02992266E-05, -0.0101205986, -0.0136149935, 0.0003315223, 923.182739  , 29.4851265  , 778.5325    , 3.3         , 3           , 255         , 0           , 0
-0.130641088, 0.111568473 , -9.804838   , 0.000171228254, -0.0006570879, -0.001254932, -0.0101289805, -0.013615936, 0.000319178973, 923.182739  , 29.4851265  , 778.5141    , 3.31        , 3           , 255         , 0           , 0
-0.130590945, 0.100876138 , -9.793918   , 0.0006887091, -0.00020998047, -0.000158922528, -0.010122072, -0.0136180539, 0.000317610975, 923.182739  , 29.4851265  , 778.5141    , 3.32        , 3           , 255         , 0           , 0
-0.127963871, 0.103848681 , -9.783364   , 0.000448803068, -0.000429173349, 0.0005995099, -0.0101176649, -0.0136222821, 0.0003236496, 923.1582    , 29.48472    , 778.5141    , 3.33        , 3           , 255         , 0           , 0
-0.133869454, 0.106124043 , -9.780799   , 0.0007237005, -0.000141300028, -6.067552E-06, -0.0101104286, -0.0136236958, 0.00032360325, 923.1582    , 29.48472    , 778.5141    , 3.34        , 3           , 255         , 0           , 0
-0.12828353 , 0.09658657  , -9.78611    , 6.02333457E-05, 0.000288567622, 0.0003422579, -0.0101098716, -0.0136207743, 0.000326996727, 923.1582    , 29.48472    , 778.5141    , 3.35        , 3           , 255         , 0           , 0
-0.131163508, 0.10328535  , -9.79954052 , -1.8342922E-05, -0.000171132036, 5.445673E-05, -0.0101100635, -0.0136224795, 0.000327558577, 923.1582    , 29.48472    , 778.5141    , 3.36        , 3           , 255         , 0           , 0
-0.136323839, 0.0961024   , -9.797907   , 0.00046861975, -7.98711553E-05, 0.000613817654, -0.0101054609, -0.0136232153, 0.000333704927, 923.1582    , 29.48472    , 778.5141    , 3.37        , 3           , 255         , 0           , 0
-0.13576898 , 0.09614763  , -9.783974   , 0.000396403251, -0.000241166563, 0.000349082635, -0.0101015475, -0.013625592, 0.0003372202, 923.1582    , 29.48472    , 778.5141    , 3.38        , 3           , 255         , 0           , 0
-0.130997032, 0.0926844552, -9.779124   , 0.000516736531, -0.000440632924, 0.000290819269, -0.01009642 , -0.0136299683, 0.000340172963, 923.1582    , 29.48472    , 778.5141    , 3.39        , 3           , 255         , 0           , 0
-0.125907376, 0.10658516  , -9.793156   , -0.000104725594, -0.000146664446, 3.34898359E-05, -0.0100974711, -0.0136314314, 0.000340522645, 923.1582    , 29.48472    , 778.5141    , 3.4         , 3           , 255         , 0           , 0
-0.125489876, 0.104011476 , -9.797659   , 0.0003300755, -0.000124772545, -0.00054143637, -0.01009883 , -0.0136283366, 0.000335185265, 923.1582    , 29.48472    , 778.532959  , 3.41        , 3           , 255         , 0           , 0
-0.129578084, 0.1081502   , -9.796488   , 0.000797450659, -0.000255456485, -0.0005807034, -0.0100907767, -0.0136309508, 0.0003294039, 923.1582    , 29.48472    , 778.5331    , 3.42        , 3           , 255         , 0           , 0
-0.130903885, 0.105274223 , -9.799445   , 0.00081369176, -0.000175346737, -0.000175428839, -0.0100826165, -0.0136327222, 0.00032766728, 923.1827    , 29.48723    , 778.5332    , 3.43        , 3           , 255         , 0           , 0
-0.129956692, 0.103051268 , -9.78508949 , 0.000206140045, -0.0007709302, -0.0002238331, -0.0100805257, -0.013640454, 0.00032550664, 923.1827    , 29.48723    , 778.5333    , 3.44        , 3           , 255         , 0           , 0
-0.128580317, 0.108365819 , -9.783817   , -0.000210428785, -0.0004887816, -0.000264143222, -0.0100825941, -0.0136453658, 0.00032291442, 923.1827    , 29.48723    , 778.533447  , 3.45        , 3           , 255         , 0           , 0
-0.1405545  , 0.1089499   , -9.792706   , 0.000161469565, -0.000335357036, -0.0008523656, -0.0100808637, -0.0136488052, 0.000314424426, 923.1827    , 29.48723    , 778.533569  , 3.46        , 3           , 255         , 0           , 0
-0.1421065  , 0.110312775 , -9.796191   , 0.000342393527, -0.000598470331, -0.0004118221, -0.0100773862, -0.0136548318, 0.000310366449, 923.1827    , 29.48723    , 778.5337    , 3.47        , 3           , 255         , 0           , 0
-0.135506839, 0.112062    , -9.803023   , 0.000335561461, -0.0003809214, 0.000421653473, -0.0100740883, -0.013658599, 0.0003146215, 923.1827    , 29.48723    , 778.5338    , 3.48        , 3           , 255         , 0           , 0
-0.132529244, 0.124590136 , -9.784369   , 0.000338301761, -0.0001314492, 0.000161844539, -0.0100707281, -0.0136598973, 0.0003162532, 923.1827    , 29.48723    , 778.533936  , 3.49        , 3           , 255         , 0           , 0
-0.123783931, 0.1198498   , -9.789064   , 5.87186078E-05, -0.0006358716, 0.000258377462, -0.0100701768, -0.01366623 , 0.00031890106, 923.1827    , 29.48723    , 778.5341    , 3.5         , 3           , 255         , 0           , 0
-0.114350691, 0.11087358  , -9.794421   , -0.0005258751, -0.0001548992, -0.0001956022, -0.0100939553, -0.0136650726, 0.000317214057, 923.1827    , 29.48723    , 778.515564  , 3.51        , 3           , 255         , 0           , 0
-0.1357633  , 0.11345464  , -9.793729   , -0.0002567991, -0.000966809632, 0.000158915267, -0.0100965481, -0.0136747221, 0.000318900857, 923.1827    , 29.48723    , 778.5156    , 3.52        , 3           , 255         , 0           , 0
-0.140262991, 0.110757567 , -9.794783   , 0.0002835564, -0.000317331054, -0.0005860402, -0.0100936331, -0.0136779547, 0.000313072378, 923.166565  , 29.4839725  , 778.5157    , 3.53        , 3           , 255         , 0           , 0
-0.136452183, 0.1063598   , -9.78788948 , 0.0005010023, -0.000183309545, -0.0002500447, -0.010088589, -0.0136798155, 0.000310590374, 923.166565  , 29.4839725  , 778.515747  , 3.54        , 3           , 255         , 0           , 0
-0.129708588, 0.101339117 , -9.775245   , 0.000590445939, 9.918341E-05, -0.0008173586, -0.0100825736, -0.0136789037, 0.000302406668, 923.166565  , 29.4839725  , 778.5158    , 3.55        , 3           , 255         , 0           , 0
-0.1315336  , 0.1010219   , -9.784197   , 0.000135893 , -0.000269593438, -0.000218674119, -0.010081185, -0.0136816213, 0.000300247048, 923.166565  , 29.4839725  , 778.515869  , 3.56        , 3           , 255         , 0           , 0
-0.129449   , 0.101000272 , -9.790612   , 0.000396611751, 0.000155493617, -0.000127274019, -0.0100772036, -0.013680079, 0.00029895865, 923.166565  , 29.4839725  , 778.5159    , 3.57        , 3           , 255         , 0           , 0
-0.124969982, 0.09078568  , -9.792652   , 0.000234936888, 0.000817688648, -6.684361E-05, -0.0100748437, -0.0136719123, 0.0002982078, 923.166565  , 29.4839725  , 778.516     , 3.58        , 3           , 255         , 0           , 0
-0.126290455, 0.0968795046, -9.791893   , 0.0007259995, 0.000337489764, 0.000134265923, -0.0100676017, -0.0136685241, 0.0002995165, 923.166565  , 29.4839725  , 778.516052  , 3.59        , 3           , 255         , 0           , 0
-0.1229668  , 0.09908072  , -9.785431   , 0.00082349556, 0.000167046092, 0.000809796737, -0.0100594768, -0.01366677 , 0.000307597831, 923.166565  , 29.4839725  , 778.5161    , 3.6         , 3           , 255         , 0           , 0
-0.129634812, 0.09951618  , -9.783313   , -0.000108215841, 0.000104680657, 0.0011211388, -0.0100701619, -0.0136554819, 0.000318927981, 923.166565  , 29.4839725  , 778.523132  , 3.61        , 3           , 255         , 0           , 0
-0.1236438  , 0.09835706  , -9.803788   , -0.000133838854, -0.000289709249, 0.000186837875, -0.0100715272, -0.0136583578, 0.000320825522, 923.166565  , 29.4839725  , 778.523254  , 3.62        , 3           , 255         , 0           , 0
-0.132193565, 0.09087098  , -9.774703   , 0.000241629488, -0.00018769817, 0.0005431298, -0.0100691877, -0.0136601795, 0.000326275767, 923.1395    , 29.4860764  , 778.5234    , 3.63        , 3           , 255         , 0           , 0
-0.121930458, 0.09297262  , -9.788343   , 0.000350324961, 0.000129580265, 0.000167310427, -0.0100657064, -0.0136588681, 0.0003279359, 923.1395    , 29.4860764  , 778.5235    , 3.64        , 3           , 255         , 0           , 0
-0.122353934, 0.101884842 , -9.792691   , 0.0003358061, -0.0002472148, 0.000152389679, -0.0100623695, -0.013661325, 0.0003294847, 923.1395    , 29.4860764  , 778.5236    , 3.65        , 3           , 255         , 0           , 0
-0.1310603  , 0.110098228 , -9.786669   , 3.16222431E-05, 6.524986E-05, -0.000491765037, -0.0100619849, -0.0136607215, 0.000324560446, 923.1395    , 29.4860764  , 778.523743  , 3.66        , 3           , 255         , 0           , 0
-0.133386165, 0.115056574 , -9.794309   , -0.000182879216, 3.92468646E-05, -9.920303E-05, -0.0100638019, -0.01366034 , 0.000323564425, 923.1395    , 29.4860764  , 778.523865  , 3.67        , 3           , 255         , 0           , 0
-0.131154239, 0.114258483 , -9.793889   , 3.08327726E-05, -0.000307012582, -0.0001822798, -0.0100634694, -0.013663427, 0.000321772473, 923.1395    , 29.4860764  , 778.524     , 3.68        , 3           , 255         , 0           , 0
-0.135143489, 0.118039086 , -9.790339   , 0.000122100057, -0.000404499, 0.0003662419, -0.0100622978, -0.0136674363, 0.000325475674, 923.1395    , 29.4860764  , 778.5241    , 3.69        , 3           , 255         , 0           , 0
-0.1359322  , 0.1254749   , -9.799836   , 6.107392E-05, -0.000840530847, -0.000176877773, -0.0100616636, -0.0136758564, 0.000323791435, 923.1395    , 29.4860764  , 778.524231  , 3.7         , 3           , 255         , 0           , 0
-0.136707872, 0.119115315 , -9.7989     , 0.000321502739, -0.000942167, -0.000270937657, -0.01007295 , -0.0136779333, 0.0003213756, 923.1395    , 29.4860764  , 778.5685    , 3.71        , 3           , 255         , 0           , 0
-0.138001949, 0.11441233  , -9.781794   , -0.00018498837, -0.000232391, -0.0007224823, -0.0100747021, -0.01368033 , 0.000314174045, 923.1395    , 29.4860764  , 778.568848  , 3.72        , 3           , 255         , 0           , 0
-0.142847657, 0.10321746  , -9.781415   , 0.000103304978, -5.920464E-05, -0.0004591472, -0.0100736059, -0.0136809675, 0.000309588475, 923.1825    , 29.4858723  , 778.5692    , 3.73        , 3           , 255         , 0           , 0
-0.129011   , 0.107348785 , -9.777742   , 8.616148E-05, 0.00038167974, -0.000178282527, -0.0100727193, -0.01367717 , 0.0003077672, 923.1825    , 29.4858723  , 778.5696    , 3.74        , 3           , 255         , 0           , 0
-0.123881675, 0.109212339 , -9.777788   , 1.02847116E-06, 0.0002288731, -0.0002064176, -0.01007268 , -0.0136749018, 0.000305679918, 923.1825    , 29.4858723  , 778.569946  , 3.75        , 3           , 255         , 0           , 0
-0.1303263  , 0.100182518 , -9.799772   , 0.0002775726, 0.000152167748, 2.27334385E-06, -0.0100699058, -0.01367338 , 0.000305687339, 923.1825    , 29.4858723  , 778.5703    , 3.76        , 3           , 255         , 0           , 0
-0.127563462, 0.104982078 , -9.809209   , 0.000707735948, -3.54560325E-05, -0.000604435452, -0.0100627458, -0.0136737954, 0.0002996464, 923.1825    , 29.4858723  , 778.5707    , 3.77        , 3           , 255         , 0           , 0
-0.12686035 , 0.0952730253, -9.797134   , 0.00134235132, -0.000156378723, -0.000451219385, -0.0100492612, -0.0136754019, 0.000295149861, 923.1825    , 29.4858723  , 778.571045  , 3.78        , 3           , 255         , 0           , 0
-0.1304662  , 0.09471469  , -9.789619   , 0.000283908274, -0.0005173554, -0.000187407379, -0.0100463964, -0.013680594, 0.0002933277, 923.1825    , 29.4858723  , 778.5714    , 3.79        , 3           , 255         , 0           , 0
-0.126421362, 0.102719508 , -9.776143   , -0.000150695734, -0.000221982249, -0.000392238348, -0.0100478493, -0.0136828534, 0.000289427582, 923.1825    , 29.4858723  , 778.5718    , 3.8         , 3           , 255         , 0           , 0
-0.130270109, 0.09936722  , -9.792212   , -8.60945438E-05, 1.37571478E-05, 0.000403111073, -0.0100623  , -0.0136771128, 0.000293642515, 923.1825    , 29.4858723  , 778.5483    , 3.81        , 3           , 255         , 0           , 0
-0.13189739 , 0.10244026  , -9.795788   , 0.000251861464, -9.518466E-06, -0.000176429457, -0.0100597581, -0.0136772254, 0.000291879143, 923.1825    , 29.4858723  , 778.5485    , 3.82        , 3           , 255         , 0           , 0
-0.126493722, 0.101672076 , -9.790582   , -2.88971351E-05, 6.955548E-05, 0.0009787284, -0.01006018 , -0.0136764338, 0.0003016596, 923.160034  , 29.48567    , 778.548767  , 3.83        , 3           , 255         , 0           , 0
-0.127920017, 0.101963758 , -9.788515   , 6.42366358E-05, -0.000255601015, 0.000116378913, -0.0100595541, -0.0136789754, 0.0003028491, 923.160034  , 29.48567    , 778.549     , 3.84        , 3           , 255         , 0           , 0
