Acc X       , Acc Y       , Acc Z       , Gyro X      , Gyro Y      , Gyro Z      , Euler X     , Euler Y     , Euler Z     , Pres X      , Pres Y      , Pres Z      , Time        , Status      , LowRate X   , LowRate Y   , LowRate Z    
-0.14343144 , 0.145790532 , -9.784847   , 0           , 0           , 0           , -0.01489852 , -0.01465585 , 0           , 921.2071    , 32.10403    , 796.1652    , 0           , 2           , 0           , 5.46923161  , 0
-0.150500745, 0.142387211 , -9.787612   , 3.50509363E-05, -0.000355073658, -0.000266941526, -0.0148982834, -0.01465958 , -2.61643163E-06, 921.2071    , 32.10403    , 796.1652    , 0.01        , 3           , 1           , 0           , 0
-0.151515692, 0.141076684 , -9.79237    , 0.000153422719, -0.000368524983, 0.000102425627, -0.0148967654, -0.0146632483, -1.53730582E-06, 921.2071    , 32.10403    , 796.1652    , 0.02        , 3           , 2           , 0           , 0
-0.13642624 , 0.150052309 , -9.784863   , -0.000269061915, -0.000177138136, -0.000442729244, -0.0148993907, -0.014665083, -5.93808954E-06, 921.149     , 31.6735744  , 796.1652    , 0.03        , 3           , 3           , 0           , 0
-0.140829653, 0.14482294  , -9.792537   , -0.000357765035, -0.000106149528, -0.000676812138, -0.0149028683, -0.0146662472, -1.26901914E-05, 921.149     , 31.6735744  , 796.1652    , 0.04        , 3           , 4           , 0           , 0
-0.141746789, 0.144455925 , -9.795156   , 0.000245982868, -0.0002266884, -0.0006564909, -0.0149003128, -0.0146686109, -1.92211246E-05, 921.149     , 31.6735744  , 796.1652    , 0.05        , 3           , 5           , 0           , 0
-0.14423582 , 0.138673589 , -9.795459   , 0.000293959456, 0.0002525676, -0.0001566566, -0.0148973512, -0.0146661084, -2.0825275E-05, 921.149     , 31.6735744  , 796.1652    , 0.06        , 3           , 6           , 0           , 0
-0.141683042, 0.15108493  , -9.783251   , 0.000310388335, -6.05328241E-05, -0.0006956656, -0.0148941437, -0.0146668172, -2.77727231E-05, 921.149     , 31.6735744  , 796.1652    , 0.07        , 3           , 7           , 0           , 0
-0.142073572, 0.145359352 , -9.791845   , 0.000220473172, -8.754217E-05, -0.0002628358, -0.0148919011, -0.0146677317, -3.03879751E-05, 921.149     , 31.6735744  , 796.1652    , 0.08        , 3           , 8           , 5           , 5
-0.142239973, 0.143463209 , -9.791811   , -0.000253704, -7.815048E-05, 8.260731E-05, -0.01489445 , -0.014668501, -2.95502923E-05, 921.149     , 31.6735744  , 796.1652    , 0.09        , 3           , 9           , 5           , 0.1
-0.136085987, 0.143300444 , -9.79127    , 0.000749367755, 8.174166E-05, 0.0008774471, -0.0148870861, -0.0146675548, -2.07882058E-05, 921.149     , 31.6735744  , 796.1652    , 0.1         , 3           , 10          , 0.1         , 0.1
-0.140415922, 0.14786379  , -9.797586   , -0.000145598984, 0.000189662358, -0.0005391988, -0.0148818279, -0.0146615915, -2.63055626E-05, 921.149     , 31.6735744  , 796.6885    , 0.11        , 3           , 11          , 0.0109544508, 0.0109544508
-0.130123526, 0.15020296  , -9.791791   , -0.000203603791, 0.000490468 , -0.0004252929, -0.0148838023, -0.01465675 , -3.06313632E-05, 921.149     , 31.6735744  , 796.6885    , 0.12        , 3           , 12          , 0.174642488 , 0
-0.136224851, 0.152805075 , -9.785639   , 0.000275712751, 0.00027384545, -0.0008722125, -0.014880917, -0.0146541456, -3.93939772E-05, 921.1056    , 31.7084446  , 796.6885    , 0.13        , 3           , 13          , 0           , 0
-0.13744244 , 0.151567146 , -9.789652   , -0.000130736473, 0.000457205315, -0.000410174049, -0.0148821641, -0.0146496333, -4.35636357E-05, 921.1056    , 31.7084446  , 796.6885    , 0.14        , 3           , 14          , -0.00039269487, -0.0006263189
-0.1367426  , 0.149696752 , -9.792612   , -0.0005421862, -1.70788262E-05, -0.000441131036, -0.014887521, -0.0146498708, -4.79722767E-05, 921.1056    , 31.7084446  , 796.6885    , 0.15        , 3           , 15          , 0           , -8.401888E-05
-0.14020744 , 0.154103577 , -9.794879   , 3.5950623E-05, -7.139618E-05, -0.000317079772, -0.0148871141, -0.0146506317, -5.11323524E-05, 921.1056    , 31.7084446  , 796.6885    , 0.16        , 3           , 16          , 0           , 1.401298E-45
-0.14994742 , 0.163440585 , -9.793238   , 0.000377143529, -3.094616E-05, 0.000407538348, -0.0148834027, -0.01465088 , -4.705247E-05, 921.1056    , 31.7084446  , 796.6885    , 0.17        , 3           , 20          , 0           , 0
-0.1382977  , 0.1535335   , -9.796929   , -3.78026161E-05, 0.000132029818, 5.26700242E-05, -0.0148837892, -0.0146495523, -4.654544E-05, 921.1056    , 31.7084446  , 796.6885    , 0.18        , 3           , 21          , 0           , 0
-0.137444109, 0.150843933 , -9.790453   , 0.000192527485, -0.000349274371, 0.00048010418, -0.014881934, -0.014652973, -4.169255E-05, 921.1056    , 31.7084446  , 796.6885    , 0.19        , 3           , 22          , 0           , 0
-0.143562615, 0.152197361 , -9.791474   , -0.000150318461, 0.000621856656, 0.000245254021, -0.0148834726, -0.0146467183, -3.93326227E-05, 921.1056    , 31.7084446  , 796.688538  , 0.2         , 3           , 40          , 0           , 0
-0.138808683, 0.140558243 , -9.787813   , -0.000358475925, 0.000554505037, -0.0001176363, -0.0149134714, -0.0146240536, -4.02049263E-05, 921.1056    , 31.7084446  , 796.8846    , 0.21        , 3           , 41          , 0           , 0
-0.140412688, 0.13911216  , -9.790265   , 0.000144424033, 1.38117466E-05, 0.000342243846, -0.0149120763, -0.0146238618, -3.67846624E-05, 921.1056    , 31.7084446  , 796.884644  , 0.22        , 3           , 42          , 0           , 0
-0.141863674, 0.146411389 , -9.796991   , -0.000106101535, -0.000115910079, 0.0006311142, -0.0149132311, -0.0146249272, -3.04564055E-05, 921.1521    , 31.7374821  , 796.8847    , 0.23        , 3           , 255         , 0           , 0
-0.142699778, 0.143068388 , -9.789898   , 0.000219057692, 0.000105785381, 0.000385567953, -0.0149110956, -0.0146238115, -2.66166262E-05, 921.1521    , 31.7374821  , 796.884766  , 0.24        , 3           , 255         , 0           , 0
-0.144549489, 0.151380375 , -9.792311   , -0.000185415527, -8.766394E-05, -8.261211E-05, -0.0149129387, -0.0146247009, -2.74296326E-05, 921.1521    , 31.7374821  , 796.8848    , 0.25        , 3           , 255         , 0           , 0
-0.136316389, 0.152432173 , -9.785137   , -3.0858122E-05, -0.000431834254, 0.000129516 , -0.0149132665, -0.014628998, -2.60701072E-05, 921.1521    , 31.7374821  , 796.8849    , 0.26        , 3           , 255         , 0           , 0
-0.136071652, 0.151556417 , -9.784025   , 0.000528105651, -4.919863E-05, 0.000660918769, -0.0149080819, -0.01462939 , -1.945378E-05, 921.1521    , 31.7374821  , 796.884949  , 0.27        , 3           , 255         , 0           , 0
-0.137321144, 0.153114438 , -9.800481   , -0.000381562772, -9.133422E-05, 0.000374948024, -0.0149119524, -0.0146302488, -1.569079E-05, 921.1521    , 31.7374821  , 796.885     , 0.28        , 3           , 255         , 0           , 0
-0.133678526, 0.158044726 , -9.792341   , 8.799182E-05, 2.51263846E-05, 8.582593E-05, -0.0149110854, -0.0146299843, -1.48363188E-05, 921.1521    , 31.7374821  , 796.8851    , 0.29        , 3           , 255         , 0           , 0
-0.1336265  , 0.15890272  , -9.793715   , -0.000243168062, -6.05978421E-05, 7.4411364E-05, -0.0149135292, -0.0146305794, -1.40831771E-05, 921.1521    , 31.7374821  , 796.885132  , 0.3         , 3           , 255         , 0           , 0
-0.132652551, 0.149662733 , -9.792325   , 0.00014829362, 0.000366819382, -0.0003806873, -0.0149258832, -0.0146080414, -1.7741675E-05, 921.1521    , 31.7374821  , 796.8105    , 0.31        , 3           , 255         , 0           , 0
-0.142780632, 0.148592323 , -9.791576   , 0.000146092061, 0.0003920865, 0.000151637592, -0.0149244424, -0.0146040972, -1.628387E-05, 921.1521    , 31.7374821  , 796.810547  , 0.32        , 3           , 255         , 0           , 0
-0.149830639, 0.153498173 , -9.785306   , -5.196518E-06, -0.000339185062, -0.0006217529, -0.0149244042, -0.0146075813, -2.2450582E-05, 921.1318    , 31.7509136  , 796.8106    , 0.33        , 3           , 255         , 0           , 0
-0.142233461, 0.149437964 , -9.795665   , -0.000303893321, -0.000330298382, -0.0007806976, -0.01492733 , -0.014611   , -3.02080225E-05, 921.1318    , 31.7509136  , 796.810669  , 0.34        , 3           , 255         , 0           , 0
-0.135641322, 0.140217736 , -9.792394   , 0.000162620228, 7.69755E-05 , -0.00058237504, -0.0149256177, -0.0146103166, -3.60430931E-05, 921.1318    , 31.7509136  , 796.8107    , 0.35        , 3           , 255         , 0           , 0
-0.1440626  , 0.137593538 , -9.785707   , -0.0005224388, -0.000112215, 0.000157832459, -0.0149308657, -0.0146114156, -3.44480723E-05, 921.1318    , 31.7509136  , 796.8108    , 0.36        , 3           , 255         , 0           , 0
-0.146744013, 0.145675108 , -9.793765   , 5.529783E-05, -0.000110005843, -0.000334113429, -0.0149302641, -0.0146125657, -3.777269E-05, 921.1318    , 31.7509136  , 796.810852  , 0.37        , 3           , 255         , 0           , 0
-0.138135731, 0.1506794   , -9.792048   , -6.036539E-05, 0.0002038703, -2.864551E-05, -0.0149308639, -0.0146105317, -3.808956E-05, 921.1318    , 31.7509136  , 796.8109    , 0.38        , 3           , 255         , 0           , 0
-0.136847809, 0.1463627   , -9.798155   , -0.000736057758, 0.000178249931, 0.000968755165, -0.0149383638, -0.0146086039, -2.84289272E-05, 921.1318    , 31.7509136  , 796.811     , 0.39        , 3           , 255         , 0           , 0
-0.136311978, 0.1390664   , -9.793193   , -0.0004442431, -0.000233479019, 0.0008744145, -0.0149429357, -0.0146108093, -1.96501333E-05, 921.1318    , 31.7509136  , 796.811035  , 0.4         , 3           , 255         , 0           , 0
-0.135486573, 0.134582758 , -9.790918   , -0.0004498229, 3.20158433E-05, 0.000344084285, -0.014947148, -0.0146009335, -1.62190827E-05, 921.1318    , 31.7509136  , 796.8197    , 0.41        , 3           , 255         , 0           , 0
-0.152296871, 0.135242119 , -9.793588   , 5.087434E-05, 0.0006146379, 0.000395523937, -0.0149466963, -0.0145947272, -1.23558348E-05, 921.1318    , 31.7509136  , 796.819763  , 0.42        , 3           , 255         , 0           , 0
-0.149300456, 0.153745264 , -9.79638    , 0.000399633544, -0.000238620443, -0.0004991453, -0.0149426274, -0.0145971887, -1.731148E-05, 921.137     , 31.7609539  , 796.8198    , 0.43        , 3           , 255         , 0           , 0
-0.147396937, 0.1513436   , -9.793734   , 2.49279256E-05, 0.000237134489, 0.000740753952, -0.0149424858, -0.0145947095, -9.939594E-06, 921.137     , 31.7609539  , 796.8199    , 0.44        , 3           , 255         , 0           , 0
-0.145517856, 0.145528153 , -9.794048   , -0.000241129455, -7.71046E-05, 0.000416967261, -0.0149449576, -0.0145954164, -5.758522E-06, 921.137     , 31.7609539  , 796.819946  , 0.45        , 3           , 255         , 0           , 0
-0.138398319, 0.153319627 , -9.792543   , -0.000239484449, -0.0003314463, 8.297782E-05, -0.014947366, -0.01459872 , -4.87923126E-06, 921.137     , 31.7609539  , 796.82      , 0.46        , 3           , 255         , 0           , 0
-0.140065581, 0.149262682 , -9.790969   , 0.000399037963, 0.000281920948, -0.000159091316, -0.0149433529, -0.014595923, -6.51222445E-06, 921.137     , 31.7609539  , 796.820068  , 0.47        , 3           , 255         , 0           , 0
-0.143651947, 0.149834424 , -9.79042    , 0.000262123765, -3.33657372E-05, -3.03589186E-05, -0.0149407266, -0.014596262, -6.81081838E-06, 921.137     , 31.7609539  , 796.8201    , 0.48        , 3           , 255         , 0           , 0
-0.149636418, 0.144941539 , -9.790935   , -0.000306776346, -0.0003375418, -5.86659371E-05, -0.0149437869, -0.0145996464, -7.34701871E-06, 921.137     , 31.7609539  , 796.8202    , 0.49        , 3           , 255         , 0           , 0
-0.136853084, 0.1443843   , -9.78558    , -0.000278566644, -0.000269928132, -0.000268871052, -0.0149465334, -0.0146023845, -9.995307E-06, 921.137     , 31.7609539  , 796.820251  , 0.5         , 3           , 255         , 0           , 0
-0.143289745, 0.142299309 , -9.795603   , 7.201088E-05, -4.75096749E-05, 2.13713938E-05, -0.0149453785, -0.0146061536, -9.780905E-06, 921.137     , 31.7609539  , 796.8156    , 0.51        , 3           , 255         , 0           , 0
-0.145515472, 0.140326142 , -9.786459   , 0.000424981234, -0.000524430361, -0.00075413083, -0.014941019, -0.0146115106, -1.724361E-05, 921.137     , 31.7609539  , 796.8157    , 0.52        , 3           , 255         , 0           , 0
-0.152370661, 0.134981424 , -9.793402   , -0.000157994364, -0.0003498628, 0.000261478883, -0.0149426376, -0.0146149686, -1.45766389E-05, 921.169861  , 31.7720814  , 796.815735  , 0.53        , 3           , 255         , 0           , 0
-0.13956435 , 0.138486981 , -9.793093   , -7.54738E-06, -1.08346576E-05, 0.0003827978, -0.014942769, -0.01461502 , -1.07471478E-05, 921.169861  , 31.7720814  , 796.8158    , 0.54        , 3           , 255         , 0           , 0
-0.136649564, 0.142468914 , -9.793816   , -0.000270200515, 0.000234899344, 0.000129134191, -0.0149454894, -0.0146126514, -9.490943E-06, 921.169861  , 31.7720814  , 796.815857  , 0.55        , 3           , 255         , 0           , 0
-0.149279639, 0.144622892 , -9.789526   , 5.919105E-05, -0.000279792643, 1.18329408E-05, -0.0149449  , -0.0146154482, -9.330804E-06, 921.169861  , 31.7720814  , 796.8159    , 0.56        , 3           , 255         , 0           , 0
-0.144335687, 0.148288161 , -9.789064   , 0.0002536797, -0.0004126706, 0.0002691741, -0.0149424011, -0.0146195339, -6.57748433E-06, 921.169861  , 31.7720814  , 796.816     , 0.57        , 3           , 255         , 0           , 0
-0.14557609 , 0.139900342 , -9.796029   , -0.000270761753, -0.000261890469, 0.0005035217, -0.0149451848, -0.0146220755, -1.50328628E-06, 921.169861  , 31.7720814  , 796.81604   , 0.58        , 3           , 255         , 0           , 0
-0.147537157, 0.155962735 , -9.789506   , -0.00035776358, -0.000194164226, 1.06029911E-05, -0.014948763, -0.0146240164, -1.36824463E-06, 921.169861  , 31.7720814  , 796.816162  , 0.59        , 3           , 255         , 0           , 0
-0.144264117, 0.154217809 , -9.789165   , -0.000381009333, 0.000204459648, 0.000190719409, -0.0149526  , -0.0146219432, 5.083309E-07, 921.169861  , 31.7720814  , 796.8163    , 0.6         , 3           , 255         , 0           , 0
-0.142228767, 0.149210975 , -9.793806   , -8.449625E-05, -0.000337491161, -0.000166659767, -0.01494566 , -0.0146314623, -1.22132758E-06, 921.169861  , 31.7720814  , 796.7615    , 0.61        , 3           , 255         , 0           , 0
-0.139992073, 0.158367932 , -9.789724   , 0.000746600446, -3.64605221E-05, -0.0004841429, -0.0149381226, -0.0146319019, -6.05715468E-06, 921.169861  , 31.7720814  , 796.761536  , 0.62        , 3           , 255         , 0           , 0
-0.148147434, 0.155999213 , -9.780698   , -0.000291014585, 1.96921173E-05, 0.0002115558, -0.0149410628, -0.0146316718, -3.94459539E-06, 921.1663    , 31.7754059  , 796.7616    , 0.63        , 3           , 255         , 0           , 0
-0.151212439, 0.144973844 , -9.789333   , 0.000490166771, 0.000323630957, 0.000361431768, -0.0149362134, -0.0146283815, -3.78746876E-07, 921.1663    , 31.7754059  , 796.761658  , 0.64        , 3           , 255         , 0           , 0
-0.138234764, 0.15044558  , -9.787032   , -0.000193991669, -2.1478103E-05, -0.0009135047, -0.0149380192, -0.0146287326, -9.510309E-06, 921.1663    , 31.7754059  , 796.7617    , 0.65        , 3           , 255         , 0           , 0
-0.143259719, 0.148845822 , -9.797354   , -3.590039E-05, -0.000251219724, -0.000438945281, -0.0149383154, -0.0146313105, -1.38621035E-05, 921.1663    , 31.7754059  , 796.7618    , 0.66        , 3           , 255         , 0           , 0
-0.143884107, 0.14382197  , -9.795152   , -0.000203891512, -0.000102172256, -0.000429273263, -0.0149402907, -0.0146323955, -1.813945E-05, 921.1663    , 31.7754059  , 796.761841  , 0.67        , 3           , 255         , 0           , 0
-0.138019741, 0.143503591 , -9.791488   , 0.000268622243, 0.0001360522, -0.00021527955, -0.0149375731, -0.0146310665, -2.03125E-05, 921.1663    , 31.7754059  , 796.7619    , 0.68        , 3           , 255         , 0           , 0
-0.1425778  , 0.140365317 , -9.786131   , 0.000610776 , 1.71895954E-05, -7.755061E-05, -0.0149314534, -0.0146309063, -2.109056E-05, 921.1663    , 31.7754059  , 796.761963  , 0.69        , 3           , 255         , 0           , 0
-0.139453381, 0.1379513   , -9.785884   , 0.000396426243, -0.0004748567, 4.351504E-05, -0.0149274971, -0.0146356476, -2.05845135E-05, 921.1663    , 31.7754059  , 796.762     , 0.7         , 3           , 255         , 0           , 0
-0.128629223, 0.136891812 , -9.798678   , 0.0001615825, -0.000410644861, 0.0005398204, -0.0149303628, -0.0146375475, -1.50607511E-05, 921.1663    , 31.7754059  , 796.727051  , 0.71        , 3           , 255         , 0           , 0
-0.1401921  , 0.146729931 , -9.797478   , -0.0001042886, 0.0001436442, 0.0004726216, -0.0149314729, -0.0146360407, -1.03561142E-05, 921.1663    , 31.7754059  , 796.7271    , 0.72        , 3           , 255         , 0           , 0
-0.1434915  , 0.1454183   , -9.793961   , 0.000338375423, 0.000316015561, 9.067029E-06, -0.0149280922, -0.0146328788, -1.03126276E-05, 921.1288    , 31.7802887  , 796.7272    , 0.73        , 3           , 255         , 0           , 0
-0.139618635, 0.139303192 , -9.792348   , 0.000287389266, -0.000184013508, 0.000177964976, -0.0149252433, -0.0146346912, -8.505574E-06, 921.1288    , 31.7802887  , 796.727234  , 0.74        , 3           , 255         , 0           , 0
-0.143397659, 0.144116968 , -9.793815   , -0.000355341384, -0.000276389823, -0.000680462341, -0.0149286985, -0.0146375569, -1.5268728E-05, 921.1288    , 31.7802887  , 796.7273    , 0.75        , 3           , 255         , 0           , 0
-0.138112828, 0.151976347 , -9.790076   , -0.000268342177, -0.00077861076, -4.55874761E-05, -0.0149313752, -0.01464535 , -1.56083552E-05, 921.1288    , 31.7802887  , 796.727356  , 0.76        , 3           , 255         , 0           , 0
-0.129472852, 0.15310201  , -9.791247   , -0.000662866747, -1.93412416E-05, 0.000141078141, -0.0149380239, -0.0146455206, -1.41947112E-05, 921.1288    , 31.7802887  , 796.7274    , 0.77        , 3           , 255         , 0           , 0
-0.131499827, 0.1465606   , -9.792743   , -0.00049077 , -0.0005393733, 0.0005199419, -0.0149430092, -0.0146508366, -8.91487E-06, 921.1288    , 31.7802887  , 796.7275    , 0.78        , 3           , 255         , 0           , 0
-0.146372586, 0.147515222 , -9.793577   , 0.000176828064, -0.00048264995, 4.78500151E-05, -0.0149412472, -0.0146556525, -8.364263E-06, 921.1288    , 31.7802887  , 796.727539  , 0.79        , 3           , 255         , 0           , 0
-0.14224425 , 0.146195635 , -9.800595   , 0.000261412235, -0.000306166185, -0.0006062096, -0.0149385445, -0.014658805, -1.43804382E-05, 921.1288    , 31.7802887  , 796.7276    , 0.8         , 3           , 255         , 0           , 0
-0.145283848, 0.14503327  , -9.797226   , 0.00023712829, 0.000204312586, -0.000348705653, -0.0149349291, -0.0146428738, -1.79153885E-05, 921.1288    , 31.7802887  , 796.7477    , 0.81        , 3           , 255         , 0           , 0
-0.143608481, 0.147264957 , -9.788325   , 0.000752737455, 8.480216E-06, -0.000133930414, -0.0149273826, -0.0146428132, -1.9255911E-05, 921.1288    , 31.7802887  , 796.7478    , 0.82        , 3           , 255         , 0           , 0
-0.139978051, 0.149323151 , -9.793143   , -9.207061E-05, 6.279349E-05, -0.0005264743, -0.0149282264, -0.0146422619, -2.452986E-05, 921.1407    , 31.7821884  , 796.7479    , 0.83        , 3           , 255         , 0           , 0
-0.142586336, 0.136600822 , -9.790246   , 5.5790937E-05, -0.0002607177, -0.000170267129, -0.0149276443, -0.0146448947, -2.61935566E-05, 921.1407    , 31.7821884  , 796.748047  , 0.84        , 3           , 255         , 0           , 0
-0.142830938, 0.14057681  , -9.798283   , -0.00022959779, 0.000188423437, -0.0005496475, -0.014929859, -0.0146430926, -3.17179874E-05, 921.1407    , 31.7821884  , 796.748169  , 0.85        , 3           , 255         , 0           , 0
-0.138460159, 0.151617974 , -9.787772   , -1.4149351E-05, -0.00013268413, -0.000637391, -0.0149299074, -0.0146445148, -3.8071892E-05, 921.1407    , 31.7821884  , 796.7483    , 0.86        , 3           , 255         , 0           , 0
-0.147347778, 0.143529519 , -9.790238   , 0.000157917239, -7.95181841E-05, 8.390993E-05, -0.0149283418, -0.0146452971, -3.72209579E-05, 921.1407    , 31.7821884  , 796.7484    , 0.87        , 3           , 255         , 0           , 0
-0.152566791, 0.1440548   , -9.80351    , -3.33615171E-05, -0.000129938824, 0.0001315138, -0.0149286948, -0.0146465767, -3.58864636E-05, 921.1407    , 31.7821884  , 796.748535  , 0.88        , 3           , 255         , 0           , 0
-0.152958155, 0.134751633 , -9.790483   , 0.000315367244, -0.000377785182, 5.42217458E-05, -0.0149255488, -0.0146503467, -3.52878742E-05, 921.1407    , 31.7821884  , 796.748657  , 0.89        , 3           , 255         , 0           , 0
-0.144605756, 0.139138773 , -9.787114   , -0.00012561318, 0.000283373141, -4.08082633E-05, -0.0149267986, -0.0146475183, -3.57382378E-05, 921.1407    , 31.7821884  , 796.7488    , 0.9         , 3           , 255         , 0           , 0
-0.135810912, 0.1469111   , -9.784632   , -0.000222147064, 7.103599E-05, 5.16539876E-05, -0.0149200084, -0.0146515723, -3.53644537E-05, 921.1407    , 31.7821884  , 796.75116   , 0.91        , 3           , 255         , 0           , 0
-0.135118857, 0.144750118 , -9.790786   , -8.12046346E-05, -0.000179601077, -0.000228611549, -0.014920787, -0.0146534024, -3.76236931E-05, 921.1407    , 31.7821884  , 796.7513    , 0.92        , 3           , 255         , 0           , 0
-0.141640112, 0.147265866 , -9.796637   , 0.000415122224, 5.878613E-05, -0.000353115756, -0.0149165848, -0.0146528669, -4.11635228E-05, 921.1668    , 31.7876835  , 796.7514    , 0.93        , 3           , 255         , 0           , 0
-0.144528329, 0.149315745 , -9.791627   , 0.000427816645, 8.066808E-05, 0.0002646864, -0.0149123464, -0.01465202 , -3.85287531E-05, 921.1668    , 31.7876835  , 796.7515    , 0.94        , 3           , 255         , 0           , 0
-0.149335057, 0.151696578 , -9.803223   , -0.00010600299, -0.000363695668, 0.0003808713, -0.0149134621, -0.0146555994, -3.466591E-05, 921.1668    , 31.7876835  , 796.751648  , 0.95        , 3           , 255         , 0           , 0
-0.1412843  , 0.1469852   , -9.795615   , -1.78320333E-05, 0.00020262209, 0.0007706389, -0.0149137527, -0.0146534592, -2.69899647E-05, 921.1668    , 31.7876835  , 796.7518    , 0.96        , 3           , 255         , 0           , 0
-0.149167538, 0.149822474 , -9.795924   , -0.000675127842, -4.91586979E-05, 0.000158635841, -0.0149205271, -0.0146539276, -2.539632E-05, 921.1668    , 31.7876835  , 796.7519    , 0.97        , 3           , 255         , 0           , 0
-0.140454039, 0.144764215 , -9.79097748 , -4.295312E-05, -0.000121588819, -0.000182931835, -0.01492093 , -0.014655171, -2.72074431E-05, 921.1668    , 31.7876835  , 796.752     , 0.98        , 3           , 255         , 0           , 0
-0.136694714, 0.149092987 , -9.788377   , -0.000126945117, 2.49301083E-05, 7.259404E-05, -0.01492221 , -0.0146549111, -2.64852479E-05, 921.1668    , 31.7876835  , 796.752136  , 0.99        , 3           , 255         , 0           , 0
-0.140734181, 0.146920428 , -9.79114    , 0.000657961355, -9.094307E-05, -0.0004876018, -0.01491556 , -0.0146558918, -3.13475466E-05, 921.1668    , 31.7876835  , 796.752258  , 1           , 3           , 0           , 6.46923637  , 100
-0.144850492, 0.13451466  , -9.789167   , 0.0003307257, -9.33752744E-05, -0.0007876514, -0.014916989, -0.0146510759, -3.91388421E-05, 921.1668    , 31.7876835  , 796.7255    , 1.01        , 3           , 1           , 0           , 0
-0.14483346 , 0.127561733 , -9.806052   , -0.000194834138, -0.0002395396, -0.000359120371, -0.0149188833, -0.0146535244, -4.26942E-05, 921.1668    , 31.7876835  , 796.725647  , 1.02        , 3           , 2           , 0           , 0
-0.155870751, 0.13957496  , -9.787326   , 0.000139585813, 4.914176E-05, 5.8265472E-05, -0.0149174975, -0.0146530252, -4.21188961E-05, 921.175964  , 31.7894478  , 796.725769  , 1.03        , 3           , 3           , 0           , 0
-0.141153634, 0.127199158 , -9.79129    , -4.51149244E-05, -0.000108023523, -0.000103278166, -0.0149179334, -0.01465412 , -4.313553E-05, 921.175964  , 31.7894478  , 796.7259    , 1.04        , 3           , 4           , 0           , 0
-0.140729129, 0.137586072 , -9.798238   , -0.00045039918, -1.01061887E-05, 0.000337024627, -0.0149224875, -0.0146541717, -3.976387E-05, 921.175964  , 31.7894478  , 796.726     , 1.05        , 3           , 5           , 0           , 0
-0.143025368, 0.126895279 , -9.789057   , -0.000101977959, -0.000321007567, 0.000358062563, -0.0149235586, -0.0146573279, -3.613543E-05, 921.175964  , 31.7894478  , 796.726135  , 1.06        , 3           , 6           , 0           , 0
-0.140853822, 0.133326337 , -9.796779   , -2.92021141E-05, -0.000236721884, -0.000106910717, -0.014923837, -0.01465971 , -3.716918E-05, 921.175964  , 31.7894478  , 796.726257  , 1.07        , 3           , 7           , 0           , 0
-0.140463918, 0.1422086   , -9.79542351 , 5.4819975E-05, -0.000155305548, -0.000536763167, -0.0149232084, -0.0146613428, -4.251349E-05, 921.175964  , 31.7894478  , 796.7264    , 1.08        , 3           , 8           , 5           , 5
-0.141876   , 0.149453163 , -9.793919   , 1.16468873E-05, 5.55010629E-05, 8.71054144E-05, -0.014923105, -0.0146607747, -4.165073E-05, 921.175964  , 31.7894478  , 796.7265    , 1.09        , 3           , 9           , 5           , 0.1
-0.153481871, 0.146979928 , -9.789677   , 0.0005596288, -0.000201735878, -0.000148523191, -0.01491749 , -0.0146628134, -4.31058252E-05, 921.175964  , 31.7894478  , 796.7266    , 1.1         , 3           , 10          , 0.1         , 0.1
-0.143647581, 0.14693214  , -9.789164   , 0.0007704523, -0.0004426312, 0.0002644817, -0.0148842977, -0.0146703115, -4.076954E-05, 921.175964  , 31.7894478  , 796.6942    , 1.11        , 3           , 11          , 0.009165503 , 0.009165503
-0.144122839, 0.146571726 , -9.785966   , 0.0005841416, -0.0006597155, -8.332552E-05, -0.0148784453, -0.0146769211, -4.15046052E-05, 921.175964  , 31.7894478  , 796.6942    , 1.12        , 3           , 12          , 0.174642846 , 0
-0.142277688, 0.155020744 , -9.790022   , -1.68765837E-05, -3.161258E-07, -7.277411E-05, -0.0148786027, -0.0146769341, -4.22322846E-05, 921.158569  , 31.7906685  , 796.6942    , 1.13        , 3           , 13          , 0           , 0
-0.137622282, 0.149870947 , -9.7875     , -0.000131760025, 3.50795453E-05, -0.000217260749, -0.0148798907, -0.0146766165, -4.44100442E-05, 921.158569  , 31.7906685  , 796.6942    , 1.14        , 3           , 14          , -0.0003927269, -0.000626336434
-0.136888057, 0.158055037 , -9.78984451 , -0.0002169009, -0.0003223  , -0.0009939428, -0.0148819136, -0.0146799861, -5.43012247E-05, 921.158569  , 31.7906685  , 796.6943    , 1.15        , 3           , 15          , 0           , -8.401867E-05
-0.133133084, 0.160863981 , -9.789271   , -0.000324609515, 0.0001585602, -5.708447E-05, -0.01488515 , -0.0146784093, -5.48956559E-05, 921.158569  , 31.7906685  , 796.694336  , 1.16        , 3           , 16          , 0           , 1.401298E-45
-0.14076589 , 0.1454081   , -9.796717   , -0.0006754031, -0.000303289446, -1.5485115E-05, -0.0148919029, -0.0146814436, -5.500535E-05, 921.158569  , 31.7906685  , 796.6944    , 1.17        , 3           , 20          , 0           , 0
-0.1432996  , 0.141567126 , -9.792185   , -0.0006055716, -0.00014410587, -0.000468098675, -0.0148978895, -0.0146829523, -5.966473E-05, 921.158569  , 31.7906685  , 796.694458  , 1.18        , 3           , 21          , 0           , 0
-0.143698841, 0.147018522 , -9.794848   , 7.63312E-06 , 4.67484933E-05, 0.000110526089, -0.0148978289, -0.014682468, -5.8566482E-05, 921.158569  , 31.7906685  , 796.6945    , 1.19        , 3           , 22          , 0           , 0
-0.141668528, 0.136202857 , -9.795006   , 2.15329346E-05, 6.003247E-06, 0.000259218854, -0.014897652, -0.0146823693, -5.597524E-05, 921.158569  , 31.7906685  , 796.6946    , 1.2         , 3           , 40          , 0           , 0
-0.140706643, 0.14444156  , -9.78795    , -9.82102938E-05, 0.0002584668, 0.000569328 , -0.0149080846, -0.0146703478, -5.018322E-05, 921.158569  , 31.7906685  , 796.684265  , 1.21        , 3           , 41          , 0           , 0
-0.151331052, 0.144905522 , -9.792213   , 0.0001575663, -5.33118728E-05, 0.0008768216, -0.0149066374, -0.0146707492, -4.14073147E-05, 921.158569  , 31.7906685  , 796.684265  , 1.22        , 3           , 42          , 0           , 0
-0.1466533  , 0.138210326 , -9.78843    , -0.000201682677, -0.000161305361, -3.756158E-05, -0.014908649, -0.0146723688, -4.175888E-05, 921.176636  , 31.7859211  , 796.684265  , 1.23        , 3           , 255         , 0           , 0
-0.141811937, 0.142905757 , -9.791702   , 0.0005692795, 0.0004746134, 0.000321643485, -0.0149030024, -0.014667578, -3.8613267E-05, 921.176636  , 31.7859211  , 796.684265  , 1.24        , 3           , 255         , 0           , 0
-0.145164654, 0.138988122 , -9.795177   , 0.0002423674, -0.000161704607, 0.00024947428, -0.0149006164, -0.0146691557, -3.6094505E-05, 921.176636  , 31.7859211  , 796.684265  , 1.25        , 3           , 255         , 0           , 0
-0.141066819, 0.148550957 , -9.797602   , -0.000217833265, -1.04939681E-05, -0.000124092447, -0.0149027752, -0.01466928 , -3.73338225E-05, 921.176636  , 31.7859211  , 796.684265  , 1.26        , 3           , 255         , 0           , 0
-0.150094077, 0.143188491 , -9.788391   , 0.000290392374, 0.000224808871, 0.000514999 , -0.0148999486, -0.014666955, -3.22174856E-05, 921.176636  , 31.7859211  , 796.684265  , 1.27        , 3           , 255         , 0           , 0
-0.144243479, 0.149923965 , -9.789081   , 0.000357800076, -0.0003015917, 0.00012274913, -0.0148963891, -0.0146699511, -3.09450843E-05, 921.176636  , 31.7859211  , 796.684265  , 1.28        , 3           , 255         , 0           , 0
-0.137389854, 0.155747965 , -9.797745   , 0.000106410938, 1.0614167E-05, -0.000308308779, -0.0148952808, -0.0146698914, -3.40296574E-05, 921.176636  , 31.7859211  , 796.684265  , 1.29        , 3           , 255         , 0           , 0
-0.1465628  , 0.14673841  , -9.795473   , 4.94448759E-05, -0.000197492074, -0.000589493837, -0.0148947  , -0.0146719543, -3.98950178E-05, 921.176636  , 31.7859211  , 796.684265  , 1.3         , 3           , 255         , 0           , 0
-0.146590233, 0.147008687 , -9.791478   , 0.000613216 , 0.000179654831, 0.000217712819, -0.0148870423, -0.0146723995, -3.776754E-05, 921.176636  , 31.7859211  , 796.656433  , 1.31        , 3           , 255         , 0           , 0
-0.131579429, 0.154591829 , -9.793488   , 3.28489114E-06, 0.000160164258, 4.386314E-05, -0.0148870163, -0.0146707911, -3.735278E-05, 921.176636  , 31.7859211  , 796.6564    , 1.32        , 3           , 255         , 0           , 0
-0.129867643, 0.149983972 , -9.793594   , -0.0003027565, -4.96963621E-05, -0.0005140337, -0.0148899686, -0.0146713657, -4.24855534E-05, 921.1184    , 31.7916183  , 796.6563    , 1.33        , 3           , 255         , 0           , 0
-0.135974512, 0.142111436 , -9.791496   , -0.000216345128, -0.0001455425, -0.0004966367, -0.0148920594, -0.014672895, -4.743012E-05, 921.1184    , 31.7916183  , 796.65625   , 1.34        , 3           , 255         , 0           , 0
-0.135499448, 0.139520258 , -9.787748   , 0.00014964708, -1.0867836E-05, -0.0011024354, -0.0148904007, -0.01467317 , -5.84525224E-05, 921.1184    , 31.7916183  , 796.6562    , 1.35        , 3           , 255         , 0           , 0
-0.146284133, 0.145775184 , -9.788174   , 7.969607E-05, -0.000298800238, 0.000212067433, -0.0148896351, -0.0146761239, -5.62873975E-05, 921.1184    , 31.7916183  , 796.6561    , 1.36        , 3           , 255         , 0           , 0
-0.14180851 , 0.153735235 , -9.788429   , 0.000204766213, -0.000257754757, -0.000248312776, -0.0148875508, -0.0146787381, -5.87320828E-05, 921.1184    , 31.7916183  , 796.656067  , 1.37        , 3           , 255         , 0           , 0
-0.141453475, 0.147955447 , -9.788683   , -1.91172E-05, 0.000423992722, -0.000404467224, -0.0148876822, -0.0146745583, -6.283977E-05, 921.1184    , 31.7916183  , 796.656     , 1.38        , 3           , 255         , 0           , 0
-0.144163042, 0.138528928 , -9.788585   , -0.000101681624, -0.00013485126, -0.000898470345, -0.0148885678, -0.014676041, -7.180414E-05, 921.1184    , 31.7916183  , 796.655945  , 1.39        , 3           , 255         , 0           , 0
-0.1436545  , 0.151750416 , -9.791122   , 0.0001699852, 0.000352780771, -0.00040883082, -0.0148868086, -0.0146725737, -7.59448449E-05, 921.1184    , 31.7916183  , 796.6559    , 1.4         , 3           , 255         , 0           , 0
-0.14166674 , 0.151769251 , -9.799116   , -4.13451926E-06, 0.000191588653, -9.547424E-05, -0.0148908673, -0.0146582639, -7.686895E-05, 921.1184    , 31.7916183  , 796.69104   , 1.41        , 3           , 255         , 0           , 0
-0.143360779, 0.147589251 , -9.800867   , -0.000200476556, 0.000259488937, 6.52476E-05 , -0.0148928817, -0.014655659, -7.625513E-05, 921.1184    , 31.7916183  , 796.6911    , 1.42        , 3           , 255         , 0           , 0
-0.14611277 , 0.151807934 , -9.79301    , 6.23024243E-05, 0.000423151185, 0.000220854461, -0.01489229 , -0.0146513954, -7.41096737E-05, 921.1352    , 31.7913475  , 796.6912    , 1.43        , 3           , 255         , 0           , 0
-0.147237748, 0.1579654   , -9.795875   , 0.000252832251, 0.000343822874, -0.0006209129, -0.0148896705, -0.0146480519, -8.036984E-05, 921.1352    , 31.7913475  , 796.691345  , 1.44        , 3           , 255         , 0           , 0
-0.1433642  , 0.151406363 , -9.786534   , 0.00052043586, -0.000122950063, 0.000155504211, -0.0148844887, -0.014649258, -7.879653E-05, 921.1352    , 31.7913475  , 796.691467  , 1.45        , 3           , 255         , 0           , 0
-0.146878511, 0.146275952 , -9.787911   , -0.000326606736, -0.000280698354, -1.79669587E-06, -0.0148877557, -0.014652065, -7.877271E-05, 921.1352    , 31.7913475  , 796.6916    , 1.46        , 3           , 255         , 0           , 0
-0.144205719, 0.14375475  , -9.789911   , -0.000442085438, 0.0002735403, 0.00113013  , -0.0148923406, -0.0146491611, -6.75124538E-05, 921.1352    , 31.7913475  , 796.6917    , 1.47        , 3           , 255         , 0           , 0
-0.140787184, 0.135432661 , -9.799543   , -5.372212E-05, 0.000182657619, 0.000265883224, -0.0148929171, -0.0146472948, -6.48809E-05, 921.1352    , 31.7913475  , 796.691833  , 1.48        , 3           , 255         , 0           , 0
-0.142178327, 0.141932026 , -9.797222   , -7.675565E-05, -7.608923E-05, 0.000158541428, -0.0148937069, -0.0146480314, -6.32842057E-05, 921.1352    , 31.7913475  , 796.691956  , 1.49        , 3           , 255         , 0           , 0
-0.141635567, 0.1476707   , -9.794722   , 0.0002295203, -0.000310855, 0.0007166731, -0.0148915164, -0.0146510331, -5.60713779E-05, 921.1352    , 31.7913475  , 796.6921    , 1.5         , 3           , 255         , 0           , 0
-0.133845285, 0.14910689  , -9.79368    , 7.9704856E-05, 0.00022498332, 0.0003313559, -0.0148946848, -0.014649272, -5.27340344E-05, 921.1352    , 31.7913475  , 796.70636   , 1.51        , 3           , 255         , 0           , 0
-0.1408031  , 0.144200355 , -9.796942   , -0.000485724158, 0.000431045773, -7.894391E-05, -0.01489953 , -0.0146449739, -5.35876643E-05, 921.1352    , 31.7913475  , 796.706543  , 1.52        , 3           , 255         , 0           , 0
-0.144083291, 0.141959161 , -9.793334   , -0.000635592849, 0.000604952162, 0.0001380271, -0.0149059063, -0.0146389045, -5.22975861E-05, 921.115662  , 31.7906017  , 796.7067    , 1.53        , 3           , 255         , 0           , 0
-0.143253669, 0.146722451 , -9.795278   , -8.39965942E-05, -0.000296228041, 3.774413E-05, -0.01490675 , -0.0146418605, -5.187601E-05, 921.115662  , 31.7906017  , 796.7069    , 1.54        , 3           , 255         , 0           , 0
-0.14084132 , 0.141100839 , -9.790372   , -0.000426611834, 0.000416645751, -0.000393482915, -0.0149109578, -0.0146377534, -5.587285E-05, 921.115662  , 31.7906017  , 796.7071    , 1.55        , 3           , 255         , 0           , 0
-0.1447988  , 0.1475989   , -9.788546   , 5.265919E-05, 0.000413930917, -0.000111172456, -0.0149104148, -0.0146336313, -5.7046258E-05, 921.115662  , 31.7906017  , 796.7073    , 1.56        , 3           , 255         , 0           , 0
-0.141316712, 0.161622524 , -9.791143   , -0.000313572731, -7.05382554E-05, 9.146378E-05, -0.0149135645, -0.0146343233, -5.61211273E-05, 921.115662  , 31.7906017  , 796.707458  , 1.57        , 3           , 255         , 0           , 0
-0.13597919 , 0.148507148 , -9.792281   , 0.0003197505, -0.000194477558, -0.000271227153, -0.0149103273, -0.014636308, -5.88043222E-05, 921.115662  , 31.7906017  , 796.707642  , 1.58        , 3           , 255         , 0           , 0
-0.140547216, 0.1455793   , -9.798464   , 0.0003893374, -4.65638E-06, -0.000112458889, -0.0149064176, -0.0146363713, -5.99281848E-05, 921.115662  , 31.7906017  , 796.7078    , 1.59        , 3           , 255         , 0           , 0
-0.149103567, 0.149929523 , -9.785055   , 0.00056557887, -0.0002543063, 0.000336884346, -0.0149008129, -0.0146388635, -5.652154E-05, 921.115662  , 31.7906017  , 796.708     , 1.6         , 3           , 255         , 0           , 0
-0.154914364, 0.147205234 , -9.782613   , 0.000295327569, -0.000278071617, -0.000658341742, -0.014901815, -0.0146369347, -6.3004E-05 , 921.115662  , 31.7906017  , 796.742065  , 1.61        , 3           , 255         , 0           , 0
-0.143106   , 0.144366324 , -9.788575   , -7.020196E-05, 0.000157141418, -0.000450882246, -0.0149024511, -0.0146354306, -6.75361E-05, 921.115662  , 31.7906017  , 796.742432  , 1.62        , 3           , 255         , 0           , 0
-0.127490625, 0.143150434 , -9.795677   , -3.51448543E-05, 3.30199255E-05, -0.0005464701, -0.014902723, -0.014635182, -7.300557E-05, 921.144165  , 31.7943325  , 796.7428    , 1.63        , 3           , 255         , 0           , 0
-0.141915768, 0.1429336   , -9.796106   , 0.000150140739, 0.000217103341, -0.00038022123, -0.0149011659, -0.014633067, -7.684002E-05, 921.144165  , 31.7943325  , 796.743164  , 1.64        , 3           , 255         , 0           , 0
-0.147877157, 0.145633727 , -9.801009   , -4.34588E-05, -0.000389184, 0.0004984869, -0.0149016734, -0.0146368844, -7.17973E-05, 921.144165  , 31.7943325  , 796.7435    , 1.65        , 3           , 255         , 0           , 0
-0.137217551, 0.139716536 , -9.77590752 , -0.000166025129, -0.000662804348, 0.000269439974, -0.0149033749, -0.0146434726, -6.900419E-05, 921.144165  , 31.7943325  , 796.7439    , 1.66        , 3           , 255         , 0           , 0
-0.143810734, 0.144847408 , -9.78784752 , -0.000406412524, -0.000114557508, -0.0004079779, -0.0149073778, -0.0146446778, -7.30667743E-05, 921.144165  , 31.7943325  , 796.744263  , 1.67        , 3           , 255         , 0           , 0
-0.1385757  , 0.1464931   , -9.790292   , 0.000409382279, 0.000220718037, -2.97346487E-05, -0.0149032809, -0.0146424752, -7.3397E-05 , 921.144165  , 31.7943325  , 796.7446    , 1.68        , 3           , 255         , 0           , 0
-0.135387927, 0.141264349 , -9.794973   , 0.0005077443, 0.000206025958, -0.00014697286, -0.0148981828, -0.01464044 , -7.48974E-05, 921.144165  , 31.7943325  , 796.745     , 1.69        , 3           , 255         , 0           , 0
-0.142018273, 0.152863771 , -9.798259   , -1.14672E-06, -0.000147777959, -0.0001396641, -0.0148981735, -0.0146419369, -7.627197E-05, 921.144165  , 31.7943325  , 796.745361  , 1.7         , 3           , 255         , 0           , 0
-0.138091549, 0.143573076 , -9.797972   , 2.89435557E-05, -0.000274347316, 0.000122548037, -0.0148950228, -0.0146390069, -7.50478357E-05, 921.144165  , 31.7943325  , 796.7447    , 1.71        , 3           , 255         , 0           , 0
-0.143683687, 0.150681868 , -9.795603   , -0.000170137151, 0.000412733731, -0.000444714649, -0.01489666 , -0.0146349464, -7.95563246E-05, 921.144165  , 31.7943325  , 796.745056  , 1.72        , 3           , 255         , 0           , 0
-0.143382564, 0.14750424  , -9.787119   , 0.0006257704, 0.0001725064, 7.773786E-05, -0.0148904119, -0.01463321 , -7.880467E-05, 921.1603    , 31.7937222  , 796.7454    , 1.73        , 3           , 255         , 0           , 0
-0.144807473, 0.145413831 , -9.792433   , 0.0004870052, 0.000150325359, -0.000236003718, -0.0148855066, -0.0146317454, -8.118703E-05, 921.1603    , 31.7937222  , 796.7458    , 1.74        , 3           , 255         , 0           , 0
-0.144625485, 0.155002356 , -9.799883   , 7.62273557E-05, -0.0002609915, 1.41720811E-05, -0.0148847476, -0.0146343512, -8.100646E-05, 921.1603    , 31.7937222  , 796.746155  , 1.75        , 3           , 255         , 0           , 0
-0.14334    , 0.153238446 , -9.791473   , -0.000186743157, -4.585384E-05, -0.000372444541, -0.0148865608, -0.0146348653, -8.472397E-05, 921.1603    , 31.7937222  , 796.7465    , 1.76        , 3           , 255         , 0           , 0
-0.138258472, 0.153534338 , -9.7885685  , 0.000453782966, -0.000556462968, 0.000182759133, -0.01488205 , -0.014640402, -8.28136E-05, 921.1603    , 31.7937222  , 796.7469    , 1.77        , 3           , 255         , 0           , 0
-0.1405868  , 0.1542956   , -9.797926   , 0.000382175727, -0.000219159585, 3.143574E-05, -0.0148782348, -0.0146425888, -8.24666349E-05, 921.1603    , 31.7937222  , 796.747253  , 1.78        , 3           , 255         , 0           , 0
-0.140911177, 0.156181723 , -9.793461   , 0.000308162067, -0.000320171879, 0.000233466621, -0.0148751866, -0.0146457534, -8.008442E-05, 921.1603    , 31.7937222  , 796.7476    , 1.79        , 3           , 255         , 0           , 0
-0.152268916, 0.146215171 , -9.787897   , 0.000103124825, -0.000145436381, 0.000227388737, -0.01487419 , -0.0146471737, -7.778897E-05, 921.1603    , 31.7937222  , 796.748     , 1.8         , 3           , 255         , 0           , 0
-0.155113056, 0.14656575  , -9.787909   , -0.000222000672, 0.000340346276, -0.000291289267, -0.01488715 , -0.01464305 , -8.059448E-05, 921.1603    , 31.7937222  , 796.7287    , 1.81        , 3           , 255         , 0           , 0
-0.151371539, 0.138519228 , -9.787135   , -0.000139205047, -5.98250772E-05, 9.36232E-05 , -0.0148885567, -0.0146436347, -7.964937E-05, 921.1603    , 31.7937222  , 796.729     , 1.82        , 3           , 255         , 0           , 0
-0.144994438, 0.138412327 , -9.786557   , -0.000238835142, 0.00021433708, -6.187074E-06, -0.0148909427, -0.0146414926, -7.974315E-05, 921.1746    , 31.7956219  , 796.7293    , 1.83        , 3           , 255         , 0           , 0
-0.137882158, 0.139502466 , -9.789156   , 0.00012167907, -0.000128528452, 0.000615629135, -0.0148898168, -0.0146426857, -7.356789E-05, 921.1746    , 31.7956219  , 796.7296    , 1.84        , 3           , 255         , 0           , 0
-0.144670933, 0.138905257 , -9.79096    , -0.0002779728, -0.0007441703, -0.000594247656, -0.0148925111, -0.0146502135, -7.939939E-05, 921.1746    , 31.7956219  , 796.7299    , 1.85        , 3           , 255         , 0           , 0
-0.14146243 , 0.137650922 , -9.794092   , -1.34507136E-05, -0.000196877634, 0.00033698263, -0.0148926945, -0.0146521321, -7.600034E-05, 921.1746    , 31.7956219  , 796.7302    , 1.86        , 3           , 255         , 0           , 0
-0.136101007, 0.13671726  , -9.798494   , -0.000424276543, -0.000481874449, -0.00034207548, -0.0148968883, -0.0146570019, -7.934922E-05, 921.1746    , 31.7956219  , 796.7305    , 1.87        , 3           , 255         , 0           , 0
-0.1488304  , 0.144543722 , -9.795807   , -0.0002447203, -0.0004884951, -0.000158988347, -0.01489931 , -0.0146619109, -8.086629E-05, 921.1746    , 31.7956219  , 796.730835  , 1.88        , 3           , 255         , 0           , 0
-0.145807639, 0.148159772 , -9.79051    , -0.000206416385, 8.568738E-05, 1.59283081E-05, -0.0149013754, -0.0146610523, -8.071977E-05, 921.1746    , 31.7956219  , 796.73114   , 1.89        , 3           , 255         , 0           , 0
-0.137750655, 0.145187035 , -9.787601   , -0.000395802752, 0.000112247188, -0.0005706047, -0.01490525 , -0.0146600138, -8.644238E-05, 921.1746    , 31.7956219  , 796.731445  , 1.9         , 3           , 255         , 0           , 0
-0.139663488, 0.145778388 , -9.786815   , -0.000205856515, 6.07658876E-05, -0.000246437383, -0.0148956655, -0.0146619892, -8.90859155E-05, 921.1746    , 31.7956219  , 796.6966    , 1.91        , 3           , 255         , 0           , 0
-0.1440032  , 0.149851039 , -9.789639   , -0.0002891202, 0.00021616547, 0.0005355414, -0.0148986345, -0.0146597475, -8.376286E-05, 921.1746    , 31.7956219  , 796.696655  , 1.92        , 3           , 255         , 0           , 0
-0.143320322, 0.142962486 , -9.792814   , -0.0003163839, 4.39900323E-05, 0.000866880349, -0.0149019239, -0.0146591794, -7.510086E-05, 921.1605    , 31.7942657  , 796.6967    , 1.93        , 3           , 255         , 0           , 0
-0.144761637, 0.1480077   , -9.788469   , -0.000123709557, 0.0002981188, 1.36617746E-05, -0.0149031645, -0.0146561954, -7.500869E-05, 921.1605    , 31.7942657  , 796.6968    , 1.94        , 3           , 255         , 0           , 0
-0.153650612, 0.1506414   , -9.789632   , -0.000243206974, -0.000109774468, -0.000893023564, -0.0149054648, -0.0146574276, -8.39223E-05, 921.1605    , 31.7942657  , 796.696838  , 1.95        , 3           , 255         , 0           , 0
-0.135100722, 0.137968659 , -9.792157   , -0.000624607, 0.000268402 , -1.620836E-06, -0.01491171 , -0.0146547407, -8.39785353E-05, 921.1605    , 31.7942657  , 796.6969    , 1.96        , 3           , 255         , 0           , 0
-0.1370635  , 0.137015313 , -9.781731   , 0.000462641765, -0.00011171482, -0.000173525288, -0.0149070583, -0.0146558825, -8.56971E-05, 921.1605    , 31.7942657  , 796.69696   , 1.97        , 3           , 255         , 0           , 0
-0.133871764, 0.137320161 , -9.783855   , 0.000286806957, -0.000407226617, -0.000106807129, -0.0149041759, -0.014659971, -8.670444E-05, 921.1605    , 31.7942657  , 796.697     , 1.98        , 3           , 255         , 0           , 0
-0.139584482, 0.140922338 , -9.793291   , 4.650763E-05, 8.31606449E-05, -0.0002929595, -0.0149036683, -0.0146591831, -8.964634E-05, 921.1605    , 31.7942657  , 796.697144  , 1.99        , 3           , 255         , 0           , 0
-0.148463771, 0.143287569 , -9.79057    , 0.0001107821, 0.0001430205, -0.000640824437, -0.0149024678, -0.0146578485, -9.607572E-05, 921.1605    , 31.7942657  , 796.697266  , 2           , 3           , 0           , 7.46923637  , 200
-0.145180658, 0.136089891 , -9.7871     , -0.000268158648, -0.00034104177, -0.000128981788, -0.0148974527, -0.0146565726, -9.742724E-05, 921.1605    , 31.7942657  , 796.6825    , 2.01        , 3           , 1           , 0           , 0
-0.1450887  , 0.137686163 , -9.794752   , -0.000211477251, -0.000449368556, 0.00020641429, -0.0148995956, -0.0146610364, -9.52962146E-05, 921.1605    , 31.7942657  , 796.6825    , 2.02        , 3           , 2           , 0           , 0
-0.1496543  , 0.142028928 , -9.776095   , -0.0005327547, -0.000257446547, 0.000447597529, -0.0149049889, -0.0146635408, -9.0782E-05 , 921.102     , 31.8002357  , 796.6825    , 2.03        , 3           , 3           , 0           , 0
-0.146352455, 0.150208086 , -9.792494   , -9.118667E-05, -0.000353889947, 0.0006613615, -0.0149059976, -0.014666982, -8.41158E-05, 921.102     , 31.8002357  , 796.6825    , 2.04        , 3           , 4           , 0           , 0
-0.139031574, 0.154490709 , -9.792856   , -3.4660683E-05, -0.000213089923, -0.000417834672, -0.0149062825, -0.0146691743, -8.82622844E-05, 921.102     , 31.8002357  , 796.6825    , 2.05        , 3           , 5           , 0           , 0
-0.13477917 , 0.153850511 , -9.787146   , 0.00018011799, 0.000209571212, 8.587044E-05, -0.0149044944, -0.0146670658, -8.743484E-05, 921.102     , 31.8002357  , 796.6825    , 2.06        , 3           , 6           , 0           , 0
-0.150851578, 0.155648783 , -9.791895   , -0.0001509006, 0.000401332043, 0.0006573379, -0.0149060991, -0.014662955, -8.09214762E-05, 921.102     , 31.8002357  , 796.6825    , 2.07        , 3           , 7           , 0           , 0
-0.148098961, 0.159347445 , -9.790593   , 7.89201E-05 , 0.000294257945, 0.0004918636, -0.0149053829, -0.0146599393, -7.604684E-05, 921.102     , 31.8002357  , 796.6825    , 2.08        , 3           , 8           , 5           , 5
-0.136925921, 0.153596267 , -9.790894   , 0.0008918465, 0.000163108256, -0.000137474926, -0.014896444, -0.0146583291, -7.744585E-05, 921.102     , 31.8002357  , 796.6825    , 2.09        , 3           , 9           , 5           , 0.1
-0.142328   , 0.146376044 , -9.789316   , 6.54425239E-05, 0.000343667169, -0.000189125436, -0.0148957623, -0.01465492 , -7.938826E-05, 921.102     , 31.8002357  , 796.6825    , 2.1         , 3           , 10          , 0.1         , 0.1
-0.139140338, 0.145662472 , -9.793264   , -0.000412783382, -0.000159839634, -0.000150931737, -0.0149082961, -0.0146571295, -8.07501638E-05, 921.102     , 31.8002357  , 796.7414    , 2.11        , 3           , 11          , 0.008036271 , 0.008036271
-0.140425533, 0.151349187 , -9.793343   , -0.000250636629, -7.04249251E-05, -0.000333744421, -0.0149107547, -0.0146578848, -8.4077E-05 , 921.102     , 31.8002357  , 796.74176   , 2.12        , 3           , 12          , 0.174643889 , 0
-0.14762862 , 0.149272367 , -9.790057   , 0.000445922778, -0.000213685853, -0.000304173969, -0.01490625 , -0.014660066, -8.708681E-05, 921.2058    , 31.8003025  , 796.7421    , 2.13        , 3           , 13          , 0           , 0
-0.145731658, 0.132380992 , -9.800113   , -0.000269917859, 7.476524E-05, 0.0002033786, -0.0149089787, -0.0146592893, -8.506422E-05, 921.2058    , 31.8003025  , 796.7425    , 2.14        , 3           , 14          , -0.000392699643, -0.000626396562
-0.139956146, 0.1291047   , -9.795303   , -0.0005169689, -0.000156553288, -0.0002509505, -0.0149141112, -0.0146608911, -8.755033E-05, 921.2058    , 31.8003025  , 796.742859  , 2.15        , 3           , 15          , 0           , -8.401997E-05
-0.1462009  , 0.129525632 , -9.794915   , -0.0007909045, 0.000128341722, -7.826028E-05, -0.0149220079, -0.014659618, -8.835205E-05, 921.2058    , 31.8003025  , 796.7432    , 2.16        , 3           , 16          , 0           , 1.401298E-45
-0.134999484, 0.143480018 , -9.787835   , -0.000299200736, 0.0006441182, -0.000583175162, -0.0149249118, -0.0146532645, -9.427977E-05, 921.2058    , 31.8003025  , 796.7436    , 2.17        , 3           , 20          , 0           , 0
-0.138171151, 0.145661116 , -9.792208   , 0.000140431657, 0.000161909382, -0.0009880976, -0.014923363, -0.0146517949, -0.000104184626, 921.2058    , 31.8003025  , 796.744     , 2.18        , 3           , 21          , 0           , 0
-0.143874362, 0.145873457 , -9.798381   , 0.000170423591, -0.000205179327, 0.000123617981, -0.0149216764, -0.0146538271, -0.000102917875, 921.2058    , 31.8003025  , 796.744446  , 2.19        , 3           , 22          , 0           , 0
-0.14270936 , 0.156640425 , -9.79143    , -3.02878034E-05, -0.0001394811, -5.35433137E-05, -0.0149219716, -0.0146552306, -0.000103432474, 921.2058    , 31.8003025  , 796.7449    , 2.2         , 3           , 40          , 0           , 0
-0.148200274, 0.144564465 , -9.796552   , -0.000134852977, 0.0002814371, -0.000225260272, -0.0149169825, -0.0146490168, -0.000105819388, 921.2058    , 31.8003025  , 796.6661    , 2.21        , 3           , 41          , 0           , 0
-0.143760368, 0.142731324 , -9.797923   , 0.000380804675, -0.00019529229, -0.00051841425, -0.014913098, -0.0146510461, -0.000110974266, 921.2058    , 31.8003025  , 796.665955  , 2.22        , 3           , 42          , 0           , 0
-0.142760009, 0.1463052   , -9.791154   , 0.000260047032, -0.0001470286, -0.0006611275, -0.0149104008, -0.0146526154, -0.000117563424, 921.184265  , 31.7963676  , 796.665833  , 2.23        , 3           , 255         , 0           , 0
-0.140547588, 0.147960514 , -9.790673   , 0.000343366031, 8.126773E-05, -0.000169728126, -0.0149069419, -0.0146518275, -0.000119272787, 921.184265  , 31.7963676  , 796.6657    , 2.24        , 3           , 255         , 0           , 0
-0.143644   , 0.153132364 , -9.794167   , -8.947513E-05, 8.995412E-05, 0.0005024288, -0.0149079114, -0.0146508534, -0.000114262053, 921.184265  , 31.7963676  , 796.665649  , 2.25        , 3           , 255         , 0           , 0
-0.161495328, 0.148736939 , -9.797754   , -2.306857E-06, -6.758334E-05, -0.000127887673, -0.0149079151, -0.0146515481, -0.0001155308, 921.184265  , 31.7963676  , 796.6656    , 2.26        , 3           , 255         , 0           , 0
-0.153423026, 0.150226355 , -9.795393   , 0.000233964034, 0.000219237641, 0.000722356839, -0.0149056818, -0.0146492478, -0.000108340122, 921.184265  , 31.7963676  , 796.6655    , 2.27        , 3           , 255         , 0           , 0
-0.150517851, 0.147848576 , -9.786059   , -0.000143208337, -5.066808E-05, 0.000822110043, -0.0149072353, -0.0146496315, -0.0001001117, 921.184265  , 31.7963676  , 796.665466  , 2.28        , 3           , 255         , 0           , 0
-0.141151   , 0.15798226  , -9.792417   , 0.000196282723, 8.920935E-05, 0.000186479723, -0.0149053019, -0.014648715, -9.826025E-05, 921.184265  , 31.7963676  , 796.6654    , 2.29        , 3           , 255         , 0           , 0
-0.139293075, 0.151906282 , -9.801352   , 0.000135193171, 6.308826E-05, -6.176431E-05, -0.0149039393, -0.014648091, -9.888726E-05, 921.184265  , 31.7963676  , 796.665344  , 2.3         , 3           , 255         , 0           , 0
-0.137479722, 0.150858551 , -9.797346   , -0.000259607972, -2.63294787E-05, -0.000155680085, -0.0149123175, -0.0146538727, -0.000100355035, 921.184265  , 31.7963676  , 796.6228    , 2.31        , 3           , 255         , 0           , 0
-0.1412719  , 0.1380347   , -9.799665   , -4.20570723E-06, 0.000271441531, -0.000337845617, -0.01491231 , -0.0146512091, -0.000103773862, 921.184265  , 31.7963676  , 796.622437  , 2.32        , 3           , 255         , 0           , 0
-0.137357011, 0.14514482  , -9.793809   , -7.721101E-05, -0.0001234248, -0.000263706374, -0.014913043, -0.0146524832, -0.00010639245, 921.1489    , 31.7963676  , 796.6221    , 2.33        , 3           , 255         , 0           , 0
-0.144365817, 0.154042035 , -9.785207   , 0.0002222812, -0.000641322869, -0.000128587359, -0.0149108022, -0.0146589149, -0.000107582629, 921.1489    , 31.7963676  , 796.6217    , 2.34        , 3           , 255         , 0           , 0
-0.146136552, 0.143973976 , -9.78893852 , 2.57560459E-05, -0.000587534567, 0.000424469763, -0.0149106085, -0.0146647254, -0.000103250466, 921.1489    , 31.7963676  , 796.621338  , 2.35        , 3           , 255         , 0           , 0
-0.136344522, 0.134826019 , -9.792048   , 0.000173213659, -0.000285461429, -0.000419877353, -0.0149088129, -0.0146676423, -0.000107406551, 921.1489    , 31.7963676  , 796.621     , 2.36        , 3           , 255         , 0           , 0
-0.135359466, 0.142763481 , -9.78319    , 0.0008362982, -0.000225078082, 0.000118769472, -0.0149004674, -0.0146698738, -0.000106185347, 921.1489    , 31.7963676  , 796.6206    , 2.37        , 3           , 255         , 0           , 0
-0.1360774  , 0.152397528 , -9.786215   , -0.000132712943, 0.000354499731, 0.000182952121, -0.0149018206, -0.0146663021, -0.0001044087, 921.1489    , 31.7963676  , 796.620239  , 2.38        , 3           , 255         , 0           , 0
-0.136501461, 0.153564721 , -9.784615   , -0.000122068275, 0.0002442247, -4.43560057E-05, -0.0149030359, -0.0146638649, -0.000104888633, 921.1489    , 31.7963676  , 796.6199    , 2.39        , 3           , 255         , 0           , 0
-0.13949877 , 0.155978873 , -9.79361248 , -0.0006201959, -0.000174731889, -0.0002075175, -0.0149092069, -0.0146656437, -0.00010693771, 921.1489    , 31.7963676  , 796.6195    , 2.4         , 3           , 255         , 0           , 0
-0.145194918, 0.15031369  , -9.79794    , -0.0005306554, 3.913883E-05, -4.40668446E-05, -0.0149173234, -0.0146542843, -0.000107342938, 921.1489    , 31.7963676  , 796.628845  , 2.41        , 3           , 255         , 0           , 0
-0.146416575, 0.145936564 , -9.811678   , -7.761252E-05, 1.9481522E-06, -0.000159371179, -0.014918074, -0.014654289, -0.000108936896, 921.1489    , 31.7963676  , 796.6286    , 2.42        , 3           , 255         , 0           , 0
-0.149489611, 0.1457077   , -9.78404    , -0.000132103218, -0.0001171403, -0.0003713891, -0.0149193415, -0.0146555156, -0.000112633206, 921.157654  , 31.7992172  , 796.628357  , 2.43        , 3           , 255         , 0           , 0
-0.1359679  , 0.145561725 , -9.788218   , 0.000151553308, -0.000260488479, 0.000318012055, -0.0149178728, -0.014658073, -0.000109414315, 921.157654  , 31.7992172  , 796.6281    , 2.44        , 3           , 255         , 0           , 0
-0.143601179, 0.145490929 , -9.793198   , 0.000283842 , 0.000173876557, -0.0004594566, -0.014914969, -0.0146564012, -0.000114034687, 921.157654  , 31.7992172  , 796.627869  , 2.45        , 3           , 255         , 0           , 0
-0.144476861, 0.145457312 , -9.786507   , 7.500773E-05, -0.0001117771, -0.000437199225, -0.014914155, -0.014657585, -0.000118389893, 921.157654  , 31.7992172  , 796.6276    , 2.46        , 3           , 255         , 0           , 0
-0.149572343, 0.141924411 , -9.788098   , 0.000223004376, -0.000225132389, 1.69672639E-05, -0.0149119282, -0.0146598332, -0.000118186646, 921.157654  , 31.7992172  , 796.6274    , 2.47        , 3           , 255         , 0           , 0
-0.15522787 , 0.138801813 , -9.790581   , 0.000493273837, -2.8432114E-05, 0.0008249407, -0.0149071161, -0.0146599961, -0.000109933237, 921.157654  , 31.7992172  , 796.627136  , 2.48        , 3           , 255         , 0           , 0
-0.139190778, 0.13939622  , -9.7922     , 0.000146149949, 0.000240986061, 0.0008442744, -0.0149057787, -0.0146574592, -0.000101526639, 921.157654  , 31.7992172  , 796.6269    , 2.49        , 3           , 255         , 0           , 0
-0.138911575, 0.130551815 , -9.793574   , -0.000390924746, -6.63618E-05, 0.00015948186, -0.0149097107, -0.014658099, -9.992196E-05, 921.157654  , 31.7992172  , 796.626648  , 2.5         , 3           , 255         , 0           , 0
-0.138694122, 0.150307924 , -9.792419   , -1.62704673E-05, -0.000304518675, -0.00012395969, -0.0149034793, -0.0146636777, -0.000101209625, 921.157654  , 31.7992172  , 796.62384   , 2.51        , 3           , 255         , 0           , 0
-0.137522429, 0.139497146 , -9.786499   , 0.000300897169, 6.03840454E-05, -1.39302429E-05, -0.0149004674, -0.014663077, -0.000101357924, 921.157654  , 31.7992172  , 796.6236    , 2.52        , 3           , 255         , 0           , 0
-0.1480298  , 0.140290931 , -9.788478   , 0.000216296 , -0.000249255332, 0.000371237926, -0.0148983607, -0.0146655114, -9.76085139E-05, 921.112854  , 31.7986069  , 796.623352  , 2.53        , 3           , 255         , 0           , 0
-0.148654848, 0.1522291   , -9.791127   , -5.147248E-05, -0.000418926473, 9.792804E-05, -0.01489889 , -0.0146696866, -9.656686E-05, 921.112854  , 31.7986069  , 796.6231    , 2.54        , 3           , 255         , 0           , 0
-0.1568892  , 0.15967226  , -9.789808   , -0.000108209584, 3.343157E-06, 4.03498525E-05, -0.0148999775, -0.0146696474, -9.616386E-05, 921.112854  , 31.7986069  , 796.622864  , 2.55        , 3           , 255         , 0           , 0
-0.148397386, 0.164083511 , -9.797717   , 9.056399E-05, 0.0004972766, 3.05651774E-05, -0.014899076, -0.01466467 , -9.593231E-05, 921.112854  , 31.7986069  , 796.6226    , 2.56        , 3           , 255         , 0           , 0
-0.137561828, 0.160065085 , -9.791361   , -0.0003310079, 0.000132619753, -0.000267323863, -0.0149023449, -0.0146633862, -9.862522E-05, 921.112854  , 31.7986069  , 796.6224    , 2.57        , 3           , 255         , 0           , 0
-0.127953172, 0.150264516 , -9.79358    , 0.00025896047, 0.000481837575, -0.000257743464, -0.0148997186, -0.0146586066, -0.000101274389, 921.112854  , 31.7986069  , 796.622131  , 2.58        , 3           , 255         , 0           , 0
-0.140571043, 0.149506852 , -9.792379   , 0.0006968768, 0.000364842068, -9.962282E-05, -0.0148927355, -0.0146549763, -0.000102324964, 921.112854  , 31.7986069  , 796.6219    , 2.59        , 3           , 255         , 0           , 0
-0.1485236  , 0.144926116 , -9.791942   , 0.000338094658, -0.000367197674, 0.0009144396, -0.014889488, -0.01465851 , -9.312614E-05, 921.112854  , 31.7986069  , 796.621643  , 2.6         , 3           , 255         , 0           , 0
-0.1449844  , 0.148023263 , -9.795883   , 0.0004664481, 8.455926E-05, 0.000461992837, -0.014895875, -0.01465678 , -8.83579851E-05, 921.112854  , 31.7986069  , 796.680237  , 2.61        , 3           , 255         , 0           , 0
-0.149160668, 0.147363946 , -9.79357    , 3.86334723E-05, 0.000306348171, -9.4844E-05 , -0.0148954745, -0.0146537283, -8.935201E-05, 921.112854  , 31.7986069  , 796.680359  , 2.62        , 3           , 255         , 0           , 0
-0.142181471, 0.138369843 , -9.79158    , -0.000417188858, 5.92127326E-05, 2.31671729E-05, -0.0148996487, -0.0146531332, -8.912917E-05, 921.1605    , 31.8003025  , 796.6805    , 2.63        , 3           , 255         , 0           , 0
-0.139090136, 0.125064075 , -9.791561   , -0.0005408562, -0.00015757751, 0.000303630775, -0.0149051016, -0.0146546643, -8.60694563E-05, 921.1605    , 31.8003025  , 796.6806    , 2.64        , 3           , 255         , 0           , 0
-0.1325494  , 0.137889966 , -9.797757   , -0.000106958614, -0.000379586127, 0.00024207629, -0.0149062071, -0.0146584222, -8.359219E-05, 921.1605    , 31.8003025  , 796.6807    , 2.65        , 3           , 255         , 0           , 0
-0.140324563, 0.128172472 , -9.794115   , 0.0002802497, 0.000401539553, 0.000505195931, -0.0149034783, -0.0146543309, -7.86002347E-05, 921.1605    , 31.8003025  , 796.680847  , 2.66        , 3           , 255         , 0           , 0
-0.140368551, 0.13549903  , -9.795606   , 1.36350573E-05, -4.22913581E-05, 0.000400319055, -0.0149034  , -0.0146546941, -7.459086E-05, 921.1605    , 31.8003025  , 796.680969  , 2.67        , 3           , 255         , 0           , 0
-0.157837108, 0.149380282 , -9.78403    , 0.0002689545, 0.000456187146, 0.000695568742, -0.0149008129, -0.0146500319, -6.77033458E-05, 921.1605    , 31.8003025  , 796.6811    , 2.68        , 3           , 255         , 0           , 0
-0.1594907  , 0.153166    , -9.790616   , 0.000370269059, -9.22209E-05, 4.61252057E-06, -0.0148971127, -0.0146509511, -6.764349E-05, 921.1605    , 31.8003025  , 796.6812    , 2.69        , 3           , 255         , 0           , 0
-0.142899185, 0.1418138   , -9.803129   , 0.00030113617, 8.190924E-05, 0.000337441918, -0.0148941493, -0.0146500813, -6.428136E-05, 921.1605    , 31.8003025  , 796.681335  , 2.7         , 3           , 255         , 0           , 0
-0.142217368, 0.137774155 , -9.791174   , 0.000109839806, 0.000530006 , -2.22345261E-06, -0.0148831252, -0.0146471485, -6.452791E-05, 921.1605    , 31.8003025  , 796.667     , 2.71        , 3           , 255         , 0           , 0
-0.134843022, 0.148264676 , -9.791394   , 0.000777037349, 0.0002129433, 0.0004582376, -0.0148754213, -0.0146449553, -5.99773375E-05, 921.1605    , 31.8003025  , 796.667053  , 2.72        , 3           , 255         , 0           , 0
-0.13365823 , 0.155012056 , -9.799706   , 1.47171668E-05, -0.0004116291, 0.0002694391, -0.0148753142, -0.01464903 , -5.7221805E-05, 921.1472    , 31.7954865  , 796.6671    , 2.73        , 3           , 255         , 0           , 0
-0.138100892, 0.152725309 , -9.792639   , -0.000528152334, 0.000152386667, -0.000669978035, -0.0148804979, -0.0146476049, -6.394406E-05, 921.1472    , 31.7954865  , 796.6672    , 2.74        , 3           , 255         , 0           , 0
-0.148814008, 0.161899835 , -9.79369    , 0.000193186672, 0.000447271043, 0.000200819733, -0.0148785943, -0.0146431029, -6.200248E-05, 921.1472    , 31.7954865  , 796.667236  , 2.75        , 3           , 255         , 0           , 0
-0.143653721, 0.158083141 , -9.79724    , 0.0006376727, 0.000258331449, -8.031714E-05, -0.0148722073, -0.0146405334, -6.284405E-05, 921.1472    , 31.7954865  , 796.6673    , 2.76        , 3           , 255         , 0           , 0
-0.1451762  , 0.149777323 , -9.790453   , 0.000622701948, 7.675553E-05, -0.000234454317, -0.014865946, -0.0146398051, -6.519992E-05, 921.1472    , 31.7954865  , 796.667358  , 2.77        , 3           , 255         , 0           , 0
-0.145844191, 0.163318351 , -9.795161   , 0.0003439813, 0.0001924788, -0.000132163113, -0.0148624871, -0.0146378968, -6.655013E-05, 921.1472    , 31.7954865  , 796.6674    , 2.78        , 3           , 255         , 0           , 0
-0.137117431, 0.156295121 , -9.792709   , -8.743795E-05, 0.000246327167, 0.0001798892, -0.0148633886, -0.0146354074, -6.478789E-05, 921.1472    , 31.7954865  , 796.6675    , 2.79        , 3           , 255         , 0           , 0
-0.133940071, 0.161820054 , -9.784697   , -0.00082042953, 0.000201387273, -0.00013380131, -0.014871574, -0.0146334162, -6.615579E-05, 921.1472    , 31.7954865  , 796.667542  , 2.8         , 3           , 255         , 0           , 0
-0.141210467, 0.152748257 , -9.787299   , -0.000687498366, 0.0004205494, 3.077754E-05, -0.0148947453, -0.0146234361, -6.567233E-05, 921.1472    , 31.7954865  , 796.6734    , 2.81        , 3           , 255         , 0           , 0
-0.143808812, 0.1435534   , -9.817411   , 8.67885246E-05, 0.000223883573, -0.0005663625, -0.0148937926, -0.0146212811, -7.136913E-05, 921.1472    , 31.7954865  , 796.6735    , 2.82        , 3           , 255         , 0           , 0
-0.147261783, 0.144414023 , -9.77784252 , 0.000177844486, 0.000434099929, -3.75080781E-05, -0.0148920109, -0.0146169458, -7.18088559E-05, 921.1539    , 31.79725    , 796.673645  , 2.83        , 3           , 255         , 0           , 0
-0.150440767, 0.152411953 , -9.799223   , 4.60937154E-05, -0.000221551687, -0.0002627469, -0.0148915108, -0.0146192005, -7.440325E-05, 921.1539    , 31.79725    , 796.673767  , 2.84        , 3           , 255         , 0           , 0
-0.1350245  , 0.150389746 , -9.811827   , 8.66751361E-05, -2.5997695E-05, 0.000272593 , -0.0148906829, -0.0146194194, -7.167354E-05, 921.1539    , 31.79725    , 796.6739    , 2.85        , 3           , 255         , 0           , 0
-0.143157691, 0.141164333 , -9.795011   , 0.000102467282, -7.2525E-05 , 0.000472225627, -0.0148897264, -0.0146200741, -6.694062E-05, 921.1539    , 31.79725    , 796.674     , 2.86        , 3           , 255         , 0           , 0
-0.144099414, 0.1381083   , -9.800532   , 0.000104135339, 0.000124610378, 8.005256E-06, -0.014888688, -0.0146188261, -6.68791254E-05, 921.1539    , 31.79725    , 796.674133  , 2.87        , 3           , 255         , 0           , 0
-0.134821564, 0.145509735 , -9.798236   , 0.0002054976, -3.12167685E-07, 0.000595728867, -0.014886721, -0.0146187451, -6.09219533E-05, 921.1539    , 31.79725    , 796.674255  , 2.88        , 3           , 255         , 0           , 0
-0.148089349, 0.150773555 , -9.788196   , 1.170006E-05, -0.0003797323, 3.816024E-05, -0.0148866093, -0.0146225346, -6.04838351E-05, 921.1539    , 31.79725    , 796.6744    , 2.89        , 3           , 255         , 0           , 0
-0.145444587, 0.1461423   , -9.794381   , -0.000388979824, -0.0004393339, -0.000528297736, -0.0148904212, -0.014627004, -6.57012351E-05, 921.1539    , 31.79725    , 796.6745    , 2.9         , 3           , 255         , 0           , 0
-0.136265635, 0.1487896   , -9.802852   , -3.26319132E-05, 2.64530536E-05, -0.000694045564, -0.0148915444, -0.0146269631, -7.26323E-05, 921.1539    , 31.79725    , 796.6704    , 2.91        , 3           , 255         , 0           , 0
-0.137884051, 0.14799282  , -9.795975   , 6.665499E-05, 0.000539534958, 0.000136618182, -0.0148908962, -0.0146215484, -7.134651E-05, 921.1539    , 31.79725    , 796.670532  , 2.92        , 3           , 255         , 0           , 0
-0.140951678, 0.144834429 , -9.78924751 , 0.0001262069, 0.000152623456, 0.00038746628, -0.0148896892, -0.0146199642, -6.749469E-05, 921.1519    , 31.7979279  , 796.670654  , 2.93        , 3           , 255         , 0           , 0
-0.139099881, 0.147926524 , -9.791551   , 6.628025E-05, -2.36483174E-05, -0.0005993282, -0.0148889394, -0.0146202892, -7.348428E-05, 921.1519    , 31.7979279  , 796.6708    , 2.94        , 3           , 255         , 0           , 0
-0.1552896  , 0.149267748 , -9.791192   , -0.000102965219, -0.00018825155, 0.0002492505, -0.0148900049, -0.0146221342, -7.09638261E-05, 921.1519    , 31.7979279  , 796.6709    , 2.95        , 3           , 255         , 0           , 0
-0.150313467, 0.142234951 , -9.7946     , 0.00020437366, 2.07534758E-05, 0.000153625268, -0.0148879848, -0.0146219041, -6.943071E-05, 921.1519    , 31.7979279  , 796.671     , 2.96        , 3           , 255         , 0           , 0
-0.14282921 , 0.134632125 , -9.791085   , 2.72513134E-05, 0.000305110967, 0.000296928862, -0.0148877548, -0.0146188084, -6.650693E-05, 921.1519    , 31.7979279  , 796.671143  , 2.97        , 3           , 255         , 0           , 0
-0.1395268  , 0.137557656 , -9.793094   , 0.000292820769, -0.000138733827, 0.000267006835, -0.0148848649, -0.0146201588, -6.38162746E-05, 921.1519    , 31.7979279  , 796.671265  , 2.98        , 3           , 255         , 0           , 0
-0.134551853, 0.141729966 , -9.79505    , 0.0002714945, 0.000461531978, -0.000150023145, -0.0148821287, -0.0146155665, -6.538515E-05, 921.1519    , 31.7979279  , 796.6714    , 2.99        , 3           , 255         , 0           , 0
-0.133115828, 0.15094313  , -9.791521   , -0.000158336828, 0.0008321604, -7.48873645E-05, -0.014883698, -0.0146072553, -6.62578459E-05, 921.1519    , 31.7979279  , 796.6715    , 3           , 3           , 0           , 8.469236    , 300
-0.139800027, 0.144668937 , -9.789604   , -0.0002800066, 0.0005677719, -0.000416946976, -0.0148842791, -0.0145977559, -7.05432E-05, 921.1519    , 31.7979279  , 796.6703    , 3.01        , 3           , 1           , 0           , 0
-0.141885132, 0.148624912 , -9.797767   , 0.0005758712, -6.380142E-05, 0.0009905451, -0.014878667, -0.0145982485, -6.062852E-05, 921.1519    , 31.7979279  , 796.6704    , 3.02        , 3           , 2           , 0           , 0
-0.14686814 , 0.142399684 , -9.791914   , 0.00028533407, -0.000414335052, -0.000673076254, -0.0148757147, -0.0146024907, -6.72974638E-05, 921.1125    , 31.7971153  , 796.670532  , 3.03        , 3           , 3           , 0           , 0
-0.1436855  , 0.142120361 , -9.790287   , 9.26231151E-05, -0.000145931088, -0.000193053042, -0.01487476 , -0.014603978, -6.920622E-05, 921.1125    , 31.7971153  , 796.670654  , 3.04        , 3           , 4           , 0           , 0
-0.140651152, 0.149105534 , -9.787251   , 0.000261103472, 0.000274423161, 0.0008143099, -0.01487227 , -0.0146011133, -6.110417E-05, 921.1125    , 31.7971153  , 796.6708    , 3.05        , 3           , 5           , 0           , 0
-0.1350109  , 0.151460856 , -9.791071   , -0.000358314253, -0.000341160165, 0.0002447266, -0.0148758879, -0.0146044884, -5.86062233E-05, 921.1125    , 31.7971153  , 796.6709    , 3.06        , 3           , 6           , 0           , 0
-0.126413539, 0.149955347 , -9.787379   , -0.000119166449, 4.30250075E-05, 0.000389407156, -0.0148771349, -0.014604   , -5.47186646E-05, 921.1125    , 31.7971153  , 796.671     , 3.07        , 3           , 7           , 0           , 0
-0.134687781, 0.1493343   , -9.796091   , -0.00021481025, 0.000170548476, 0.0004434874, -0.0148793478, -0.014602229, -5.0309307E-05, 921.1125    , 31.7971153  , 796.671143  , 3.08        , 3           , 8           , 5           , 5
-0.1492529  , 0.15100503  , -9.792653   , 0.000249183446, 2.11807783E-05, -1.15604489E-05, -0.0148768546, -0.0146020185, -5.04280652E-05, 921.1125    , 31.7971153  , 796.671265  , 3.09        , 3           , 9           , 5           , 0.1
-0.1472722  , 0.15018037  , -9.78858948 , 0.000172045737, -0.000231526792, -0.000384696323, -0.0148750786, -0.0146043915, -5.42404669E-05, 921.1125    , 31.7971153  , 796.6714    , 3.1         , 3           , 10          , 0.1         , 0.1
-0.151723415, 0.147656828 , -9.79256    , 0.000315821351, 0.000127624837, -0.000100559148, -0.0148764094, -0.0145982252, -5.51992962E-05, 921.1125    , 31.7971153  , 796.7262    , 3.11        , 3           , 11          , 0.007307274 , 0.007307272
-0.142903849, 0.138589963 , -9.790519   , -0.0009361263, 0.0003292397, -0.000313933066, -0.0148857227, -0.0145949805, -5.838752E-05, 921.1125    , 31.7971153  , 796.7267    , 3.12        , 3           , 12          , 0.174645633 , 0
-0.1331554  , 0.136675328 , -9.79497    , 4.61371965E-05, -2.74704071E-05, 3.60585036E-05, -0.0148852672, -0.01459525 , -5.802285E-05, 921.1598    , 31.8011856  , 796.7272    , 3.13        , 3           , 13          , 0           , 0
-0.133878514, 0.141411126 , -9.793416   , -7.368272E-05, -0.000403261161, 0.000412429537, -0.0148860645, -0.01459922 , -5.38386448E-05, 921.1598    , 31.8011856  , 796.727661  , 3.14        , 3           , 14          , -0.0003926239, -0.0006264802
-0.141334578, 0.139325231 , -9.794722   , 0.000168298473, 5.051098E-05, 0.0005308101, -0.01488446 , -0.014598635, -4.85382225E-05, 921.1598    , 31.8011856  , 796.728149  , 3.15        , 3           , 15          , 0           , -8.402232E-05
-0.138676926, 0.1470947   , -9.793542   , -0.000368518115, -0.000227413489, 0.000423433579, -0.0148882074, -0.0146008469, -4.42701457E-05, 921.1598    , 31.8011856  , 796.728638  , 3.16        , 3           , 16          , 0           , 1.401298E-45
-0.13997373 , 0.151474789 , -9.791021   , -0.0006494737, -0.000327013258, 5.766994E-05, -0.01489471 , -0.0146041056, -4.364477E-05, 921.1598    , 31.8011856  , 796.7291    , 3.17        , 3           , 20          , 0           , 0
-0.1481425  , 0.133825824 , -9.79007    , -0.00029051624, -0.000313110533, 0.0006018855, -0.0148977032, -0.0146071482, -3.75794552E-05, 921.1598    , 31.8011856  , 796.7296    , 3.18        , 3           , 21          , 0           , 0
-0.145844936, 0.135395    , -9.792768   , -0.00036531355, -0.000305379624, 0.0007483718, -0.0149014657, -0.0146100894, -3.005046E-05, 921.1598    , 31.8011856  , 796.7301    , 3.19        , 3           , 22          , 0           , 0
-0.141509742, 0.136751741 , -9.790824   , 0.00023248863, -0.000440956559, -0.000434702641, -0.0148990778, -0.0146145634, -3.433164E-05, 921.1598    , 31.8011856  , 796.7306    , 3.2         , 3           , 40          , 0           , 0
-0.148309186, 0.14346844  , -9.788155   , 0.000165133111, 0.000133780239, 0.0006720063, -0.0148885213, -0.0146108167, -2.77632444E-05, 921.1598    , 31.8011856  , 796.7102    , 3.21        , 3           , 41          , 0           , 0
-0.142239168, 0.156131878 , -9.796822   , 0.000598707 , 9.800162E-05, 0.000754654466, -0.0148826446, -0.0146097252, -2.02315041E-05, 921.1598    , 31.8011856  , 796.7106    , 3.22        , 3           , 42          , 0           , 0
-0.152646869, 0.161567658 , -9.787735   , 0.0001678223, 0.0005564433, 0.0004281449, -0.0148810279, -0.0146040982, -1.60329728E-05, 921.127441  , 31.7984715  , 796.710938  , 3.23        , 3           , 255         , 0           , 0
-0.153674588, 0.150271833 , -9.799406   , -0.0003808861, 0.000277539133, 2.739943E-05, -0.01488484 , -0.01460132 , -1.58003058E-05, 921.127441  , 31.7984715  , 796.7113    , 3.24        , 3           , 255         , 0           , 0
-0.145957351, 0.1418777   , -9.799536   , 0.000231475482, -0.000432050729, 0.000549098535, -0.0148826065, -0.0146055585, -1.02451686E-05, 921.127441  , 31.7984715  , 796.7117    , 3.25        , 3           , 255         , 0           , 0
-0.145611465, 0.147445008 , -9.786463   , -0.000218106812, -6.896403E-05, 0.000239516608, -0.014884823, -0.0146062113, -7.839808E-06, 921.127441  , 31.7984715  , 796.712036  , 3.26        , 3           , 255         , 0           , 0
-0.139958769, 0.144940138 , -9.786092   , -0.0003097992, 5.552557E-05, -0.000238712411, -0.0148878861, -0.0146056935, -1.02351332E-05, 921.127441  , 31.7984715  , 796.7124    , 3.27        , 3           , 255         , 0           , 0
-0.138641834, 0.142546862 , -9.78764248 , -0.000278489053, -0.000229338417, -0.000223160518, -0.0148906391, -0.014608019, -1.24325252E-05, 921.127441  , 31.7984715  , 796.712769  , 3.28        , 3           , 255         , 0           , 0
-0.146628156, 0.15527764  , -9.790345   , 0.00065231917, -0.000264122675, 0.000281152024, -0.0148841562, -0.0146106165, -9.58177E-06, 921.127441  , 31.7984715  , 796.713135  , 3.29        , 3           , 255         , 0           , 0
-0.15519391 , 0.148039132 , -9.790283   , -0.000794388, -0.0003265341, -0.000380778481, -0.0148920454, -0.0146139376, -1.33408384E-05, 921.127441  , 31.7984715  , 796.7135    , 3.3         , 3           , 255         , 0           , 0
-0.139445022, 0.137291223 , -9.79014    , -0.000777896843, -0.000183170952, -0.0007847417, -0.0149062732, -0.014623316, -2.10647322E-05, 921.127441  , 31.7984715  , 796.741333  , 3.31        , 3           , 255         , 0           , 0
-0.148811072, 0.141108245 , -9.788568   , 0.000233710074, 0.000183467113, 0.000178901828, -0.0149039626, -0.0146214534, -1.93031E-05, 921.127441  , 31.7984715  , 796.7419    , 3.32        , 3           , 255         , 0           , 0
-0.139641315, 0.138566062 , -9.786608   , 0.0005176767, -0.000223142619, -0.0004682244, -0.0148987174, -0.0146237584, -2.39519541E-05, 921.1707    , 31.8000317  , 796.742432  , 3.33        , 3           , 255         , 0           , 0
-0.1325518  , 0.135181844 , -9.791668   , -0.000171829452, 0.0005015631, 0.000329510774, -0.0149004841, -0.014618692, -2.07316734E-05, 921.1707    , 31.8000317  , 796.743     , 3.34        , 3           , 255         , 0           , 0
-0.1399264  , 0.143882647 , -9.795755   , 4.558955E-05, -0.000117911957, -0.000205862088, -0.014899998, -0.0146199008, -2.27726523E-05, 921.1707    , 31.8000317  , 796.7435    , 3.35        , 3           , 255         , 0           , 0
-0.145588323, 0.150074422 , -9.799222   , 0.000519187946, 5.85140078E-05, -0.000274758844, -0.0148947658, -0.014619357, -2.552887E-05, 921.1707    , 31.8000317  , 796.7441    , 3.36        , 3           , 255         , 0           , 0
-0.1502541  , 0.148902312 , -9.791985   , -0.0004483251, 0.000115375558, -0.0004253164, -0.0148991868, -0.0146182664, -2.97990973E-05, 921.1707    , 31.8000317  , 796.7446    , 3.37        , 3           , 255         , 0           , 0
-0.142476946, 0.145094052 , -9.789633   , 0.00028661493, -5.426118E-07, -0.0005392366, -0.0148962438, -0.0146183521, -3.5191224E-05, 921.1707    , 31.8000317  , 796.7452    , 3.38        , 3           , 255         , 0           , 0
-0.14348112 , 0.145151839 , -9.782273   , 0.00045724478, -3.88341723E-05, -0.000410038978, -0.0148916114, -0.014618801, -3.92857E-05, 921.1707    , 31.8000317  , 796.7457    , 3.39        , 3           , 255         , 0           , 0
-0.141740054, 0.138820216 , -9.793402   , -0.000215977, -1.52892317E-05, -0.000290403725, -0.0148937283, -0.0146189975, -4.2187392E-05, 921.1707    , 31.8000317  , 796.7463    , 3.4         , 3           , 255         , 0           , 0
-0.1376557  , 0.13784349  , -9.795588   , -0.00010059934, 0.000111939444, -0.000164528785, -0.0148878722, -0.0146163916, -4.3949236E-05, 921.1707    , 31.8000317  , 796.707642  , 3.41        , 3           , 255         , 0           , 0
-0.141493157, 0.131086424 , -9.79262    , 8.596355E-05, 0.000287300034, 4.09464847E-05, -0.0148870191, -0.014613512, -4.35825568E-05, 921.1707    , 31.8000317  , 796.707947  , 3.42        , 3           , 255         , 0           , 0
-0.138452932, 0.141278416 , -9.79416752 , 0.000412575551, 0.00018321682, 0.000306363159, -0.0148829361, -0.0146116335, -4.05462924E-05, 921.1386    , 31.79915    , 796.708252  , 3.43        , 3           , 255         , 0           , 0
-0.14360413 , 0.1467941   , -9.794162   , 0.000626958557, 4.61947056E-05, 6.65120242E-05, -0.0148766777, -0.014611166, -3.9888062E-05, 921.1386    , 31.79915    , 796.708557  , 3.44        , 3           , 255         , 0           , 0
-0.152965814, 0.154193431 , -9.790202   , 0.0006085483, -0.000107558095, -0.0002826014, -0.0148705505, -0.01461228 , -4.26979968E-05, 921.1386    , 31.79915    , 796.708862  , 3.45        , 3           , 255         , 0           , 0
-0.154507548, 0.1531506   , -9.789958   , 6.413914E-05, 0.00013039686, -3.11809126E-05, -0.0148699041, -0.0146109806, -4.3029173E-05, 921.1386    , 31.79915    , 796.709167  , 3.46        , 3           , 255         , 0           , 0
-0.1498651  , 0.146748483 , -9.792901   , -0.000588232768, -0.000292110082, -0.000120390752, -0.0148757715, -0.0146139208, -4.41896082E-05, 921.1386    , 31.79915    , 796.7095    , 3.47        , 3           , 255         , 0           , 0
-0.14847593 , 0.139364108 , -9.78112    , -0.000294642843, 5.196454E-05, 0.000183478987, -0.0148787424, -0.0146133732, -4.236261E-05, 921.1386    , 31.79915    , 796.7098    , 3.48        , 3           , 255         , 0           , 0
-0.13619557 , 0.14825967  , -9.789624   , -0.00010779986, 0.0004603795, 0.000549589749, -0.014879901, -0.0146086877, -3.69353766E-05, 921.1386    , 31.79915    , 796.7101    , 3.49        , 3           , 255         , 0           , 0
-0.133641884, 0.158618644 , -9.799997   , 0.000476359681, 7.5714197E-06, -0.0002864641, -0.0148750963, -0.0146086542, -3.98010525E-05, 921.1386    , 31.79915    , 796.7104    , 3.5         , 3           , 255         , 0           , 0
-0.150793344, 0.158877164 , -9.797873   , 0.0007257226, 0.000152814871, -0.00033288612, -0.0148679428, -0.0146081988, -4.31503249E-05, 921.1386    , 31.79915    , 796.7228    , 3.51        , 3           , 255         , 0           , 0
-0.144097179, 0.160164043 , -9.788279   , 0.0002675227, -7.700466E-06, 0.000260110624, -0.0148653053, -0.0146082407, -4.05481333E-05, 921.1386    , 31.79915    , 796.7232    , 3.52        , 3           , 255         , 0           , 0
-0.138083816, 0.162149519 , -9.784091   , 0.000109390763, -6.937893E-05, 0.000176496658, -0.014864237, -0.0146089066, -3.87728978E-05, 921.1602    , 31.7971153  , 796.723633  , 3.53        , 3           , 255         , 0           , 0
-0.1432046  , 0.156740591 , -9.803785   , -0.000159586547, -0.000148670631, -0.00032570702, -0.0148657849, -0.0146104414, -4.20077849E-05, 921.1602    , 31.7971153  , 796.72406   , 3.54        , 3           , 255         , 0           , 0
-0.145613074, 0.146737784 , -9.794769   , 0.0007645809, 0.000475931534, -0.000223754221, -0.0148581071, -0.0146057159, -4.43159879E-05, 921.1602    , 31.7971153  , 796.7245    , 3.55        , 3           , 255         , 0           , 0
-0.130129948, 0.152998134 , -9.786379   , 7.531658E-05, 0.0002456956, 1.69075065E-06, -0.0148573527, -0.014603259, -4.43355966E-05, 921.1602    , 31.7971153  , 796.7249    , 3.56        , 3           , 255         , 0           , 0
-0.136039481, 0.148383528 , -9.786614   , 0.000307433 , -0.0002493607, 0.000201902643, -0.0148543091, -0.0146057215, -4.22795747E-05, 921.1602    , 31.7971153  , 796.725342  , 3.57        , 3           , 255         , 0           , 0
-0.143775731, 0.132347152 , -9.783358   , 0.0004727269, -0.000485229946, -0.000433246547, -0.0148495184, -0.014610637, -4.65398552E-05, 921.1602    , 31.7971153  , 796.725769  , 3.58        , 3           , 255         , 0           , 0
-0.159461126, 0.128797472 , -9.790387   , 4.74139233E-05, -0.000112071692, -0.0006632068, -0.0148489475, -0.0146118561, -5.315509E-05, 921.1602    , 31.7971153  , 796.7262    , 3.59        , 3           , 255         , 0           , 0
-0.1452794  , 0.136147946 , -9.796966   , -0.0004153503, -8.701411E-05, 2.187911E-05, -0.014853104, -0.0146127222, -5.29233839E-05, 921.1602    , 31.7971153  , 796.7266    , 3.6         , 3           , 255         , 0           , 0
-0.139866978, 0.1443389   , -9.809244   , -0.000284332637, -0.000183713157, -0.000190325227, -0.01486108 , -0.014615681, -5.47238778E-05, 921.1602    , 31.7971153  , 796.7058    , 3.61        , 3           , 255         , 0           , 0
-0.13470681 , 0.155352145 , -9.802751   , -0.000182402757, 2.488785E-05, -8.739771E-06, -0.0148629015, -0.0146154333, -5.48149546E-05, 921.1602    , 31.7971153  , 796.7061    , 3.62        , 3           , 255         , 0           , 0
-0.140319735, 0.1483865   , -9.781122   , 0.000257638574, -0.000199677248, -0.00113315147, -0.01486016 , -0.0146175958, -6.611648E-05, 921.1324    , 31.7993526  , 796.7064    , 3.63        , 3           , 255         , 0           , 0
-0.1415834  , 0.149645954 , -9.788307   , -7.7347795E-06, -0.000517905, -0.000482517848, -0.0148601672, -0.0146228466, -7.086456E-05, 921.1324    , 31.7993526  , 796.7067    , 3.64        , 3           , 255         , 0           , 0
-0.149853   , 0.156171843 , -9.801428   , -0.000325394183, -0.000341423671, 2.74357117E-05, -0.0148634249, -0.0146262562, -7.053947E-05, 921.1324    , 31.7993526  , 796.707031  , 3.65        , 3           , 255         , 0           , 0
-0.148533523, 0.156733274 , -9.793905   , -0.000439086434, -2.16130284E-05, -5.065617E-05, -0.0148678068, -0.0146264806, -7.104281E-05, 921.1324    , 31.7993526  , 796.707336  , 3.66        , 3           , 255         , 0           , 0
-0.135893166, 0.170862988 , -9.79873848 , -0.000164100173, -0.000467778649, -7.239213E-05, -0.0148694385, -0.014631168, -7.169715E-05, 921.1324    , 31.7993526  , 796.707642  , 3.67        , 3           , 255         , 0           , 0
-0.137679622, 0.173801392 , -9.791519   , 0.000628826965, -0.000178151648, 0.000309353869, -0.0148631968, -0.014632903, -6.857721E-05, 921.1324    , 31.7993526  , 796.707947  , 3.68        , 3           , 255         , 0           , 0
-0.153009921, 0.170327276 , -9.790224   , 0.000190225415, 0.000190733321, 0.000399137673, -0.0148613527, -0.0146309352, -6.46143E-05, 921.1324    , 31.7993526  , 796.708252  , 3.69        , 3           , 255         , 0           , 0
-0.15474613 , 0.1546502   , -9.795994   , -8.516773E-05, 2.4906476E-05, 0.000832648 , -0.014862325, -0.0146305626, -5.62917558E-05, 921.1324    , 31.7993526  , 796.708557  , 3.7         , 3           , 255         , 0           , 0
-0.146699592, 0.145910487 , -9.790792   , -0.000595191959, 2.8397073E-05, 0.000272803125, -0.014885338, -0.0146306949, -5.331898E-05, 921.1324    , 31.7993526  , 796.7299    , 3.71        , 3           , 255         , 0           , 0
-0.136700436, 0.150804743 , -9.797924   , -5.39720641E-05, 0.00020376232, 0.000241308735, -0.0148859117, -0.0146286217, -5.093631E-05, 921.1324    , 31.7993526  , 796.730347  , 3.72        , 3           , 255         , 0           , 0
-0.1371663  , 0.15248014  , -9.79058    , 0.0002970841, 0.000180900854, -3.139599E-05, -0.014882938, -0.0146268168, -5.12771767E-05, 921.122253  , 31.8022022  , 796.7308    , 3.73        , 3           , 255         , 0           , 0
-0.133125514, 0.153404087 , -9.795029   , 0.000264047616, -0.000148617255, 0.000774740067, -0.0148804123, -0.0146281878, -4.350788E-05, 921.122253  , 31.8022022  , 796.7312    , 3.74        , 3           , 255         , 0           , 0
-0.148736984, 0.143916816 , -9.780664   , -0.0003175675, -0.000200535636, -5.61999841E-05, -0.01488358 , -0.0146302022, -4.40400072E-05, 921.122253  , 31.8022022  , 796.7316    , 3.75        , 3           , 255         , 0           , 0
-0.145656377, 0.125863627 , -9.785801   , -0.000216661429, -0.000145791913, -0.000315099343, -0.0148856984, -0.0146317072, -4.71692147E-05, 921.122253  , 31.8022022  , 796.732056  , 3.76        , 3           , 255         , 0           , 0
-0.1458061  , 0.122164287 , -9.794393   , -0.000327074435, 0.000238850858, -0.000476883346, -0.0148889013, -0.01462939 , -5.1973464E-05, 921.122253  , 31.8022022  , 796.7325    , 3.77        , 3           , 255         , 0           , 0
-0.139738932, 0.125449568 , -9.798303   , -0.000113806222, -6.430765E-05, -0.000259517255, -0.0148900012, -0.0146300718, -5.455899E-05, 921.122253  , 31.8022022  , 796.7329    , 3.78        , 3           , 255         , 0           , 0
-0.147232309, 0.125930458 , -9.791686   , 0.000223490992, 0.0002606275, 0.000142083009, -0.0148877865, -0.0146274436, -5.31770056E-05, 921.122253  , 31.8022022  , 796.733337  , 3.79        , 3           , 255         , 0           , 0
-0.148257166, 0.132920548 , -9.783977   , 0.000174313987, 0.00013071869, -0.000294816477, -0.0148859983, -0.0146261808, -5.614455E-05, 921.122253  , 31.8022022  , 796.733765  , 3.8         , 3           , 255         , 0           , 0
-0.146404   , 0.149946839 , -9.783297   , 0.000477392343, -0.00018412678, -0.000130848581, -0.0148666976, -0.0146273961, -5.7637837E-05, 921.122253  , 31.8022022  , 796.765747  , 3.81        , 3           , 255         , 0           , 0
-0.138116568, 0.149394259 , -9.799558   , 0.000204979267, -0.000459666364, 6.306506E-05, -0.014864658, -0.0146319829, -5.69388721E-05, 921.122253  , 31.8022022  , 796.7664    , 3.82        , 3           , 255         , 0           , 0
-0.120210484, 0.143669367 , -9.783078   , 0.000193440588, -0.000124002167, -0.000487113546, -0.0148626529, -0.0146332951, -6.179144E-05, 921.1675    , 31.7996254  , 796.7671    , 3.83        , 3           , 255         , 0           , 0
-0.133675054, 0.137584582 , -9.794484   , 0.000486538047, 7.850403E-05, -0.0001751566, -0.0148577616, -0.0146325389, -6.355462E-05, 921.1675    , 31.7996254  , 796.767761  , 3.84        , 3           , 255         , 0           , 0
-0.1460131  , 0.128114611 , -9.786855   , 0.000106333959, -0.000148428255, 0.000129590888, -0.0148567166, -0.0146340011, -6.22367E-05, 921.1675    , 31.7996254  , 796.768433  , 3.85        , 3           , 255         , 0           , 0
-0.144822836, 0.140062436 , -9.784529   , 4.9538532E-05, -0.000178574, -0.000514520856, -0.0148561466, -0.0146358628, -6.735524E-05, 921.1675    , 31.7996254  , 796.7691    , 3.86        , 3           , 255         , 0           , 0
-0.138382122, 0.141838923 , -9.795504   , -0.00056888035, -7.716706E-06, -0.000520731963, -0.0148617579, -0.0146360174, -7.256129E-05, 921.1675    , 31.7996254  , 796.7698    , 3.87        , 3           , 255         , 0           , 0
-0.133677289, 0.1535286   , -9.79263    , -0.000233623345, 0.000180470583, 0.000443516066, -0.0148641588, -0.0146341473, -6.815307E-05, 921.1675    , 31.7996254  , 796.770447  , 3.88        , 3           , 255         , 0           , 0
-0.131774262, 0.178645149 , -9.78541    , -6.531787E-05, 0.000211771257, -0.000339580351, -0.0148647623, -0.01463208 , -7.158026E-05, 921.1675    , 31.7996254  , 796.7711    , 3.89        , 3           , 255         , 0           , 0
-0.1529881  , 0.170324534 , -9.788923   , 0.000239337824, 0.000134745322, -0.000394436734, -0.0148623111, -0.01463079 , -7.554455E-05, 921.1675    , 31.7996254  , 796.7718    , 3.9         , 3           , 255         , 0           , 0
-0.1613281  , 0.16503486  , -9.787428   , -2.68442382E-05, 0.000101708283, -0.00092120003, -0.0148703177, -0.01462037 , -8.465627E-05, 921.1675    , 31.7996254  , 796.734     , 3.91        , 3           , 255         , 0           , 0
-0.136996284, 0.157752246 , -9.796087   , -0.00037972338, 0.0007191523, 0.000388472137, -0.0148741705, -0.0146131255, -8.08786062E-05, 921.1675    , 31.7996254  , 796.734436  , 3.92        , 3           , 255         , 0           , 0
-0.133212581, 0.156390414 , -9.792124   , -0.000287277624, -0.000198190159, 0.0007665248, -0.0148771554, -0.0146149928, -7.318409E-05, 921.129333  , 31.7986069  , 796.734863  , 3.93        , 3           , 255         , 0           , 0
-0.141043812, 0.148602918 , -9.795799   , 0.000313107157, 0.000124565966, -0.000227045181, -0.01487399 , -0.0146137811, -7.5473E-05 , 921.129333  , 31.7986069  , 796.7353    , 3.94        , 3           , 255         , 0           , 0
-0.146958634, 0.15254505  , -9.781636   , 0.000275225844, -0.000194556837, -0.000414058683, -0.0148711791, -0.0146157872, -7.958452E-05, 921.129333  , 31.7986069  , 796.7357    , 3.95        , 3           , 255         , 0           , 0
-0.146552637, 0.153142527 , -9.782714   , -0.0002596132, -0.000206994242, -0.0006137515, -0.0148736853, -0.0146179479, -8.569108E-05, 921.129333  , 31.7986069  , 796.736145  , 3.96        , 3           , 255         , 0           , 0
-0.145151824, 0.149419338 , -9.788169   , -0.000510555, -0.000258767861, 0.000227979 , -0.0148788244, -0.0146205  , -8.337284E-05, 921.129333  , 31.7986069  , 796.7366    , 3.97        , 3           , 255         , 0           , 0
-0.136314362, 0.1378979   , -9.794366   , 0.000171292078, 0.000564378046, 0.000213236926, -0.0148771415, -0.0146148242, -8.132451E-05, 921.129333  , 31.7986069  , 796.737     , 3.98        , 3           , 255         , 0           , 0
-0.14320749 , 0.12627615  , -9.795171   , 0.00028002524, -0.0002608475, 0.000783418247, -0.0148744555, -0.0146173155, -7.345176E-05, 921.129333  , 31.7986069  , 796.7374    , 3.99        , 3           , 255         , 0           , 0
-0.158551618, 0.104777373 , -9.78754    , 2.44246912E-05, 0.000185311073, 0.000340173225, -0.0148742609, -0.0146154156, -7.007769E-05, 921.129333  , 31.7986069  , 796.737854  , 4           , 3           , 0           , 9.469236    , 400
-0.139678344, 0.09105804  , -9.787245   , -0.000104682287, 6.789033E-05, 0.000577386934, -0.0148745831, -0.0146180894, -6.43259E-05, 921.129333  , 31.7986069  , 796.7591    , 4.01        , 3           , 1           , 0           , 0
-0.1247493  , 0.102345012 , -9.791606   , -8.303163E-05, 0.0003344127, 0.000369102665, -0.0148754669, -0.014614691, -6.0684717E-05, 921.129333  , 31.7986069  , 796.759644  , 4.02        , 3           , 2           , 0           , 0
-0.12496762 , 0.125250548 , -9.785725   , 9.586266E-05, -0.000269761425, -7.134981E-05, -0.0148744974, -0.0146173984, -6.135808E-05, 921.144043  , 31.8019981  , 796.7602    , 4.03        , 3           , 3           , 0           , 0
-0.1431398  , 0.147368267 , -9.801743   , -5.219088E-05, -0.0001034615, -0.000302949775, -0.0148749752, -0.0146184778, -6.4372085E-05, 921.144043  , 31.8019981  , 796.760742  , 4.04        , 3           , 4           , 0           , 0
-0.150255054, 0.155515224 , -9.798754   , -0.000163430814, 0.000102877675, -0.0003635661, -0.0148765566, -0.0146175036, -6.802297E-05, 921.144043  , 31.8019981  , 796.7613    , 4.05        , 3           , 5           , 0           , 0
-0.159871176, 0.17424348  , -9.790495   , 0.0005544135, -0.000273167738, 0.00014364  , -0.0148710338, -0.0146202128, -6.654595E-05, 921.144043  , 31.8019981  , 796.761841  , 4.06        , 3           , 6           , 0           , 0
-0.167568937, 0.17356953  , -9.79157448 , 0.0006436896, 1.27777457E-05, -2.13697276E-05, -0.0148645928, -0.014620089, -6.676155E-05, 921.144043  , 31.8019981  , 796.7624    , 4.07        , 3           , 7           , 0           , 0
-0.161302239, 0.171454892 , -9.790888   , 5.34799765E-05, -0.000120350567, -0.000315962534, -0.0148640117, -0.0146213388, -6.990319E-05, 921.144043  , 31.8019981  , 796.762939  , 4.08        , 3           , 8           , 5           , 5
-0.131144941, 0.170209885 , -9.795482   , 0.000349314854, 6.182247E-05, -0.000789888261, -0.0148604047, -0.0146208368, -7.781105E-05, 921.144043  , 31.8019981  , 796.7635    , 4.09        , 3           , 9           , 5           , 0.1
-0.111659072, 0.1622146   , -9.794525   , 0.000245848933, -0.000359923171, -0.000223839859, -0.0148579134, -0.014624469, -7.99958943E-05, 921.144043  , 31.8019981  , 796.764038  , 4.1         , 3           , 10          , 0.1         , 0.1
-0.127936438, 0.158720255 , -9.792856   , -0.000400765217, 0.0002849421, -0.000127167266, -0.014864387, -0.0146189909, -8.127355E-05, 921.144043  , 31.8019981  , 796.7607    , 4.11        , 3           , 11          , 0.00671279244, 0.00671278965
-0.1533848  , 0.1632293   , -9.800253   , 0.000456293958, -3.78739787E-06, -4.98697773E-05, -0.014859817, -0.0146190356, -8.17716646E-05, 921.144043  , 31.8019981  , 796.7612    , 4.12        , 3           , 12          , 0.174648076 , 0
-0.152916327, 0.154777482 , -9.785128   , 2.79837986E-05, 0.00012765039, -0.000354973017, -0.0148594864, -0.0146178119, -8.534025E-05, 921.141357  , 31.8014565  , 796.7618    , 4.13        , 3           , 13          , 0           , 0
-0.14519386 , 0.168428779 , -9.794373   , 0.00040002793, 0.0001170747, 0.000251281454, -0.0148555236, -0.0146166077, -8.28449047E-05, 921.141357  , 31.8014565  , 796.7623    , 4.14        , 3           , 14          , -0.000392561255, -0.000626509951
-0.146526441, 0.1646508   , -9.792705   , 0.000595082063, 6.28233538E-05, -0.000654300442, -0.0148494774, -0.0146160768, -8.939703E-05, 921.141357  , 31.8014565  , 796.7629    , 4.15        , 3           , 15          , 0           , -8.40236753E-05
-0.146618873, 0.166768417 , -9.792124   , 0.000384741259, 0.000268280972, -0.000427282939, -0.0148455659, -0.0146134561, -9.37095756E-05, 921.141357  , 31.8014565  , 796.7634    , 4.16        , 3           , 16          , 0           , 1.401298E-45
-0.141110718, 0.153130084 , -9.791998   , 0.000352221046, -0.000299783947, -0.0004019289, -0.0148419859, -0.0146165146, -9.76842639E-05, 921.141357  , 31.8014565  , 796.764     , 4.17        , 3           , 20          , 0           , 0
-0.1471025  , 0.142693058 , -9.781378   , 0.0005441729, -0.000128710351, 0.000546652533, -0.0148366243, -0.01461772 , -9.219879E-05, 921.141357  , 31.8014565  , 796.7645    , 4.18        , 3           , 21          , 0           , 0
-0.149320722, 0.139795288 , -9.79195    , -4.74217522E-05, -4.7768408E-05, 0.000212995408, -0.014837129, -0.0146181658, -9.006181E-05, 921.141357  , 31.8014565  , 796.7651    , 4.19        , 3           , 22          , 0           , 0
-0.136329651, 0.146606728 , -9.799047   , 0.000189581333, 0.0002118178, -0.000523734954, -0.0148351565, -0.0146161262, -9.533043E-05, 921.141357  , 31.8014565  , 796.7656    , 4.2         , 3           , 40          , 0           , 0
-0.131657913, 0.144452915 , -9.789384   , 8.574073E-05, 0.000254847284, -0.000193897344, -0.0148504069, -0.01461591 , -9.707134E-05, 921.141357  , 31.8014565  , 796.7657    , 4.21        , 3           , 41          , 0           , 0
-0.143277377, 0.135007665 , -9.78432    , 0.000228304067, 3.55328666E-06, -0.0005303819, -0.0148480451, -0.014615953, -0.000102375539, 921.141357  , 31.8014565  , 796.766235  , 4.22        , 3           , 42          , 0           , 0
-0.14992784 , 0.1260423   , -9.78426552 , 0.0001834429, -0.000247908, 2.57810934E-05, -0.0148462141, -0.0146184284, -0.000102080929, 921.170532  , 31.8003712  , 796.7668    , 4.23        , 3           , 255         , 0           , 0
-0.161521047, 0.131614387 , -9.79608    , 0.000563226233, 0.000176907022, -0.000171061169, -0.0148405591, -0.0146166878, -0.000103817758, 921.170532  , 31.8003712  , 796.767334  , 4.24        , 3           , 255         , 0           , 0
-0.146348447, 0.1359534   , -9.793341   , 0.0004597286, -9.59655154E-05, -0.000288866082, -0.0148359183, -0.014617688, -0.0001066921, 921.170532  , 31.8003712  , 796.7679    , 4.25        , 3           , 255         , 0           , 0
-0.129794   , 0.132633    , -9.789357   , -0.00016810259, 0.00017786934, -0.000280345877, -0.0148375593, -0.014615952, -0.000109521883, 921.170532  , 31.8003712  , 796.768433  , 4.26        , 3           , 255         , 0           , 0
-0.134649247, 0.1234902   , -9.792485   , 0.000345893117, -0.000208689424, -0.000514867832, -0.0148340259, -0.0146181146, -0.00011463945, 921.170532  , 31.8003712  , 796.769     , 4.27        , 3           , 255         , 0           , 0
-0.148418218, 0.132875279 , -9.788975   , -0.000555710867, 0.000149124651, -7.67412857E-05, -0.01483957 , -0.0146166356, -0.000115428978, 921.170532  , 31.8003712  , 796.769531  , 4.28        , 3           , 255         , 0           , 0
-0.138686091, 0.132185012 , -9.792308   , 6.503647E-05, 0.000238085515, -2.40662557E-05, -0.0148389162, -0.0146142589, -0.000115704956, 921.170532  , 31.8003712  , 796.770142  , 4.29        , 3           , 255         , 0           , 0
-0.1411551  , 0.1297991   , -9.79896    , -0.000476109126, 7.939484E-05, -0.0006618898, -0.0148435794, -0.0146135613, -0.000122335448, 921.170532  , 31.8003712  , 796.770752  , 4.3         , 3           , 255         , 0           , 0
-0.138857931, 0.134588242 , -9.786209   , -0.000351262366, 0.0002534417, -8.332808E-05, -0.0148249473, -0.0146100149, -0.0001235297, 921.170532  , 31.8003712  , 796.7289    , 4.31        , 3           , 255         , 0           , 0
-0.137697369, 0.136530668 , -9.79011    , 6.153999E-05, -3.376871E-05, 0.0005613124, -0.0148244137, -0.0146102691, -0.000117911724, 921.170532  , 31.8003712  , 796.7292    , 4.32        , 3           , 255         , 0           , 0
-0.13946715 , 0.138947919 , -9.791288   , 3.68859619E-05, 2.61817477E-05, 0.000342961255, -0.0148240952, -0.0146099571, -0.0001144861, 921.1076    , 31.7992859  , 796.7295    , 4.33        , 3           , 255         , 0           , 0
-0.133296132, 0.143431634 , -9.790571   , 0.0003911998, 8.686719E-05, -1.81055657E-05, -0.0148201808, -0.014609091, -0.00011468002, 921.1076    , 31.7992859  , 796.7298    , 4.34        , 3           , 255         , 0           , 0
-0.13724117 , 0.149565965 , -9.783766   , -0.0005474723, 0.000231569225, -0.000122949437, -0.0148256365, -0.0146067943, -0.000115943796, 921.1076    , 31.7992859  , 796.7301    , 4.35        , 3           , 255         , 0           , 0
-0.153330043, 0.1516411   , -9.787605   , 3.153042E-05, -0.000243692368, -0.000678517, -0.014825223, -0.01460933 , -0.000122692654, 921.1076    , 31.7992859  , 796.7304    , 4.36        , 3           , 255         , 0           , 0
-0.167574927, 0.152785659 , -9.790075   , -0.000151284185, 0.00035506126, 0.000539015338, -0.0148268119, -0.014605701, -0.0001173553, 921.1076    , 31.7992859  , 796.7307    , 4.37        , 3           , 255         , 0           , 0
-0.1511946  , 0.163348079 , -9.793979   , 0.000119489821, 0.000348570262, -0.000133546971, -0.0148255983, -0.0146022355, -0.0001187424, 921.1076    , 31.7992859  , 796.731     , 4.38        , 3           , 255         , 0           , 0
-0.1463026  , 0.154709712 , -9.794101   , -0.00029619722, 0.00041934  , 0.000133410824, -0.0148285767, -0.0145980231, -0.000117470525, 921.1076    , 31.7992859  , 796.7313    , 4.39        , 3           , 255         , 0           , 0
-0.142991081, 0.151270315 , -9.801065   , -4.46246122E-05, -0.0002995095, 8.396292E-05, -0.0148290368, -0.0146010052, -0.000116586511, 921.1076    , 31.7992859  , 796.7316    , 4.4         , 3           , 255         , 0           , 0
-0.1338717  , 0.155375242 , -9.795766   , -0.000117240648, -6.715499E-05, 0.0002247681, -0.0148344738, -0.0146045573, -0.00011426711, 921.1076    , 31.7992859  , 796.784363  , 4.41        , 3           , 255         , 0           , 0
-0.1331735  , 0.155921727 , -9.798964   , 0.0002577908, -0.000109330169, 0.000376575539, -0.0148319528, -0.0146055948, -0.000110485234, 921.1076    , 31.7992859  , 796.785034  , 4.42        , 3           , 255         , 0           , 0
-0.147305444, 0.162809134 , -9.792335   , 0.000214139858, -0.000615082, 0.000191178 , -0.01482984 , -0.0146117164, -0.0001084823, 921.134155  , 31.7981319  , 796.7857    , 4.43        , 3           , 255         , 0           , 0
-0.141895   , 0.163370341 , -9.791678   , 0.000478725 , -0.00020681147, -5.239764E-05, -0.0148250461, -0.0146137932, -0.00010897559, 921.134155  , 31.7981319  , 796.7864    , 4.44        , 3           , 255         , 0           , 0
-0.145864949, 0.149682075 , -9.798405   , -9.008602E-05, -0.0004764141, -3.7929356E-05, -0.014825942, -0.0146185625, -0.000109284243, 921.134155  , 31.7981319  , 796.787048  , 4.45        , 3           , 255         , 0           , 0
-0.154327631, 0.145575047 , -9.793692   , -2.727029E-07, 1.5744241E-05, -0.0008820631, -0.0148258163, -0.0146185365, -0.000118106967, 921.134155  , 31.7981319  , 796.7877    , 4.46        , 3           , 255         , 0           , 0
-0.145551592, 0.14078714  , -9.793482   , 0.0007414819, 7.384975E-05, -0.0003493606, -0.0148183517, -0.0146178491, -0.000121611411, 921.134155  , 31.7981319  , 796.7884    , 4.47        , 3           , 255         , 0           , 0
-0.142264485, 0.141089991 , -9.794622   , 0.000470791856, -0.000340678322, 3.4173092E-05, -0.0148136485, -0.0146212494, -0.000121219222, 921.134155  , 31.7981319  , 796.789063  , 4.48        , 3           , 255         , 0           , 0
-0.137355626, 0.141111642 , -9.793947   , 0.000291966 , -0.000365860877, 0.0001356576, -0.0148107493, -0.0146248881, -0.0001198085, 921.134155  , 31.7981319  , 796.789734  , 4.49        , 3           , 255         , 0           , 0
-0.124661908, 0.130050868 , -9.796585   , 0.0003976832, -0.000342347252, 0.000149613828, -0.0148067959, -0.0146282883, -0.0001182617, 921.134155  , 31.7981319  , 796.7904    , 4.5         , 3           , 255         , 0           , 0
-0.132652491, 0.1457819   , -9.785439   , -0.000130824134, -0.0005051945, -0.0001181323, -0.0148122888, -0.0146301361, -0.0001193067, 921.134155  , 31.7981319  , 796.7973    , 4.51        , 3           , 255         , 0           , 0
-0.146792844, 0.146077871 , -9.790885   , -3.11955228E-05, 4.80510062E-06, 0.0001456761, -0.0148126222, -0.0146300672, -0.0001178507, 921.134155  , 31.7981319  , 796.798035  , 4.52        , 3           , 255         , 0           , 0
-0.146450266, 0.14586693  , -9.78769    , 0.0004082516, -1.78436167E-05, -0.00047086805, -0.0148084713, -0.0146303149, -0.000122556608, 921.156433  , 31.8003025  , 796.798767  , 4.53        , 3           , 255         , 0           , 0
-0.132253677, 0.140344337 , -9.798012   , 0.000735730457, -5.82717475E-05, 0.000153565386, -0.0148011371, -0.0146308737, -0.000121012359, 921.156433  , 31.8003025  , 796.7995    , 4.54        , 3           , 255         , 0           , 0
-0.140340164, 0.14452073  , -9.790068   , 0.000208780111, 0.0001845764, 0.000109246772, -0.0147990659, -0.014629012, -0.000119947232, 921.156433  , 31.8003025  , 796.800232  , 4.55        , 3           , 255         , 0           , 0
-0.148284972, 0.150895834 , -9.784591   , -0.00021852713, 0.0004045683, -0.0004797996, -0.01480118 , -0.014625038, -0.000124804967, 921.156433  , 31.8003025  , 796.800964  , 4.56        , 3           , 255         , 0           , 0
