Acc X       , Acc Y       , Acc Z       , Gyro X      , Gyro Y      , Gyro Z      , Euler X     , Euler Y     , Euler Z     , Pres X      , Pres Y      , Pres Z      , Time        , Status      , LowRate X   , LowRate Y   , LowRate Z    
-0.122863919, 0.128970742 , -9.785871   , 0           , 0           , 0           , -0.013178519, -0.012553487, 0           , 922.987061  , 31.85193    , 780.171265  , 0           , 2           , 0           , 5.45123148  , 0
-0.120624162, 0.127818733 , -9.802805   , -0.000467471837, -0.000331097574, -0.000216363347, -0.0131828133, -0.0125568192, -2.11994461E-06, 922.987061  , 31.85193    , 780.171265  , 0.01        , 3           , 1           , 0           , 0
-0.124877311, 0.128427565 , -9.793763   , -0.0006781178, -0.000380331243, 0.000303835055, -0.0131896315, -0.0125605827, 9.684627E-07, 922.987061  , 31.85193    , 780.171265  , 0.02        , 3           , 2           , 0           , 0
-0.1222506  , 0.122237667 , -9.792482   , -0.000448415522, -0.000350809772, 0.000353966141, -0.0131941605, -0.0125640426, 4.554294E-06, 922.937256  , 31.4155712  , 780.171265  , 0.03        , 3           , 3           , 0           , 0
-0.122990772, 0.119428441 , -9.791613   , -5.954597E-05, -0.0002553064, 0.00019901694, -0.01319478 , -0.0125665693, 6.57807232E-06, 922.937256  , 31.4155712  , 780.171265  , 0.04        , 3           , 4           , 0           , 0
-0.122890927, 0.11947833  , -9.788806   , 0.000333917618, 0.0001464828, -0.000167094433, -0.0131914206, -0.0125651257, 4.88786463E-06, 922.937256  , 31.4155712  , 780.171265  , 0.05        , 3           , 5           , 0           , 0
-0.121344425, 0.123967886 , -9.801585   , -8.452803E-05, -0.000158995535, -0.0008449891, -0.01319216 , -0.0125668272, -3.54076769E-06, 922.937256  , 31.4155712  , 780.171265  , 0.06        , 3           , 6           , 0           , 0
-0.128255665, 0.138172686 , -9.79772949 , -0.000104737235, -0.00019478146, -1.34552729E-05, -0.0131932069, -0.0125687765, -3.64961033E-06, 922.937256  , 31.4155712  , 780.171265  , 0.07        , 3           , 7           , 0           , 0
-0.125752434, 0.139576361 , -9.792438   , -0.0001065284, 0.0002668927, -0.00039665174, -0.0131942211, -0.01256616 , -7.651208E-06, 922.937256  , 31.4155712  , 780.171265  , 0.08        , 3           , 8           , 5           , 5
-0.120368853, 0.134663418 , -9.796084   , -0.000373918854, 0.000164774 , 0.0004315886, -0.0131980153, -0.0125644561, -3.35720233E-06, 922.937256  , 31.4155712  , 780.171265  , 0.09        , 3           , 9           , 5           , 0.1
-0.127783716, 0.138464153 , -9.794739   , 0.0001278712, -7.39536845E-05, 0.0005122448, -0.0131968  , -0.0125651285, 1.77484071E-06, 922.937256  , 31.4155712  , 780.171265  , 0.1         , 3           , 10          , 0.1         , 0.1
-0.135938644, 0.134868771 , -9.78575    , 2.57324427E-05, 0.000137478186, -0.000132797722, -0.0131964916, -0.0125659183, 4.283331E-07, 922.937256  , 31.4155712  , 780.6179    , 0.11        , 3           , 11          , 0.0109544508, 0.0109544508
-0.12816903 , 0.128333092 , -9.794461   , 0.000351336319, 0.000204079726, 0.000468884042, -0.0131930392, -0.0125638172, 5.0900876E-06, 922.937256  , 31.4155712  , 780.6179    , 0.12        , 3           , 12          , 0.174642488 , 0
-0.127000317, 0.125772029 , -9.795844   , -0.00033505552, -0.000129795138, 0.000178923641, -0.01319641 , -0.0125650913, 6.896385E-06, 922.9599    , 31.45519    , 780.6179    , 0.13        , 3           , 13          , 0           , 0
-0.120877959, 0.126828223 , -9.800373   , -0.0004596602, 0.000201280665, 0.000668876339, -0.0132010914, -0.0125629921, 1.35583623E-05, 922.9599    , 31.45519    , 780.6179    , 0.14        , 3           , 14          , -0.0003316424, -6.719531E-05
-0.120948479, 0.129927784 , -9.798285   , -0.00023556588, -0.0001248921, 0.000281296379, -0.0132034812, -0.0125642037, 1.63877266E-05, 922.9599    , 31.45519    , 780.6179    , 0.15        , 3           , 15          , 0           , 2.680094E-05
-0.112427913, 0.129706353 , -9.795353   , -7.648658E-05, -4.36986738E-07, 5.342422E-05, -0.0132042533, -0.0125642009, 1.69220129E-05, 922.9599    , 31.45519    , 780.6179    , 0.16        , 3           , 16          , 0           , 1.401298E-45
-0.112730488, 0.120964251 , -9.783905   , 0.00017481354, -7.56850859E-05, 0.000498723064, -0.0132025676, -0.0125648919, 2.19190661E-05, 922.9599    , 31.45519    , 780.618     , 0.17        , 3           , 20          , 0           , 0
-0.120067678, 0.126599088 , -9.788427   , -0.000278249558, 0.000212822633, 0.000424493948, -0.0132054044, -0.012562708, 2.61357654E-05, 922.9599    , 31.45519    , 780.618042  , 0.18        , 3           , 21          , 0           , 0
-0.117077611, 0.133516014 , -9.788272   , -3.35928053E-06, -0.000216758373, -0.000334488344, -0.0132053951, -0.012564919, 2.281961E-05, 922.9599    , 31.45519    , 780.6181    , 0.19        , 3           , 22          , 0           , 0
-0.126700386, 0.1412503   , -9.784609   , 0.00021306875, -4.227763E-05, 7.239679E-05, -0.0132032726, -0.0125653315, 2.35491352E-05, 922.9599    , 31.45519    , 780.618164  , 0.2         , 3           , 40          , 0           , 0
-0.130581662, 0.123517826 , -9.786234   , -0.000361578423, -1.10754409E-05, 0.000164406665, -0.0132090561, -0.0125617823, 2.52215577E-05, 922.9599    , 31.45519    , 780.5163    , 0.21        , 3           , 41          , 0           , 0
-0.12456727 , 0.125892609 , -9.781561   , -0.0007823182, 0.0003725558, -0.000112983289, -0.0132168634, -0.0125580719, 2.40425361E-05, 922.9599    , 31.45519    , 780.516357  , 0.22        , 3           , 42          , 0           , 0
-0.124830626, 0.132116973 , -9.789278   , -0.000440798525, 0.0003054149, -0.0006855352, -0.0132211847, -0.0125551084, 1.71470438E-05, 922.9846    , 31.4783249  , 780.5164    , 0.23        , 3           , 255         , 0           , 0
-0.117967747, 0.130986437 , -9.787867   , -0.000453968358, 0.000455695757, -0.000286028924, -0.0132256895, -0.0125505906, 1.42265926E-05, 922.9846    , 31.4783249  , 780.5165    , 0.24        , 3           , 255         , 0           , 0
-0.120590709, 0.127269715 , -9.789353   , -0.000708955457, 0.000204093842, 0.000305500929, -0.013232816, -0.01254851 , 1.72545E-05 , 922.9846    , 31.4783249  , 780.516541  , 0.25        , 3           , 255         , 0           , 0
-0.115344062, 0.129109815 , -9.787059   , -0.000307954033, 5.55057741E-05, 0.0004882321, -0.0132359564, -0.0125478888, 2.21293085E-05, 922.9846    , 31.4783249  , 780.5166    , 0.26        , 3           , 255         , 0           , 0
-0.11562743 , 0.133087128 , -9.795745   , -0.000225365337, 9.520833E-05, -0.000521972659, -0.013238145, -0.0125470059, 1.6897151E-05, 922.9846    , 31.4783249  , 780.516663  , 0.27        , 3           , 255         , 0           , 0
-0.107729986, 0.125366956 , -9.798048   , 0.000144791949, -8.018167E-05, -0.00023440778, -0.013236668, -0.0125478394, 1.456378E-05, 922.9846    , 31.4783249  , 780.5167    , 0.28        , 3           , 255         , 0           , 0
-0.111770511, 0.1340675   , -9.791834   , 0.000230196165, 0.0005183795, -0.000238714725, -0.013234335, -0.0125426874, 1.21080957E-05, 922.9846    , 31.4783249  , 780.5168    , 0.29        , 3           , 255         , 0           , 0
-0.117003225, 0.1289055   , -9.796588   , 0.000459610572, 0.000496003369, 0.000388183224, -0.0132297864, -0.01253768 , 1.59241663E-05, 922.9846    , 31.4783249  , 780.516846  , 0.3         , 3           , 255         , 0           , 0
-0.124849595, 0.138485238 , -9.803386   , -0.000117097254, 0.000347646244, -0.0003795942, -0.0132286167, -0.0125147095, 1.20536633E-05, 922.9846    , 31.4783249  , 780.4082    , 0.31        , 3           , 255         , 0           , 0
-0.133153677, 0.135853708 , -9.801939   , -0.000153471221, -0.0001307814, -0.00070142094, -0.0132300649, -0.0125161093, 5.05699063E-06, 922.9846    , 31.4783249  , 780.408264  , 0.32        , 3           , 255         , 0           , 0
-0.125142589, 0.132686615 , -9.795073   , 3.889628E-05, -0.000367122, -0.0003750592, -0.0132296272, -0.01251983 , 1.35509322E-06, 922.954651  , 31.4931145  , 780.4083    , 0.33        , 3           , 255         , 0           , 0
-0.118690789, 0.13360402  , -9.786652   , -0.000383529055, 4.00799036E-06, 7.777529E-05, -0.0132334726, -0.0125197787, 2.13228464E-06, 922.954651  , 31.4931145  , 780.4084    , 0.34        , 3           , 255         , 0           , 0
-0.131321967, 0.134158447 , -9.790614   , -0.0003033597, 3.143933E-05, -2.65266353E-05, -0.0132365031, -0.0125194686, 1.86286377E-06, 922.954651  , 31.4931145  , 780.408447  , 0.35        , 3           , 255         , 0           , 0
-0.119707741, 0.136534184 , -9.783968   , -0.000448117033, -0.000301827182, -0.000219289475, -0.0132409558, -0.012522513, -2.90006057E-07, 922.954651  , 31.4931145  , 780.4085    , 0.36        , 3           , 255         , 0           , 0
-0.119285747, 0.138450533 , -9.793404   , 0.0001743704, -8.73365643E-05, 8.52869853E-05, -0.0132392235, -0.0125233755, 5.74409171E-07, 922.954651  , 31.4931145  , 780.408569  , 0.37        , 3           , 255         , 0           , 0
-0.123869613, 0.122330688 , -9.793221   , 0.000276395876, -4.31827939E-05, -0.0006661044, -0.0132363765, -0.0125238961, -6.08068967E-06, 922.954651  , 31.4931145  , 780.4086    , 0.38        , 3           , 255         , 0           , 0
-0.123669244, 0.120959423 , -9.795118   , 0.000300475338, 0.000397243653, 0.000130620567, -0.013233386, -0.01251991 , -4.82709538E-06, 922.954651  , 31.4931145  , 780.4087    , 0.39        , 3           , 255         , 0           , 0
-0.123446427, 0.123672605 , -9.794744   , 8.791729E-05, -0.000308660266, 0.000452959153, -0.0132325655, -0.012522934, -2.568178E-07, 922.954651  , 31.4931145  , 780.408752  , 0.4         , 3           , 255         , 0           , 0
-0.125227854, 0.132884324 , -9.791932   , -0.0005185617, -3.327569E-05, -0.000154585112, -0.0132446289, -0.012528969, -1.71176691E-06, 922.954651  , 31.4931145  , 780.4225    , 0.41        , 3           , 255         , 0           , 0
-0.118998155, 0.13745591  , -9.797549   , -0.000216450571, 0.000326399982, -0.0008983355, -0.0132466815, -0.012525822, -1.07380547E-05, 922.954651  , 31.4931145  , 780.422546  , 0.42        , 3           , 255         , 0           , 0
-0.126112729, 0.122490682 , -9.790762   , -0.000144081423, 2.54706611E-05, -0.0006696861, -0.0132480394, -0.0125256563, -1.74380566E-05, 922.996643  , 31.5021381  , 780.4226    , 0.43        , 3           , 255         , 0           , 0
-0.12100444 , 0.119729772 , -9.792602   , -0.000311148324, 0.00015070205, -0.000530618243, -0.013251083, -0.0125242211, -2.27640248E-05, 922.996643  , 31.5021381  , 780.422668  , 0.44        , 3           , 255         , 0           , 0
-0.122928068, 0.122432567 , -9.78828049 , -0.000261637877, -8.055895E-05, 0.000197620626, -0.0132537251, -0.0125250006, -2.07772118E-05, 922.996643  , 31.5021381  , 780.4227    , 0.45        , 3           , 255         , 0           , 0
-0.116564907, 0.131442145 , -9.791771   , 5.51762932E-05, 0.0003476385, -5.419518E-05, -0.0132531663, -0.0125215305, -2.136522E-05, 922.996643  , 31.5021381  , 780.4228    , 0.46        , 3           , 255         , 0           , 0
-0.1211709  , 0.138548419 , -9.796538   , 8.938857E-05, 0.000280423963, -0.0004747405, -0.0132522127, -0.0125187924, -2.61496243E-05, 922.996643  , 31.5021381  , 780.422852  , 0.47        , 3           , 255         , 0           , 0
-0.130737066, 0.129689589 , -9.7954     , -0.000317660364, 0.000188763428, 0.000392896472, -0.0132554369, -0.0125168525, -2.22458148E-05, 922.996643  , 31.5021381  , 780.4229    , 0.48        , 3           , 255         , 0           , 0
-0.128577113, 0.133162916 , -9.79328    , -0.0008455388, -3.878645E-05, -0.000120264929, -0.0132638765, -0.0125172548, -2.34432773E-05, 922.996643  , 31.5021381  , 780.423     , 0.49        , 3           , 255         , 0           , 0
-0.125361323, 0.1358228   , -9.79278    , 0.000432710047, 2.19468784E-05, -0.00107145449, -0.0132594164, -0.0125171794, -3.41603627E-05, 922.996643  , 31.5021381  , 780.423035  , 0.5         , 3           , 255         , 0           , 0
-0.13263467 , 0.13377443  , -9.802893   , -5.347759E-05, 0.000205911085, -9.283624E-05, -0.01326191 , -0.01251855 , -3.50913251E-05, 922.996643  , 31.5021381  , 780.3536    , 0.51        , 3           , 255         , 0           , 0
-0.126190379, 0.13441956  , -9.797557   , -1.17674645E-05, -0.00029198642, 0.0007470489, -0.01326212 , -0.0125213712, -2.75823786E-05, 922.996643  , 31.5021381  , 780.353638  , 0.52        , 3           , 255         , 0           , 0
-0.112043463, 0.134765685 , -9.796865   , 5.7471043E-06, -0.000247855962, 0.000481791474, -0.0132621238, -0.0125237862, -2.27317578E-05, 922.9312    , 31.5121784  , 780.3537    , 0.53        , 3           , 255         , 0           , 0
-0.117771208, 0.135320142 , -9.797854   , 2.26397242E-05, -0.000269899581, -0.0002795132, -0.0132618621, -0.0125265215, -2.54909955E-05, 922.9312    , 31.5121784  , 780.35376   , 0.54        , 3           , 255         , 0           , 0
-0.125064254, 0.131624177 , -9.793645   , 1.92874868E-05, -3.29917384E-06, -0.0008578637, -0.0132615613, -0.0125266677, -3.40689039E-05, 922.9312    , 31.5121784  , 780.3538    , 0.55        , 3           , 255         , 0           , 0
-0.118653476, 0.121930204 , -9.803678   , 4.35096154E-05, -0.000322689, -0.000397867319, -0.013261077, -0.0125299469, -3.80046549E-05, 922.9312    , 31.5121784  , 780.3539    , 0.56        , 3           , 255         , 0           , 0
-0.123761117, 0.123445645 , -9.80178452 , 0.000433389447, -0.000310311385, 0.000300909072, -0.0132567808, -0.0125330091, -3.49545262E-05, 922.9312    , 31.5121784  , 780.353943  , 0.57        , 3           , 255         , 0           , 0
-0.11858803 , 0.126251191 , -9.79900551 , 0.000378227123, -3.0647745E-05, -9.525506E-05, -0.0132529875, -0.0125333276, -3.59029837E-05, 922.9312    , 31.5121784  , 780.354     , 0.58        , 3           , 255         , 0           , 0
-0.120130107, 0.120958865 , -9.78457451 , 0.000220794071, -0.0001949266, 0.000546597061, -0.0132508464, -0.0125352042, -3.04113673E-05, 922.9312    , 31.5121784  , 780.354065  , 0.59        , 3           , 255         , 0           , 0
-0.110747516, 0.1327115   , -9.791801   , 0.0004236968, -0.0006525083, 0.000344569446, -0.0132466545, -0.0125416834, -2.68793428E-05, 922.9312    , 31.5121784  , 780.3541    , 0.6         , 3           , 255         , 0           , 0
-0.118809365, 0.129132077 , -9.790283   , 0.000112373105, -0.000343856955, 0.000364480133, -0.0132444873, -0.0125393076, -2.32027724E-05, 922.9312    , 31.5121784  , 780.4101    , 0.61        , 3           , 255         , 0           , 0
-0.126838118, 0.122230269 , -9.790984   , -0.000172497792, 0.000133923473, -3.654507E-05, -0.0132462075, -0.0125379739, -2.35859388E-05, 922.9312    , 31.5121784  , 780.4102    , 0.62        , 3           , 255         , 0           , 0
-0.122432888, 0.1273069   , -9.790149   , -4.49924555E-05, 0.000105377738, -0.000477072783, -0.0132465977, -0.0125369839, -2.83704612E-05, 922.9822    , 31.51774    , 780.410339  , 0.63        , 3           , 255         , 0           , 0
-0.123225726, 0.120853163 , -9.788655   , -0.000228777033, 9.14798657E-05, -0.000243230286, -0.0132488562, -0.012536102, -3.08148E-05, 922.9822    , 31.51774    , 780.410461  , 0.64        , 3           , 255         , 0           , 0
-0.121512853, 0.123283818 , -9.794637   , 9.256008E-06, 0.00025950803, 0.0005823238, -0.0132488366, -0.0125334291, -2.50261473E-05, 922.9822    , 31.51774    , 780.4106    , 0.65        , 3           , 255         , 0           , 0
-0.119121335, 0.124422289 , -9.804525   , 0.000158758179, 4.826382E-05, 0.0004455498, -0.0132473037, -0.012532887, -2.0577203E-05, 922.9822    , 31.51774    , 780.4107    , 0.66        , 3           , 255         , 0           , 0
-0.1209571  , 0.136812568 , -9.793049   , -6.296593E-05, -0.00029041752, -0.000702817633, -0.0132478466, -0.012535885, -2.75666735E-05, 922.9822    , 31.51774    , 780.4108    , 0.67        , 3           , 255         , 0           , 0
-0.120605811, 0.129329145 , -9.787585   , -0.00011512835, 9.757211E-05, -0.000582408044, -0.0132489242, -0.0125349853, -3.340347E-05, 922.9822    , 31.51774    , 780.41095   , 0.68        , 3           , 255         , 0           , 0
-0.120560788, 0.143441051 , -9.789488   , 9.29108646E-05, -0.000167467835, 0.0006018051, -0.01324807 , -0.0125365807, -2.7363456E-05, 922.9822    , 31.51774    , 780.4111    , 0.69        , 3           , 255         , 0           , 0
-0.118671179, 0.13586998  , -9.785849   , 7.35435751E-05, 3.31854826E-05, -0.000288699841, -0.0132472981, -0.0125362873, -3.02547487E-05, 922.9822    , 31.51774    , 780.4112    , 0.7         , 3           , 255         , 0           , 0
-0.119225524, 0.127651468 , -9.793463   , -0.0004801643, -0.000153666391, -8.855041E-05, -0.0132503947, -0.0125324707, -3.11410877E-05, 922.9822    , 31.51774    , 780.3816    , 0.71        , 3           , 255         , 0           , 0
-0.128176779, 0.126484275 , -9.790396   , 7.767204E-05, 1.18281823E-05, -0.0005206154, -0.0132495528, -0.0125324214, -3.63486251E-05, 922.9822    , 31.51774    , 780.3817    , 0.72        , 3           , 255         , 0           , 0
-0.121108249, 0.1328729   , -9.802255   , -5.165345E-05, -0.000488954131, 1.96331785E-05, -0.0132500716, -0.012537309, -3.60875274E-05, 922.987732  , 31.5210648  , 780.381836  , 0.73        , 3           , 255         , 0           , 0
-0.12107189 , 0.13263467  , -9.795102   , -0.0003549147, -0.000241548463, -0.000270291, -0.0132535882, -0.01253976 , -3.875832E-05, 922.987732  , 31.5210648  , 780.381958  , 0.74        , 3           , 255         , 0           , 0
-0.128153712, 0.134377152 , -9.787203   , 0.0003414777, -0.000132955931, -2.03394775E-05, -0.0132501712, -0.012541092, -3.89440829E-05, 922.987732  , 31.5210648  , 780.3821    , 0.75        , 3           , 255         , 0           , 0
-0.130116269, 0.139738455 , -9.783136   , 1.16262236E-05, -6.093687E-07, 0.0003016179, -0.013250093, -0.0125410585, -3.59279256E-05, 922.987732  , 31.5210648  , 780.3822    , 0.76        , 3           , 255         , 0           , 0
-0.126124576, 0.130620539 , -9.794146   , -0.0002990535, -6.731981E-05, 0.00049983745, -0.0132531468, -0.0125416648, -3.09207971E-05, 922.987732  , 31.5210648  , 780.3823    , 0.77        , 3           , 255         , 0           , 0
-0.128125012, 0.125261456 , -9.792219   , 0.000224060379, -0.000334634737, 0.000179903131, -0.0132509274, -0.0125449868, -2.90774879E-05, 922.987732  , 31.5210648  , 780.382446  , 0.78        , 3           , 255         , 0           , 0
-0.12559852 , 0.126286954 , -9.792632   , -7.500354E-05, 0.000130512766, -2.9628005E-05, -0.0132516744, -0.0125436857, -2.93910525E-05, 922.987732  , 31.5210648  , 780.382568  , 0.79        , 3           , 255         , 0           , 0
-0.12206956 , 0.128800914 , -9.793305   , -0.0001594557, 9.596532E-05, 4.40206E-06 , -0.01325327 , -0.0125427255, -2.93597568E-05, 922.987732  , 31.5210648  , 780.3827    , 0.8         , 3           , 255         , 0           , 0
-0.116721846, 0.12487416  , -9.788719   , 3.14166246E-05, 0.000100244448, 2.00060967E-05, -0.0132552562, -0.0125487987, -2.91441283E-05, 922.987732  , 31.5210648  , 780.352966  , 0.81        , 3           , 255         , 0           , 0
-0.128155783, 0.116597369 , -9.791122   , 9.383085E-05, 4.978457E-05, 0.000312107615, -0.0132543584, -0.0125482595, -2.60297584E-05, 922.987732  , 31.5210648  , 780.3531    , 0.82        , 3           , 255         , 0           , 0
-0.123668954, 0.12214835  , -9.794802   , 1.01392507E-05, -0.000108455177, 0.000155136615, -0.0132542765, -0.012549323, -2.4464076E-05, 922.9456    , 31.52439    , 780.3532    , 0.83        , 3           , 255         , 0           , 0
-0.122429386, 0.132803708 , -9.787778   , 1.00498728E-05, -0.000249255681, -0.000144211488, -0.0132541582, -0.0125518339, -2.58731179E-05, 922.9456    , 31.52439    , 780.353333  , 0.84        , 3           , 255         , 0           , 0
-0.130185083, 0.1294746   , -9.790198   , 0.0002765519, 5.31771875E-05, -0.000348052476, -0.0132513493, -0.0125513477, -2.93605644E-05, 922.9456    , 31.52439    , 780.353455  , 0.85        , 3           , 255         , 0           , 0
-0.125460029, 0.12865302  , -9.803888   , 0.0006582659, -0.000246947136, -0.00016132032, -0.0132447453, -0.0125538372, -3.09410061E-05, 922.9456    , 31.52439    , 780.3536    , 0.86        , 3           , 255         , 0           , 0
-0.12280836 , 0.124596976 , -9.792122   , -0.000250754936, -3.71091228E-05, -0.000136144241, -0.0132472366, -0.0125542264, -3.229749E-05, 922.9456    , 31.52439    , 780.3537    , 0.87        , 3           , 255         , 0           , 0
-0.13372077 , 0.127340585 , -9.78465748 , 3.21083935E-05, 0.000193595653, -0.0006211436, -0.0132468371, -0.0125523731, -3.85343556E-05, 922.9456    , 31.52439    , 780.3538    , 0.88        , 3           , 255         , 0           , 0
-0.12782757 , 0.122604683 , -9.792672   , 0.000197366142, -0.0001776659, 0.000339922728, -0.0132449055, -0.0125541044, -3.5111716E-05, 922.9456    , 31.52439    , 780.353943  , 0.89        , 3           , 255         , 0           , 0
-0.128465682, 0.118412733 , -9.78835    , 0.0003294045, -8.607458E-07, 0.0003451869, -0.0132416552, -0.0125540672, -3.165985E-05, 922.9456    , 31.52439    , 780.354065  , 0.9         , 3           , 255         , 0           , 0
-0.120302126, 0.1349885   , -9.791586   , -0.0002859617, -0.000412257621, -0.000211942752, -0.0132272951, -0.0125686023, -3.39407234E-05, 922.9456    , 31.52439    , 780.378662  , 0.91        , 3           , 255         , 0           , 0
-0.121452495, 0.12900272  , -9.791783   , -0.000104950363, -9.807176E-05, -0.000317886617, -0.0132283056, -0.0125696259, -3.71065034E-05, 922.9456    , 31.52439    , 780.3788    , 0.92        , 3           , 255         , 0           , 0
-0.121611036, 0.134715274 , -9.79478    , -5.896468E-05, -0.000177770911, 0.000441512 , -0.01322895 , -0.0125713451, -3.26680129E-05, 922.932556  , 31.52656    , 780.3789    , 0.93        , 3           , 255         , 0           , 0
-0.1215512  , 0.135194927 , -9.793051   , 0.00011024432, -0.000474877626, -5.021981E-05, -0.0132278418, -0.0125760976, -3.31073752E-05, 922.932556  , 31.52656    , 780.379     , 0.94        , 3           , 255         , 0           , 0
-0.115075208, 0.134246871 , -9.790209   , -2.85089191E-05, -0.0001731603, -0.000525329262, -0.01322806 , -0.0125778979, -3.833759E-05, 922.932556  , 31.52656    , 780.37915   , 0.95        , 3           , 255         , 0           , 0
-0.128794312, 0.1373543   , -9.797711   , -5.87134855E-06, -0.0002139059, 6.37185658E-05, -0.0132281277, -0.0125800278, -3.76721364E-05, 922.932556  , 31.52656    , 780.379333  , 0.96        , 3           , 255         , 0           , 0
-0.123146996, 0.133999318 , -9.799665   , 0.0005018486, 0.0002288484, 7.639123E-05, -0.0132231181, -0.0125777293, -3.69385161E-05, 922.932556  , 31.52656    , 780.3795    , 0.97        , 3           , 255         , 0           , 0
-0.120049044, 0.132820979 , -9.794863   , -0.000198487687, -1.099451E-05, 0.0005676994, -0.0132251745, -0.0125777638, -3.12602642E-05, 922.932556  , 31.52656    , 780.3797    , 0.98        , 3           , 255         , 0           , 0
-0.116314732, 0.125077888 , -9.79695    , -0.000216556509, 2.3557579E-05, 0.000160174808, -0.01322736 , -0.0125775076, -2.96616836E-05, 922.932556  , 31.52656    , 780.3799    , 0.99        , 3           , 255         , 0           , 0
-0.128164887, 0.134514272 , -9.799242   , -0.00024155734, -0.0003915459, -6.20640058E-05, -0.01322977 , -0.0125814313, -3.02305052E-05, 922.932556  , 31.52656    , 780.380066  , 1           , 3           , 0           , 6.45123625  , 100
-0.129209608, 0.128610536 , -9.794271   , 0.0005716408, -9.211721E-05, -0.000254212, -0.0132334232, -0.012578316, -3.26420959E-05, 922.932556  , 31.52656    , 780.4144    , 1.01        , 3           , 1           , 0           , 0
-0.12294127 , 0.1379561   , -9.798468   , -0.000404667517, 8.354218E-06, -0.0001564347, -0.01323745 , -0.0125782536, -3.42074964E-05, 922.932556  , 31.52656    , 780.4147    , 1.02        , 3           , 2           , 0           , 0
-0.131719887, 0.138180569 , -9.785457   , 0.000199535367, -0.000366506749, -8.06999E-06, -0.0132354535, -0.0125819184, -3.423968E-05, 922.9716    , 31.5289345  , 780.4149    , 1.03        , 3           , 3           , 0           , 0
-0.120972015, 0.129451513 , -9.792841   , 5.08231169E-05, 3.826541E-05, 0.000484309741, -0.0132350065, -0.0125814714, -2.940181E-05, 922.9716    , 31.5289345  , 780.415161  , 1.04        , 3           , 4           , 0           , 0
-0.122299239, 0.126669645 , -9.796355   , 1.703846E-05, -0.0001003139, 0.000563878042, -0.0132349068, -0.0125824  , -2.37499371E-05, 922.9716    , 31.5289345  , 780.4154    , 1.05        , 3           , 5           , 0           , 0
-0.126829967, 0.133294687 , -9.793303   , -0.0003733369, 0.0001293204, -0.0002816904, -0.0132386051, -0.0125811454, -2.65838717E-05, 922.9716    , 31.5289345  , 780.415649  , 1.06        , 3           , 6           , 0           , 0
-0.115756318, 0.130630761 , -9.803203   , -4.65990161E-05, 0.0002932655, -0.0008464312, -0.0132389627, -0.0125783253, -3.50867267E-05, 922.9716    , 31.5289345  , 780.4159    , 1.07        , 3           , 7           , 0           , 0
-0.122582719, 0.12936759  , -9.79778    , -0.000304371119, -0.000103388309, -0.000225147436, -0.0132419793, -0.012579388, -3.73244366E-05, 922.9716    , 31.5289345  , 780.416138  , 1.08        , 3           , 8           , 5           , 5
-0.124399483, 0.141696632 , -9.801207   , -0.000270352815, -0.00028974918, -4.555528E-05, -0.0132446773, -0.0125822918, -3.77415963E-05, 922.9716    , 31.5289345  , 780.4164    , 1.09        , 3           , 9           , 5           , 0.1
-0.119655326, 0.14000909  , -9.792248   , -7.922793E-05, -0.00013136919, 0.00103887438, -0.0132455993, -0.0125834709, -2.73357946E-05, 922.9716    , 31.5289345  , 780.4166    , 1.1         , 3           , 10          , 0.1         , 0.1
-0.118568048, 0.125435039 , -9.791055   , 0.00023686  , 7.0289454E-05, 0.000689087 , -0.0132529791, -0.0125835845, -2.03328982E-05, 922.9716    , 31.5289345  , 780.404846  , 1.11        , 3           , 11          , 0.00921768  , 0.0092176795
-0.125510931, 0.1277409   , -9.794544   , 8.495737E-05, 4.03750055E-05, 0.000286343973, -0.0132521652, -0.0125831431, -1.747491E-05, 922.9716    , 31.5289345  , 780.4051    , 1.12        , 3           , 12          , 0.174642846 , 0
-0.115124561, 0.134926215 , -9.795019   , -8.53228848E-05, 3.05564572E-05, 5.228727E-05, -0.0132530257, -0.0125828311, -1.69561063E-05, 922.9533    , 31.53097    , 780.405334  , 1.13        , 3           , 13          , 0           , 0
-0.122804619, 0.1326923   , -9.796732   , 0.000511461869, 0.0001043401, 0.000146553808, -0.01324793 , -0.0125817666, -1.55044472E-05, 922.9533    , 31.53097    , 780.4056    , 1.14        , 3           , 14          , -0.0003316331, -6.719152E-05
-0.129990429, 0.125562727 , -9.794852   , 0.0005600124, -0.000139741, 2.0991316E-05, -0.0132423332, -0.0125831645, -1.52760331E-05, 922.9533    , 31.53097    , 780.4058    , 1.15        , 3           , 15          , 0           , 2.68008771E-05
-0.124015391, 0.1302805   , -9.790659   , -6.43463864E-05, 0.000158063165, 1.430124E-05, -0.0132429786, -0.0125815794, -1.51539562E-05, 922.9533    , 31.53097    , 780.406067  , 1.16        , 3           , 16          , 0           , 1.401298E-45
-0.1181594  , 0.131084144 , -9.790189   , 0.000122308353, -0.000278643245, 0.000127941719, -0.0132417716, -0.01258435 , -1.38376827E-05, 922.9533    , 31.53097    , 780.4063    , 1.17        , 3           , 20          , 0           , 0
-0.132161781, 0.134123415 , -9.791986   , 0.000308818242, -0.0002262017, 0.000286472816, -0.0132387187, -0.0125865731, -1.09430994E-05, 922.9533    , 31.53097    , 780.406555  , 1.18        , 3           , 21          , 0           , 0
-0.126308978, 0.133424759 , -9.793061   , 0.0004593597, -0.000434282556, 0.000330647919, -0.0132341683, -0.0125908712, -7.57926E-06, 922.9533    , 31.53097    , 780.4068    , 1.19        , 3           , 22          , 0           , 0
-0.127277747, 0.127036646 , -9.787535   , 5.979548E-05, -0.000384482177, -0.000236310734, -0.0132335406, -0.0125947474, -9.891408E-06, 922.9533    , 31.53097    , 780.407043  , 1.2         , 3           , 40          , 0           , 0
-0.121418014, 0.127855659 , -9.785542   , -0.000368011824, -0.000198917114, 0.000139670927, -0.0132387588, -0.01259892 , -8.449243E-06, 922.9533    , 31.53097    , 780.415344  , 1.21        , 3           , 41          , 0           , 0
-0.12706396 , 0.136260778 , -9.78969    , 0.0006642825, 3.96242031E-05, 0.0006622403, -0.0132322  , -0.0125984345, -1.83231168E-06, 922.9533    , 31.53097    , 780.4156    , 1.22        , 3           , 42          , 0           , 0
-0.131119043, 0.128269941 , -9.792261   , -7.961938E-05, -0.000229048484, 0.0001656811, -0.0132330172, -0.0126007022, -1.45246915E-07, 922.939636  , 31.5306988  , 780.415833  , 1.23        , 3           , 255         , 0           , 0
-0.119871691, 0.128663853 , -9.806559   , -0.000181767566, -0.0003844821, 0.000376483949, -0.0132348826, -0.0126044964, 3.67034249E-06, 922.939636  , 31.5306988  , 780.4161    , 1.24        , 3           , 255         , 0           , 0
-0.133049533, 0.129656836 , -9.798478   , 3.52286734E-05, 4.07027364E-05, 0.000125946986, -0.0132345473, -0.0126040727, 4.92438767E-06, 922.939636  , 31.5306988  , 780.4163    , 1.25        , 3           , 255         , 0           , 0
-0.125618845, 0.12052846  , -9.794336   , -0.000209728838, -0.000345238921, -0.000462606782, -0.0132365879, -0.0126075847, 3.44180165E-07, 922.939636  , 31.5306988  , 780.416565  , 1.26        , 3           , 255         , 0           , 0
-0.12163721 , 0.122941718 , -9.799896   , -0.0004544676, -0.0005426048, -0.0004560512, -0.0132410722, -0.0126130711, -4.14435863E-06, 922.939636  , 31.5306988  , 780.4168    , 1.27        , 3           , 255         , 0           , 0
-0.125418276, 0.13231203  , -9.793866   , -0.0001217002, -0.0004089445, -2.765957E-05, -0.0132422876, -0.0126171624, -4.366781E-06, 922.939636  , 31.5306988  , 780.4171    , 1.28        , 3           , 255         , 0           , 0
-0.127865955, 0.13012822  , -9.799381   , 9.065354E-05, -0.0002695606, 0.000386229483, -0.01324143 , -0.0126198074, -4.689219E-07, 922.939636  , 31.5306988  , 780.4174    , 1.29        , 3           , 255         , 0           , 0
-0.117850617, 0.132295787 , -9.800425   , -6.830908E-05, 0.000108421809, 0.0005319293, -0.0132421795, -0.0126186535, 4.835841E-06, 922.939636  , 31.5306988  , 780.4177    , 1.3         , 3           , 255         , 0           , 0
-0.122913718, 0.135328561 , -9.795296   , -0.0003988756, -0.000162199547, 0.0009513635, -0.0132445563, -0.01262378 , 1.43487869E-05, 922.939636  , 31.5306988  , 780.4388    , 1.31        , 3           , 255         , 0           , 0
-0.123905875, 0.1354663   , -9.790573   , 0.000105002022, -0.000231383718, 0.0004951637, -0.0132435709, -0.0126260286, 1.933091E-05, 922.939636  , 31.5306988  , 780.439148  , 1.32        , 3           , 255         , 0           , 0
-0.125405878, 0.130254954 , -9.79673    , 0.0003411496, 9.892709E-05, 0.00060291274, -0.013240234, -0.0126249632, 2.53467442E-05, 922.9503    , 31.5323944  , 780.4395    , 1.33        , 3           , 255         , 0           , 0
-0.124889217, 0.137916446 , -9.789414   , 0.000357409765, -0.000116840274, -0.00021710321, -0.0132366344, -0.0126261581, 2.31912472E-05, 922.9503    , 31.5323944  , 780.4399    , 1.34        , 3           , 255         , 0           , 0
-0.124480844, 0.136430889 , -9.789902   , -0.000214291649, 9.19616141E-05, -0.000318201666, -0.0132387355, -0.0126252808, 1.99971637E-05, 922.9503    , 31.5323944  , 780.440247  , 1.35        , 3           , 255         , 0           , 0
-0.121471956, 0.135395139 , -9.791025   , -0.00106335664, 0.00046078  , -7.56275767E-07, -0.0132493693, -0.0126206754, 1.9928586E-05, 922.9503    , 31.5323944  , 780.4406    , 1.36        , 3           , 255         , 0           , 0
-0.111775018, 0.130838364 , -9.794218   , -0.000171587832, 6.708716E-05, 0.000314755918, -0.0132511249, -0.0126199629, 2.306715E-05, 922.9503    , 31.5323944  , 780.441     , 1.37        , 3           , 255         , 0           , 0
-0.124622785, 0.129884586 , -9.788298   , -0.000515158637, -0.000127564708, -0.000219663969, -0.0132562481, -0.0126212658, 2.08874826E-05, 922.9503    , 31.5323944  , 780.441345  , 1.38        , 3           , 255         , 0           , 0
-0.12278799 , 0.1368772   , -9.789273   , -0.000524931937, -0.00022020383, 7.833977E-05, -0.0132615063, -0.0126234572, 2.17000525E-05, 922.9503    , 31.5323944  , 780.4417    , 1.39        , 3           , 255         , 0           , 0
-0.122709349, 0.135087267 , -9.795372   , -0.000451848056, 1.90415776E-05, 2.90656135E-06, -0.0132660242, -0.0126232672, 2.17265824E-05, 922.9503    , 31.5323944  , 780.4421    , 1.4         , 3           , 255         , 0           , 0
-0.127784252, 0.127687916 , -9.7968235  , 2.72851321E-05, 0.000289531134, -0.000171328327, -0.013279235, -0.0126170954, 2.01453549E-05, 922.9503    , 31.5323944  , 780.4497    , 1.41        , 3           , 255         , 0           , 0
-0.122671768, 0.126797467 , -9.804177   , -0.0006035122, 2.26546945E-05, 0.000179925468, -0.0132852914, -0.0126168448, 2.194154E-05, 922.9503    , 31.5323944  , 780.450134  , 1.42        , 3           , 255         , 0           , 0
-0.122914337, 0.127177387 , -9.781898   , -0.0002926017, -0.000423117046, 0.00043454938, -0.0132882725, -0.0126210181, 2.63431E-05 , 922.9758    , 31.5323944  , 780.450562  , 1.43        , 3           , 255         , 0           , 0
-0.1288101  , 0.119798422 , -9.784555   , -0.0003956901, -0.000349396549, -0.0003839357, -0.0132921794, -0.0126245618, 2.255031E-05, 922.9758    , 31.5323944  , 780.451     , 1.44        , 3           , 255         , 0           , 0
-0.1330662  , 0.1284686   , -9.79038    , -0.0002484761, -0.00022529345, -0.000426162645, -0.0132946121, -0.0126268705, 1.83187785E-05, 922.9758    , 31.5323944  , 780.4514    , 1.45        , 3           , 255         , 0           , 0
-0.129609481, 0.132058352 , -9.7900095  , 9.77338641E-05, 0.000384109735, 7.695939E-05, -0.0132936435, -0.0126230195, 1.90372848E-05, 922.9758    , 31.5323944  , 780.451843  , 1.46        , 3           , 255         , 0           , 0
-0.115074649, 0.129972875 , -9.790719   , -0.0003100324, -0.000204757962, 0.000554201368, -0.0132968156, -0.0126249939, 2.46063428E-05, 922.9758    , 31.5323944  , 780.4523    , 1.47        , 3           , 255         , 0           , 0
-0.125426129, 0.13276732  , -9.789442   , -0.000369338319, -0.000266034622, -0.000629261835, -0.0133004282, -0.0126277376, 1.8349303E-05, 922.9758    , 31.5323944  , 780.4527    , 1.48        , 3           , 255         , 0           , 0
-0.123997889, 0.132752672 , -9.790671   , -0.000473486376, -1.19574688E-05, -0.0004275034, -0.013305109, -0.0126279127, 1.40760048E-05, 922.9758    , 31.5323944  , 780.4531    , 1.49        , 3           , 255         , 0           , 0
-0.125884011, 0.133929044 , -9.794009   , -0.0002836999, 0.000197497546, -0.000100201694, -0.0133079328, -0.0126259523, 1.3047742E-05, 922.9758    , 31.5323944  , 780.453552  , 1.5         , 3           , 255         , 0           , 0
-0.126966581, 0.136737555 , -9.795339   , -0.0006616054, -0.000251903723, -0.00080109277, -0.01331141 , -0.0126341349, 5.03224328E-06, 922.9758    , 31.5323944  , 780.433167  , 1.51        , 3           , 255         , 0           , 0
-0.12279997 , 0.135159522 , -9.794424   , -0.000192484469, -9.902439E-05, -8.47251649E-05, -0.0133133242, -0.012635136, 4.19819935E-06, 922.9758    , 31.5323944  , 780.4335    , 1.52        , 3           , 255         , 0           , 0
-0.122561254, 0.1342358   , -9.788239   , 3.92117654E-05, 0.000134268674, 0.00010083594, -0.0133129442, -0.01263378 , 5.18865227E-06, 922.9699    , 31.5323277  , 780.4338    , 1.53        , 3           , 255         , 0           , 0
-0.129039839, 0.130317956 , -9.792969   , 0.0006199727, -1.44256846E-05, 8.075441E-05, -0.0133067565, -0.0126339132, 5.998087E-06, 922.9699    , 31.5323277  , 780.4341    , 1.54        , 3           , 255         , 0           , 0
-0.1306611  , 0.124767005 , -9.788071   , 0.000265317736, -0.000144342863, 0.00029127  , -0.0133041395, -0.0126353214, 8.929906E-06, 922.9699    , 31.5323277  , 780.4344    , 1.55        , 3           , 255         , 0           , 0
-0.129278973, 0.117457852 , -9.794184   , -0.0005413266, 0.0002485808, 0.000670760463, -0.0133096371, -0.0126327444, 1.56042E-05 , 922.9699    , 31.5323277  , 780.4347    , 1.56        , 3           , 255         , 0           , 0
-0.117729053, 0.129391283 , -9.789339   , 3.1434698E-05, 1.24373328E-05, -0.000450292951, -0.0133092646, -0.01263268 , 1.10997689E-05, 922.9699    , 31.5323277  , 780.435     , 1.57        , 3           , 255         , 0           , 0
-0.128020048, 0.130565226 , -9.78643    , -0.00020422996, -0.000193837564, -0.000105282656, -0.0133112939, -0.0126346331, 1.00727739E-05, 922.9699    , 31.5323277  , 780.4353    , 1.58        , 3           , 255         , 0           , 0
-0.118599676, 0.127808541 , -9.788391   , -0.000301071035, -4.23339443E-05, -5.52813071E-05, -0.0133142974, -0.0126350615, 9.5256155E-06, 922.9699    , 31.5323277  , 780.4356    , 1.59        , 3           , 255         , 0           , 0
-0.124364473, 0.122061491 , -9.797959   , -0.000199691276, 0.000313141354, -0.0002963764, -0.013316256, -0.01263197 , 6.520251E-06, 922.9699    , 31.5323277  , 780.4359    , 1.6         , 3           , 255         , 0           , 0
-0.12360023 , 0.110166229 , -9.806681   , 0.000557289866, -0.000351517752, -0.000403140933, -0.0133065917, -0.0126391174, 2.48468336E-06, 922.9699    , 31.5323277  , 780.42334   , 1.61        , 3           , 255         , 0           , 0
-0.130301967, 0.126354977 , -9.800444   , 0.00106317317, 0.000250340439, -0.0008553003, -0.0132958516, -0.0126367295, -6.101334E-06, 922.9699    , 31.5323277  , 780.4236    , 1.62        , 3           , 255         , 0           , 0
-0.120409667, 0.1276085   , -9.791249   , 7.07311E-05 , 5.72470781E-05, 0.000240111025, -0.0132951736, -0.0126361232, -3.70792054E-06, 923.002     , 31.5344982  , 780.4239    , 1.63        , 3           , 255         , 0           , 0
-0.124330685, 0.121045075 , -9.791978   , -8.370192E-05, -0.000126336, 0.000435138383, -0.0132960668, -0.0126373284, 6.60120349E-07, 923.002     , 31.5344982  , 780.4242    , 1.64        , 3           , 255         , 0           , 0
-0.124088287, 0.130427808 , -9.790045   , 0.0005521267, -0.000130783272, 0.0006282652, -0.0132906251, -0.0126385521, 6.959937E-06, 923.002     , 31.5344982  , 780.4245    , 1.65        , 3           , 255         , 0           , 0
-0.119050086, 0.130506009 , -9.789667   , -0.000124819111, -2.65895287E-05, 0.000684724364, -0.01329196 , -0.0126387272, 1.38104933E-05, 923.002     , 31.5344982  , 780.4248    , 1.66        , 3           , 255         , 0           , 0
-0.129366532, 0.122175172 , -9.783657   , 0.000843853 , -0.00032723468, 7.557626E-05, -0.0132835312, -0.01264199 , 1.46097127E-05, 923.002     , 31.5344982  , 780.4251    , 1.67        , 3           , 255         , 0           , 0
-0.132118672, 0.125311166 , -9.791113   , 0.000191533123, -0.0001051638, -0.0005600678, -0.0132815456, -0.0126431147, 9.023186E-06, 923.002     , 31.5344982  , 780.4254    , 1.68        , 3           , 255         , 0           , 0
-0.123823956, 0.120757505 , -9.805117   , -0.0003156434, 1.44327933E-05, -0.000472161744, -0.0132846422, -0.0126430336, 4.29981628E-06, 923.002     , 31.5344982  , 780.4257    , 1.69        , 3           , 255         , 0           , 0
-0.112123154, 0.131425709 , -9.799604   , -0.0003838753, -1.49203624E-05, -5.69253971E-05, -0.0132884746, -0.012643191, 3.732559E-06, 923.002     , 31.5344982  , 780.426     , 1.7         , 3           , 255         , 0           , 0
-0.114952266, 0.135588378 , -9.8004055  , 0.000354664429, 4.41634729E-05, -0.000114495124, -0.0132725993, -0.0126430169, 2.42610736E-06, 923.002     , 31.5344982  , 780.3789    , 1.71        , 3           , 255         , 0           , 0
-0.1229869  , 0.1411246   , -9.793816   , 6.6682E-05  , 0.000449034822, 0.000101638841, -0.0132719455, -0.0126385121, 3.38287032E-06, 923.002     , 31.5344982  , 780.378967  , 1.72        , 3           , 255         , 0           , 0
-0.117308691, 0.140267462 , -9.790358   , -0.000181305513, 0.000115180548, 0.0004231386, -0.0132738128, -0.0126373051, 7.598839E-06, 922.9833    , 31.53287    , 780.379     , 1.73        , 3           , 255         , 0           , 0
-0.111034051, 0.133052319 , -9.794867   , -4.2273954E-05, 4.00227036E-05, 0.00012017542, -0.0132742506, -0.0126368888, 8.795233E-06, 922.9833    , 31.53287    , 780.3791    , 1.74        , 3           , 255         , 0           , 0
-0.121380433, 0.142903    , -9.790305   , 8.653704E-05, 7.767402E-05, -0.0002541297, -0.0132733528, -0.0126361456, 6.243707E-06, 922.9833    , 31.53287    , 780.37915   , 1.75        , 3           , 255         , 0           , 0
-0.120848693, 0.144191816 , -9.793035   , -0.0005042374, -0.000124132348, 0.0006165508, -0.0132784732, -0.012637306, 1.24254984E-05, 922.9833    , 31.53287    , 780.3792    , 1.76        , 3           , 255         , 0           , 0
-0.121910974, 0.139510959 , -9.794973   , -4.552491E-05, -0.000203836156, 0.0006458479, -0.0132790115, -0.0126392571, 1.89108214E-05, 922.9833    , 31.53287    , 780.3793    , 1.77        , 3           , 255         , 0           , 0
-0.131265238, 0.128100425 , -9.791277   , 6.437677E-05, 0.000126362473, 0.0007537359, -0.013278462, -0.0126378946, 2.64311584E-05, 922.9833    , 31.53287    , 780.379333  , 1.78        , 3           , 255         , 0           , 0
-0.132936925, 0.125998229 , -9.791147   , 0.0001903211, 0.0002559233, 0.000426353625, -0.0132766124, -0.0126352785, 3.06605834E-05, 922.9833    , 31.53287    , 780.3794    , 1.79        , 3           , 255         , 0           , 0
-0.123832963, 0.125861481 , -9.792824   , -3.797229E-05, -0.00056059123, -0.000163729, -0.0132769728, -0.0126409065, 2.90977714E-05, 922.9833    , 31.53287    , 780.379456  , 1.8         , 3           , 255         , 0           , 0
-0.12675193 , 0.125766456 , -9.793114   , 0.000129329914, -0.000117446565, -7.689597E-05, -0.01328903 , -0.0126375463, 2.85132573E-05, 922.9833    , 31.53287    , 780.357666  , 1.81        , 3           , 255         , 0           , 0
-0.120798863, 0.11205782  , -9.785948   , -0.0002874269, -0.000271338446, 0.000184615623, -0.0132919261, -0.012640235, 3.03954148E-05, 922.9833    , 31.53287    , 780.3576    , 1.82        , 3           , 255         , 0           , 0
-0.113506295, 0.118464373 , -9.797418   , 0.000201317249, -0.000188593433, 4.76996465E-05, -0.013289921, -0.0126421144, 3.089746E-05, 922.9616    , 31.5348377  , 780.357544  , 1.83        , 3           , 255         , 0           , 0
-0.1162229  , 0.121511482 , -9.7980175  , -0.000436769071, 0.000233144354, -2.153595E-05, -0.0132942842, -0.0126397852, 3.06511138E-05, 922.9616    , 31.5348377  , 780.3575    , 1.84        , 3           , 255         , 0           , 0
-0.126520365, 0.121613324 , -9.797916   , 0.000210310376, 0.000188656035, -3.34100951E-05, -0.0132921776, -0.012637903, 3.02919489E-05, 922.9616    , 31.5348377  , 780.3574    , 1.85        , 3           , 255         , 0           , 0
-0.1280363  , 0.114952959 , -9.795715   , 0.000250578683, -4.727181E-05, -0.000181795069, -0.01328965 , -0.0126384  , 2.84803482E-05, 922.9616    , 31.5348377  , 780.357361  , 1.86        , 3           , 255         , 0           , 0
-0.125722736, 0.118849538 , -9.79153252 , -0.000428127853, 0.000100531906, 0.000118306329, -0.0132939452, -0.01263738 , 2.96500129E-05, 922.9616    , 31.5348377  , 780.3573    , 1.87        , 3           , 255         , 0           , 0
-0.131572887, 0.129112288 , -9.795249   , -0.0001804975, 1.723279E-05, -0.000667310145, -0.0132956663, -0.0126372967, 2.29748512E-05, 922.9616    , 31.5348377  , 780.357239  , 1.88        , 3           , 255         , 0           , 0
-0.118498549, 0.127671525 , -9.785103   , -0.0007587685, -0.000444941572, -0.000719155069, -0.0133031625, -0.0126418406, 1.58427156E-05, 922.9616    , 31.5348377  , 780.3572    , 1.89        , 3           , 255         , 0           , 0
-0.121549055, 0.120962955 , -9.787117   , -0.0006606828, -3.225E-05  , -0.0001544277, -0.0133097507, -0.0126421843, 1.430278E-05, 922.9616    , 31.5348377  , 780.3571    , 1.9         , 3           , 255         , 0           , 0
-0.119596124, 0.1287278   , -9.79280949 , -0.000320650754, 0.0002038585, -0.000576828141, -0.01329078 , -0.0126381181, 8.228194E-06, 922.9616    , 31.5348377  , 780.362366  , 1.91        , 3           , 255         , 0           , 0
-0.126494333, 0.129187793 , -9.79359    , -0.0004940192, 0.000373362942, -0.000131454115, -0.0132957017, -0.0126344031, 6.86406838E-06, 922.9616    , 31.5348377  , 780.362366  , 1.92        , 3           , 255         , 0           , 0
-0.114882573, 0.133503169 , -9.77254    , -0.000276461244, 0.000108617824, -6.865861E-05, -0.0132984575, -0.0126333265, 6.16305351E-06, 922.953735  , 31.5324631  , 780.362366  , 1.93        , 3           , 255         , 0           , 0
-0.120018139, 0.131562918 , -9.797616   , 3.246311E-05, 0.000186170189, -2.7946402E-05, -0.0132981287, -0.0126314685, 5.858843E-06, 922.953735  , 31.5324631  , 780.362366  , 1.94        , 3           , 255         , 0           , 0
-0.126890168, 0.133168384 , -9.795123   , -0.000223171141, 0.0003084481, 0.000149865809, -0.0133003788, -0.0126283634, 7.31642831E-06, 922.953735  , 31.5324631  , 780.362366  , 1.95        , 3           , 255         , 0           , 0
-0.12079297 , 0.133282572 , -9.802478   , -3.090329E-05, 0.000452126027, 0.0002821109, -0.0133007225, -0.0126238074, 1.00773141E-05, 922.953735  , 31.5324631  , 780.362366  , 1.96        , 3           , 255         , 0           , 0
-0.121693015, 0.139088184 , -9.79711151 , -5.8695412E-05, 0.000295139 , -0.000296546525, -0.0133012719, -0.0126208952, 7.0727E-06  , 922.953735  , 31.5324631  , 780.362366  , 1.97        , 3           , 255         , 0           , 0
-0.129101068, 0.13688156  , -9.79405    , -0.00018450449, -3.50129267E-06, -0.000419031945, -0.0133030647, -0.0126209864, 2.88299339E-06, 922.953735  , 31.5324631  , 780.362366  , 1.98        , 3           , 255         , 0           , 0
-0.124677941, 0.1358112   , -9.787023   , 6.800459E-05, -8.867822E-05, 3.796962E-05, -0.0133023895, -0.0126218675, 3.27447128E-06, 922.953735  , 31.5324631  , 780.362366  , 1.99        , 3           , 255         , 0           , 0
-0.124134347, 0.126403466 , -9.794346   , 0.000204603042, -0.000423930876, 0.00081756257, -0.0133004477, -0.012625997, 1.15062012E-05, 922.953735  , 31.5324631  , 780.362366  , 2           , 3           , 0           , 7.45123625  , 200
-0.133435026, 0.127051026 , -9.796958   , -0.000105651445, 3.76636162E-05, 0.000131955385, -0.0133074587, -0.0126235569, 1.2895669E-05, 922.953735  , 31.5324631  , 780.3767    , 2.01        , 3           , 1           , 0           , 0
-0.130066961, 0.1205318   , -9.789084   , -0.000291686651, 6.391511E-05, 0.000647501554, -0.0133104585, -0.0126228323, 1.936197E-05, 922.953735  , 31.5324631  , 780.3768    , 2.02        , 3           , 2           , 0           , 0
-0.122319378, 0.119167015 , -9.79076    , -0.00037080425, -0.000298617932, 0.00039842652, -0.0133142164, -0.012625766, 2.338585E-05, 922.987854  , 31.535244   , 780.376831  , 2.03        , 3           , 3           , 0           , 0
-0.117606476, 0.121578053 , -9.786214   , -0.000503374846, -2.365189E-05, 4.15785653E-05, -0.0133192549, -0.012625997, 2.38047669E-05, 922.987854  , 31.535244   , 780.3769    , 2.04        , 3           , 4           , 0           , 0
-0.124383315, 0.117307641 , -9.791353   , 4.661386E-05, 0.000439338852, 0.0002890428, -0.0133188255, -0.0126215657, 2.6636586E-05, 922.987854  , 31.535244   , 780.376953  , 2.05        , 3           , 5           , 0           , 0
-0.121197775, 0.109426379 , -9.789873   , -8.792468E-05, -0.000334475684, -0.0003702093, -0.0133196581, -0.0126249595, 2.29791676E-05, 922.987854  , 31.535244   , 780.377     , 2.06        , 3           , 6           , 0           , 0
-0.123225138, 0.1178958   , -9.796465   , -0.000229874015, -5.070297E-05, -0.0002503686, -0.0133219268, -0.0126255  , 2.04823245E-05, 922.987854  , 31.535244   , 780.3771    , 2.07        , 3           , 7           , 0           , 0
-0.130451337, 0.123756722 , -9.79363    , -0.0002835363, -0.0002685625, -0.000386924017, -0.0133247124, -0.0126282349, 1.66489954E-05, 922.987854  , 31.535244   , 780.377136  , 2.08        , 3           , 8           , 5           , 5
-0.118095376, 0.117940649 , -9.789119   , 0.000316467864, -0.000454426743, 0.0002341665, -0.0133215776, -0.0126327472, 1.90511273E-05, 922.987854  , 31.535244   , 780.3772    , 2.09        , 3           , 9           , 5           , 0.1
-0.123712637, 0.128789738 , -9.788748   , 0.000252594764, -0.000347909576, 0.000308690971, -0.0133190919, -0.0126361838, 2.21842674E-05, 922.987854  , 31.535244   , 780.377258  , 2.1         , 3           , 10          , 0.1         , 0.1
-0.1233559  , 0.140025631 , -9.792888   , 0.0001100442, -0.00030791093, 0.0005753227, -0.0132919159, -0.0126413573, 2.7647764E-05, 922.987854  , 31.535244   , 780.348     , 2.11        , 3           , 11          , 0.008136701 , 0.0081367
-0.119088627, 0.140851349 , -9.803488   , 0.000229866011, -0.000417246629, 9.784751E-05, -0.0132896323, -0.0126455165, 2.868167E-05, 922.987854  , 31.535244   , 780.347961  , 2.12        , 3           , 12          , 0.174643889 , 0
-0.118943773, 0.14245531  , -9.797242   , -0.000106006977, -0.000380063575, 0.000574332662, -0.0132907638, -0.01264924 , 3.447532E-05, 922.9873    , 31.5362625  , 780.3479    , 2.13        , 3           , 13          , 0           , 0
-0.112298608, 0.134777054 , -9.802329   , -0.000176344911, -0.000193104992, 0.000429330743, -0.0132925808, -0.0126511138, 3.87941436E-05, 922.9873    , 31.5362625  , 780.347839  , 2.14        , 3           , 14          , -0.000331737072, -6.71854141E-05
-0.130021855, 0.131538108 , -9.799021   , -0.000419245247, -5.369119E-05, -0.000165252568, -0.0132967532, -0.0126516726, 3.71488059E-05, 922.9873    , 31.5362625  , 780.3478    , 2.15        , 3           , 15          , 0           , 2.68022632E-05
-0.124456152, 0.131093025 , -9.788351   , -0.0007330098, -2.65438721E-05, 0.000227460754, -0.01330411 , -0.0126519082, 3.94268645E-05, 922.9873    , 31.5362625  , 780.3477    , 2.16        , 3           , 16          , 0           , 1.401298E-45
-0.122074664, 0.122636579 , -9.796439   , -0.000338665122, 0.000146031045, 0.000398740667, -0.0133075472, -0.0126503948, 4.33947062E-05, 922.9873    , 31.5362625  , 780.347656  , 2.17        , 3           , 20          , 0           , 0
-0.127079248, 0.134676009 , -9.79616    , -0.000394821138, -0.0005351033, -0.0001270099, -0.0133114792, -0.012655762, 4.21958575E-05, 922.9873    , 31.5362625  , 780.3476    , 2.18        , 3           , 21          , 0           , 0
-0.115731657, 0.130237937 , -9.793281   , -0.000687302439, -0.000207099511, -8.192418E-05, -0.0133183412, -0.0126578426, 4.14042079E-05, 922.9873    , 31.5362625  , 780.347534  , 2.19        , 3           , 22          , 0           , 0
-0.119089805, 0.137513012 , -9.789485   , -0.000116637559, -0.000139368232, -0.000570297067, -0.0133194337, -0.0126593113, 3.57199933E-05, 922.9873    , 31.5362625  , 780.3475    , 2.2         , 3           , 40          , 0           , 0
-0.1316613  , 0.12249364  , -9.794558   , -8.472602E-05, -0.0005540803, -9.80864352E-05, -0.0133282449, -0.012659831, 3.49139264E-05, 922.9873    , 31.5362625  , 780.3221    , 2.21        , 3           , 41          , 0           , 0
-0.128049716, 0.128345072 , -9.791303   , -0.000115541014, -0.000197284942, -0.0001352491, -0.0133293839, -0.0126618212, 3.35877776E-05, 922.9873    , 31.5362625  , 780.321838  , 2.22        , 3           , 42          , 0           , 0
-0.118610539, 0.134337083 , -9.799192   , -0.0006432055, -0.000224864256, -0.00028694325, -0.0133357793, -0.0126641076, 3.07484224E-05, 922.961     , 31.5366688  , 780.3216    , 2.23        , 3           , 255         , 0           , 0
-0.121268079, 0.1271461   , -9.792697   , -0.000316991966, -0.000132251676, -0.000373311574, -0.0133389011, -0.0126654794, 2.70330729E-05, 922.961     , 31.5366688  , 780.32135   , 2.24        , 3           , 255         , 0           , 0
-0.124562941, 0.129658163 , -9.786683   , -0.000190085178, -0.000261122274, -0.000136974078, -0.0133407852, -0.0126681086, 2.56982021E-05, 922.961     , 31.5366688  , 780.3211    , 2.25        , 3           , 255         , 0           , 0
-0.116893187, 0.137825519 , -9.795641   , -0.000270410121, 5.34263127E-05, 0.000211203675, -0.0133435158, -0.012667546, 2.78030348E-05, 922.961     , 31.5366688  , 780.320862  , 2.26        , 3           , 255         , 0           , 0
-0.109574892, 0.129791468 , -9.799187   , -0.0003975781, 0.000303937646, 0.0008328537, -0.0133475969, -0.0126643972, 3.60907361E-05, 922.961     , 31.5366688  , 780.3206    , 2.27        , 3           , 255         , 0           , 0
-0.118423417, 0.132666513 , -9.791448   , 0.000154856825, 0.00013463432, 0.000283998117, -0.0133460844, -0.0126630124, 3.89126362E-05, 922.961     , 31.5366688  , 780.3204    , 2.28        , 3           , 255         , 0           , 0
-0.120847464, 0.120096982 , -9.781656   , -6.06619578E-05, -0.000276710081, -0.000512492959, -0.0133466255, -0.0126658473, 3.38248137E-05, 922.961     , 31.5366688  , 780.3201    , 2.29        , 3           , 255         , 0           , 0
-0.122203544, 0.141959161 , -9.792589   , -0.000253189966, 5.3791402E-05, -0.000414812181, -0.0133491037, -0.0126653649, 2.96696471E-05, 922.961     , 31.5366688  , 780.3199    , 2.3         , 3           , 255         , 0           , 0
-0.126409531, 0.142126918 , -9.79464149 , -0.00060081156, -0.000140755728, 1.05570125E-05, -0.0133546451, -0.0126603618, 2.97880979E-05, 922.961     , 31.5366688  , 780.3315    , 2.31        , 3           , 255         , 0           , 0
-0.129373178, 0.13306652  , -9.791995   , -0.000248323951, 8.904455E-05, 0.000127468113, -0.0133571448, -0.0126594547, 3.10508367E-05, 922.961     , 31.5366688  , 780.33136   , 2.32        , 3           , 255         , 0           , 0
-0.1148236  , 0.128160119 , -9.794756   , 0.000484177057, 0.000142199016, 1.30983044E-05, -0.0133523056, -0.01265803 , 3.116283E-05, 922.95874   , 31.532938   , 780.331238  , 2.33        , 3           , 255         , 0           , 0
-0.114319108, 0.127324775 , -9.78630352 , -0.000281967223, -0.000482533971, -0.000295742415, -0.0133550875, -0.012662895, 2.82699366E-05, 922.95874   , 31.532938   , 780.3311    , 2.34        , 3           , 255         , 0           , 0
-0.122955382, 0.124298111 , -9.791491   , -0.0004394239, -9.559916E-05, -1.59368246E-05, -0.0133594815, -0.0126638515, 2.81233442E-05, 922.95874   , 31.532938   , 780.331     , 2.35        , 3           , 255         , 0           , 0
-0.125164583, 0.127468377 , -9.79735    , 0.000154883281, -0.000296927465, -3.08044328E-05, -0.013357928, -0.0126668252, 2.785498E-05, 922.95874   , 31.532938   , 780.3309    , 2.36        , 3           , 255         , 0           , 0
-0.118972853, 0.122513987 , -9.789888   , -0.000253901759, 0.000518698769, -0.000133360823, -0.0133604491, -0.0126616554, 2.64521186E-05, 922.95874   , 31.532938   , 780.33075   , 2.37        , 3           , 255         , 0           , 0
-0.1308459  , 0.127160236 , -9.794754   , -0.000320488471, 0.0006255797, -0.0006725329, -0.013363569, -0.0126554929, 1.96434339E-05, 922.95874   , 31.532938   , 780.3306    , 2.38        , 3           , 255         , 0           , 0
-0.1336748  , 0.135559082 , -9.794729   , -0.000249015284, -0.0001196756, -0.0006603161, -0.0133659746, -0.0126567753, 1.3056494E-05, 922.95874   , 31.532938   , 780.3305    , 2.39        , 3           , 255         , 0           , 0
-0.117221378, 0.1253362   , -9.787695   , -0.000109056884, -0.000339419756, 0.000312609423, -0.0133671043, -0.0126601281, 1.622785E-05, 922.95874   , 31.532938   , 780.3304    , 2.4         , 3           , 255         , 0           , 0
-0.1243103  , 0.137208626 , -9.78845    , 7.413016E-05, 9.726094E-05, -7.549536E-05, -0.013363   , -0.0126577271, 1.54174541E-05, 922.95874   , 31.532938   , 780.343933  , 2.41        , 3           , 255         , 0           , 0
-0.12849018 , 0.129420057 , -9.781303   , -0.000848684344, -3.18357634E-05, 0.000700156961, -0.0133715738, -0.0126579553, 2.24230425E-05, 922.95874   , 31.532938   , 780.3439    , 2.42        , 3           , 255         , 0           , 0
-0.113326691, 0.125809252 , -9.798685   , -3.04698478E-05, 0.0002560211, 0.000160152762, -0.0133719  , -0.0126553718, 2.39902784E-05, 922.9569    , 31.5336838  , 780.3438    , 2.43        , 3           , 255         , 0           , 0
-0.115682527, 0.119745687 , -9.797781   , -0.000196815177, -0.0003235599, -2.92668665E-05, -0.013373863, -0.0126586109, 2.374089E-05, 922.9569    , 31.5336838  , 780.34375   , 2.44        , 3           , 255         , 0           , 0
-0.127177432, 0.125873238 , -9.799802   , 0.000165087491, -1.24268481E-05, -0.000355594675, -0.0133721689, -0.0126587832, 2.01867315E-05, 922.9569    , 31.5336838  , 780.3437    , 2.45        , 3           , 255         , 0           , 0
-0.122182466, 0.130845875 , -9.793505   , 0.000200784343, 0.000237755361, 0.000350786431, -0.0133702056, -0.0126563581, 2.36626875E-05, 922.9569    , 31.5336838  , 780.3437    , 2.46        , 3           , 255         , 0           , 0
-0.119770288, 0.145511776 , -9.792682   , -6.805762E-05, -4.597728E-05, 9.37843E-05 , -0.0133708976, -0.012656806, 2.46066484E-05, 922.9569    , 31.5336838  , 780.3437    , 2.47        , 3           , 255         , 0           , 0
-0.120496631, 0.138674691 , -9.79444    , 0.000775580644, -0.000233771047, -0.00047648797, -0.0133630829, -0.0126592061, 1.987318E-05, 922.9569    , 31.5336838  , 780.3437    , 2.48        , 3           , 255         , 0           , 0
-0.129591733, 0.135756612 , -9.789704   , 0.000383863779, 0.000143022728, -0.000187062833, -0.0133592207, -0.0126578007, 1.79835133E-05, 922.9569    , 31.5336838  , 780.3437    , 2.49        , 3           , 255         , 0           , 0
-0.125805452, 0.125043973 , -9.793842   , 0.000508112251, -0.000247623015, -0.0005974216, -0.013354064, -0.0126603572, 1.20425739E-05, 922.9569    , 31.5336838  , 780.3437    , 2.5         , 3           , 255         , 0           , 0
-0.133044869, 0.124898791 , -9.789885   , 7.367873E-05, -0.0002285827, 0.000379838544, -0.0133542484, -0.0126598934, 1.588241E-05, 922.9569    , 31.5336838  , 780.3581    , 2.51        , 3           , 255         , 0           , 0
-0.133583188, 0.126086816 , -9.78938    , 5.19332243E-05, 0.000184564764, 0.000927130459, -0.013353846, -0.0126579246, 2.51287584E-05, 922.9569    , 31.5336838  , 780.358154  , 2.52        , 3           , 255         , 0           , 0
-0.116443291, 0.127215773 , -9.788417   , -0.0004251996, -2.2050619E-05, 0.0002827572, -0.0133581329, -0.0126581071, 2.7959175E-05, 922.9666    , 31.5391788  , 780.3582    , 2.53        , 3           , 255         , 0           , 0
-0.124647379, 0.13680169  , -9.789529   , -0.000210408791, -0.000153927758, -0.000495834334, -0.0133601744, -0.0126597118, 2.3021561E-05, 922.9666    , 31.5391788  , 780.3583    , 2.54        , 3           , 255         , 0           , 0
-0.1209643  , 0.135295153 , -9.796229   , -0.000307748822, 0.0001691123, 9.3632465E-05, -0.0133632636, -0.0126580093, 2.39352612E-05, 922.9666    , 31.5391788  , 780.358337  , 2.55        , 3           , 255         , 0           , 0
-0.128255352, 0.1308171   , -9.791353   , -0.00017301584, -1.20683035E-05, -0.000306617731, -0.0133649549, -0.0126581695, 2.08708079E-05, 922.9666    , 31.5391788  , 780.3584    , 2.56        , 3           , 255         , 0           , 0
-0.129639357, 0.132811263 , -9.794448   , 0.000412827474, 0.000108355118, 0.000117385585, -0.0133608412, -0.01265707 , 2.203015E-05, 922.9666    , 31.5391788  , 780.358459  , 2.57        , 3           , 255         , 0           , 0
-0.117944494, 0.122785851 , -9.794926   , 0.000266748248, -0.000229085737, -0.000135109382, -0.0133581571, -0.0126593783, 2.07097128E-05, 922.9666    , 31.5391788  , 780.3585    , 2.58        , 3           , 255         , 0           , 0
-0.110488534, 0.130777866 , -9.800167   , -0.000174293382, -0.000173330351, -0.000147462531, -0.013359881, -0.0126611311, 1.92582829E-05, 922.9666    , 31.5391788  , 780.3586    , 2.59        , 3           , 255         , 0           , 0
-0.115613438, 0.1260305   , -9.798827   , -0.000455204543, -2.793131E-05, 0.0007266639, -0.0133645246, -0.0126613146, 2.65284125E-05, 922.9666    , 31.5391788  , 780.358643  , 2.6         , 3           , 255         , 0           , 0
-0.124688804, 0.1220152   , -9.793814   , -0.000135676033, 0.000139741373, 0.000327070738, -0.0133628966, -0.0126580233, 2.97420174E-05, 922.9666    , 31.5391788  , 780.3581    , 2.61        , 3           , 255         , 0           , 0
-0.128714636, 0.122971021 , -9.790513   , 0.000500123366, 0.000108916647, 3.47214445E-05, -0.0133578992, -0.01265693 , 3.00746578E-05, 922.9666    , 31.5391788  , 780.358154  , 2.62        , 3           , 255         , 0           , 0
-0.131947786, 0.125955939 , -9.797058   , -0.000105229294, 3.904094E-05, -0.000197146524, -0.0133589264, -0.0126565658, 2.80980512E-05, 922.9212    , 31.5399246  , 780.3582    , 2.63        , 3           , 255         , 0           , 0
-0.137071267, 0.128066182 , -9.78643    , 3.17206432E-05, 3.77838332E-05, 9.022697E-05, -0.0133586209, -0.0126561755, 2.89952386E-05, 922.9212    , 31.5399246  , 780.3583    , 2.64        , 3           , 255         , 0           , 0
-0.127158284, 0.129740089 , -9.791376   , 0.00051096  , -6.726841E-07, -0.000115873867, -0.0133534977, -0.0126562016, 2.78366315E-05, 922.9212    , 31.5399246  , 780.358337  , 2.65        , 3           , 255         , 0           , 0
-0.117922366, 0.134823024 , -9.791407   , 6.51128648E-05, -0.0003703586, 0.0006760455, -0.0133529315, -0.0126598133, 3.4646313E-05, 922.9212    , 31.5399246  , 780.358459  , 2.66        , 3           , 255         , 0           , 0
-0.1256491  , 0.1386545   , -9.795914   , 7.606359E-05, -0.0003529006, 0.00059757795, -0.0133522479, -0.012663261, 4.06690051E-05, 922.9212    , 31.5399246  , 780.3586    , 2.67        , 3           , 255         , 0           , 0
-0.127730682, 0.130479485 , -9.789701   , -0.0005673879, -0.000281435379, 0.000656902266, -0.0133580044, -0.0126659879, 4.72754036E-05, 922.9212    , 31.5399246  , 780.3587    , 2.68        , 3           , 255         , 0           , 0
-0.13432923 , 0.128673568 , -9.782423   , -0.0004676814, -0.000165902457, -0.0005359662, -0.0133626135, -0.0126677183, 4.193808E-05, 922.9212    , 31.5399246  , 780.3588    , 2.69        , 3           , 255         , 0           , 0
-0.119058765, 0.126595572 , -9.78633    , 0.0002068109, 0.000164034122, -0.00101136381, -0.0133604174, -0.0126662143, 3.180287E-05, 922.9212    , 31.5399246  , 780.358948  , 2.7         , 3           , 255         , 0           , 0
-0.1144912  , 0.120806977 , -9.789384   , -8.71879456E-05, 3.39392282E-05, -0.0005046065, -0.0133564826, -0.0126743736, 2.669234E-05, 922.9212    , 31.5399246  , 780.420959  , 2.71        , 3           , 255         , 0           , 0
-0.126981884, 0.127869219 , -9.803068   , -0.000176126923, -0.000270863064, -0.000443261757, -0.0133581879, -0.0126771415, 2.22960534E-05, 922.9212    , 31.5399246  , 780.421448  , 2.72        , 3           , 255         , 0           , 0
-0.121556737, 0.124181427 , -9.797199   , -0.000160490716, -0.000152474953, -0.0007394949, -0.0133597  , -0.0126787648, 1.49217276E-05, 922.9721    , 31.53945    , 780.421936  , 2.73        , 3           , 255         , 0           , 0
-0.116002634, 0.134151429 , -9.789426   , -0.0006672648, -0.0003483384, 0.000145152051, -0.01336639 , -0.0126822274, 1.6419759E-05, 922.9721    , 31.53945    , 780.4224    , 2.74        , 3           , 255         , 0           , 0
-0.120446488, 0.14102073  , -9.796312   , 0.000112449125, -0.00023268025, 0.000372764858, -0.0133653125, -0.0126845036, 2.01783787E-05, 922.9721    , 31.53945    , 780.4229    , 2.75        , 3           , 255         , 0           , 0
-0.121361181, 0.133628175 , -9.799169   , 0.000512175146, -0.000390100235, 0.0005133279, -0.0133602563, -0.0126883369, 2.536361E-05, 922.9721    , 31.53945    , 780.4234    , 2.76        , 3           , 255         , 0           , 0
-0.11998868 , 0.132591516 , -9.800567   , -8.092937E-05, -6.383103E-05, 0.000331533985, -0.0133611094, -0.0126889311, 2.86873747E-05, 922.9721    , 31.53945    , 780.4239    , 2.77        , 3           , 255         , 0           , 0
-0.123645343, 0.136299819 , -9.797838   , -0.0002932805, -1.41668133E-05, 0.000426672836, -0.0133640962, -0.0126890158, 3.29558461E-05, 922.9721    , 31.53945    , 780.4244    , 2.78        , 3           , 255         , 0           , 0
-0.128713846, 0.13751632  , -9.795202   , -0.000356437085, 0.000133660622, 0.0003273084, -0.0133677013, -0.0126876347, 3.62109531E-05, 922.9721    , 31.53945    , 780.424866  , 2.79        , 3           , 255         , 0           , 0
-0.120191015, 0.148032486 , -9.789497   , -0.0001242753, 0.0004110583, 0.000239432629, -0.0133689744, -0.0126834922, 3.855023E-05, 922.9721    , 31.53945    , 780.425354  , 2.8         , 3           , 255         , 0           , 0
-0.117076539, 0.133512527 , -9.79537    , 0.000367473083, 2.25111871E-05, 0.000272549369, -0.0133697269, -0.0126784239, 4.13283269E-05, 922.9721    , 31.53945    , 780.408264  , 2.81        , 3           , 255         , 0           , 0
-0.1283634  , 0.129216075 , -9.790223   , -6.140614E-05, 0.0001838028, -1.90611154E-05, -0.0133703379, -0.0126765883, 4.11131441E-05, 922.9721    , 31.53945    , 780.4087    , 2.82        , 3           , 255         , 0           , 0
-0.132890135, 0.134144247 , -9.79336    , -0.0005324502, -0.000112756919, 0.000340777158, -0.0133757051, -0.01267767 , 4.45358819E-05, 922.9836    , 31.5368729  , 780.4091    , 2.83        , 3           , 255         , 0           , 0
-0.129841357, 0.120121025 , -9.788119   , -3.59924161E-06, -0.000113538008, 0.0007255131, -0.0133758327, -0.0126787089, 5.18059533E-05, 922.9836    , 31.5368729  , 780.409546  , 2.84        , 3           , 255         , 0           , 0
-0.128928274, 0.12740089  , -9.793457   , 0.000413387024, -0.000293980149, 0.000251168036, -0.013371733, -0.0126816137, 5.4356864E-05, 922.9836    , 31.5368729  , 780.41      , 2.85        , 3           , 255         , 0           , 0
-0.120966174, 0.127567261 , -9.79832649 , -0.000235525426, -0.000188363425, 0.000481518015, -0.0133741507, -0.0126834335, 5.91970675E-05, 922.9836    , 31.5368729  , 780.4104    , 2.86        , 3           , 255         , 0           , 0
-0.117632233, 0.131538212 , -9.802453   , -0.00029188348, -5.26922668E-06, 5.658502E-05, -0.0133770751, -0.0126834773, 5.97636135E-05, 922.9836    , 31.5368729  , 780.4108    , 2.87        , 3           , 255         , 0           , 0
-0.128423765, 0.136275426 , -9.805908   , -0.0002703286, -0.0001671889, -0.0007481689, -0.0133796828, -0.01268525 , 5.23045346E-05, 922.9836    , 31.5368729  , 780.411255  , 2.88        , 3           , 255         , 0           , 0
-0.127238035, 0.132454857 , -9.800623   , 7.27446459E-05, -0.0004301423, -0.000742312637, -0.0133788623, -0.012689651, 4.49392173E-05, 922.9836    , 31.5368729  , 780.4117    , 2.89        , 3           , 255         , 0           , 0
-0.118832193, 0.1241907   , -9.800384   , 0.000569902943, -0.000165820908, 0.000172627391, -0.0133731859, -0.0126912855, 4.668761E-05, 922.9836    , 31.5368729  , 780.4121    , 2.9         , 3           , 255         , 0           , 0
-0.122045793, 0.132698387 , -9.790527   , 0.000564327755, -0.000306684931, 0.0007259062, -0.0133655258, -0.0126954354, 5.396067E-05, 922.9836    , 31.5368729  , 780.3807    , 2.91        , 3           , 255         , 0           , 0
-0.128006116, 0.141157553 , -9.794008   , 0.0003092667, -0.000349189, 0.000161057964, -0.0133624533, -0.0126989046, 5.56178566E-05, 922.9836    , 31.5368729  , 780.3809    , 2.92        , 3           , 255         , 0           , 0
-0.128775567, 0.139692739 , -9.804768   , 0.000251634221, -0.00072386855, -0.0008891393, -0.0133598242, -0.012706263, 4.682348E-05, 922.954163  , 31.5339546  , 780.381165  , 2.93        , 3           , 255         , 0           , 0
-0.1234082  , 0.130005121 , -9.80075    , 0.0003829844, -0.000534464256, 0.000249255041, -0.0133560281, -0.0127115734, 4.938734E-05, 922.954163  , 31.5339546  , 780.3814    , 2.94        , 3           , 255         , 0           , 0
-0.128739282, 0.126230389 , -9.784877   , -0.000238390552, -0.000502033043, -2.81908542E-05, -0.0133584077, -0.012716596, 4.91725041E-05, 922.954163  , 31.5339546  , 780.381653  , 2.95        , 3           , 255         , 0           , 0
-0.120567515, 0.124181412 , -9.788023   , 0.000104709718, -0.0003711352, 7.108498E-05, -0.013357372, -0.012720298, 4.99329071E-05, 922.954163  , 31.5339546  , 780.3819    , 2.96        , 3           , 255         , 0           , 0
-0.120570421, 0.121096969 , -9.797264   , 0.000317168247, -0.0004860064, -0.0002290625, -0.0133541711, -0.0127251875, 4.77072681E-05, 922.954163  , 31.5339546  , 780.382141  , 2.97        , 3           , 255         , 0           , 0
-0.13077803 , 0.121814668 , -9.798296   , 3.0152878E-05, 2.58484179E-05, -7.316105E-05, -0.01335386 , -0.0127249388, 4.69722327E-05, 922.954163  , 31.5339546  , 780.3824    , 2.98        , 3           , 255         , 0           , 0
-0.121028282, 0.120421745 , -9.794607   , -0.0003703681, -0.000240800844, -0.0001513993, -0.0133575452, -0.0127273658, 4.54904548E-05, 922.954163  , 31.5339546  , 780.3826    , 2.99        , 3           , 255         , 0           , 0
-0.126501828, 0.11972072  , -9.79072952 , -0.000144450838, 1.74204142E-05, 0.000310587 , -0.0133590288, -0.0127271507, 4.85938981E-05, 922.954163  , 31.5339546  , 780.3829    , 3           , 3           , 0           , 8.451237    , 300
-0.133787513, 0.125547677 , -9.789418   , 0.000368635054, -0.000141990662, -0.00024934407, -0.0133498656, -0.0127294594, 4.60501979E-05, 922.954163  , 31.5339546  , 780.3966    , 3.01        , 3           , 1           , 0           , 0
-0.127113238, 0.119381428 , -9.797511   , -0.000219982874, 7.8002E-05  , 0.0001649054, -0.0133520877, -0.0127286576, 4.76887762E-05, 922.954163  , 31.5339546  , 780.3969    , 3.02        , 3           , 2           , 0           , 0
-0.11863184 , 0.119458959 , -9.79534    , 2.37326312E-05, 0.000212580111, 0.0009078584, -0.0133519648, -0.0127264112, 5.67386778E-05, 922.967041  , 31.5376873  , 780.3972    , 3.03        , 3           , 3           , 0           , 0
-0.119772933, 0.117162749 , -9.791142   , 0.0004496214, 4.59905532E-05, 0.00117663  , -0.0133476183, -0.0127257966, 6.84984552E-05, 922.967041  , 31.5376873  , 780.3975    , 3.04        , 3           , 4           , 0           , 0
-0.132042021, 0.120385408 , -9.79103    , -0.0005285216, 0.0004409972, 0.000136251852, -0.0133529212, -0.0127213672, 6.980207E-05, 922.967041  , 31.5376873  , 780.3978    , 3.05        , 3           , 5           , 0           , 0
-0.124757513, 0.125484854 , -9.790927   , -0.000702879857, 0.000136224553, -0.00061511 , -0.0133598708, -0.0127200875, 6.36329642E-05, 922.967041  , 31.5376873  , 780.398132  , 3.06        , 3           , 6           , 0           , 0
-0.118535861, 0.131624132 , -9.799532   , 0.000457471382, 0.0002853418, -0.000560054032, -0.0133552244, -0.0127173094, 5.79945045E-05, 922.967041  , 31.5376873  , 780.398438  , 3.07        , 3           , 7           , 0           , 0
-0.120984316, 0.123293355 , -9.798894   , 0.0002671637, 0.000273774029, 0.000117090138, -0.0133525692, -0.01271456 , 5.912881E-05, 922.967041  , 31.5376873  , 780.3988    , 3.08        , 3           , 8           , 5           , 5
-0.128363535, 0.139209956 , -9.796073   , 0.000248462078, -0.0002818539, -0.000198375434, -0.0133500574, -0.0127174025, 5.71827441E-05, 922.967041  , 31.5376873  , 780.3992    , 3.09        , 3           , 9           , 5           , 0.1
-0.124770343, 0.14357473  , -9.792989   , 0.000120032317, -0.0005268004, -0.000418023817, -0.0133488048, -0.012722725, 5.307297E-05, 922.967041  , 31.5376873  , 780.399536  , 3.1         , 3           , 10          , 0.1         , 0.1
-0.129331037, 0.140659139 , -9.796198   , 0.000132812624, -0.000213189138, 4.658281E-05, -0.0133401472, -0.0127252731, 5.347392E-05, 922.967041  , 31.5376873  , 780.392761  , 3.11        , 3           , 11          , 0.007388993 , 0.007388991
-0.1331186  , 0.135059148 , -9.795401   , -0.0003760342, 0.0003052222, -0.000447858183, -0.013343852, -0.0127222808, 4.89547638E-05, 922.967041  , 31.5376873  , 780.393066  , 3.12        , 3           , 12          , 0.174645633 , 0
-0.119721748, 0.145873636 , -9.788017   , -0.0004055175, -0.0001919785, -0.000367406057, -0.0133478595, -0.0127242506, 4.530645E-05, 922.971252  , 31.5381622  , 780.3934    , 3.13        , 3           , 13          , 0           , 0
-0.124853037, 0.14551422  , -9.796032   , 0.000387565378, -8.192474E-05, 3.87930231E-05, -0.01334399 , -0.0127250645, 4.57053065E-05, 922.971252  , 31.5381622  , 780.3937    , 3.14        , 3           , 14          , -0.000331806339, -6.721925E-05
-0.120758936, 0.133991376 , -9.803628   , 0.00015308593, 0.0002092238, 0.0004925285, -0.0133425221, -0.0127229067, 5.06025062E-05, 922.971252  , 31.5381622  , 780.394     , 3.15        , 3           , 15          , 0           , 2.68026888E-05
-0.121618725, 0.133888334 , -9.790508   , -0.000322364067, -0.000131691515, 0.000491026847, -0.0133458069, -0.0127241574, 5.553019E-05, 922.971252  , 31.5381622  , 780.3943    , 3.16        , 3           , 16          , 0           , 1.401298E-45
-0.122537807, 0.130106747 , -9.78698349 , -0.0005108082, 0.000206072407, -0.0001227847, -0.0133509  , -0.0127221132, 5.427487E-05, 922.971252  , 31.5381622  , 780.3946    , 3.17        , 3           , 20          , 0           , 0
-0.122710072, 0.130408183 , -9.788953   , -0.000110249355, 0.000238691689, 0.000389777822, -0.0133520523, -0.012719675, 5.81406566E-05, 922.971252  , 31.5381622  , 780.3949    , 3.18        , 3           , 21          , 0           , 0
-0.111594558, 0.121515773 , -9.798029   , -0.0005684035, 0.000162690019, -0.000152034976, -0.0133577147, -0.0127180684, 5.65986229E-05, 922.971252  , 31.5381622  , 780.3952    , 3.19        , 3           , 22          , 0           , 0
-0.11126323 , 0.116058782 , -9.792765   , -0.000457221671, -7.789906E-05, 0.00011234016, -0.0133623034, -0.01271883 , 5.77324E-05 , 922.971252  , 31.5381622  , 780.3955    , 3.2         , 3           , 40          , 0           , 0
-0.122416556, 0.108619407 , -9.786768   , -0.000634032, 0.000103080849, 0.000367996021, -0.013373306, -0.0127126807, 6.145713E-05, 922.971252  , 31.5381622  , 780.3835    , 3.21        , 3           , 41          , 0           , 0
-0.131488   , 0.119513176 , -9.800176   , 0.000313506229, -0.0005954853, 0.00014563353, -0.01337019 , -0.0127186151, 6.299304E-05, 922.971252  , 31.5381622  , 780.3837    , 3.22        , 3           , 42          , 0           , 0
-0.126562074, 0.128252983 , -9.791065   , -0.000625052664, -0.000580665539, -0.00040963263, -0.0133763878, -0.0127244759, 5.89745E-05 , 922.9248    , 31.5366688  , 780.384     , 3.23        , 3           , 255         , 0           , 0
-0.1254975  , 0.135514617 , -9.787764   , -0.0003590911, -0.000206479686, 0.0001226719, -0.0133799948, -0.0127265239, 6.02287837E-05, 922.9248    , 31.5366688  , 780.3842    , 3.24        , 3           , 255         , 0           , 0
-0.121796906, 0.133677155 , -9.787424   , -0.000105811225, -8.0054524E-05, -5.166383E-06, -0.0133810509, -0.0127273249, 6.018784E-05, 922.9248    , 31.5366688  , 780.38446   , 3.25        , 3           , 255         , 0           , 0
-0.129169792, 0.134774461 , -9.799665   , -0.000194055086, -0.000292088516, -0.000583800545, -0.01338292 , -0.0127303228, 5.43891219E-05, 922.9248    , 31.5366688  , 780.3847    , 3.26        , 3           , 255         , 0           , 0
-0.122815169, 0.131605119 , -9.801194   , -0.000579972751, -0.0003079658, 6.251937E-05, -0.0133887269, -0.0127333933, 5.505551E-05, 922.9248    , 31.5366688  , 780.384949  , 3.27        , 3           , 255         , 0           , 0
-0.119741991, 0.13760671  , -9.790116   , -0.000286110735, -0.000292628829, 0.0004059499, -0.0133916382, -0.0127362655, 5.9154052E-05, 922.9248    , 31.5366688  , 780.3852    , 3.28        , 3           , 255         , 0           , 0
-0.125339538, 0.141057208 , -9.798103   , 0.000103443512, 0.000204648633, 0.0001400542, -0.013390623, -0.0127342008, 6.05271525E-05, 922.9248    , 31.5366688  , 780.385437  , 3.29        , 3           , 255         , 0           , 0
-0.129396871, 0.138884023 , -9.800587   , 0.000429181848, -0.000336447934, -3.46518245E-05, -0.0133863287, -0.0127375694, 6.02256878E-05, 922.9248    , 31.5366688  , 780.3857    , 3.3         , 3           , 255         , 0           , 0
-0.130215049, 0.139164835 , -9.793133   , 0.000312382326, -0.0002580874, 0.000470318366, -0.0133830793, -0.0127413375, 6.496091E-05, 922.9248    , 31.5366688  , 780.440857  , 3.31        , 3           , 255         , 0           , 0
-0.132769823, 0.134041339 , -9.797356   , -0.000302641129, -0.0001232691, 0.0006397524, -0.0133861871, -0.0127424849, 7.1374714E-05, 922.9248    , 31.5366688  , 780.441467  , 3.32        , 3           , 255         , 0           , 0
-0.136164069, 0.133644268 , -9.786923   , 2.28633871E-05, -7.60876646E-05, 0.000261139 , -0.0133859925, -0.01274321 , 7.399621E-05, 922.964     , 31.538229   , 780.4421    , 3.33        , 3           , 255         , 0           , 0
-0.120304421, 0.132516682 , -9.800473   , -0.0002966987, -0.000135851209, -3.720769E-05, -0.013388955, -0.012744572, 7.36423244E-05, 922.964     , 31.538229   , 780.4427    , 3.34        , 3           , 255         , 0           , 0
-0.127099544, 0.128729075 , -9.805408   , -9.724882E-05, -0.0003388676, -0.0006261068, -0.0133898482, -0.0127480449, 6.742684E-05, 922.964     , 31.538229   , 780.4433    , 3.35        , 3           , 255         , 0           , 0
-0.123703465, 0.130170241 , -9.799857   , 0.0005551578, -0.0005231907, -0.0006503944, -0.0133842127, -0.0127533646, 6.09931449E-05, 922.964     , 31.538229   , 780.4439    , 3.36        , 3           , 255         , 0           , 0
-0.122330114, 0.127372831 , -9.786154   , 0.0003568273, -0.000230417267, -0.000767063466, -0.0133805471, -0.0127557693, 5.33536E-05 , 922.964     , 31.538229   , 780.4445    , 3.37        , 3           , 255         , 0           , 0
-0.113846108, 0.141062513 , -9.795622   , 0.000170325846, 6.9183945E-05, -0.00014589497, -0.013378825, -0.0127550969, 5.18854431E-05, 922.964     , 31.538229   , 780.4451    , 3.38        , 3           , 255         , 0           , 0
-0.1192801  , 0.1482139   , -9.804476   , 0.000147489831, -0.00023892289, -0.000418998243, -0.0133772967, -0.0127575425, 4.772756E-05, 922.964     , 31.538229   , 780.44574   , 3.39        , 3           , 255         , 0           , 0
-0.122220874, 0.145061    , -9.791543   , 0.0004536801, -0.000150705251, 0.000172766871, -0.0133727826, -0.0127590261, 4.947533E-05, 922.964     , 31.538229   , 780.44635   , 3.4         , 3           , 255         , 0           , 0
-0.128523812, 0.139708    , -9.785611   , 0.000534760766, -0.000273755926, 0.000416187017, -0.0133745559, -0.01276157 , 5.3763848E-05, 922.964     , 31.538229   , 780.437     , 3.41        , 3           , 255         , 0           , 0
-0.12442638 , 0.135245472 , -9.783103   , -0.000165038888, 6.242934E-05, -0.000162512515, -0.0133761847, -0.012760967, 5.21304246E-05, 922.964     , 31.538229   , 780.437561  , 3.42        , 3           , 255         , 0           , 0
-0.124096692, 0.1260712   , -9.786672   , 2.32685125E-05, -0.0003561629, 0.000379793259, -0.013376   , -0.0127644772, 5.59758773E-05, 922.959534  , 31.538908   , 780.4381    , 3.43        , 3           , 255         , 0           , 0
-0.132470191, 0.127889529 , -9.797518   , 0.000223273382, -9.10103045E-05, 0.0003446465, -0.0133738127, -0.0127653405, 5.94344E-05 , 922.959534  , 31.538908   , 780.43866   , 3.44        , 3           , 255         , 0           , 0
-0.133104458, 0.124474667 , -9.791502   , 0.000154602283, -0.000179420138, 0.000338210928, -0.0133723114, -0.0127670895, 6.284039E-05, 922.959534  , 31.538908   , 780.4392    , 3.45        , 3           , 255         , 0           , 0
-0.114558622, 0.122324564 , -9.786313   , 0.0003444649, 2.59212538E-05, -0.000241571834, -0.0133688366, -0.0127668623, 6.042128E-05, 922.959534  , 31.538908   , 780.439758  , 3.46        , 3           , 255         , 0           , 0
-0.116502717, 0.114807084 , -9.7920475  , 0.0002814988, -0.000219067821, 0.000355022028, -0.0133660669, -0.0127690062, 6.400068E-05, 922.959534  , 31.538908   , 780.4403    , 3.47        , 3           , 255         , 0           , 0
-0.131787688, 0.113778628 , -9.787031   , -0.000209313788, -0.00054045656, 8.53518E-05 , -0.0133681707, -0.0127743995, 6.492641E-05, 922.959534  , 31.538908   , 780.440857  , 3.48        , 3           , 255         , 0           , 0
-0.128444344, 0.11445272  , -9.787911   , 3.087701E-05, -0.000295644335, -0.0003199491, -0.0133678215, -0.0127773983, 6.176654E-05, 922.959534  , 31.538908   , 780.4414    , 3.49        , 3           , 255         , 0           , 0
-0.124817073, 0.118520342 , -9.793673   , 5.302747E-05, 0.000208450772, -4.49337531E-05, -0.013367286, -0.01277532 , 6.128936E-05, 922.959534  , 31.538908   , 780.441956  , 3.5         , 3           , 255         , 0           , 0
-0.130055517, 0.113758646 , -9.785624   , 0.000684185652, 9.655036E-05, -0.00013824206, -0.0133430846, -0.0127765052, 5.967249E-05, 922.959534  , 31.538908   , 780.4399    , 3.51        , 3           , 255         , 0           , 0
-0.124413289, 0.1166511   , -9.788549   , 0.000214866508, 0.000202865835, 5.73607322E-05, -0.0133409416, -0.0127744693, 6.02190157E-05, 922.959534  , 31.538908   , 780.4404    , 3.52        , 3           , 255         , 0           , 0
-0.120946445, 0.118541315 , -9.784373   , -8.004598E-05, -0.000459298783, 0.000330049254, -0.0133417854, -0.012779017, 6.358067E-05, 922.954651  , 31.5385     , 780.441     , 3.53        , 3           , 255         , 0           , 0
-0.125033349, 0.118402824 , -9.790941   , -0.000314579927, -8.534254E-06, -0.00107768446, -0.0133447917, -0.0127792489, 5.28053133E-05, 922.954651  , 31.5385     , 780.4415    , 3.54        , 3           , 255         , 0           , 0
-0.115548208, 0.131538242 , -9.801565   , -0.000142191071, -0.000121673525, -2.8583685E-05, -0.01334621 , -0.012780468, 5.253572E-05, 922.954651  , 31.5385     , 780.4421    , 3.55        , 3           , 255         , 0           , 0
-0.114685372, 0.136068553 , -9.790094   , -0.0003905142, 0.000248565455, 7.270343E-05, -0.0133501245, -0.012777972, 5.32295562E-05, 922.954651  , 31.5385     , 780.4426    , 3.56        , 3           , 255         , 0           , 0
-0.122592315, 0.144189686 , -9.784037   , 7.75066437E-05, 0.0001322357, -0.000174437824, -0.0133493273, -0.0127766738, 5.14675849E-05, 922.954651  , 31.5385     , 780.4432    , 3.57        , 3           , 255         , 0           , 0
-0.125491187, 0.1453197   , -9.783506   , -0.000369596528, 5.24562129E-05, 0.0004115833, -0.0133530768, -0.0127760945, 5.55762745E-05, 922.954651  , 31.5385     , 780.4437    , 3.58        , 3           , 255         , 0           , 0
-0.133754313, 0.147346109 , -9.787254   , 8.410818E-05, 0.000164252153, 0.0005915337, -0.0133523112, -0.0127743734, 6.146949E-05, 922.954651  , 31.5385     , 780.4443    , 3.59        , 3           , 255         , 0           , 0
-0.12910375 , 0.156913668 , -9.791668   , 0.00115649961, 1.25055813E-05, -0.000305722147, -0.013340706, -0.0127742877, 5.84107E-05 , 922.954651  , 31.5385     , 780.4448    , 3.6         , 3           , 255         , 0           , 0
-0.134293169, 0.1606651   , -9.792391   , 0.000932244642, 0.000203724077, -0.0002315393, -0.0133367525, -0.0127699664, 5.61371344E-05, 922.954651  , 31.5385     , 780.449     , 3.61        , 3           , 255         , 0           , 0
-0.135375336, 0.1496891   , -9.788416   , 0.000449408049, -0.0001350343, -0.000368302834, -0.0133322114, -0.0127713643, 5.24722273E-05, 922.954651  , 31.5385     , 780.4496    , 3.62        , 3           , 255         , 0           , 0
-0.127621859, 0.137895569 , -9.789518   , 0.000626909547, -0.000579537, -0.000394029164, -0.0133258924, -0.01277721 , 4.86093231E-05, 923.0004    , 31.5396538  , 780.4502    , 3.63        , 3           , 255         , 0           , 0
-0.12883845 , 0.1238202   , -9.787816   , 0.000514967949, -0.00024451525, -0.000473282184, -0.0133206835, -0.0127797192, 4.390923E-05, 923.0004    , 31.5396538  , 780.4508    , 3.64        , 3           , 255         , 0           , 0
-0.134252757, 0.110460326 , -9.79225349 , 0.000631658244, -0.0004524901, 0.0001213862, -0.0133143831, -0.0127842268, 4.518332E-05, 923.0004    , 31.5396538  , 780.4514    , 3.65        , 3           , 255         , 0           , 0
-0.132646352, 0.1141154   , -9.78844    , 0.0005598652, 1.47148348E-05, 0.00132815179, -0.0133089544, -0.0127839046, 5.84624577E-05, 923.0004    , 31.5396538  , 780.452     , 3.66        , 3           , 255         , 0           , 0
-0.128312781, 0.106799006 , -9.781127   , 0.000635123462, -0.000523604162, 0.000317499478, -0.0133026456, -0.0127890976, 6.17070255E-05, 923.0004    , 31.5396538  , 780.452637  , 3.67        , 3           , 255         , 0           , 0
-0.128278092, 0.105405055 , -9.7899     , 0.0004906708, -0.000696702569, -0.0004226654, -0.0132976864, -0.0127961189, 5.75731538E-05, 923.0004    , 31.5396538  , 780.453247  , 3.68        , 3           , 255         , 0           , 0
-0.122689568, 0.09618378  , -9.78657    , -5.18987654E-05, -0.0004753696, 9.049921E-05, -0.0132982163, -0.01280086 , 5.85413254E-05, 923.0004    , 31.5396538  , 780.453857  , 3.69        , 3           , 255         , 0           , 0
-0.123985529, 0.0948191658, -9.792237   , 0.0003804044, -3.894636E-05, 0.000233836967, -0.0132944435, -0.0128012178, 6.08848059E-05, 923.0004    , 31.5396538  , 780.454468  , 3.7         , 3           , 255         , 0           , 0
-0.13617447 , 0.103032514 , -9.796445   , 0.00028571274, -0.000293513178, 0.000291125849, -0.0132670505, -0.012814736, 6.3520085E-05, 923.0004    , 31.5396538  , 780.3924    , 3.71        , 3           , 255         , 0           , 0
-0.126296014, 0.10676913  , -9.79243    , 9.527398E-05, -0.000120256176, 0.0004864741, -0.01326616 , -0.0128158741, 6.840063E-05, 923.0004    , 31.5396538  , 780.3926    , 3.72        , 3           , 255         , 0           , 0
-0.127374977, 0.109962165 , -9.799759   , -0.000412268884, -0.0006214656, 6.38412E-05 , -0.0132702924, -0.01282208 , 6.912147E-05, 922.9977    , 31.5399246  , 780.3928    , 3.73        , 3           , 255         , 0           , 0
-0.134953439, 0.110008873 , -9.790041   , -0.0005952022, -0.0006109817, -0.000294330937, -0.0132762054, -0.0128282281, 6.625935E-05, 922.9977    , 31.5399246  , 780.393066  , 3.74        , 3           , 255         , 0           , 0
-0.1216438  , 0.1318686   , -9.793486   , 0.000180650575, -0.0007128898, -1.30109011E-05, -0.0132743986, -0.0128353573, 6.62238745E-05, 922.9977    , 31.5399246  , 780.3933    , 3.75        , 3           , 255         , 0           , 0
-0.11636927 , 0.143341482 , -9.793289   , -0.00051028037, -0.000509197533, -0.000361101673, -0.0132794557, -0.0128404964, 6.268058E-05, 922.9977    , 31.5399246  , 780.393555  , 3.76        , 3           , 255         , 0           , 0
-0.125727534, 0.139217943 , -9.789948   , 0.000139667129, -0.0003614392, 0.0003427652, -0.0132781025, -0.0128440633, 6.615612E-05, 922.9977    , 31.5399246  , 780.3938    , 3.77        , 3           , 255         , 0           , 0
-0.128644675, 0.14421241  , -9.78861    , 0.0005137323, -0.0005211595, 8.456703E-05, -0.0132729774, -0.0128492648, 6.707096E-05, 922.9977    , 31.5399246  , 780.394043  , 3.78        , 3           , 255         , 0           , 0
-0.125559688, 0.148414969 , -9.788128   , 0.00025217334, -6.83315739E-06, 0.0003235963, -0.0132704973, -0.01284929 , 7.030772E-05, 922.9977    , 31.5399246  , 780.3943    , 3.79        , 3           , 255         , 0           , 0
-0.121480308, 0.140103221 , -9.793598   , 0.0002194764, -0.000448616571, -0.000163342324, -0.0132682817, -0.0128537966, 6.87338761E-05, 922.9977    , 31.5399246  , 780.394531  , 3.8         , 3           , 255         , 0           , 0
-0.122393966, 0.144598752 , -9.801503   , 0.000217870576, -0.0007451958, 0.0007628308, -0.0132622756, -0.0128624057, 7.64103E-05 , 922.9977    , 31.5399246  , 780.344849  , 3.81        , 3           , 255         , 0           , 0
-0.11489632 , 0.141759589 , -9.791735   , 0.000349594484, -0.0004035588, 0.000208985541, -0.0132588064, -0.0128664114, 7.85536E-05 , 922.9977    , 31.5399246  , 780.3448    , 3.82        , 3           , 255         , 0           , 0
-0.123276845, 0.134094462 , -9.792009   , -7.18879164E-06, -0.000569423544, -0.000670896, -0.0132587925, -0.0128721939, 7.192034E-05, 922.99054   , 31.5383644  , 780.3447    , 3.83        , 3           , 255         , 0           , 0
-0.134137109, 0.145160168 , -9.799632   , 7.001389E-05, -0.000455901638, 0.0006355628, -0.0132581741, -0.0128766689, 7.833622E-05, 922.99054   , 31.5383644  , 780.344666  , 3.84        , 3           , 255         , 0           , 0
-0.131110862, 0.136048138 , -9.78760052 , 0.000290467753, -0.000446237, 0.000271675264, -0.0132553075, -0.0128810946, 8.111205E-05, 922.99054   , 31.5383644  , 780.3446    , 3.85        , 3           , 255         , 0           , 0
-0.121480606, 0.13514246  , -9.794576   , 0.000444938982, -0.00048676398, 4.48493047E-05, -0.0132508632, -0.012885957, 8.162505E-05, 922.99054   , 31.5383644  , 780.344543  , 3.86        , 3           , 255         , 0           , 0
-0.133139536, 0.142328724 , -9.787563   , 0.000178918126, -0.000413862872, 5.10557547E-05, -0.0132490825, -0.0128900856, 8.2190425E-05, 922.99054   , 31.5383644  , 780.3445    , 3.87        , 3           , 255         , 0           , 0
-0.127273321, 0.131752282 , -9.784925   , -0.0002181014, -0.0001684741, 7.159669E-05, -0.013251273, -0.012891761, 8.29287E-05 , 922.99054   , 31.5383644  , 780.3444    , 3.88        , 3           , 255         , 0           , 0
-0.120444179, 0.118947648 , -9.791675   , -0.00013537769, -5.432433E-05, 6.749638E-05, -0.0132526364, -0.0128922947, 8.36108447E-05, 922.99054   , 31.5383644  , 780.34436   , 3.89        , 3           , 255         , 0           , 0
-0.124924049, 0.1292373   , -9.78997    , -0.000112339621, 0.000102879 , -7.88029E-05, -0.01325375 , -0.0128912767, 8.280921E-05, 922.99054   , 31.5383644  , 780.3443    , 3.9         , 3           , 255         , 0           , 0
-0.118635394, 0.132003874 , -9.794608   , 0.0002683355, -0.000310713018, -0.0007699596, -0.0132614281, -0.0128930649, 7.52858759E-05, 922.99054   , 31.5383644  , 780.3118    , 3.91        , 3           , 255         , 0           , 0
-0.117051028, 0.130254984 , -9.793128   , 1.284969E-05, -0.000871252734, -0.000207952267, -0.0132612744, -0.0129018025, 7.3321964E-05, 922.99054   , 31.5383644  , 780.3116    , 3.92        , 3           , 255         , 0           , 0
-0.123283885, 0.132762715 , -9.795095   , -0.00031685803, -5.50148834E-05, 0.0005490529, -0.0132645136, -0.01290228 , 7.881962E-05, 922.9636    , 31.5401974  , 780.31134   , 3.93        , 3           , 255         , 0           , 0
-0.11964567 , 0.128871039 , -9.790263   , 4.44474281E-05, -0.0005368283, 5.22790579E-05, -0.0132640777, -0.0129076419, 7.941362E-05, 922.9636    , 31.5401974  , 780.3111    , 3.94        , 3           , 255         , 0           , 0
-0.126746789, 0.1246472   , -9.791221   , 0.000407779124, -0.0006149666, 0.0004482626, -0.0132600572, -0.0129137319, 8.397768E-05, 922.9636    , 31.5401974  , 780.310852  , 3.95        , 3           , 255         , 0           , 0
-0.119805887, 0.132450849 , -9.786781   , 0.0004773018, -0.0006747507, 0.000763187 , -0.0132553838, -0.012920375, 9.169876E-05, 922.9636    , 31.5401974  , 780.3106    , 3.96        , 3           , 255         , 0           , 0
-0.124602415, 0.12077602  , -9.796679   , 2.93397461E-05, -0.000116837982, 0.0009064191, -0.0132552078, -0.0129214227, 0.000100778176, 922.9636    , 31.5401974  , 780.310364  , 3.97        , 3           , 255         , 0           , 0
-0.130758673, 0.124824092 , -9.797472   , 9.971669E-05, 1.86382167E-05, 0.0006663559, -0.013254297, -0.012921148, 0.00010743906, 922.9636    , 31.5401974  , 780.3101    , 3.98        , 3           , 255         , 0           , 0
-0.129954353, 0.134147912 , -9.793813   , 0.000284192356, -0.000309191819, -6.60950245E-05, -0.0132514462, -0.0129242474, 0.00010681912, 922.9636    , 31.5401974  , 780.3099    , 3.99        , 3           , 255         , 0           , 0
-0.1260776  , 0.133433819 , -9.797224   , -0.000120708894, -1.210723E-05, 0.0005687807, -0.0132527268, -0.012924294, 0.000112508351, 922.9636    , 31.5401974  , 780.309631  , 4           , 3           , 0           , 9.451237    , 400
-0.125551671, 0.135566354 , -9.794639   , 0.000224177944, -2.33980682E-05, 0.0001778027, -0.0132497847, -0.0129201906, 0.0001142801, 922.9636    , 31.5401974  , 780.3205    , 4.01        , 3           , 1           , 0           , 0
-0.117740586, 0.138224363 , -9.800005   , 3.44030559E-06, -0.0002904195, 0.000140357559, -0.01324977 , -0.0129230758, 0.00011572212, 922.9636    , 31.5401974  , 780.3203    , 4.02        , 3           , 2           , 0           , 0
-0.12883991 , 0.1401883   , -9.7930975  , 0.000700496254, -0.0003699408, 0.000147139639, -0.0132427858, -0.0129267555, 0.000117242475, 922.980835  , 31.5397224  , 780.3201    , 4.03        , 3           , 3           , 0           , 0
-0.1351187  , 0.1375779   , -9.791972   , 0.000372791081, -2.91186E-05, -0.00027034292, -0.0132390223, -0.0129270861, 0.000114542985, 922.980835  , 31.5397224  , 780.319946  , 4.04        , 3           , 4           , 0           , 0
-0.117689088, 0.148893327 , -9.79989    , -3.683992E-06, 5.683305E-05, -5.20204558E-05, -0.0132390521, -0.0129265226, 0.000114015267, 922.980835  , 31.5397224  , 780.319763  , 4.05        , 3           , 5           , 0           , 0
-0.124371365, 0.14759706  , -9.796326   , -0.0001750626, -0.000283303962, -0.0005592219, -0.0132407313, -0.0129294293, 0.000108460707, 922.980835  , 31.5397224  , 780.3196    , 4.06        , 3           , 6           , 0           , 0
