Acc X       , Acc Y       , Acc Z       , Gyro X      , Gyro Y      , Gyro Z      , Euler X     , Euler Y     , Euler Z     , Pres X      , Pres Y      , Pres Z      , Time        , Status      , LowRate X   , LowRate Y   , LowRate Z    
-0.145354554, 0.1457693   , -9.784265   , 0           , 0           , 0           , -0.0148972385, -0.0148532093, 0           , 923.6519    , 31.8027458  , 774.2023    , 0           , 2           , 0           , 5.44223166  , 0
-0.140331268, 0.149452955 , -9.793141   , 0.00012526568, 3.486144E-05, 0.0002874411, -0.0148959653, -0.0148525909, 2.8691536E-06, 923.6519    , 31.8027458  , 774.2023    , 0.01        , 3           , 1           , 0           , 0
-0.145671129, 0.154243663 , -9.801926   , -0.0002117863, 9.163053E-05, 0.0005320488, -0.0148981614, -0.0148515953, 8.175854E-06, 923.6519    , 31.8027458  , 774.2023    , 0.02        , 3           , 2           , 0           , 0
-0.146043628, 0.1458667   , -9.796146   , -6.128935E-05, 5.0876406E-07, -0.000353602984, -0.0148987221, -0.0148516437, 4.639837E-06, 923.5528    , 31.3642139  , 774.2023    , 0.03        , 3           , 3           , 0           , 0
-0.140793562, 0.145192921 , -9.800433   , -0.000320397725, -0.000132000772, 0.0004927576, -0.0149019985, -0.0148528907, 9.586949E-06, 923.5528    , 31.3642139  , 774.2023    , 0.04        , 3           , 4           , 0           , 0
-0.148741916, 0.1471489   , -9.797158   , -0.0002604457, 0.000332699972, 0.000145216516, -0.0149046248, -0.0148495426, 1.09895009E-05, 923.5528    , 31.3642139  , 774.2023    , 0.05        , 3           , 5           , 0           , 0
-0.143882975, 0.149618134 , -9.793691   , -0.000122343656, 0.000120426761, -0.00032299044, -0.014905801, -0.0148483869, 7.741723E-06, 923.5528    , 31.3642139  , 774.2023    , 0.06        , 3           , 6           , 0           , 0
-0.138755128, 0.146410465 , -9.795214   , 1.35345035E-05, 0.0002919122, 0.0009781792, -0.01490581 , -0.0148453191, 1.74797678E-05, 923.5528    , 31.3642139  , 774.2023    , 0.07        , 3           , 7           , 0           , 0
-0.147810027, 0.149377272 , -9.795762   , -0.000332278665, -9.959034E-05, 0.000679014251, -0.014909233, -0.014846215, 2.42845781E-05, 923.5528    , 31.3642139  , 774.2023    , 0.08        , 3           , 8           , 5           , 5
-0.1455606  , 0.143417329 , -9.789146   , 6.168056E-05, 0.000198236216, -0.000447862752, -0.01490855 , -0.0148442984, 1.97765166E-05, 923.5528    , 31.3642139  , 774.2023    , 0.09        , 3           , 9           , 5           , 0.1
-0.14478603 , 0.136474162 , -9.792824   , -0.0007612027, 0.000202096373, -6.924679E-05, -0.0149161508, -0.01484229 , 1.90539176E-05, 923.5528    , 31.3642139  , 774.2023    , 0.1         , 3           , 10          , 0.1         , 0.1
-0.143538043, 0.141858876 , -9.798371   , -0.000282088818, 0.000516197761, 0.000451063766, -0.0149214426, -0.0148328543, 2.35231055E-05, 923.5528    , 31.3642139  , 775.092834  , 0.11        , 3           , 11          , 0.0109544508, 0.0109544508
-0.144070655, 0.151942074 , -9.79402    , -0.000336596684, 0.000147528423, 0.000413940958, -0.01492487 , -0.0148313176, 2.76403971E-05, 923.5528    , 31.3642139  , 775.092834  , 0.12        , 3           , 12          , 0.174642488 , 0
-0.145430356, 0.1521476   , -9.795112   , -0.000148837047, 8.818114E-05, -0.0003575366, -0.0149263041, -0.01483049 , 2.40519639E-05, 923.5759    , 31.4027481  , 775.092834  , 0.13        , 3           , 13          , 0           , 0
-0.142356008, 0.150750548 , -9.792373   , 0.000190565712, 0.000243869508, -8.841572E-05, -0.0149243856, -0.0148280635, 2.31314389E-05, 923.5759    , 31.4027481  , 775.092834  , 0.14        , 3           , 14          , -0.0005428186, -0.000363207859
-0.15056774 , 0.1490115   , -9.791018   , -3.00799147E-05, 0.000314276374, 0.00021580483, -0.0149247181, -0.0148248924, 2.52425234E-05, 923.5759    , 31.4027481  , 775.092834  , 0.15        , 3           , 15          , 0           , -3.934638E-05
-0.147540987, 0.1558917   , -9.791067   , -8.450652E-05, 0.000185579876, 0.000261439418, -0.0149256019, -0.0148229972, 2.78291591E-05, 923.5759    , 31.4027481  , 775.0929    , 0.16        , 3           , 16          , 0           , 1.401298E-45
-0.142763063, 0.144821376 , -9.7926445  , -0.000360638485, -0.0003015993, 0.0005670383, -0.0149292918, -0.014825928, 3.35444165E-05, 923.5759    , 31.4027481  , 775.092957  , 0.17        , 3           , 20          , 0           , 0
-0.1455432  , 0.138197228 , -9.790532   , -0.0008861478, -0.000419704738, 8.49968E-05 , -0.0149381664, -0.0148301106, 3.44570362E-05, 923.5759    , 31.4027481  , 775.093     , 0.18        , 3           , 21          , 0           , 0
-0.14890942 , 0.1420393   , -9.798134   , -0.000771676, 0.000277070969, 0.000453171262, -0.0149459494, -0.0148272729, 3.89472225E-05, 923.5759    , 31.4027481  , 775.0931    , 0.19        , 3           , 22          , 0           , 0
-0.151756242, 0.146126851 , -9.798583   , -0.00032077526, -0.0002547824, 0.000550634752, -0.0149492379, -0.014829739, 4.44915167E-05, 923.5759    , 31.4027481  , 775.09314   , 0.2         , 3           , 40          , 0           , 0
-0.150698513, 0.142230049 , -9.792462   , -0.00076926063, -0.000183719967, 0.0006173567, -0.0149608376, -0.0148350075, 5.074897E-05, 923.5759    , 31.4027481  , 774.9899    , 0.21        , 3           , 41          , 0           , 0
-0.1463668  , 0.141490161 , -9.792289   , -0.0004764683, 3.38308746E-06, 0.000336097728, -0.0149656516, -0.0148349237, 5.4109365E-05, 923.5759    , 31.4027481  , 774.99      , 0.22        , 3           , 42          , 0           , 0
-0.147408053, 0.14526391  , -9.784233   , -7.202773E-05, 5.89589763E-05, 5.98824336E-05, -0.0149663808, -0.0148343248, 5.469934E-05, 923.5457    , 31.4246616  , 774.990051  , 0.23        , 3           , 255         , 0           , 0
-0.147409365, 0.143943235 , -9.792522   , 1.541822E-05, -3.989553E-07, -0.000204948, -0.0149661954, -0.01483436 , 5.264998E-05, 923.5457    , 31.4246616  , 774.9901    , 0.24        , 3           , 255         , 0           , 0
-0.141691983, 0.144886732 , -9.787946   , 0.000302426139, -0.0003898947, 0.000598445768, -0.0149632618, -0.0148381693, 5.8692618E-05, 923.5457    , 31.4246616  , 774.9902    , 0.25        , 3           , 255         , 0           , 0
-0.136042908, 0.144872159 , -9.796136   , -0.000132837973, -0.000301469467, -0.000381285063, -0.014964534, -0.0148412408, 5.492498E-05, 923.5457    , 31.4246616  , 774.990234  , 0.26        , 3           , 255         , 0           , 0
-0.146008849, 0.147617951 , -9.789286   , 0.000391016656, 2.44348485E-05, 0.000187004043, -0.0149606531, -0.0148409689, 5.67913266E-05, 923.5457    , 31.4246616  , 774.9903    , 0.27        , 3           , 255         , 0           , 0
-0.141965389, 0.138171658 , -9.794443   , 0.000169279752, -2.80356326E-05, 3.02684548E-05, -0.0149589647, -0.0148412446, 5.70981974E-05, 923.5457    , 31.4246616  , 774.990356  , 0.28        , 3           , 255         , 0           , 0
-0.1502613  , 0.143910348 , -9.795767   , -0.000175520545, -0.0005386667, 0.0003441228, -0.0149607705, -0.0148465773, 6.06199064E-05, 923.5457    , 31.4246616  , 774.9904    , 0.29        , 3           , 255         , 0           , 0
-0.148366749, 0.14395304  , -9.788805   , -0.000564864662, 0.0005891982, 9.832121E-05, -0.014966432, -0.0148406718, 6.151493E-05, 923.5457    , 31.4246616  , 774.9905    , 0.3         , 3           , 255         , 0           , 0
-0.141810313, 0.141863853 , -9.791222   , -0.000264935254, 4.522156E-05, 0.0008693714, -0.0149573954, -0.01484141 , 7.00262754E-05, 923.5457    , 31.4246616  , 775.0463    , 0.31        , 3           , 255         , 0           , 0
-0.14135246 , 0.143616721 , -9.793691   , -0.000166189624, -0.000136078626, 0.000401817728, -0.0149591174, -0.0148427114, 7.40647E-05 , 923.5457    , 31.4246616  , 775.0464    , 0.32        , 3           , 255         , 0           , 0
-0.149885654, 0.147957891 , -9.793492   , 9.14089E-05 , 0.00023883181, -0.000293267454, -0.0149581591, -0.0148403663, 7.109638E-05, 923.547668  , 31.4436569  , 775.046448  , 0.33        , 3           , 255         , 0           , 0
-0.138321966, 0.147297889 , -9.79278    , -6.739993E-05, 0.000128284475, 0.000279528729, -0.0149588753, -0.014839042, 7.38724048E-05, 923.547668  , 31.4436569  , 775.0465    , 0.34        , 3           , 255         , 0           , 0
-0.138148516, 0.153554365 , -9.7892     , -8.512323E-05, -0.000160317286, -0.000292216457, -0.0149596846, -0.0148406895, 7.09743E-05 , 923.547668  , 31.4436569  , 775.0466    , 0.35        , 3           , 255         , 0           , 0
-0.150156721, 0.148489818 , -9.790257   , 0.000216239743, -0.000466315716, -6.90938E-05, -0.01495751 , -0.014845361, 7.03531259E-05, 923.547668  , 31.4436569  , 775.046631  , 0.36        , 3           , 255         , 0           , 0
-0.1429756  , 0.155403018 , -9.786546   , -0.000121171935, -0.000278065738, 5.967084E-05, -0.0149587318, -0.0148481317, 7.099142E-05, 923.547668  , 31.4436569  , 775.0467    , 0.37        , 3           , 255         , 0           , 0
-0.14711912 , 0.154670626 , -9.79356    , -0.000515796244, 0.000123040329, 0.0005997515, -0.0149639789, -0.014846812, 7.697037E-05, 923.547668  , 31.4436569  , 775.046753  , 0.38        , 3           , 255         , 0           , 0
-0.149563327, 0.1477272   , -9.798492   , -0.000103365979, -0.000455543282, 0.0003323969, -0.0149650611, -0.0148513168, 8.036241E-05, 923.547668  , 31.4436569  , 775.0468    , 0.39        , 3           , 255         , 0           , 0
-0.147068471, 0.13812241  , -9.790975   , 6.24604E-05 , -0.0004778442, -0.000279746338, -0.0149643971, -0.0148561373, 7.76365341E-05, 923.547668  , 31.4436569  , 775.0469    , 0.4         , 3           , 255         , 0           , 0
-0.1551564  , 0.141925856 , -9.791206   , -0.0005026617, -8.463478E-05, -0.000293453573, -0.0149745187, -0.0148544088, 7.479111E-05, 923.547668  , 31.4436569  , 775.0701    , 0.41        , 3           , 255         , 0           , 0
-0.141087443, 0.138354555 , -9.792662   , -0.00042873458, 9.274308E-05, 0.000188546532, -0.0149788344, -0.0148534523, 7.666263E-05, 923.547668  , 31.4436569  , 775.0702    , 0.42        , 3           , 255         , 0           , 0
-0.1355223  , 0.15091376  , -9.787503   , -0.0006183251, 8.968648E-05, 0.0002168614, -0.0149850491, -0.0148525238, 7.881774E-05, 923.565369  , 31.45329    , 775.070251  , 0.43        , 3           , 255         , 0           , 0
-0.136715367, 0.15559794  , -9.788084   , 0.000144184218, 2.78943626E-05, -0.000131283043, -0.0149835888, -0.0148522649, 7.750077E-05, 923.565369  , 31.45329    , 775.0703    , 0.44        , 3           , 255         , 0           , 0
-0.150555536, 0.153064981 , -9.800429   , 0.000137448282, -3.749138E-05, -2.12359919E-05, -0.01498221 , -0.0148526421, 7.72940257E-05, 923.565369  , 31.45329    , 775.0704    , 0.45        , 3           , 255         , 0           , 0
-0.149457619, 0.1438144   , -9.79400349 , 0.000159491668, -0.00022454033, 0.0005343186, -0.0149806971, -0.0148548083, 8.26707255E-05, 923.565369  , 31.45329    , 775.070435  , 0.46        , 3           , 255         , 0           , 0
-0.144939989, 0.145232573 , -9.785911   , -6.212399E-05, -8.00431E-05, 0.000233097 , -0.0149813527, -0.0148555739, 8.501363E-05, 923.565369  , 31.45329    , 775.0705    , 0.47        , 3           , 255         , 0           , 0
-0.154440537, 0.147657171 , -9.79389    , 0.0004431169, 0.000216648783, 0.0003973255, -0.0149769792, -0.0148533471, 8.89543153E-05, 923.565369  , 31.45329    , 775.070557  , 0.48        , 3           , 255         , 0           , 0
-0.147123843, 0.148803234 , -9.79649    , 9.661156E-05, 0.000227120268, 0.000140640826, -0.0149760358, -0.0148510551, 9.032668E-05, 923.565369  , 31.45329    , 775.0706    , 0.49        , 3           , 255         , 0           , 0
-0.146361247, 0.142764851 , -9.79734    , 0.0003357026, 0.000245000119, 0.00112242834, -0.0149728442, -0.014848439, 0.000101513979, 923.565369  , 31.45329    , 775.0707    , 0.5         , 3           , 255         , 0           , 0
-0.1530089  , 0.149627656 , -9.793388   , -0.000166110811, 1.46369566E-05, 0.000231529411, -0.0149748111, -0.0148505243, 0.000103831051, 923.565369  , 31.45329    , 775.052063  , 0.51        , 3           , 255         , 0           , 0
-0.1463591  , 0.151331216 , -9.78745651 , -3.69718764E-05, 0.000344444416, -0.0004189449, -0.0149751194, -0.0148471436, 9.959014E-05, 923.565369  , 31.45329    , 775.0521    , 0.52        , 3           , 255         , 0           , 0
-0.138093948, 0.151477009 , -9.782516   , -0.000187267084, 0.000231381389, -0.000432337023, -0.014976928, -0.0148448953, 9.523224E-05, 923.577759  , 31.463604   , 775.0522    , 0.53        , 3           , 255         , 0           , 0
-0.147148892, 0.144575015 , -9.792317   , -0.0005682183, -6.231872E-05, 0.000262948073, -0.0149826482, -0.0148454793, 9.787098E-05, 923.577759  , 31.463604   , 775.052246  , 0.54        , 3           , 255         , 0           , 0
-0.150583059, 0.139699787 , -9.791297   , -5.73677244E-06, 1.86061952E-05, 2.63988586E-05, -0.01498271 , -0.0148452893, 9.813218E-05, 923.577759  , 31.463604   , 775.052368  , 0.55        , 3           , 255         , 0           , 0
-0.143448979, 0.148797974 , -9.783678   , 8.958974E-06, 0.000226985692, 0.0005447953, -0.0149827  , -0.0148429386, 0.000103545972, 923.577759  , 31.463604   , 775.0525    , 0.56        , 3           , 255         , 0           , 0
-0.142745346, 0.144453108 , -9.785528   , 0.000117877877, 0.0003442154, -0.0002522221, -0.014981485, -0.0148395346, 0.000100972255, 923.577759  , 31.463604   , 775.0526    , 0.57        , 3           , 255         , 0           , 0
-0.143623546, 0.137488544 , -9.788588   , 0.0003220362, 0.000437039853, -0.000540484849, -0.0149781834, -0.0148352478, 9.550209E-05, 923.577759  , 31.463604   , 775.052734  , 0.58        , 3           , 255         , 0           , 0
-0.142505333, 0.1378958   , -9.787326   , 0.000759872957, 0.0007726945, 0.000383360661, -0.0149706407, -0.0148274628, 9.92198839E-05, 923.577759  , 31.463604   , 775.052856  , 0.59        , 3           , 255         , 0           , 0
-0.155142352, 0.149420351 , -9.784224   , 0.000833447149, 0.000288865645, -0.000116611263, -0.0149622895, -0.0148245925, 9.80105542E-05, 923.577759  , 31.463604   , 775.053     , 0.6         , 3           , 255         , 0           , 0
-0.148704156, 0.150291115 , -9.788846   , -0.000184580567, -0.000533545332, 0.000242829337, -0.014958241, -0.014834607, 0.000100430654, 923.577759  , 31.463604   , 775.020935  , 0.61        , 3           , 255         , 0           , 0
-0.1439118  , 0.144705623 , -9.791155   , -8.551282E-05, -0.0004732128, 0.001125254 , -0.0149592655, -0.01483917 , 0.000111753681, 923.577759  , 31.463604   , 775.021     , 0.62        , 3           , 255         , 0           , 0
-0.148301914, 0.144295722 , -9.792594   , 0.000436427857, -1.984532E-05, 0.00119120826, -0.0149550783, -0.014839191, 0.000123668418, 923.586365  , 31.46808    , 775.021057  , 0.63        , 3           , 255         , 0           , 0
-0.148063019, 0.1586053   , -9.791226   , 0.000103478495, 8.691527E-05, 0.000740753836, -0.0149541525, -0.0148382112, 0.000131062756, 923.586365  , 31.46808    , 775.0212    , 0.64        , 3           , 255         , 0           , 0
-0.142712831, 0.148690939 , -9.794216   , 0.000261643028, -0.00030377385, 0.000274140824, -0.0149515774, -0.0148412064, 0.00013384952, 923.586365  , 31.46808    , 775.0213    , 0.65        , 3           , 255         , 0           , 0
-0.147487134, 0.1500591   , -9.792845   , -0.000121383113, -0.000137704366, 0.0004726236, -0.0149528617, -0.014842513, 0.00013859621, 923.586365  , 31.46808    , 775.0214    , 0.66        , 3           , 255         , 0           , 0
-0.145864487, 0.144834727 , -9.791521   , -3.69283371E-05, -0.0002277738, 0.000881788 , -0.0149533618, -0.0148446579, 0.0001474479, 923.586365  , 31.46808    , 775.021545  , 0.67        , 3           , 255         , 0           , 0
-0.137924388, 0.145378217 , -9.790183   , -0.000277006766, -0.000193167361, 0.000219775888, -0.0149561651, -0.0148465578, 0.00014967451, 923.586365  , 31.46808    , 775.021667  , 0.68        , 3           , 255         , 0           , 0
-0.151365072, 0.13806513  , -9.792116   , -0.000299646461, -1.34243746E-05, -0.000106817504, -0.0149591453, -0.0148467077, 0.000148608364, 923.586365  , 31.46808    , 775.0218    , 0.69        , 3           , 255         , 0           , 0
-0.148240089, 0.136595637 , -9.799002   , -0.000230967824, 0.000161905074, 0.0001550044, -0.0149614764, -0.014845063, 0.000150134132, 923.586365  , 31.46808    , 775.0219    , 0.7         , 3           , 255         , 0           , 0
-0.140073776, 0.143804491 , -9.80276    , 0.000108065666, 0.0001789564, -0.000454956375, -0.0149594219, -0.0148462979, 0.000145544444, 923.586365  , 31.46808    , 774.9868    , 0.71        , 3           , 255         , 0           , 0
-0.1469141  , 0.143299073 , -9.795313   , -0.0004543583, -8.917283E-05, 0.000233521743, -0.014964   , -0.0148471547, 0.000147892948, 923.586365  , 31.46808    , 774.9869    , 0.72        , 3           , 255         , 0           , 0
-0.13757728 , 0.144714862 , -9.792749   , -0.000828639837, -7.056957E-05, 0.000844134949, -0.014972412, -0.0148477359, 0.000156344642, 923.6439    , 31.4719467  , 774.986938  , 0.73        , 3           , 255         , 0           , 0
-0.146346331, 0.138404176 , -9.792053   , -0.0007438441, -9.232768E-05, 0.000701140147, -0.0149799539, -0.0148485526, 0.000163369667, 923.6439    , 31.4719467  , 774.987     , 0.74        , 3           , 255         , 0           , 0
-0.150609061, 0.143889368 , -9.78605    , 8.142408E-05, 3.4360768E-05, 0.000832674443, -0.0149792628, -0.0148480842, 0.000171691034, 923.6439    , 31.4719467  , 774.987061  , 0.75        , 3           , 255         , 0           , 0
-0.149341956, 0.1442357   , -9.799783   , 0.000285429618, -0.000105218031, 0.0004347231, -0.0149764735, -0.0148490714, 0.0001760539, 923.6439    , 31.4719467  , 774.9872    , 0.76        , 3           , 255         , 0           , 0
-0.139821619, 0.152010828 , -9.789553   , 8.10500351E-05, -0.000200555631, -0.000302386354, -0.0149756176, -0.0148511222, 0.000173060165, 923.6439    , 31.4719467  , 774.9873    , 0.77        , 3           , 255         , 0           , 0
-0.139999568, 0.151576489 , -9.786413   , -2.98209488E-05, 0.0001912338, 0.000525485259, -0.0149759939, -0.0148491319, 0.000178286253, 923.6439    , 31.4719467  , 774.9874    , 0.78        , 3           , 255         , 0           , 0
-0.1385471  , 0.144047856 , -9.79418    , 1.16693554E-05, 4.04637831E-05, 0.000179821713, -0.0149759036, -0.0148487  , 0.000180078365, 923.6439    , 31.4719467  , 774.987549  , 0.79        , 3           , 255         , 0           , 0
-0.1395568  , 0.147508025 , -9.795991   , -9.52887349E-05, -0.00026626364, 0.00101650774, -0.0149770081, -0.0148512116, 0.000190283012, 923.6439    , 31.4719467  , 774.9877    , 0.8         , 3           , 255         , 0           , 0
-0.141988426, 0.1452944   , -9.787478   , -0.000272201374, -0.000326222245, 0.0004673708, -0.014975802, -0.0148468828, 0.000194946115, 923.6439    , 31.4719467  , 774.8893    , 0.81        , 3           , 255         , 0           , 0
-0.140546769, 0.1470865   , -9.790489   , 0.0003043014, -0.000621296349, 0.0003575831, -0.0149728134, -0.0148530407, 0.000198614871, 923.6439    , 31.4719467  , 774.8893    , 0.82        , 3           , 255         , 0           , 0
-0.141180754, 0.145006627 , -9.791662   , -0.000225270283, 0.0004599644, -8.778738E-05, -0.0149750523, -0.0148484558, 0.000197668167, 923.589355  , 31.4726257  , 774.8893    , 0.83        , 3           , 255         , 0           , 0
-0.147412166, 0.148442149 , -9.792885   , 5.826156E-05, 0.000992395 , -0.0002428617, -0.0149744311, -0.0148385726, 0.000195090979, 923.589355  , 31.4726257  , 774.8893    , 0.84        , 3           , 255         , 0           , 0
-0.1477439  , 0.147510365 , -9.791883   , -0.000248081516, -3.50851624E-05, -0.000156081063, -0.0149768917, -0.0148389442, 0.000193535467, 923.589355  , 31.4726257  , 774.8893    , 0.85        , 3           , 255         , 0           , 0
-0.147570342, 0.13973847  , -9.790691   , -0.000296172046, 0.000543048256, -0.0004794044, -0.01497978 , -0.0148335854, 0.000188660211, 923.589355  , 31.4726257  , 774.8893    , 0.86        , 3           , 255         , 0           , 0
-0.147340864, 0.142910421 , -9.787546   , -0.000125021092, -0.000112909067, 0.000196248016, -0.0149810594, -0.0148346853, 0.000190639534, 923.589355  , 31.4726257  , 774.8893    , 0.87        , 3           , 255         , 0           , 0
-0.138489336, 0.1403301   , -9.79402    , -8.60889E-05, 7.971958E-05, -0.000160853786, -0.0149818938, -0.0148339123, 0.000189019091, 923.589355  , 31.4726257  , 774.8893    , 0.88        , 3           , 255         , 0           , 0
-0.1454067  , 0.140918046 , -9.80253    , -0.000226063887, -0.000221590482, -7.895428E-05, -0.014984143, -0.014836139, 0.000188262769, 923.589355  , 31.4726257  , 774.8893    , 0.89        , 3           , 255         , 0           , 0
-0.145911515, 0.141573    , -9.79608    , -0.000405805476, -0.000205089891, 0.000134411966, -0.0149882231, -0.0148381684, 0.000189637591, 923.589355  , 31.4726257  , 774.8893    , 0.9         , 3           , 255         , 0           , 0
-0.144865081, 0.143485591 , -9.78599    , 5.213212E-05, -0.00054497103, 0.000733285036, -0.0149793616, -0.0148405405, 0.000196926514, 923.589355  , 31.4726257  , 774.8734    , 0.91        , 3           , 255         , 0           , 0
-0.141038448, 0.151313633 , -9.785629   , 0.000312320539, -0.000422736164, 8.13315855E-05, -0.01497625 , -0.0148447556, 0.000197803151, 923.589355  , 31.4726257  , 774.8734    , 0.92        , 3           , 255         , 0           , 0
-0.153802156, 0.1356492   , -9.793379   , 0.000596747443, -5.519783E-05, -0.000453922577, -0.0149702169, -0.014845374, 0.00019327231, 923.5978    , 31.4774437  , 774.8734    , 0.93        , 3           , 255         , 0           , 0
-0.13923642 , 0.135204241 , -9.796352   , -2.90146563E-05, 0.000196618872, 0.000609228038, -0.0149705978, -0.0148433177, 0.000199334987, 923.5978    , 31.4774437  , 774.8734    , 0.94        , 3           , 255         , 0           , 0
-0.134231627, 0.141947    , -9.800829   , 3.646867E-05, 0.000355981378, 0.0002959902, -0.0149702765, -0.0148397172, 0.000202241528, 923.5978    , 31.4774437  , 774.8734    , 0.95        , 3           , 255         , 0           , 0
-0.135042578, 0.13515842  , -9.799205   , 0.000364918844, 0.000283176429, -0.0005722755, -0.014966541, -0.0148369716, 0.000196476554, 923.5978    , 31.4774437  , 774.8734    , 0.96        , 3           , 255         , 0           , 0
-0.145292073, 0.140397787 , -9.793836   , 0.00023265378, 0.000302964327, 0.000778259535, -0.01496433 , -0.0148338256, 0.0002042136, 923.5978    , 31.4774437  , 774.8734    , 0.97        , 3           , 255         , 0           , 0
-0.140661836, 0.142831936 , -9.800198   , -0.000367389352, 0.000174279674, 0.000309760449, -0.01496805 , -0.0148320366, 0.000207285033, 923.5978    , 31.4774437  , 774.8734    , 0.98        , 3           , 255         , 0           , 0
-0.145429254, 0.143671349 , -9.80365849 , -0.000850409851, -1.06968218E-05, -0.000336346071, -0.0149765043, -0.014832194, 0.000203923264, 923.5978    , 31.4774437  , 774.8734    , 0.99        , 3           , 255         , 0           , 0
-0.150529817, 0.144700184 , -9.791453   , -0.00021581084, -7.313726E-05, -0.0006457011, -0.0149785662, -0.014833021, 0.000197477377, 923.5978    , 31.4774437  , 774.8734    , 1           , 3           , 0           , 6.44223642  , 100
-0.144438818, 0.148278266 , -9.79319    , 0.0003526938, -0.000406669074, 0.0002558059, -0.014961916, -0.0148310335, 0.000199901071, 923.5978    , 31.4774437  , 774.851     , 1.01        , 3           , 1           , 0           , 0
-0.14366731 , 0.136727214 , -9.806445   , -0.000536708161, -0.0005144491, 0.000310575182, -0.0149673289, -0.01483613 , 0.00020308372, 923.5978    , 31.4774437  , 774.851     , 1.02        , 3           , 2           , 0           , 0
-0.143338427, 0.141143754 , -9.785404   , -0.000614007, -0.000375131232, 0.0004237892, -0.0149735324, -0.0148398168, 0.000207377656, 923.5836    , 31.4794788  , 774.851     , 1.03        , 3           , 3           , 0           , 0
-0.139280558, 0.138220236 , -9.79865    , -0.00039122568, -0.000147754181, 0.000565436145, -0.0149775287, -0.01484121 , 0.000213053965, 923.5836    , 31.4794788  , 774.851     , 1.04        , 3           , 4           , 0           , 0
-0.140437961, 0.13127692  , -9.7943325  , -0.0001305783, 0.0003208782, 0.000403309648, -0.014978894, -0.01483794 , 0.000217038891, 923.5836    , 31.4794788  , 774.851     , 1.05        , 3           , 5           , 0           , 0
-0.142136753, 0.140534729 , -9.795683   , -9.963068E-05, -0.000283385249, 0.000441448239, -0.0149799557, -0.0148407081, 0.00022149572, 923.5836    , 31.4794788  , 774.851     , 1.06        , 3           , 6           , 0           , 0
-0.146098524, 0.149120077 , -9.787703   , 0.0002886696, 0.000103275728, 0.00058889424, -0.0149771571, -0.0148395877, 0.000227369033, 923.5836    , 31.4794788  , 774.851     , 1.07        , 3           , 7           , 0           , 0
-0.150596708, 0.15260902  , -9.78707    , -0.000142578385, 0.0003701971, 0.0005456605, -0.0149786621, -0.0148358028, 0.00023277002, 923.5836    , 31.4794788  , 774.851     , 1.08        , 3           , 8           , 5           , 5
-0.147287518, 0.150233269 , -9.787251   , 0.000444147619, -0.000399364246, -3.59136029E-05, -0.014974216, -0.0148398029, 0.000232470731, 923.5836    , 31.4794788  , 774.851     , 1.09        , 3           , 9           , 5           , 0.1
-0.137715176, 0.154030278 , -9.794291   , -0.000165703183, -0.000101943995, -0.000345370732, -0.0149758207, -0.014840873, 0.000229032376, 923.5836    , 31.4794788  , 774.851     , 1.1         , 3           , 10          , 0.1         , 0.1
-0.143580765, 0.149539948 , -9.791759   , -0.000272703415, 0.0002370581, 0.000372363778, -0.0149716921, -0.014833292, 0.0002326179, 923.5836    , 31.4794788  , 774.8468    , 1.11        , 3           , 11          , 0.009216248 , 0.009216246
-0.1492743  , 0.15101     , -9.786261   , 0.0001265374, -0.000351348717, -0.000239311674, -0.014970392, -0.0148368413, 0.000230277437, 923.5836    , 31.4794788  , 774.8468    , 1.12        , 3           , 12          , 0.174642846 , 0
-0.1408972  , 0.138905823 , -9.798328   , -0.000447781815, 2.38129E-05 , -0.000178652917, -0.0149748428, -0.01483663 , 0.000228487392, 923.5658    , 31.4783249  , 774.8468    , 1.13        , 3           , 13          , 0           , 0
-0.140869915, 0.141128018 , -9.794421   , -0.0005334041, -7.807394E-06, -0.000142276855, -0.014980156, -0.0148367295, 0.0002270658, 923.5658    , 31.4783249  , 774.8468    , 1.14        , 3           , 14          , -0.0005428594, -0.000363224826
-0.141061157, 0.136320084 , -9.797422   , -0.000269787735, 0.000132885121, 0.000342413317, -0.0149829034, -0.0148353493, 0.000230469959, 923.5658    , 31.4783249  , 774.8468    , 1.15        , 3           , 15          , 0           , -3.93460323E-05
-0.134653777, 0.143428415 , -9.79839    , -0.00078773353, -0.0002939268, 1.8332903E-06, -0.0149907824, -0.0148382885, 0.000230532329, 923.5658    , 31.4783249  , 774.8468    , 1.16        , 3           , 16          , 0           , 1.401298E-45
-0.150500461, 0.148590282 , -9.793954   , -0.000271092635, -0.000136681076, -3.68720066E-07, -0.0149934944, -0.0148396557, 0.000230549122, 923.5658    , 31.4783249  , 774.8468    , 1.17        , 3           , 20          , 0           , 0
-0.152481481, 0.147392511 , -9.79096    , 0.000496598 , -0.0002970855, 0.000292040437, -0.0149885714, -0.0148425819, 0.000233514 , 923.5658    , 31.4783249  , 774.8468    , 1.18        , 3           , 21          , 0           , 0
-0.1414473  , 0.144863173 , -9.794245   , 0.000145319849, 0.000119746794, -0.000143509576, -0.0149870981, -0.0148414066, 0.000232061007, 923.5658    , 31.4783249  , 774.8468    , 1.19        , 3           , 22          , 0           , 0
-0.141878679, 0.136024326 , -9.7898035  , -0.0002912032, 2.70796882E-05, -2.42267015E-05, -0.0149900066, -0.0148411393, 0.000231814687, 923.5658    , 31.4783249  , 774.8468    , 1.2         , 3           , 40          , 0           , 0
-0.1497098  , 0.141131625 , -9.7912035  , -0.000257936656, 0.000134094065, -8.742293E-05, -0.0149846617, -0.014835461, 0.000230803009, 923.5658    , 31.4783249  , 774.8617    , 1.21        , 3           , 41          , 0           , 0
-0.148096144, 0.147116467 , -9.79911    , -0.000232051243, -0.000266381481, 0.0005505274, -0.0149870645, -0.0148380427, 0.00023634806, 923.5658    , 31.4783249  , 774.861755  , 1.22        , 3           , 42          , 0           , 0
-0.140929371, 0.154580876 , -9.80112    , -0.000483763055, -0.000126920175, 0.00089114334, -0.0149920341, -0.0148391761, 0.000245278265, 923.612     , 31.48226    , 774.8618    , 1.23        , 3           , 255         , 0           , 0
-0.149911076, 0.146328673 , -9.796543   , 0.0002204203, -0.000205558259, 0.000228001736, -0.0149898622, -0.014841198, 0.000247589021, 923.612     , 31.48226    , 774.8619    , 1.24        , 3           , 255         , 0           , 0
-0.14692153 , 0.151555225 , -9.796892   , 0.000363240455, -0.000121735764, -0.0006381793, -0.0149861369, -0.0148425139, 0.000241225673, 923.612     , 31.48226    , 774.861938  , 1.25        , 3           , 255         , 0           , 0
-0.143335462, 0.160884544 , -9.803369   , -0.0006220996, 6.848073E-05, 9.153193E-05, -0.01499237 , -0.0148418136, 0.000242130685, 923.612     , 31.48226    , 774.862     , 1.26        , 3           , 255         , 0           , 0
-0.1525366  , 0.158038542 , -9.78885651 , -0.000922988867, 4.04828461E-06, 0.0006820887, -0.0150017021, -0.014841673, 0.000248950761, 923.612     , 31.48226    , 774.862061  , 1.27        , 3           , 255         , 0           , 0
-0.148090631, 0.149359971 , -9.796486   , -0.000456247944, -0.0002481317, -0.000103902363, -0.0150062479, -0.014844167, 0.000247948978, 923.612     , 31.48226    , 774.8621    , 1.28        , 3           , 255         , 0           , 0
-0.144943044, 0.1432445   , -9.795019   , 8.06498E-05 , -0.0007771504, -0.000133604786, -0.0150054237, -0.0148519557, 0.000246729585, 923.612     , 31.48226    , 774.8622    , 1.29        , 3           , 255         , 0           , 0
-0.140868589, 0.134270653 , -9.795067   , 0.000185135286, -5.93470177E-05, -0.0002309478, -0.0150035387, -0.0148525843, 0.0002444291, 923.612     , 31.48226    , 774.862244  , 1.3         , 3           , 255         , 0           , 0
-0.140835911, 0.135038942 , -9.789232   , -0.000268311764, -0.000231254875, 0.0001500506, -0.0150101585, -0.0148572661, 0.0002460224, 923.612     , 31.48226    , 774.828064  , 1.31        , 3           , 255         , 0           , 0
-0.1432668  , 0.144432321 , -9.793461   , 0.0001246566, -0.000137759343, 0.0006925346, -0.0150090158, -0.0148585392, 0.000252968224, 923.612     , 31.48226    , 774.828     , 1.32        , 3           , 255         , 0           , 0
-0.148874611, 0.141762644 , -9.799138   , 0.000355174649, 8.00085545E-05, 0.0006391635, -0.01500556 , -0.0148576433, 0.000259347726, 923.616     , 31.482666   , 774.827942  , 1.33        , 3           , 255         , 0           , 0
-0.138019472, 0.154986113 , -9.789383   , 0.000254572835, -0.000111568486, 5.41175432E-05, -0.0150030209, -0.0148587516, 0.000259905617, 923.616     , 31.482666   , 774.8279    , 1.34        , 3           , 255         , 0           , 0
-0.140512317, 0.153517738 , -9.790476   , -0.0004017164, -7.838887E-05, 0.0003716717, -0.0150070935, -0.01485948 , 0.000263633963, 923.616     , 31.482666   , 774.8278    , 1.35        , 3           , 255         , 0           , 0
-0.144569248, 0.149411842 , -9.793131   , -0.000238490349, 0.000109318731, 0.0006398406, -0.0150095746, -0.0148582906, 0.0002700158, 923.616     , 31.482666   , 774.827759  , 1.36        , 3           , 255         , 0           , 0
-0.13800247 , 0.1498221   , -9.790918   , -0.000216503046, 5.88409021E-05, 0.000499234768, -0.0150118126, -0.0148576256, 0.000274999184, 923.616     , 31.482666   , 774.8277    , 1.37        , 3           , 255         , 0           , 0
-0.139828533, 0.145643637 , -9.79344749 , -5.102984E-05, 0.000292057433, -0.000668433, -0.0150122233, -0.0148548055, 0.0002682712, 923.616     , 31.482666   , 774.827637  , 1.38        , 3           , 255         , 0           , 0
-0.154578879, 0.141274974 , -9.7908     , -0.000377598859, -0.000288737676, 0.000110305511, -0.0150160156, -0.0148576759, 0.000269417535, 923.616     , 31.482666   , 774.8276    , 1.39        , 3           , 255         , 0           , 0
-0.144318953, 0.144998446 , -9.797916   , -0.000375077885, 9.407295E-05, 0.000259344757, -0.0150198052, -0.0148566961, 0.0002719968, 923.616     , 31.482666   , 774.8275    , 1.4         , 3           , 255         , 0           , 0
-0.147828966, 0.1532263   , -9.787707   , -0.0008266565, -3.332214E-05, 0.000219921669, -0.0150258243, -0.0148510551, 0.0002741671, 923.616     , 31.482666   , 774.7926    , 1.41        , 3           , 255         , 0           , 0
-0.152846217, 0.148928329 , -9.787853   , -4.17449628E-05, -0.000104382751, 0.000373597 , -0.0150262974, -0.0148520432, 0.000277918647, 923.616     , 31.482666   , 774.7924    , 1.42        , 3           , 255         , 0           , 0
-0.144757271, 0.146645    , -9.794475   , 0.00012623088, 0.00016174429, 0.000210827333, -0.0150250671, -0.0148503976, 0.000280002569, 923.581238  , 31.4812412  , 774.792236  , 1.43        , 3           , 255         , 0           , 0
-0.1505576  , 0.148238376 , -9.794568   , -0.000188258768, 0.000103936705, 6.238808E-05, -0.0150269577, -0.0148493471, 0.00028061078, 923.581238  , 31.4812412  , 774.792053  , 1.44        , 3           , 255         , 0           , 0
-0.148888737, 0.138361126 , -9.790394   , 0.000115724019, -1.117232E-05, -3.46601337E-05, -0.0150257964, -0.0148494635, 0.000280265871, 923.581238  , 31.4812412  , 774.7919    , 1.45        , 3           , 255         , 0           , 0
-0.137733072, 0.133017659 , -9.790116   , 0.000137563329, -3.39159451E-05, 5.703663E-06, -0.01502442 , -0.0148498025, 0.000280328037, 923.581238  , 31.4812412  , 774.7917    , 1.46        , 3           , 255         , 0           , 0
-0.1352618  , 0.141416565 , -9.796572   , -0.000110586465, -0.000290302734, 0.000512897037, -0.0150256036, -0.0148526272, 0.000285500457, 923.581238  , 31.4812412  , 774.7915    , 1.47        , 3           , 255         , 0           , 0
-0.140801787, 0.13946119  , -9.797231   , 9.177896E-05, -0.000109716435, 0.000230561433, -0.0150247179, -0.01485369 , 0.0002878225, 923.581238  , 31.4812412  , 774.7913    , 1.48        , 3           , 255         , 0           , 0
-0.1460205  , 0.14294824  , -9.787288   , 0.000268478732, -0.000134774891, -0.000260964182, -0.0150219966, -0.0148550775, 0.0002852332, 923.581238  , 31.4812412  , 774.791138  , 1.49        , 3           , 255         , 0           , 0
-0.138719559, 0.155144736 , -9.79436    , 2.36224732E-05, 1.77448383E-05, -0.000227781056, -0.0150217265, -0.0148549341, 0.000282952766, 923.581238  , 31.4812412  , 774.790955  , 1.5         , 3           , 255         , 0           , 0
-0.1475517  , 0.153002352 , -9.795904   , -8.517172E-05, 0.000194291089, -0.000260900822, -0.0150160361, -0.0148500847, 0.0002802181, 923.581238  , 31.4812412  , 774.7959    , 1.51        , 3           , 255         , 0           , 0
-0.152069837, 0.145179465 , -9.790241   , 0.0004822334, -0.000152718276, -0.000262970629, -0.0150111755, -0.0148516512, 0.0002776114, 923.581238  , 31.4812412  , 774.7958    , 1.52        , 3           , 255         , 0           , 0
-0.149918213, 0.14059858  , -9.78537    , -1.99741335E-05, -0.000209119346, -0.000103766564, -0.01501136 , -0.0148537587, 0.000276605162, 923.5566    , 31.4842262  , 774.795654  , 1.53        , 3           , 255         , 0           , 0
-0.147383437, 0.143828064 , -9.7820425  , 9.161062E-05, -0.000220158079, -0.000567101, -0.0150103606, -0.0148560451, 0.000270967343, 923.5566    , 31.4842262  , 774.795532  , 1.54        , 3           , 255         , 0           , 0
-0.144601434, 0.158769518 , -9.797014   , -0.000152479217, -0.00015646487, -1.28124666E-05, -0.0150118833, -0.0148576116, 0.0002708627, 923.5566    , 31.4842262  , 774.7954    , 1.55        , 3           , 255         , 0           , 0
-0.142295331, 0.149368852 , -9.798154   , 0.000370627269, -0.000623864064, 0.0005589513, -0.0150082624, -0.0148637667, 0.000276545732, 923.5566    , 31.4842262  , 774.7953    , 1.56        , 3           , 255         , 0           , 0
-0.147356331, 0.135435775 , -9.795103   , 0.000515882566, -0.000161372533, -0.000193329164, -0.0150030749, -0.0148654077, 0.000274636724, 923.5566    , 31.4842262  , 774.795166  , 1.57        , 3           , 255         , 0           , 0
-0.139993191, 0.138673529 , -9.793592   , 3.22136329E-05, -0.000221956754, 0.000333016971, -0.0150028029, -0.0148675768, 0.00027800008, 923.5566    , 31.4842262  , 774.795044  , 1.58        , 3           , 255         , 0           , 0
-0.141369149, 0.146683425 , -9.784858   , -0.000203663309, 0.000152143519, 0.000246904237, -0.015004877, -0.01486602 , 0.000280446227, 923.5566    , 31.4842262  , 774.7949    , 1.59        , 3           , 255         , 0           , 0
-0.150246963, 0.141559437 , -9.782839   , 3.1063566E-05, 5.69152471E-05, 0.000635403267, -0.0150046609, -0.0148653546, 0.0002867916, 923.5566    , 31.4842262  , 774.7948    , 1.6         , 3           , 255         , 0           , 0
-0.145795971, 0.143687829 , -9.794087   , -0.000159324962, 7.20020034E-06, 0.000331651623, -0.0150013939, -0.0148675693, 0.000290033931, 923.5566    , 31.4842262  , 774.8259    , 1.61        , 3           , 255         , 0           , 0
-0.1420561  , 0.142461762 , -9.792799   , 0.000471534 , -6.675348E-05, 0.000167518418, -0.0149967028, -0.014868211, 0.000291719072, 923.5566    , 31.4842262  , 774.8259    , 1.62        , 3           , 255         , 0           , 0
-0.1385585  , 0.139377981 , -9.792089   , -7.380062E-05, -0.0004417051, -0.000312947, -0.0149973948, -0.0148726758, 0.000288655923, 923.5959    , 31.4867363  , 774.8259    , 1.63        , 3           , 255         , 0           , 0
-0.142486066, 0.148502156 , -9.792748   , -0.000449700572, 8.817617E-06, -2.28955323E-05, -0.0150018865, -0.014872591, 0.000288425625, 923.5959    , 31.4867363  , 774.8259    , 1.64        , 3           , 255         , 0           , 0
-0.143230915, 0.144770518 , -9.786399   , -0.0005713953, -0.000196770416, -0.0001242309, -0.0150075816, -0.0148745785, 0.0002872129, 923.5959    , 31.4867363  , 774.8259    , 1.65        , 3           , 255         , 0           , 0
-0.148619771, 0.150431186 , -9.784758   , -0.000456188282, -0.000115849456, -6.04645538E-05, -0.0150121348, -0.0148757435, 0.00028662564, 923.5959    , 31.4867363  , 774.8259    , 1.66        , 3           , 255         , 0           , 0
-0.148479491, 0.154714674 , -9.7799     , -0.0001541783, -0.000193867891, 0.000468515878, -0.0150137469, -0.0148776118, 0.0002913398, 923.5959    , 31.4867363  , 774.8259    , 1.67        , 3           , 255         , 0           , 0
-0.143996388, 0.150590986 , -9.779232   , -6.08260161E-05, -2.17433262E-05, 0.0005001707, -0.0150144286, -0.0148777543, 0.0002963446, 923.5959    , 31.4867363  , 774.826     , 1.68        , 3           , 255         , 0           , 0
-0.147727057, 0.142200425 , -9.785985   , 4.74713743E-05, 4.66184574E-05, -8.665733E-05, -0.0150139416, -0.0148773007, 0.000295471051, 923.5959    , 31.4867363  , 774.82605   , 1.69        , 3           , 255         , 0           , 0
-0.140567914, 0.147497445 , -9.791455   , 0.000260725763, -0.00023021386, 0.000130729546, -0.0150113543, -0.0148795834, 0.000296812883, 923.5959    , 31.4867363  , 774.8261    , 1.7         , 3           , 255         , 0           , 0
-0.141266376, 0.140819639 , -9.789423   , -0.000400187215, -5.56509767E-05, 0.0007400247, -0.0150138205, -0.01487479 , 0.000304196757, 923.5959    , 31.4867363  , 774.8116    , 1.71        , 3           , 255         , 0           , 0
-0.14426747 , 0.151730925 , -9.790953   , -0.00026761106, -0.000126716041, 0.0004394143, -0.01501656 , -0.01487599 , 0.00030860983, 923.5959    , 31.4867363  , 774.8115    , 1.72        , 3           , 255         , 0           , 0
-0.142685741, 0.149129555 , -9.790684   , 0.000445876824, -7.25819555E-05, -0.0007003043, -0.0150119979, -0.0148768211, 0.0003016179, 923.555237  , 31.48226    , 774.811462  , 1.73        , 3           , 255         , 0           , 0
-0.136402458, 0.14345178  , -9.783911   , 5.76921157E-05, -6.47036359E-05, 0.000217751251, -0.015011454, -0.0148774358, 0.000303805049, 923.555237  , 31.48226    , 774.8114    , 1.74        , 3           , 255         , 0           , 0
-0.13525106 , 0.142317742 , -9.792055   , -0.000593791134, 0.000105444342, 0.00013896267, -0.0150174126, -0.0148763619, 0.0003051788, 923.555237  , 31.48226    , 774.81134   , 1.75        , 3           , 255         , 0           , 0
-0.136092871, 0.145257324 , -9.793718   , 8.419738E-07, 0.000265045557, 9.56852455E-05, -0.0150174191, -0.0148736974, 0.000306095782, 923.555237  , 31.48226    , 774.8113    , 1.76        , 3           , 255         , 0           , 0
-0.13334991 , 0.150227755 , -9.796112   , 0.0001159801, -0.000187211728, -0.000448226929, -0.0150161907, -0.0148756364, 0.0003016418, 923.555237  , 31.48226    , 774.8112    , 1.77        , 3           , 255         , 0           , 0
-0.139371917, 0.154476792 , -9.795197   , -0.000201236049, 2.4863315E-05, -0.000456494163, -0.0150181372, -0.0148754567, 0.000297073217, 923.555237  , 31.48226    , 774.811157  , 1.78        , 3           , 255         , 0           , 0
-0.1438988  , 0.145769536 , -9.793234   , 0.000130825647, -0.000130932953, -0.000370315276, -0.0150167719, -0.014876822, 0.000293389836, 923.555237  , 31.48226    , 774.8111    , 1.79        , 3           , 255         , 0           , 0
-0.144017279, 0.143009514 , -9.789003   , -0.0004463609, -0.000361665676, 0.000293028163, -0.0150212795, -0.0148803927, 0.000296374346, 923.555237  , 31.48226    , 774.8111    , 1.8         , 3           , 255         , 0           , 0
-0.1392434  , 0.151340723 , -9.788849   , -0.000251497724, 0.00019237306, 0.0001404114, -0.0150227491, -0.0148628131, 0.0002977337, 923.555237  , 31.48226    , 774.843933  , 1.81        , 3           , 255         , 0           , 0
-0.144184962, 0.150683463 , -9.787834   , -0.00015706307, -5.953791E-05, -0.000187822443, -0.0150242914, -0.014863437, 0.000295864476, 923.555237  , 31.48226    , 774.8441    , 1.82        , 3           , 255         , 0           , 0
-0.145055577, 0.152718753 , -9.801317   , -3.61999846E-05, 0.000285226677, 0.000313582481, -0.0150246993, -0.014860536, 0.00029895737, 923.6148    , 31.4867363  , 774.8443    , 1.83        , 3           , 255         , 0           , 0
-0.144858763, 0.151929155 , -9.797028   , 0.0002915494, 0.0004347365, -0.000553336, -0.0150217023, -0.0148562724, 0.00029335884, 923.6148    , 31.4867363  , 774.8445    , 1.84        , 3           , 255         , 0           , 0
-0.144591212, 0.144586369 , -9.787808   , -0.0004661508, 0.0005858194, -0.00037611922, -0.0150263077, -0.0148504712, 0.0002895097, 923.6148    , 31.4867363  , 774.844666  , 1.85        , 3           , 255         , 0           , 0
-0.149550125, 0.143553823 , -9.793875   , -5.13196574E-05, -0.0001351588, 0.0005182247, -0.0150268963, -0.0148517443, 0.000294712139, 923.6148    , 31.4867363  , 774.844849  , 1.86        , 3           , 255         , 0           , 0
-0.146893337, 0.151305437 , -9.793048   , 0.000179183378, 0.000450104417, 0.0005359999, -0.0150251845, -0.0148471668, 0.000300004351, 923.6148    , 31.4867363  , 774.845032  , 1.87        , 3           , 255         , 0           , 0
-0.145846039, 0.153342187 , -9.797635   , 0.0006537425, 3.06619331E-05, -0.000211482562, -0.0150186149, -0.0148468912, 0.000297884981, 923.6148    , 31.4867363  , 774.8452    , 1.88        , 3           , 255         , 0           , 0
-0.148304433, 0.143015862 , -9.793841   , 0.0005284783, 0.000183214754, 0.000212158251, -0.0150133623, -0.0148450276, 0.00029997903, 923.6148    , 31.4867363  , 774.8454    , 1.89        , 3           , 255         , 0           , 0
-0.152929932, 0.1479541   , -9.784288   , 0.000269360142, 0.000158654468, 0.0008431062, -0.0150107928, -0.0148433149, 0.000308386021, 923.6148    , 31.4867363  , 774.8456    , 1.9         , 3           , 255         , 0           , 0
-0.155334279, 0.149388209 , -9.786676   , -0.000281595683, 0.0003941335, -0.000341338047, -0.0150179639, -0.014840981, 0.000304978952, 923.6148    , 31.4867363  , 774.805664  , 1.91        , 3           , 255         , 0           , 0
-0.140335187, 0.154234082 , -9.786369   , -1.68671249E-05, -4.75623528E-06, 5.31164551E-06, -0.0150181334, -0.0148410285, 0.000305032765, 923.6148    , 31.4867363  , 774.8056    , 1.92        , 3           , 255         , 0           , 0
-0.1491358  , 0.144757271 , -9.791475   , 0.0004191521, -0.000453908549, 0.000273849175, -0.0150139835, -0.0148455258, 0.000307839364, 923.599     , 31.4857883  , 774.805542  , 1.93        , 3           , 255         , 0           , 0
-0.145801142, 0.1427658   , -9.788813   , 0.000233388389, -0.000270182936, -0.00047418708, -0.01501158 , -0.0148482984, 0.0003031382, 923.599     , 31.4857883  , 774.8055    , 1.94        , 3           , 255         , 0           , 0
-0.138046056, 0.14808102  , -9.793819   , -0.000514485058, -0.000231836952, -0.000616802834, -0.015016634, -0.01485071 , 0.000297005143, 923.599     , 31.4857883  , 774.8054    , 1.95        , 3           , 255         , 0           , 0
-0.141520754, 0.152071565 , -9.792631   , -7.70168845E-05, -0.0007729989, -2.3921697E-05, -0.0150174024, -0.0148584405, 0.000296881975, 923.599     , 31.4857883  , 774.805359  , 1.96        , 3           , 255         , 0           , 0
-0.146066308, 0.14347589  , -9.790688   , -0.000157589559, -0.0002408872, 0.000271138968, -0.0150190173, -0.0148608079, 0.000299629464, 923.599     , 31.4857883  , 774.8053    , 1.97        , 3           , 255         , 0           , 0
-0.146632984, 0.140345633 , -9.787367   , 0.0003878967, 4.54436231E-05, 9.098723E-05, -0.0150151523, -0.01486034 , 0.000300532527, 923.599     , 31.4857883  , 774.805237  , 1.98        , 3           , 255         , 0           , 0
-0.147385851, 0.143158644 , -9.790667   , -4.51596E-05, 0.000161079952, 0.000231511716, -0.0150156375, -0.0148586957, 0.000302823348, 923.599     , 31.4857883  , 774.8052    , 1.99        , 3           , 255         , 0           , 0
-0.146249622, 0.1482673   , -9.788817   , -0.000452652341, 1.79109047E-05, -0.000259463355, -0.0150201246, -0.014858555, 0.0003002261, 923.599     , 31.4857883  , 774.8051    , 2           , 3           , 0           , 7.44223642  , 200
-0.148272872, 0.157274574 , -9.786119   , 0.0002614471, -0.000116013805, -0.0002591845, -0.0150165018, -0.0148604512, 0.000297637336, 923.599     , 31.4857883  , 774.787964  , 2.01        , 3           , 1           , 0           , 0
-0.140436   , 0.153664753 , -9.789659   , 0.0005775804, -0.0004403712, 0.000230351521, -0.015010762, -0.01486482 , 0.0003000069, 923.599     , 31.4857883  , 774.787842  , 2.02        , 3           , 2           , 0           , 0
-0.144168019, 0.153302163 , -9.795577   , 3.145542E-07, -5.87806862E-05, 0.00028809064, -0.0150108021, -0.0148653649, 0.000302896544, 923.5421    , 31.4861259  , 774.7877    , 2.03        , 3           , 3           , 0           , 0
-0.141951784, 0.151684    , -9.794119   , 0.0002981513, -0.000390560628, 3.62823266E-05, -0.0150078265, -0.0148692643, 0.000303318026, 923.5421    , 31.4861259  , 774.7876    , 2.04        , 3           , 4           , 0           , 0
-0.14442791 , 0.152911425 , -9.795504   , -9.619538E-05, 3.434802E-05, -1.03812126E-05, -0.0150087876, -0.0148689216, 0.000303209061, 923.5421    , 31.4861259  , 774.7875    , 2.05        , 3           , 5           , 0           , 0
-0.1450391  , 0.145290941 , -9.795926   , -0.0006156552, -8.53861E-05, 4.63134566E-05, -0.01501495 , -0.0148697672, 0.000303684967, 923.5421    , 31.4861259  , 774.787354  , 2.06        , 3           , 6           , 0           , 0
-0.139791325, 0.148173183 , -9.785471   , 0.000504243129, -9.310435E-05, 9.367771E-05, -0.0150099238, -0.0148706837, 0.0003046357, 923.5421    , 31.4861259  , 774.787231  , 2.07        , 3           , 7           , 0           , 0
-0.145663887, 0.150972411 , -9.784504   , -0.000623131869, 0.00028977092, -0.000280728185, -0.0150161106, -0.0148678282, 0.000301784981, 923.5421    , 31.4861259  , 774.7871    , 2.08        , 3           , 8           , 5           , 5
-0.148935109, 0.148272425 , -9.792398   , -5.49966353E-05, -1.26595551E-05, 0.000251881283, -0.0150166973, -0.0148679176, 0.0003043056, 923.5421    , 31.4861259  , 774.787     , 2.09        , 3           , 9           , 5           , 0.1
-0.14693439 , 0.153912574 , -9.786632   , -0.000268206815, 0.000183467317, 0.0005034895, -0.0150194541, -0.0148660075, 0.000309312774, 923.5421    , 31.4861259  , 774.786865  , 2.1         , 3           , 10          , 0.1         , 0.1
-0.146082923, 0.1478406   , -9.789136   , -8.79002037E-05, 0.000132147892, 5.351678E-05, -0.0150320092, -0.0148620289, 0.000310001546, 923.5421    , 31.4861259  , 774.8416    , 2.11        , 3           , 11          , 0.00807227753, 0.008072275
-0.146963   , 0.146061629 , -9.792055   , 0.00093797606, -0.000128802727, -0.00021484874, -0.0150225982, -0.0148633523, 0.000307872484, 923.5421    , 31.4861259  , 774.8418    , 2.12        , 3           , 12          , 0.174643889 , 0
-0.145611927, 0.147071257 , -9.794249   , 8.72844248E-05, 8.0019614E-05, -0.000111268455, -0.01502171 , -0.014862569, 0.0003067478, 923.548645  , 31.4865341  , 774.842     , 2.13        , 3           , 13          , 0           , 0
-0.145777315, 0.156357139 , -9.799395   , -0.000234116451, 0.000257525564, -0.000156450609, -0.0150240259, -0.0148600172, 0.000305144669, 923.548645  , 31.4865341  , 774.842163  , 2.14        , 3           , 14          , -0.0005428542, -0.000363289437
-0.150522679, 0.145750552 , -9.795911   , -5.97685575E-05, 0.000104612292, -0.000441946177, -0.0150245577, -0.0148590365, 0.0003007096, 923.548645  , 31.4865341  , 774.842346  , 2.15        , 3           , 15          , 0           , -3.934708E-05
-0.133481115, 0.150658518 , -9.788958   , -0.000116824, -0.000280462846, 0.000843186164, -0.0150258532, -0.0148617122, 0.00030918335, 923.548645  , 31.4865341  , 774.8426    , 2.16        , 3           , 16          , 0           , 1.401298E-45
-0.149589092, 0.139509916 , -9.780245   , 0.000241136964, -0.0005313123, 0.0007002954, -0.0150235454, -0.0148669193, 0.000316265941, 923.548645  , 31.4865341  , 774.842834  , 2.17        , 3           , 20          , 0           , 0
-0.1443825  , 0.143205374 , -9.793851   , -0.000239917776, -0.00020120811, 0.000243738672, -0.0150259826, -0.0148688946, 0.000318733481, 923.548645  , 31.4865341  , 774.8431    , 2.18        , 3           , 21          , 0           , 0
-0.145758122, 0.1449136   , -9.793602   , 0.000321890227, -0.000157196017, -3.50014852E-05, -0.0150227575, -0.0148704723, 0.000318407081, 923.548645  , 31.4865341  , 774.8433    , 2.19        , 3           , 22          , 0           , 0
-0.146520764, 0.142834932 , -9.786655   , -8.789473E-06, 0.000164377125, 0.000933013333, -0.0150229828, -0.0148686888, 0.000327712274, 923.548645  , 31.4865341  , 774.843567  , 2.2         , 3           , 40          , 0           , 0
-0.1437966  , 0.134151414 , -9.783967   , -0.000150056148, 4.87876823E-05, 0.000770868966, -0.0150229577, -0.0148679614, 0.000335389021, 923.548645  , 31.4865341  , 774.8844    , 2.21        , 3           , 41          , 0           , 0
-0.142533138, 0.14626497  , -9.789612   , -1.60743366E-05, -1.04801729E-05, 9.665896E-05, -0.0150231337, -0.0148680517, 0.0003363572, 923.548645  , 31.4865341  , 774.8849    , 2.22        , 3           , 42          , 0           , 0
-0.1473169  , 0.140378863 , -9.785804   , -0.000142103, 0.0003312762, 0.0002551768, -0.0150245912, -0.0148647018, 0.00033885907, 923.5409    , 31.483345   , 774.8854    , 2.23        , 3           , 255         , 0           , 0
-0.143493056, 0.140163928 , -9.787969   , 0.000363666215, -0.000222630217, 0.000451527332, -0.0150210224, -0.0148668606, 0.0003434077, 923.5409    , 31.483345   , 774.885864  , 2.24        , 3           , 255         , 0           , 0
-0.144279838, 0.139515549 , -9.798077   , -0.0003660983, -0.000227065175, -0.000205876917, -0.0150246536, -0.014869161, 0.0003413831, 923.5409    , 31.483345   , 774.886353  , 2.25        , 3           , 255         , 0           , 0
-0.152242437, 0.136841223 , -9.793844   , 6.343471E-06, -0.000338393555, 0.0003036751, -0.0150246359, -0.0148725  , 0.00034447058, 923.5409    , 31.483345   , 774.886841  , 2.26        , 3           , 255         , 0           , 0
-0.147393584, 0.150244474 , -9.792565   , -4.98151639E-05, 0.000184218734, 2.95065638E-05, -0.0150251379, -0.0148706529, 0.000344737957, 923.5409    , 31.483345   , 774.8873    , 2.27        , 3           , 255         , 0           , 0
-0.14297168 , 0.150382921 , -9.7858305  , -0.0001613003, -3.79338744E-05, -0.0002188365, -0.01502672 , -0.0148710655, 0.000342555344, 923.5409    , 31.483345   , 774.8878    , 2.28        , 3           , 255         , 0           , 0
-0.1463565  , 0.150155813 , -9.794128   , -0.00044242054, -9.57073644E-05, 0.0005292279, -0.0150312223, -0.0148719419, 0.000347861875, 923.5409    , 31.483345   , 774.8883    , 2.29        , 3           , 255         , 0           , 0
-0.141083822, 0.143700048 , -9.797797   , -0.0003683468, -0.000184545526, 0.000545472838, -0.0150349885, -0.0148737049, 0.000353344134, 923.5409    , 31.483345   , 774.8888    , 2.3         , 3           , 255         , 0           , 0
-0.146095723, 0.153351456 , -9.793361   , -0.0008466494, 5.50824334E-05, 0.000686730258, -0.015034222, -0.0148719717, 0.000360064179, 923.5409    , 31.483345   , 774.9346    , 2.31        , 3           , 255         , 0           , 0
-0.150293544, 0.143547863 , -9.808887   , -0.000191696454, -0.000227198121, 1.82119329E-05, -0.0150361415, -0.0148742385, 0.000360280421, 923.5409    , 31.483345   , 774.935364  , 2.32        , 3           , 255         , 0           , 0
-0.142058864, 0.148080617 , -9.777885   , -0.000291150063, -0.00019666343, 0.000171770531, -0.015039078, -0.0148761794, 0.000362027669, 923.6022    , 31.4882984  , 774.936157  , 2.33        , 3           , 255         , 0           , 0
-0.132727921, 0.145538658 , -9.79344749 , 0.000114125258, 0.000106273394, -0.000187990256, -0.0150379092, -0.0148751447, 0.000360131846, 923.6022    , 31.4882984  , 774.936951  , 2.34        , 3           , 255         , 0           , 0
-0.1447334  , 0.141307861 , -9.793261   , 4.42191376E-05, -1.95930479E-05, 0.00024181162, -0.0150375022, -0.0148753049, 0.000362552819, 923.6022    , 31.4882984  , 774.937744  , 2.35        , 3           , 255         , 0           , 0
-0.147475913, 0.143732086 , -9.789401   , -0.0003843787, -0.000418215059, -0.0005233984, -0.0150412694, -0.0148795638, 0.000357381854, 923.6022    , 31.4882984  , 774.938538  , 2.36        , 3           , 255         , 0           , 0
-0.1452619  , 0.145534664 , -9.788251   , 1.07791275E-05, -7.171824E-05, -0.000225494587, -0.0150411269, -0.0148803145, 0.000355137774, 923.6022    , 31.4882984  , 774.939331  , 2.37        , 3           , 255         , 0           , 0
-0.1423442  , 0.154958189 , -9.786864   , -0.000190068735, -0.000148265157, -1.86198522E-05, -0.0150430268, -0.0148818  , 0.000354973861, 923.6022    , 31.4882984  , 774.9401    , 2.38        , 3           , 255         , 0           , 0
-0.147309244, 0.1439769   , -9.782081   , -0.0004887128, -0.000189370534, 6.7173045E-05, -0.0150479218, -0.0148836812, 0.0003556741, 923.6022    , 31.4882984  , 774.9409    , 2.39        , 3           , 255         , 0           , 0
-0.132438734, 0.147257969 , -9.788948   , 0.000326140871, -0.000226158649, 0.000460349343, -0.0150447311, -0.0148858735, 0.000360311475, 923.6022    , 31.4882984  , 774.9417    , 2.4         , 3           , 255         , 0           , 0
-0.139817879, 0.145114228 , -9.789232   , 0.000236073945, 0.000247950142, 0.000233613144, -0.0150411641, -0.0148770055, 0.0003625918, 923.6022    , 31.4882984  , 774.9007    , 2.41        , 3           , 255         , 0           , 0
-0.140707284, 0.152299076 , -9.79438    , -0.000303385663, -2.46136915E-05, -0.000692413, -0.015044095, -0.0148773557, 0.000355671538, 923.6022    , 31.4882984  , 774.901245  , 2.42        , 3           , 255         , 0           , 0
-0.1473886  , 0.150091544 , -9.790578   , -0.00018390466, 0.00023025657, 0.0004097393, -0.0150459949, -0.014874992, 0.0003597342, 923.5961    , 31.48728    , 774.9018    , 2.43        , 3           , 255         , 0           , 0
-0.134346083, 0.1492913   , -9.793213   , 8.61269655E-05, 0.0008513493, 0.000509481935, -0.015045207, -0.0148664005, 0.0003647008, 923.5961    , 31.48728    , 774.902344  , 2.44        , 3           , 255         , 0           , 0
-0.146914929, 0.153633147 , -9.786334   , -0.000390682428, 0.000196364635, 0.0001341268, -0.0150491334, -0.0148644187, 0.000366012449, 923.5961    , 31.48728    , 774.9029    , 2.45        , 3           , 255         , 0           , 0
-0.155712143, 0.153685242 , -9.788412   , 0.000178228249, 6.159209E-05, -0.00086211157, -0.0150472224, -0.0148639325, 0.00035738232, 923.5961    , 31.48728    , 774.903442  , 2.46        , 3           , 255         , 0           , 0
-0.142369032, 0.1504433   , -9.805231   , 0.000505507167, 0.000632003765, -0.000189177939, -0.01504214 , -0.0148576442, 0.000355395518, 923.5961    , 31.48728    , 774.904     , 2.47        , 3           , 255         , 0           , 0
-0.143182382, 0.141376555 , -9.789919   , 0.000244283176, -0.000329944, -0.000126404586, -0.0150396777, -0.0148609607, 0.0003541812, 923.5961    , 31.48728    , 774.904541  , 2.48        , 3           , 255         , 0           , 0
-0.148154959, 0.1369209   , -9.794579   , -0.000126965984, -0.0003332466, 0.000283915782, -0.0150409918, -0.014864251, 0.000357070385, 923.5961    , 31.48728    , 774.9051    , 2.49        , 3           , 255         , 0           , 0
-0.132057428, 0.14457193  , -9.79308    , -0.000322869862, -7.994531E-05, -4.41855045E-05, -0.0150442142, -0.0148650557, 0.000356640521, 923.5961    , 31.48728    , 774.90564   , 2.5         , 3           , 255         , 0           , 0
-0.136189371, 0.148681685 , -9.787042   , -0.0004895411, 0.000109021814, 0.000501333037, -0.0150499521, -0.01485876 , 0.0003616487, 923.5961    , 31.48728    , 774.876953  , 2.51        , 3           , 255         , 0           , 0
-0.134181917, 0.13950479  , -9.788645   , -0.000164969533, -0.000244195719, 0.0008374121, -0.0150517263, -0.0148610752, 0.0003700593, 923.5961    , 31.48728    , 774.8773    , 2.52        , 3           , 255         , 0           , 0
-0.151246652, 0.142776191 , -9.796045   , -0.000450023916, -0.0005258176, -3.0342424E-05, -0.0150562227, -0.0148663362, 0.0003698351, 923.572754  , 31.48667    , 774.8777    , 2.53        , 3           , 255         , 0           , 0
-0.155688629, 0.140841872 , -9.788643   , -0.000220773916, -1.87631231E-05, -0.00076277 , -0.0150583172, -0.014866638, 0.0003622104, 923.572754  , 31.48667    , 774.878052  , 2.54        , 3           , 255         , 0           , 0
-0.138098076, 0.143878549 , -9.793029   , -0.0005330213, 0.000463540258, -0.000372042035, -0.01506359 , -0.01486206 , 0.00035842025, 923.572754  , 31.48667    , 774.8784    , 2.55        , 3           , 255         , 0           , 0
-0.134958774, 0.152690366 , -9.792331   , -0.0005550899, -2.69955781E-05, 0.000325034984, -0.0150691895, -0.01486228 , 0.000361674553, 923.572754  , 31.48667    , 774.8788    , 2.56        , 3           , 255         , 0           , 0
-0.151466191, 0.148028672 , -9.801237   , -0.000379083562, 6.08328555E-05, -0.000185139768, -0.0150729511, -0.0148617  , 0.000359814032, 923.572754  , 31.48667    , 774.87915   , 2.57        , 3           , 255         , 0           , 0
-0.142917991, 0.1412963   , -9.795772   , -0.000272011617, 0.0006526386, -0.0004483074, -0.0150756044, -0.0148552423, 0.0003552327, 923.572754  , 31.48667    , 774.8795    , 2.58        , 3           , 255         , 0           , 0
-0.135649621, 0.153509945 , -9.793443   , 0.000126571249, 0.000142389326, 9.896483E-05, -0.0150743527, -0.0148538025, 0.000356200879, 923.572754  , 31.48667    , 774.8799    , 2.59        , 3           , 255         , 0           , 0
-0.150669128, 0.149315953 , -9.79438    , 0.0001873096, -6.664393E-05, -7.635866E-05, -0.0150724677, -0.0148544814, 0.0003554474, 923.572754  , 31.48667    , 774.880249  , 2.6         , 3           , 255         , 0           , 0
-0.141441911, 0.15082033  , -9.798561   , 0.000256076368, -0.0005436919, 0.00101590308, -0.0150672654, -0.0148550021, 0.000365646527, 923.572754  , 31.48667    , 774.886169  , 2.61        , 3           , 255         , 0           , 0
-0.144776553, 0.149172544 , -9.794321   , -9.05394554E-05, -0.000254196842, -0.000162867858, -0.0150681455, -0.014857566, 0.000364056148, 923.572754  , 31.48667    , 774.8866    , 2.62        , 3           , 255         , 0           , 0
-0.150304526, 0.143641964 , -9.783206   , -0.000328830443, -0.0004325294, 7.73465654E-05, -0.0150714451, -0.0148618771, 0.000364894775, 923.5734    , 31.48701    , 774.887     , 2.63        , 3           , 255         , 0           , 0
-0.1550141  , 0.140670627 , -9.78648949 , -1.36883464E-05, -0.000396368181, -0.000221038121, -0.0150715495, -0.0148658752, 0.000362744177, 923.5734    , 31.48701    , 774.887451  , 2.64        , 3           , 255         , 0           , 0
-0.1461144  , 0.140549511 , -9.795617   , 7.544499E-05, 0.0004094917, 0.000368603884, -0.01507085 , -0.0148617243, 0.000366368418, 923.5734    , 31.48701    , 774.8879    , 2.65        , 3           , 255         , 0           , 0
-0.144122317, 0.142186284 , -9.786514   , -1.14296563E-05, 0.00015105179, 9.20967E-05 , -0.0150709776, -0.0148602007, 0.0003672666, 923.5734    , 31.48701    , 774.8883    , 2.66        , 3           , 255         , 0           , 0
-0.152725488, 0.145645171 , -9.799752   , -0.0003177242, 0.000324697437, 0.000216130808, -0.0150741851, -0.0148569206, 0.00036937886, 923.5734    , 31.48701    , 774.888733  , 2.67        , 3           , 255         , 0           , 0
-0.137781233, 0.148727626 , -9.791849   , -0.000402163423, 2.47848511E-05, 0.0004338274, -0.0150782717, -0.0148566086, 0.000373713265, 923.5734    , 31.48701    , 774.88916   , 2.68        , 3           , 255         , 0           , 0
-0.1411349  , 0.148603842 , -9.787531   , -5.71021228E-05, 0.0005319839, -0.000713326444, -0.0150787355, -0.014851396, 0.0003665   , 923.5734    , 31.48701    , 774.8896    , 2.69        , 3           , 255         , 0           , 0
-0.140043586, 0.1534404   , -9.788861   , -0.0008677634, 0.000110945548, -0.000467402453, -0.0150873447, -0.0148503585, 0.000361809361, 923.5734    , 31.48701    , 774.89      , 2.7         , 3           , 255         , 0           , 0
-0.140165836, 0.155140325 , -9.792908   , -6.392959E-05, 0.000194544235, 0.00117201929, -0.0150855314, -0.0148477871, 0.000373460847, 923.5734    , 31.48701    , 774.893738  , 2.71        , 3           , 255         , 0           , 0
-0.140621275, 0.14970386  , -9.797637   , -0.000330264273, 1.38629111E-05, 0.0005315333, -0.0150889121, -0.0148475664, 0.0003787739, 923.5734    , 31.48701    , 774.894165  , 2.72        , 3           , 255         , 0           , 0
-0.137359947, 0.141863748 , -9.780512   , -0.000209271268, -2.99029343E-05, 0.000534879044, -0.0150910849, -0.0148477843, 0.000384127052, 923.5756    , 31.4881611  , 774.8946    , 2.73        , 3           , 255         , 0           , 0
-0.142714724, 0.147283047 , -9.787696   , 0.000104012404, 0.000148993888, 0.000227825047, -0.0150900772, -0.0148462607, 0.000386382773, 923.5756    , 31.4881611  , 774.895     , 2.74        , 3           , 255         , 0           , 0
-0.144951582, 0.1521199   , -9.781883   , -0.000123576436, 0.000322136068, 0.00036055583, -0.0150913661, -0.0148429843, 0.00038993964, 923.5756    , 31.4881611  , 774.895447  , 2.75        , 3           , 255         , 0           , 0
-0.146389529, 0.1525677   , -9.792044   , -0.0003371057, 0.000202674928, 0.0004186705, -0.0150947981, -0.0148408953, 0.000394095579, 923.5756    , 31.4881611  , 774.8959    , 2.76        , 3           , 255         , 0           , 0
-0.146836892, 0.15322125  , -9.784905   , 0.0005247534, -0.000156248454, 5.3785825E-05, -0.0150895584, -0.0148424488, 0.000394657021, 923.5756    , 31.4881611  , 774.8963    , 2.77        , 3           , 255         , 0           , 0
-0.145292282, 0.142813414 , -9.793496   , -0.000184253615, -0.000132439251, -4.730725E-05, -0.0150913941, -0.01484378 , 0.000394203962, 923.5756    , 31.4881611  , 774.8967    , 2.78        , 3           , 255         , 0           , 0
-0.149469256, 0.141576141 , -9.7991     , 0.00021906523, -0.000119806384, 0.0003908664, -0.0150892613, -0.01484492 , 0.000398130564, 923.5756    , 31.4881611  , 774.897156  , 2.79        , 3           , 255         , 0           , 0
-0.144338533, 0.14089556  , -9.791496   , 0.0005594196, -0.000267057971, 0.0007417302, -0.0150837805, -0.01484748 , 0.000405587925, 923.5756    , 31.4881611  , 774.897644  , 2.8         , 3           , 255         , 0           , 0
-0.150252536, 0.132735923 , -9.794156   , 2.96761864E-05, 0.000180610441, -0.000607706956, -0.0150833149, -0.0148422522, 0.000399482669, 923.5756    , 31.4881611  , 774.897461  , 2.81        , 3           , 255         , 0           , 0
-0.150174946, 0.142949879 , -9.79859352 , 0.000144172809, -0.000239739864, -0.00046410886, -0.0150818042, -0.01484472 , 0.000394877861, 923.5756    , 31.4881611  , 774.897949  , 2.82        , 3           , 255         , 0           , 0
-0.132980078, 0.148151323 , -9.789725   , -0.0004015984, 0.00016021503, -0.000253550679, -0.0150857819, -0.0148431566, 0.000392318267, 923.5825    , 31.4861946  , 774.898438  , 2.83        , 3           , 255         , 0           , 0
-0.133505255, 0.1473931   , -9.791769   , 0.000232379651, 0.0007175079, 2.20038055E-05, -0.0150834611, -0.0148359789, 0.000392430054, 923.5825    , 31.4861946  , 774.8989    , 2.84        , 3           , 255         , 0           , 0
-0.14756009 , 0.14898017  , -9.792475   , 0.000368884328, 1.37825846E-05, -1.55935631E-05, -0.0150797693, -0.0148358429, 0.00039227205, 923.5825    , 31.4861946  , 774.8994    , 2.85        , 3           , 255         , 0           , 0
-0.143983841, 0.148955971 , -9.797017   , -0.000459797273, 0.0003219492, -1.20953518E-05, -0.0150843645, -0.0148326252, 0.0003921025, 923.5825    , 31.4861946  , 774.8999    , 2.86        , 3           , 255         , 0           , 0
-0.136063471, 0.149572149 , -9.803651   , -0.000384909217, 7.202316E-05, 0.0002950606, -0.0150882555, -0.0148318624, 0.000395042152, 923.5825    , 31.4861946  , 774.9004    , 2.87        , 3           , 255         , 0           , 0
-0.151790053, 0.146774247 , -9.797113   , -0.000264592469, 0.000146976789, -0.000180513074, -0.0150908753, -0.0148304207, 0.0003932149, 923.5825    , 31.4861946  , 774.9009    , 2.88        , 3           , 255         , 0           , 0
-0.146872044, 0.142331287 , -9.785968   , 0.000332755648, -0.000161049742, 0.000526565942, -0.0150876269, -0.01483195 , 0.000398504664, 923.5825    , 31.4861946  , 774.901367  , 2.89        , 3           , 255         , 0           , 0
-0.142759725, 0.14461413  , -9.791324   , 0.000354895368, 5.743577E-05, 0.0002690537, -0.0150841177, -0.0148313353, 0.0004011865, 923.5825    , 31.4861946  , 774.901855  , 2.9         , 3           , 255         , 0           , 0
-0.1414724  , 0.1455005   , -9.79677    , 1.54459849E-06, -0.000318833452, -0.000464599754, -0.0150798662, -0.014831664, 0.000396526884, 923.5825    , 31.4861946  , 774.891235  , 2.91        , 3           , 255         , 0           , 0
-0.1411352  , 0.139406726 , -9.78924    , -8.954917E-05, -0.0002844007, -2.05940123E-05, -0.0150807584, -0.0148345092, 0.000396363845, 923.5825    , 31.4861946  , 774.891663  , 2.92        , 3           , 255         , 0           , 0
-0.143149346, 0.139352277 , -9.799474   , 0.000242400187, -0.000304490328, 4.929547E-05, -0.0150783425, -0.0148375472, 0.000396902673, 923.5753    , 31.4871445  , 774.8921    , 2.93        , 3           , 255         , 0           , 0
-0.144113377, 0.140801042 , -9.79066    , -0.000308666378, 2.0855834E-05, 0.000474127184, -0.0150815  , -0.0148372678, 0.00040164066, 923.5753    , 31.4871445  , 774.8925    , 2.94        , 3           , 255         , 0           , 0
-0.153062254, 0.139406279 , -9.794189   , -0.000234988518, 4.00717545E-05, 0.000355186115, -0.0150839016, -0.0148368124, 0.00040518638, 923.5753    , 31.4871445  , 774.892944  , 2.95        , 3           , 255         , 0           , 0
-0.145713657, 0.1507045   , -9.789651   , 0.000184120319, -0.0001346342, -0.00020816669, -0.01508203 , -0.0148381907, 0.000403125043, 923.5753    , 31.4871445  , 774.8934    , 2.96        , 3           , 255         , 0           , 0
-0.143121824, 0.154041812 , -9.79331    , -7.78184E-06, -0.000380472862, 0.000720598851, -0.015082215, -0.0148418862, 0.000410388224, 923.5753    , 31.4871445  , 774.8938    , 2.97        , 3           , 255         , 0           , 0
-0.143545121, 0.145434991 , -9.793087   , 2.73231417E-05, 3.550973E-05, -0.000179165858, -0.015081916, -0.0148415584, 0.0004085913, 923.5753    , 31.4871445  , 774.8942    , 2.98        , 3           , 255         , 0           , 0
-0.14179346 , 0.1449869   , -9.791383   , 0.00029317895, -0.00014746649, 0.000194004344, -0.0150790121, -0.0148430038, 0.000410553563, 923.5753    , 31.4871445  , 774.894653  , 2.99        , 3           , 255         , 0           , 0
-0.152518272, 0.145475775 , -9.798676   , 0.0003465332, -0.000101537182, -6.250724E-05, -0.0150755383, -0.0148440273, 0.000409943779, 923.5753    , 31.4871445  , 774.8951    , 3           , 3           , 0           , 8.442237    , 300
-0.139014587, 0.149605423 , -9.794353   , 0.000342550775, 4.91890823E-05, -0.000224593212, -0.01506656 , -0.01484293 , 0.000407608575, 923.5753    , 31.4871445  , 774.8956    , 3.01        , 3           , 1           , 0           , 0
-0.136061519, 0.151006341 , -9.787557   , 0.000312022545, 1.11555855E-05, 0.000238027656, -0.0150634758, -0.0148427868, 0.000409987144, 923.5753    , 31.4871445  , 774.896057  , 3.02        , 3           , 2           , 0           , 0
-0.146921709, 0.145298883 , -9.782989   , 0.000338881568, -0.000153953326, -0.000325471, -0.0150600392, -0.0148443729, 0.000406755658, 923.5895    , 31.4880943  , 774.8965    , 3.03        , 3           , 3           , 0           , 0
-0.1524163  , 0.14088127  , -9.78828049 , -0.000319324376, -0.000420141616, 0.000569828 , -0.0150633166, -0.0148484884, 0.000412517053, 923.5895    , 31.4880943  , 774.8969    , 3.04        , 3           , 4           , 0           , 0
-0.1491773  , 0.1457297   , -9.785528   , 0.000387248874, -3.179774E-05, -0.000447230967, -0.015059378, -0.014848874, 0.000408049644, 923.5895    , 31.4880943  , 774.897339  , 3.05        , 3           , 5           , 0           , 0
-0.152081057, 0.139190182 , -9.788303   , 0.000491129351, 0.000116657116, 0.0002654363, -0.0150545053, -0.0148476679, 0.0004106864, 923.5895    , 31.4880943  , 774.897766  , 3.06        , 3           , 6           , 0           , 0
-0.145692974, 0.14065066  , -9.790545   , 0.000551031146, -0.000190513383, 0.0002042267, -0.0150490263, -0.0148495408, 0.0004127573, 923.5895    , 31.4880943  , 774.8982    , 3.07        , 3           , 7           , 0           , 0
-0.148537636, 0.148861229 , -9.789407   , 0.0002914388, 9.921903E-06, -0.000243306742, -0.0150460768, -0.0148494784, 0.0004103228, 923.5895    , 31.4880943  , 774.8986    , 3.08        , 3           , 8           , 5           , 5
-0.148204923, 0.1431775   , -9.791147   , -0.000609386538, -0.00013192062, 0.0001663166, -0.0150521956, -0.0148507729, 0.000412005757, 923.5895    , 31.4880943  , 774.899048  , 3.09        , 3           , 9           , 5           , 0.1
-0.1498479  , 0.146879748 , -9.79344    , -0.0004634639, -4.887223E-05, -0.00039946 , -0.0150567694, -0.0148513215, 0.000408018619, 923.5895    , 31.4880943  , 774.8995    , 3.1         , 3           , 10          , 0.1         , 0.1
-0.147850364, 0.145443469 , -9.790195   , -0.000212667277, 8.246643E-05, 0.000111587986, -0.0150534492, -0.0148538118, 0.000409040862, 923.5895    , 31.4880943  , 774.8791    , 3.11        , 3           , 11          , 0.007287347 , 0.00728734443
-0.144223988, 0.1451666   , -9.789536   , 0.0003009637, 0.000178196817, -0.0004012949, -0.01505038 , -0.01485209 , 0.00040500125, 923.5895    , 31.4880943  , 774.8794    , 3.12        , 3           , 12          , 0.174645633 , 0
-0.1501222  , 0.140892684 , -9.792652   , -0.0004066166, 0.000410190027, -0.000123933351, -0.0150544262, -0.0148480078, 0.000403700164, 923.5511    , 31.488636   , 774.8797    , 3.13        , 3           , 13          , 0           , 0
-0.144519433, 0.15229699  , -9.795039   , 0.000281756773, -0.000217045745, -0.000650461647, -0.0150515139, -0.0148502765, 0.000397228461, 923.5511    , 31.488636   , 774.88      , 3.14        , 3           , 14          , -0.000542987254, -0.000363370666
-0.1463004  , 0.149653941 , -9.794092   , 0.0002802407, -0.0001423205, -0.000771032937, -0.015048597, -0.0148518151, 0.000389539724, 923.5511    , 31.488636   , 774.8803    , 3.15        , 3           , 15          , 0           , -3.934633E-05
-0.1460751  , 0.146270543 , -9.793767   , -0.0006102553, -3.58492252E-05, -0.000170907981, -0.015054673, -0.0148522006, 0.0003878361, 923.5511    , 31.488636   , 774.8806    , 3.16        , 3           , 16          , 0           , 1.401298E-45
-0.144249067, 0.149668649 , -9.791385   , -0.000121131714, -0.000121413643, 0.0002764632, -0.0150559256, -0.0148533722, 0.000390618923, 923.5511    , 31.488636   , 774.8809    , 3.17        , 3           , 20          , 0           , 0
-0.155539   , 0.151915222 , -9.786353   , -0.000192760082, -0.000377538468, -0.000476144778, -0.0150577845, -0.0148572177, 0.0003859144, 923.5511    , 31.488636   , 774.8812    , 3.18        , 3           , 21          , 0           , 0
-0.137011915, 0.1500785   , -9.788691   , -0.000159933232, -2.14325264E-05, -0.000189546015, -0.0150593556, -0.01485746 , 0.00038402222, 923.5511    , 31.488636   , 774.881531  , 3.19        , 3           , 22          , 0           , 0
-0.132366508, 0.145696521 , -9.79761    , 0.0003311899, 0.000108174456, 0.000163712321, -0.0150560671, -0.0148563534, 0.000385642983, 923.5511    , 31.488636   , 774.881836  , 3.2         , 3           , 40          , 0           , 0
-0.1500189  , 0.1387817   , -9.796354   , -0.000119147589, 7.50311E-05 , 0.00017355186, -0.0150578963, -0.0148544237, 0.000387376233, 923.5511    , 31.488636   , 774.918335  , 3.21        , 3           , 41          , 0           , 0
-0.146436349, 0.135744572 , -9.791334   , -0.0007619649, 5.436744E-05, 0.000466453843, -0.0150655843, -0.01485381 , 0.000392032438, 923.5511    , 31.488636   , 774.9189    , 3.22        , 3           , 42          , 0           , 0
-0.145062119, 0.135468215 , -9.791895   , 0.000150196429, -0.000154218607, 5.47850141E-05, -0.01506409 , -0.0148553438, 0.000392603542, 923.587952  , 31.4855843  , 774.919434  , 3.23        , 3           , 255         , 0           , 0
-0.148595214, 0.1408731   , -9.791523   , 8.074392E-05, -0.000203857926, -0.0007234286, -0.0150631759, -0.0148574915, 0.000385400141, 923.587952  , 31.4855843  , 774.92      , 3.24        , 3           , 255         , 0           , 0
-0.146750867, 0.142023236 , -9.789648   , -0.000440880365, -2.38207E-05, 0.0004063082, -0.0150676453, -0.0148576694, 0.000389466673, 923.587952  , 31.4855843  , 774.920532  , 3.25        , 3           , 255         , 0           , 0
-0.14411357 , 0.1383646   , -9.798692   , -0.000283478759, -0.0001541615, 0.0003925634, -0.015070538, -0.0148591511, 0.000393415452, 923.587952  , 31.4855843  , 774.9211    , 3.26        , 3           , 255         , 0           , 0
-0.147055343, 0.145949543 , -9.791832   , -7.515366E-05, 0.00034719106, 0.0006808401, -0.01507139 , -0.0148555767, 0.0004001713, 923.587952  , 31.4855843  , 774.921631  , 3.27        , 3           , 255         , 0           , 0
-0.149470091, 0.150537819 , -9.782824   , -0.000212091953, 0.000532762147, -3.15274847E-05, -0.0150735052, -0.0148502532, 0.000399775716, 923.587952  , 31.4855843  , 774.9222    , 3.28        , 3           , 255         , 0           , 0
-0.1527608  , 0.15445587  , -9.782416   , 0.0003024787, -0.0002894665, -0.0001281939, -0.0150704626, -0.0148531673, 0.0003985375, 923.587952  , 31.4855843  , 774.9227    , 3.29        , 3           , 255         , 0           , 0
-0.147081092, 0.154096529 , -9.785795   , 0.0006089143, 0.00016429188, -6.43443345E-05, -0.0150643634, -0.0148515338, 0.000397869328, 923.587952  , 31.4855843  , 774.9233    , 3.3         , 3           , 255         , 0           , 0
-0.13803339 , 0.156319872 , -9.787261   , 0.000309532363, 4.99374873E-05, 0.000396754825, -0.01505329 , -0.0148556344, 0.00040170984, 923.587952  , 31.4855843  , 774.9014    , 3.31        , 3           , 255         , 0           , 0
-0.14546518 , 0.155137    , -9.793638   , 8.989184E-06, -0.000606617832, -0.000403935148, -0.01505314 , -0.0148617607, 0.000397761876, 923.587952  , 31.4855843  , 774.901855  , 3.32        , 3           , 255         , 0           , 0
-0.143039316, 0.1527714   , -9.79023    , -9.122334E-05, -0.000273013778, 0.000213065956, -0.0150540853, -0.01486446 , 0.000399933575, 923.5967    , 31.4884338  , 774.9023    , 3.33        , 3           , 255         , 0           , 0
-0.145669848, 0.150290057 , -9.787033   , 0.000179893861, 9.7619195E-06, -0.0002619244, -0.0150522478, -0.014864401, 0.000397312921, 923.5967    , 31.4884338  , 774.9027    , 3.34        , 3           , 255         , 0           , 0
-0.137264222, 0.139833584 , -9.78726    , -0.000282944, -2.75853381E-05, -0.000321759842, -0.0150550278, -0.0148647251, 0.000394099567, 923.5967    , 31.4884338  , 774.903137  , 3.35        , 3           , 255         , 0           , 0
-0.126376957, 0.1468132   , -9.795691   , 6.808672E-05, -4.574994E-05, -0.00013535723, -0.0150543284, -0.0148652028, 0.000392752961, 923.5967    , 31.4884338  , 774.903564  , 3.36        , 3           , 255         , 0           , 0
-0.13632293 , 0.141716838 , -9.789638   , 0.000176607078, -6.499415E-05, 0.0002849626, -0.0150526054, -0.0148658091, 0.0003956123, 923.5967    , 31.4884338  , 774.904     , 3.37        , 3           , 255         , 0           , 0
-0.140925109, 0.135184273 , -9.787689   , 0.000451470027, -0.000115103758, -0.0006394429, -0.0150479954, -0.0148670552, 0.0003892354, 923.5967    , 31.4884338  , 774.9044    , 3.38        , 3           , 255         , 0           , 0
-0.138924271, 0.136975557 , -9.790068   , 6.262536E-05, -5.3761556E-05, -0.000441621873, -0.0150473034, -0.0148676587, 0.0003848274, 923.5967    , 31.4884338  , 774.904846  , 3.39        , 3           , 255         , 0           , 0
-0.144972   , 0.142234042 , -9.791863   , -0.000130897912, -0.000119287812, 0.000580982247, -0.0150486995, -0.0148687642, 0.000390655041, 923.5967    , 31.4884338  , 774.9053    , 3.4         , 3           , 255         , 0           , 0
-0.146677881, 0.139478952 , -9.790639   , 0.000316296762, -0.0005198185, 0.0003910286, -0.0150421364, -0.0148617281, 0.000394592 , 923.5967    , 31.4884338  , 774.87384   , 3.41        , 3           , 255         , 0           , 0
-0.146302253, 0.150085449 , -9.787235   , 0.0005001837, 0.000103043451, 0.0005599673, -0.0150372172, -0.0148606123, 0.000400176068, 923.5967    , 31.4884338  , 774.8741    , 3.42        , 3           , 255         , 0           , 0
-0.1468924  , 0.150319844 , -9.792827   , -0.000302225642, -0.0003534187, 0.000108414955, -0.015040257, -0.0148641309, 0.000401313329, 923.5904    , 31.48728    , 774.8743    , 3.43        , 3           , 255         , 0           , 0
-0.14334631 , 0.154377282 , -9.79383    , 0.000221590512, -0.000403565355, -0.000119996737, -0.0150380228, -0.0148681831, 0.00040017406, 923.5904    , 31.48728    , 774.8746    , 3.44        , 3           , 255         , 0           , 0
-0.148557335, 0.143808275 , -9.790736   , -0.00041078456, 7.282343E-05, -7.66215453E-06, -0.015042129, -0.0148674576, 0.0004000865, 923.5904    , 31.48728    , 774.8748    , 3.45        , 3           , 255         , 0           , 0
-0.143579811, 0.14360936  , -9.799929   , 0.000255129766, -0.0001214348, -3.31437077E-05, -0.0150395725, -0.0148686767, 0.000399773329, 923.5904    , 31.48728    , 774.875061  , 3.46        , 3           , 255         , 0           , 0
-0.1425663  , 0.151201308 , -9.794657   , 0.000251324353, -8.33589E-06, 0.000112176262, -0.0150370775, -0.0148687428, 0.00040089633, 923.5904    , 31.48728    , 774.8753    , 3.47        , 3           , 255         , 0           , 0
-0.144147351, 0.14507179  , -9.788626   , 0.000450505759, 0.000411212648, 0.0004835525, -0.0150326444, -0.0148645584, 0.000405669882, 923.5904    , 31.48728    , 774.875549  , 3.48        , 3           , 255         , 0           , 0
-0.143110439, 0.1430349   , -9.783078   , -0.000299118983, 3.909011E-05, 0.0009613421, -0.0150357792, -0.0148640247, 0.000415277173, 923.5904    , 31.48728    , 774.8758    , 3.49        , 3           , 255         , 0           , 0
-0.14401269 , 0.13401     , -9.796231   , -0.000391267648, -0.000125745952, 0.000240450536, -0.0150397271, -0.0148652447, 0.0004177005, 923.5904    , 31.48728    , 774.876038  , 3.5         , 3           , 255         , 0           , 0
-0.1523299  , 0.13479     , -9.799516   , -0.0005494518, -0.000174551911, 0.000599553634, -0.0150421457, -0.0148656778, 0.000423675083, 923.5904    , 31.48728    , 774.8575    , 3.51        , 3           , 255         , 0           , 0
-0.145491555, 0.1354509   , -9.792674   , -0.000182221062, 0.000110581284, 0.000519147841, -0.0150440438, -0.0148644941, 0.000428849744, 923.5904    , 31.48728    , 774.8576    , 3.52        , 3           , 255         , 0           , 0
-0.137065679, 0.138463914 , -9.789902   , 0.0004910818, 0.000351251918, -0.00021515011, -0.0150391  , -0.0148610137, 0.0004266455, 923.602661  , 31.4863987  , 774.8577    , 3.53        , 3           , 255         , 0           , 0
-0.153566226, 0.139927849 , -9.79495    , 0.000183847267, 0.000204053707, 0.00016922025, -0.015037288, -0.014858949, 0.000428307 , 923.602661  , 31.4863987  , 774.857849  , 3.54        , 3           , 255         , 0           , 0
-0.153029278, 0.14671205  , -9.79462051 , -0.000107590808, 1.40628254E-05, -0.000415028655, -0.0150383012, -0.0148588708, 0.000424154685, 923.602661  , 31.4863987  , 774.858     , 3.55        , 3           , 255         , 0           , 0
-0.1439904  , 0.145117983 , -9.792808   , -0.000566285336, 9.70375258E-05, 0.000265999231, -0.0150440028, -0.0148578612, 0.000426800048, 923.602661  , 31.4863987  , 774.8581    , 3.56        , 3           , 255         , 0           , 0
-0.1397807  , 0.150186747 , -9.788348   , 8.188252E-05, -0.000258790329, 0.0006228011, -0.0150432782, -0.0148603553, 0.000433066773, 923.602661  , 31.4863987  , 774.8582    , 3.57        , 3           , 255         , 0           , 0
-0.145469368, 0.152653381 , -9.788236   , 7.800161E-05, -1.61244534E-05, 0.000531058758, -0.0150425769, -0.0148604363, 0.000438379648, 923.602661  , 31.4863987  , 774.858337  , 3.58        , 3           , 255         , 0           , 0
-0.14173016 , 0.147911012 , -9.802877   , -0.000305459136, 0.000146484963, 0.000321382016, -0.0150456792, -0.0148589239, 0.000441571377, 923.602661  , 31.4863987  , 774.858459  , 3.59        , 3           , 255         , 0           , 0
-0.149809569, 0.148755446 , -9.792655   , 0.0001679089, -0.00010819186, 0.000304263318, -0.0150440456, -0.01485996 , 0.0004446302, 923.602661  , 31.4863987  , 774.8586    , 3.6         , 3           , 255         , 0           , 0
-0.144862667, 0.138872951 , -9.793339   , 0.000163011049, -0.000256043277, 0.000883301371, -0.0150374919, -0.01486343 , 0.000453426357, 923.602661  , 31.4863987  , 774.8254    , 3.61        , 3           , 255         , 0           , 0
-0.151887432, 0.1343316   , -9.793535   , 0.000245234871, -0.0004271741, 0.000151672328, -0.015035063, -0.0148676764, 0.000455007277, 923.602661  , 31.4863987  , 774.8253    , 3.62        , 3           , 255         , 0           , 0
-0.14632225 , 0.1481171   , -9.78815    , 0.0001813882, 0.000395915442, 0.0001529771, -0.0150332712, -0.0148636959, 0.000456477515, 923.5339    , 31.4852448  , 774.825256  , 3.63        , 3           , 255         , 0           , 0
-0.131623626, 0.144694418 , -9.798041   , 0.000302164117, 1.5548052E-05, -8.807219E-07, -0.0150302509, -0.01486354 , 0.00045646634, 923.5339    , 31.4852448  , 774.8252    , 3.64        , 3           , 255         , 0           , 0
-0.157595769, 0.140316039 , -9.778197   , -0.0002886143, 0.0003567161, -0.000422757963, -0.0150330728, -0.0148600368, 0.000452185282, 923.5339    , 31.4852448  , 774.825134  , 3.65        , 3           , 255         , 0           , 0
-0.1577631  , 0.1373193   , -9.793793   , -0.000100240053, 0.000381430553, 5.12135375E-06, -0.0150340758, -0.0148562221, 0.000452179142, 923.5339    , 31.4852448  , 774.8251    , 3.66        , 3           , 255         , 0           , 0
-0.132998437, 0.149247363 , -9.789445   , 0.000300530373, 0.000183871976, 0.000319572253, -0.0150311152, -0.014854338, 0.0004553471, 923.5339    , 31.4852448  , 774.825     , 3.67        , 3           , 255         , 0           , 0
-0.129954055, 0.150554255 , -9.790843   , -9.394425E-06, 0.000138288277, 0.000120776676, -0.0150312278, -0.0148529354, 0.000456534064, 923.5339    , 31.4852448  , 774.824951  , 3.68        , 3           , 255         , 0           , 0
-0.148998246, 0.14038457  , -9.789218   , -0.0005556017, -3.13241035E-05, 0.0009744514, -0.0150369285, -0.0148531  , 0.000466282974, 923.5339    , 31.4852448  , 774.8249    , 3.69        , 3           , 255         , 0           , 0
-0.1478692  , 0.143691942 , -9.805658   , -0.0006859856, 0.000436338858, -0.000108966051, -0.0150437709, -0.0148487538, 0.000465127727, 923.5339    , 31.4852448  , 774.8248    , 3.7         , 3           , 255         , 0           , 0
-0.140046448, 0.142777637 , -9.791875   , 6.7214336E-05, 0.000477558118, -0.000420712953, -0.015035484, -0.0148430923, 0.000460736774, 923.5339    , 31.4852448  , 774.893738  , 3.71        , 3           , 255         , 0           , 0
-0.145531863, 0.148831546 , -9.791626   , -0.000462899741, 0.000117589836, 0.000254188635, -0.015040148, -0.0148418788, 0.0004632609, 923.5339    , 31.4852448  , 774.8941    , 3.72        , 3           , 255         , 0           , 0
-0.150546938, 0.1430081   , -9.791161   , -3.83917941E-05, -0.000406385137, 0.0001315049, -0.0150405513, -0.0148459235, 0.000464637 , 923.596558  , 31.4883652  , 774.8945    , 3.73        , 3           , 255         , 0           , 0
-0.150607616, 0.148066148 , -9.792265   , 0.000355266355, -0.000396518357, 0.000697345939, -0.0150371045, -0.014849782, 0.0004716699, 923.596558  , 31.4883652  , 774.894836  , 3.74        , 3           , 255         , 0           , 0
-0.1423017  , 0.153299972 , -9.78499    , 0.000450024381, 0.0001043017, 0.0006560594, -0.0150327012, -0.0148486393, 0.000478214672, 923.596558  , 31.4883652  , 774.8952    , 3.75        , 3           , 255         , 0           , 0
-0.140852138, 0.147483259 , -9.793646   , 0.000655537355, 6.11238647E-06, -0.000302857632, -0.0150261018, -0.0148486244, 0.000475185254, 923.596558  , 31.4883652  , 774.895569  , 3.76        , 3           , 255         , 0           , 0
-0.139054984, 0.138536736 , -9.790047   , 0.0007227507, 4.40458534E-05, -0.000420020049, -0.0150188133, -0.01484825 , 0.000470978528, 923.596558  , 31.4883652  , 774.896     , 3.77        , 3           , 255         , 0           , 0
-0.152065128, 0.134343    , -9.790227   , 0.000317873433, 0.000245784584, 0.000672713 , -0.0150157325, -0.0148456916, 0.0004776686, 923.596558  , 31.4883652  , 774.8964    , 3.78        , 3           , 255         , 0           , 0
-0.150662139, 0.13864471  , -9.793399   , -0.0001377032, 0.000442328 , 0.0005135033, -0.0150171863, -0.0148411915, 0.0004827371, 923.596558  , 31.4883652  , 774.896851  , 3.79        , 3           , 255         , 0           , 0
-0.141186   , 0.1452341   , -9.793743   , -0.00044775306, 0.0002975309, 0.0009464828, -0.0150218019, -0.0148380734, 0.000492156832, 923.596558  , 31.4883652  , 774.8973    , 3.8         , 3           , 255         , 0           , 0
-0.146170527, 0.143007576 , -9.780283   , 0.00011351073, 2.78532389E-05, 0.000135778551, -0.0150150657, -0.0148375425, 0.00049342704, 923.596558  , 31.4883652  , 774.866943  , 3.81        , 3           , 255         , 0           , 0
-0.148529276, 0.139173582 , -9.787699   , 5.32217673E-05, -0.000256505649, 0.000152602952, -0.0150145562, -0.0148400851, 0.0004949916, 923.596558  , 31.4883652  , 774.8671    , 3.82        , 3           , 255         , 0           , 0
-0.139690816, 0.1477714   , -9.797533   , -0.000395438925, -4.43068E-06, -4.697633E-05, -0.0150185041, -0.0148401363, 0.00049452245, 923.5836    , 31.48762    , 774.8674    , 3.83        , 3           , 255         , 0           , 0
-0.14829433 , 0.150083765 , -9.796057   , -6.96802745E-05, -2.73399346E-05, -0.0003389778, -0.0150191514, -0.01484046 , 0.00049113686, 923.5836    , 31.48762    , 774.8676    , 3.84        , 3           , 255         , 0           , 0
-0.150028974, 0.148231834 , -9.791262   , -4.71484964E-05, 2.69612065E-06, 0.0006910762, -0.0150197241, -0.01484033 , 0.00049804704, 923.5836    , 31.48762    , 774.867859  , 3.85        , 3           , 255         , 0           , 0
-0.144692108, 0.156317428 , -9.788992   , -0.0001918361, 0.0003895074, -2.52232312E-05, -0.015021638, -0.014836438, 0.0004977363, 923.5836    , 31.48762    , 774.8681    , 3.86        , 3           , 255         , 0           , 0
-0.150360122, 0.166363165 , -9.786728   , -0.0006055524, 0.000256711442, -0.000185909754, -0.0150276665, -0.0148338992, 0.0004958387, 923.5836    , 31.48762    , 774.868347  , 3.87        , 3           , 255         , 0           , 0
-0.142406166, 0.159645766 , -9.788564   , -0.000320649764, 3.375791E-05, -0.000421221572, -0.01503081 , -0.0148336254, 0.000491621555, 923.5836    , 31.48762    , 774.8686    , 3.88        , 3           , 255         , 0           , 0
-0.151468575, 0.144856036 , -9.795224   , -0.0003167165, -0.00020386363, 0.000394901173, -0.0150340358, -0.0148356035, 0.000495601038, 923.5836    , 31.48762    , 774.868835  , 3.89        , 3           , 255         , 0           , 0
-0.1549164  , 0.156457484 , -9.789355   , -0.000326016976, 1.29782711E-05, 0.0002439998, -0.01503733 , -0.0148354378, 0.000498039 , 923.5836    , 31.48762    , 774.8691    , 3.9         , 3           , 255         , 0           , 0
-0.148759991, 0.1539515   , -9.788243   , 0.0006842452, -7.46448059E-05, 0.000129213382, -0.0150382435, -0.0148405386, 0.0004994572, 923.5836    , 31.48762    , 774.861145  , 3.91        , 3           , 255         , 0           , 0
-0.136710629, 0.143219247 , -9.788314   , 0.00011728314, -0.00036880697, -0.000294947647, -0.0150370263, -0.01484427 , 0.000496563152, 923.5836    , 31.48762    , 774.8613    , 3.92        , 3           , 255         , 0           , 0
-0.146585226, 0.14821212  , -9.789246   , 0.000453579385, -0.0002090855, 0.0003753099, -0.0150325466, -0.0148463063, 0.00050034764, 923.5987    , 31.48477    , 774.8615    , 3.93        , 3           , 255         , 0           , 0
-0.149081171, 0.1402964   , -9.800237   , -0.000156109978, 0.000121161924, -0.000331152551, -0.0150340591, -0.0148451431, 0.000497018 , 923.5987    , 31.48477    , 774.8617    , 3.94        , 3           , 255         , 0           , 0
-0.138833731, 0.128486425 , -9.79252052 , 0.000111479691, -0.000146402017, -0.000220981485, -0.0150329107, -0.0148466406, 0.0004948303, 923.5987    , 31.48477    , 774.8619    , 3.95        , 3           , 255         , 0           , 0
-0.145300686, 0.1326757   , -9.798665   , -0.00015026523, 0.000103011931, -0.000345813, -0.0150343627, -0.0148456637, 0.0004913567, 923.5987    , 31.48477    , 774.862061  , 3.96        , 3           , 255         , 0           , 0
-0.14714615 , 0.13372162  , -9.793083   , -0.000198466529, -8.63547E-05, -0.000171988562, -0.0150363212, -0.0148465512, 0.0004896499, 923.5987    , 31.48477    , 774.862244  , 3.97        , 3           , 255         , 0           , 0
-0.147800639, 0.129097834 , -9.795469   , -5.84746E-05, -0.000161594682, -9.19761E-05, -0.015036894, -0.014848181, 0.0004887544, 923.5987    , 31.48477    , 774.8624    , 3.98        , 3           , 255         , 0           , 0
-0.144327015, 0.130499154 , -9.788637   , -0.000130046508, -0.000465034071, 0.0001046223, -0.015038209, -0.0148528144, 0.000489870552, 923.5987    , 31.48477    , 774.8626    , 3.99        , 3           , 255         , 0           , 0
-0.155761749, 0.1340191   , -9.796852   , -0.000386256725, 0.000316373 , -0.00121381693, -0.01504189 , -0.0148498314, 0.000477685157, 923.5987    , 31.48477    , 774.8628    , 4           , 3           , 0           , 9.442237    , 400
-0.147192761, 0.142592624 , -9.795369   , -0.000152109365, 0.000133948517, 5.35851177E-05, -0.0150286378, -0.0148494132, 0.000477981346, 923.5987    , 31.48477    , 774.8345    , 4.01        , 3           , 1           , 0           , 0
-0.146631122, 0.159086615 , -9.798421   , 5.51490521E-05, 2.70597811E-05, 0.0004912949, -0.01502816 , -0.0148490686, 0.000482890115, 923.5987    , 31.48477    , 774.8345    , 4.02        , 3           , 2           , 0           , 0
-0.146008715, 0.156645387 , -9.795195   , 0.000139312353, -0.000141328463, 6.534452E-05, -0.0150267761, -0.0148504721, 0.000483564741, 923.604736  , 31.490469   , 774.8345    , 4.03        , 3           , 3           , 0           , 0
-0.143318519, 0.15541248  , -9.782401   , -0.000403108483, -0.000118048745, -0.000106203428, -0.015030792, -0.0148516688, 0.0004825205, 923.604736  , 31.490469   , 774.8345    , 4.04        , 3           , 4           , 0           , 0
-0.144255131, 0.161512241 , -9.784263   , -0.0001099896, -0.000466507539, -0.000135494993, -0.0150318723, -0.0148563543, 0.000481235737, 923.604736  , 31.490469   , 774.8345    , 4.05        , 3           , 5           , 0           , 0
-0.14115116 , 0.151073009 , -9.786151   , -0.000482467643, -0.000108188746, 0.00032898612, -0.0150367459, -0.0148573872, 0.000484541757, 923.604736  , 31.490469   , 774.8345    , 4.06        , 3           , 6           , 0           , 0
-0.15127863 , 0.148459911 , -9.785424   , -0.00080837874, -0.000128385116, 0.000317031867, -0.0150448773, -0.014858623, 0.000487731275, 923.604736  , 31.490469   , 774.8345    , 4.07        , 3           , 7           , 0           , 0
-0.147399709, 0.14694497  , -9.788094   , -0.000254153274, -7.357003E-05, -0.000641563, -0.015047323, -0.0148594566, 0.000481326919, 923.604736  , 31.490469   , 774.8345    , 4.08        , 3           , 8           , 5           , 5
-0.14506802 , 0.147922277 , -9.79212952 , -0.000404405117, -0.000436153583, 1.24222915E-05, -0.0150513686, -0.0148638152, 0.000481516734, 923.604736  , 31.490469   , 774.8345    , 4.09        , 3           , 9           , 5           , 0.1
-0.145017177, 0.139344916 , -9.788079   , -0.000267007679, -0.0002642936, -0.000187865866, -0.0150540126, -0.0148664862, 0.000479677925, 923.604736  , 31.490469   , 774.8345    , 4.1         , 3           , 10          , 0.1         , 0.1
-0.147327334, 0.130465835 , -9.791752   , -0.000217923312, -0.000664597, 0.0001221286, -0.0150633743, -0.0148736583, 0.000481105759, 923.604736  , 31.490469   , 774.801941  , 4.11        , 3           , 11          , 0.00669249846, 0.006692495
-0.153623432, 0.131512076 , -9.796992   , 0.000110243593, -0.000162552315, -3.5946814E-05, -0.015062266, -0.0148752891, 0.000480770716, 923.604736  , 31.490469   , 774.801758  , 4.12        , 3           , 12          , 0.174648076 , 0
-0.142751172, 0.128590316 , -9.790633   , 0.000221620168, 0.00037351565, 0.00046913288, -0.0150601184, -0.0148714846, 0.0004854057, 923.595337  , 31.48728    , 774.8016    , 4.13        , 3           , 13          , 0           , 0
-0.145470947, 0.134894341 , -9.784426   , -0.000544555369, -0.000269960176, 0.000143880854, -0.0150655862, -0.0148741622, 0.000486885139, 923.595337  , 31.48728    , 774.8014    , 4.14        , 3           , 14          , -0.0005431834, -0.000363388244
-0.146237224, 0.140338734 , -9.7927     , -0.000297570659, -0.000507475, -0.0004632512, -0.0150684929, -0.0148793058, 0.000482329167, 923.595337  , 31.48728    , 774.8012    , 4.15        , 3           , 15          , 0           , -3.93436676E-05
-0.141074479, 0.139272422 , -9.787252   , -0.000151893531, 0.000158078532, 0.000166038153, -0.015070037, -0.0148776984, 0.000483965676, 923.595337  , 31.48728    , 774.801     , 4.16        , 3           , 16          , 0           , 1.401298E-45
-0.143586069, 0.148079231 , -9.78663349 , -0.0005650488, -0.000163163728, -4.45728474E-05, -0.01507568 , -0.0148793375, 0.000483544543, 923.595337  , 31.48728    , 774.800842  , 4.17        , 3           , 20          , 0           , 0
-0.1517274  , 0.1508375   , -9.793612   , -0.000452386215, 4.17140254E-05, -3.28236238E-05, -0.0150801968, -0.0148789249, 0.000483210024, 923.595337  , 31.48728    , 774.800659  , 4.18        , 3           , 21          , 0           , 0
-0.143648446, 0.152634516 , -9.796045   , 0.000186786172, -0.0005251975, -2.928991E-05, -0.0150783276, -0.0148841795, 0.0004829963, 923.595337  , 31.48728    , 774.8005    , 4.19        , 3           , 22          , 0           , 0
-0.140908509, 0.148059741 , -9.793795   , 0.00020832679, -0.0003016734, 0.0008802859, -0.0150763746, -0.0148870628, 0.0004918444, 923.595337  , 31.48728    , 774.8003    , 4.2         , 3           , 40          , 0           , 0
-0.147561   , 0.161318436 , -9.790703   , -6.279879E-05, -0.000375334785, 0.0006574151, -0.01506545 , -0.0148906205, 0.0004983014, 923.595337  , 31.48728    , 774.7856    , 4.21        , 3           , 41          , 0           , 0
-0.148840815, 0.156093746 , -9.790487   , -6.81116362E-05, 0.000139282944, 5.17395019E-05, -0.0150661394, -0.01488922 , 0.0004987978, 923.595337  , 31.48728    , 774.785339  , 4.22        , 3           , 42          , 0           , 0
-0.1485697  , 0.151567    , -9.794399   , 6.081545E-05, -0.000117358606, -0.0003380231, -0.01506548 , -0.0148904435, 0.0004954354, 923.5543    , 31.4877548  , 774.7851    , 4.23        , 3           , 255         , 0           , 0
-0.147008941, 0.151290253 , -9.794701   , -0.000464341021, 0.000171181717, 0.000108417924, -0.0150701394, -0.0148887159, 0.000496493652, 923.5543    , 31.4877548  , 774.784851  , 4.24        , 3           , 255         , 0           , 0
-0.137274012, 0.154982552 , -9.79613    , -0.000414530281, -0.0004046591, -5.254293E-05, -0.0150742773, -0.0148927681, 0.0004960293, 923.5543    , 31.4877548  , 774.7846    , 4.25        , 3           , 255         , 0           , 0
-0.134623855, 0.145855337 , -9.785861   , -0.000227281009, -0.000153199275, -0.00025985032, -0.01507651 , -0.0148943393, 0.0004934539, 923.5543    , 31.4877548  , 774.784363  , 4.26        , 3           , 255         , 0           , 0
-0.144862086, 0.141640976 , -9.792626   , -0.000634987955, -0.000288872834, -0.0008345589, -0.0150827365, -0.0148973521, 0.0004851521, 923.5543    , 31.4877548  , 774.7841    , 4.27        , 3           , 255         , 0           , 0
-0.142050117, 0.139072388 , -9.798492   , -0.000395843468, -0.000185861922, -0.000516179367, -0.0150866183, -0.0148992883, 0.000480018469, 923.5543    , 31.4877548  , 774.7839    , 4.28        , 3           , 255         , 0           , 0
-0.140524432, 0.142937273 , -9.797224   , 0.000457212678, -0.000194508262, -0.000103112907, -0.0150820324, -0.0149012478, 0.000479016744, 923.5543    , 31.4877548  , 774.7836    , 4.29        , 3           , 255         , 0           , 0
-0.143190593, 0.1416623   , -9.793188   , 0.000478214759, -0.000168198691, 0.000316168123, -0.0150772976, -0.0149028813, 0.0004822037, 923.5543    , 31.4877548  , 774.7834    , 4.3         , 3           , 255         , 0           , 0
-0.136508822, 0.137350246 , -9.790408   , -4.320912E-05, -4.36743139E-05, 0.0005821141, -0.01507925 , -0.0148998443, 0.000488052581, 923.5543    , 31.4877548  , 774.829468  , 4.31        , 3           , 255         , 0           , 0
-0.136035934, 0.137325034 , -9.787084   , -0.0003603304, -4.07715561E-05, 0.0003335895, -0.0150829023, -0.0149002029, 0.0004913945, 923.5543    , 31.4877548  , 774.8295    , 4.32        , 3           , 255         , 0           , 0
-0.145364732, 0.135825455 , -9.793939   , -0.000307323528, -8.89621442E-05, -0.000315342157, -0.0150859291, -0.01490114 , 0.000488254649, 923.6171    , 31.4883652  , 774.8296    , 4.33        , 3           , 255         , 0           , 0
-0.148806751, 0.134933233 , -9.795417   , 0.000102883758, -0.000179428433, -0.000430055719, -0.0150848366, -0.0149029987, 0.000483981275, 923.6171    , 31.4883652  , 774.829651  , 4.34        , 3           , 255         , 0           , 0
-0.142283276, 0.133546457 , -9.796013   , -0.000209402817, -0.000123446458, 8.975199E-05, -0.0150869451, -0.0149042187, 0.0004848974, 923.6171    , 31.4883652  , 774.8297    , 4.35        , 3           , 255         , 0           , 0
-0.148783043, 0.146262974 , -9.791381   , 0.000221387687, -0.000267687661, 0.0004446177, -0.0150847975, -0.0149068292, 0.0004893838, 923.6171    , 31.4883652  , 774.8298    , 4.36        , 3           , 255         , 0           , 0
-0.1448157  , 0.147297561 , -9.795439   , -0.00016716047, -4.997113E-05, 0.000325171161, -0.0150865177, -0.0149072781, 0.000492643 , 923.6171    , 31.4883652  , 774.829834  , 4.37        , 3           , 255         , 0           , 0
-0.142294526, 0.142124325 , -9.791554   , -0.00011937198, 0.000495870365, 0.000295683567, -0.0150877563, -0.0149022741, 0.0004955249, 923.6171    , 31.4883652  , 774.8299    , 4.38        , 3           , 255         , 0           , 0
-0.14654322 , 0.150249273 , -9.794462   , -0.000118961616, 9.698162E-05, 0.0003755947, -0.015089   , -0.0149012478, 0.0004992661, 923.6171    , 31.4883652  , 774.829956  , 4.39        , 3           , 255         , 0           , 0
-0.142329365, 0.149756312 , -9.796816   , 5.648518E-05, -0.0006815161, 0.000397040218, -0.0150884967, -0.0149080027, 0.0005033392, 923.6171    , 31.4883652  , 774.83      , 4.4         , 3           , 255         , 0           , 0
-0.13811633 , 0.148523375 , -9.792089   , 2.59337248E-05, -0.000368787529, 0.000192362844, -0.015079408, -0.01490799 , 0.0005051863, 923.6171    , 31.4883652  , 774.780457  , 4.41        , 3           , 255         , 0           , 0
-0.144212812, 0.146306381 , -9.79234    , -0.000284258625, -0.0002995341, -0.0003231468, -0.0150822019, -0.0149110323, 0.000502000155, 923.6171    , 31.4883652  , 774.7802    , 4.42        , 3           , 255         , 0           , 0
-0.140011877, 0.145715609 , -9.792407   , -0.0004073591, -0.000310681266, -0.0007100959, -0.01508617 , -0.0149142472, 0.00049494626, 923.548462  , 31.48728    , 774.779968  , 4.43        , 3           , 255         , 0           , 0
-0.141901463, 0.145281047 , -9.789914   , -9.726995E-05, 0.0005433939, -0.0009785508, -0.0150869954, -0.014908962, 0.000485079072, 923.548462  , 31.48728    , 774.7797    , 4.44        , 3           , 255         , 0           , 0
-0.15385215 , 0.149468109 , -9.788649   , -0.000338055077, -1.80136121E-05, -0.0006425986, -0.0150902811, -0.0149092376, 0.000478655915, 923.548462  , 31.48728    , 774.7795    , 4.45        , 3           , 255         , 0           , 0
-0.146901   , 0.143324956 , -9.789998   , -0.000332104566, 0.0001497342, 0.000126408646, -0.01509362 , -0.0149077214, 0.0004798974, 923.548462  , 31.48728    , 774.779236  , 4.46        , 3           , 255         , 0           , 0
-0.13663657 , 0.133353278 , -9.790138   , 0.00024514948, -0.000211659091, 0.0003023364, -0.0150912153, -0.0149097927, 0.00048295263, 923.548462  , 31.48728    , 774.779     , 4.47        , 3           , 255         , 0           , 0
-0.151347622, 0.130039334 , -9.793973   , -1.623627E-05, -0.0002821311, 0.000721852237, -0.0150914844, -0.0149125047, 0.0004902135, 923.548462  , 31.48728    , 774.778748  , 4.48        , 3           , 255         , 0           , 0
-0.151969641, 0.1428296   , -9.795244   , -8.523959E-05, -6.788995E-05, 0.0004123193, -0.015092398, -0.0149131222, 0.000494346838, 923.548462  , 31.48728    , 774.7785    , 4.49        , 3           , 255         , 0           , 0
-0.149431854, 0.155492812 , -9.7966     , 3.64181469E-05, 0.000352695584, -0.000158434763, -0.0150920106, -0.0149096195, 0.0004927093, 923.548462  , 31.48728    , 774.778259  , 4.5         , 3           , 255         , 0           , 0
-0.147598922, 0.147216409 , -9.793445   , 0.0004974088, -3.37032252E-05, -0.000240645, -0.0150814205, -0.014909124, 0.000490224862, 923.548462  , 31.48728    , 774.833435  , 4.51        , 3           , 255         , 0           , 0
-0.142561644, 0.152219236 , -9.792592   , -0.000293178717, -0.0002957721, 0.000316331163, -0.0150844  , -0.0149120344, 0.0004934327, 923.548462  , 31.48728    , 774.833557  , 4.52        , 3           , 255         , 0           , 0
-0.136642113, 0.152849019 , -9.789      , -0.000185659679, -0.000215806882, -0.0003442713, -0.0150862057, -0.0149142444, 0.0004900226, 923.5519    , 31.48477    , 774.8337    , 4.53        , 3           , 255         , 0           , 0
-0.149780989, 0.153410584 , -9.787795   , 0.000234618987, -0.000292201352, -0.0008888089, -0.0150837274, -0.0149172982, 0.000481178868, 923.5519    , 31.48477    , 774.8338    , 4.54        , 3           , 255         , 0           , 0
-0.142120868, 0.147135735 , -9.788107   , 0.000231412 , -0.00020832743, -0.000276796258, -0.0150813721, -0.0149194226, 0.000478442438, 923.5519    , 31.48477    , 774.8339    , 4.55        , 3           , 255         , 0           , 0
-0.138122156, 0.150089175 , -9.794188   , 0.000141864351, 5.8038655E-05, 0.000364149368, -0.0150800077, -0.0149187911, 0.000482075033, 923.5519    , 31.48477    , 774.834045  , 4.56        , 3           , 255         , 0           , 0
-0.14931035 , 0.151765645 , -9.800733   , 8.016545E-05, -0.000133119931, 7.244211E-05, -0.015079218, -0.014920109, 0.000482819538, 923.5519    , 31.48477    , 774.834167  , 4.57        , 3           , 255         , 0           , 0
-0.153441891, 0.148219869 , -9.795862   , 0.000607460854, -0.00022188091, 0.000286703231, -0.0150731876, -0.0149222855, 0.000485719938, 923.5519    , 31.48477    , 774.8343    , 4.58        , 3           , 255         , 0           , 0
-0.152025133, 0.141417176 , -9.795378   , 0.000179966417, -0.000179886527, -0.0004143311, -0.0150713278, -0.0149241462, 0.000481603842, 923.5519    , 31.48477    , 774.8344    , 4.59        , 3           , 255         , 0           , 0
-0.143142179, 0.145719215 , -9.795465   , 0.000166726822, 1.6587961E-05, -3.294171E-05, -0.0150696551, -0.014923986, 0.000481271971, 923.5519    , 31.48477    , 774.834534  , 4.6         , 3           , 255         , 0           , 0
-0.138959989, 0.1521866   , -9.80190849 , -0.0004163073, 0.00015886972, -0.000446200051, -0.0150755038, -0.014921573, 0.0004768123, 923.5519    , 31.48477    , 774.8768    , 4.61        , 3           , 255         , 0           , 0
-0.127785981, 0.137555659 , -9.795818   , -0.000142542, 0.000237571 , -0.0008446417, -0.0150768  , -0.0149193248, 0.000468330283, 923.5519    , 31.48477    , 774.8772    , 4.62        , 3           , 255         , 0           , 0
-0.140463486, 0.138120487 , -9.795953   , -0.0003122177, 0.0003577041, -0.0005761592, -0.0150798373, -0.014915836, 0.0004625149, 923.581848  , 31.4879589  , 774.8776    , 4.63        , 3           , 255         , 0           , 0
-0.1395503  , 0.138549224 , -9.787388   , 3.703445E-05, -0.000142951118, -0.000263647264, -0.0150794275, -0.0149173047, 0.000459900039, 923.581848  , 31.4879589  , 774.878052  , 4.64        , 3           , 255         , 0           , 0
-0.145728841, 0.141506761 , -9.782331   , -0.000402671, 3.63944273E-05, 0.0002827497, -0.0150834955, -0.0149168987, 0.000462721975, 923.581848  , 31.4879589  , 774.8785    , 4.65        , 3           , 255         , 0           , 0
-0.1412051  , 0.1474642   , -9.793571   , 0.000276735838, -6.748826E-05, -0.000431331, -0.0150806634, -0.0149176382, 0.000458419 , 923.581848  , 31.4879589  , 774.8789    , 4.66        , 3           , 255         , 0           , 0
-0.148551226, 0.154558569 , -9.793928   , 2.15510954E-05, 0.0001469008, -5.493116E-05, -0.01508044 , -0.0149161778, 0.000457847549, 923.581848  , 31.4879589  , 774.879333  , 4.67        , 3           , 255         , 0           , 0
-0.14725776 , 0.136638731 , -9.792612   , -7.80911651E-05, -0.00019013774, 0.0004145572, -0.0150812827, -0.0149180163, 0.00046202165, 923.581848  , 31.4879589  , 774.879761  , 4.68        , 3           , 255         , 0           , 0
-0.145014673, 0.144524142 , -9.793697   , 0.000268318225, 6.526918E-05, -1.36904273E-05, -0.0150785977, -0.0149173643, 0.0004618749, 923.581848  , 31.4879589  , 774.8802    , 4.69        , 3           , 255         , 0           , 0
-0.145417765, 0.146785587 , -9.790942   , 0.0001347386, -0.0004953104, -1.16427291E-05, -0.0150772491, -0.014922319, 0.0004618332, 923.581848  , 31.4879589  , 774.8806    , 4.7         , 3           , 255         , 0           , 0
-0.149939328, 0.141564339 , -9.793748   , 0.0002391561, 0.00020437091, 0.000308526738, -0.0150694307, -0.0149144847, 0.0004648059, 923.581848  , 31.4879589  , 774.8739    , 4.71        , 3           , 255         , 0           , 0
-0.1556097  , 0.148453444 , -9.792994   , 0.000516178668, -0.0001436148, 0.000651103852, -0.0150643662, -0.01491582 , 0.000471338426, 923.581848  , 31.4879589  , 774.874268  , 4.72        , 3           , 255         , 0           , 0
-0.145977214, 0.1468052   , -9.791666   , 0.0003891135, 5.48109238E-05, 0.000366217166, -0.01506053 , -0.0149152167, 0.000474992237, 923.5789    , 31.4851761  , 774.874634  , 4.73        , 3           , 255         , 0           , 0
-0.1381965  , 0.15103671  , -9.794018   , 0.000431846449, 3.51899944E-05, 0.000543588831, -0.0150562925, -0.0149147818, 0.0004804227, 923.5789    , 31.4851761  , 774.875     , 4.74        , 3           , 255         , 0           , 0
-0.14915058 , 0.148783371 , -9.796763   , 7.963946E-05, 0.0003277813, -5.42669477E-05, -0.0150554879, -0.0149115156, 0.000479830749, 923.5789    , 31.4851761  , 774.875366  , 4.75        , 3           , 255         , 0           , 0
-0.151903883, 0.157311291 , -9.796217   , -2.97472579E-05, -0.000105449028, -0.0002125976, -0.0150557542, -0.0149126  , 0.000477720663, 923.5789    , 31.4851761  , 774.875732  , 4.76        , 3           , 255         , 0           , 0
-0.143433243, 0.15028432  , -9.792111   , 0.000140123535, 0.000379612553, -0.000276231847, -0.0150543125, -0.0149088465, 0.000474901259, 923.5789    , 31.4851761  , 774.8761    , 4.77        , 3           , 255         , 0           , 0
-0.142286628, 0.1583915   , -9.793062   , 8.807873E-05, -0.000101880636, 0.000645166845, -0.0150535284, -0.0149097685, 0.00048136813, 923.5789    , 31.4851761  , 774.876465  , 4.78        , 3           , 255         , 0           , 0
-0.139444858, 0.1486995   , -9.788092   , -0.0006068993, -8.277403E-05, 0.000517702952, -0.0150596732, -0.0149105182, 0.00048655743, 923.5789    , 31.4851761  , 774.876831  , 4.79        , 3           , 255         , 0           , 0
-0.131665021, 0.144387275 , -9.784739   , -0.00123101985, 0.000162123615, -0.000575886748, -0.0150718968, -0.0149089852, 0.000480774324, 923.5789    , 31.4851761  , 774.8772    , 4.8         , 3           , 255         , 0           , 0
-0.1370503  , 0.143650651 , -9.790301   , -0.0005553087, -0.000143349753, -0.00021907498, -0.0150804287, -0.0149086136, 0.000478650152, 923.5789    , 31.4851761  , 774.875061  , 4.81        , 3           , 255         , 0           , 0
-0.146633476, 0.141402572 , -9.794909   , 4.039699E-05, 1.85968529E-05, 0.0006341887, -0.0150801186, -0.0149083324, 0.000484989025, 923.5789    , 31.4851761  , 774.8754    , 4.82        , 3           , 255         , 0           , 0
-0.135377645, 0.1476632   , -9.797228   , 0.00013787506, -0.0001413796, 0.0003680967, -0.0150787951, -0.01490969 , 0.0004886912, 923.585     , 31.487484   , 774.8758    , 4.83        , 3           , 255         , 0           , 0
-0.137527138, 0.143193573 , -9.802824   , 0.0003490803, -0.000583974237, 0.0004360293, -0.0150753725, -0.0149154644, 0.000493139436, 923.585     , 31.487484   , 774.87616   , 4.84        , 3           , 255         , 0           , 0
-0.146225691, 0.1384682   , -9.795881   , -3.16112419E-05, -0.000601690263, 0.000121972189, -0.0150757078, -0.0149214594, 0.0004944498, 923.585     , 31.487484   , 774.8765    , 4.85        , 3           , 255         , 0           , 0
-0.1436046  , 0.140851319 , -9.787856   , 0.000130562083, 4.161254E-05, -0.000168152721, -0.0150743779, -0.0149210682, 0.0004927621, 923.585     , 31.487484   , 774.8769    , 4.86        , 3           , 255         , 0           , 0
