Acc X       , Acc Y       , Acc Z       , Gyro X      , Gyro Y      , Gyro Z      , Euler X     , Euler Y     , Euler Z     , Pres X      , Pres Y      , Pres Z      , Time        , Status      , LowRate X   , LowRate Y   , LowRate Z    
-0.145632908, -0.118768416, 9.78861     , 0           , 0           , 0           , 3.12945986  , -0.0148755992, 0           , 921.4833    , 31.4978638  , 793.6841    , 0           , 2           , 0           , 5.47523165  , 0
-0.141253635, -0.121818267, 9.790452    , 0.0006003891, 0.000163822508, 6.528322E-05, 3.12946582  , -0.0148770958, -6.32962E-07, 921.4833    , 31.4978638  , 793.6841    , 0.01        , 3           , 1           , 0           , 0
-0.147886425, -0.120022133, 9.79954     , 3.94438E-05 , 0.000168220082, 0.0002298702, 3.1294663   , -0.0148788057, -2.91128754E-06, 921.4833    , 31.4978638  , 793.6841    , 0.02        , 3           , 2           , 0           , 0
-0.139342383, -0.115257323, 9.782731    , 0.0001397509, -0.000120831362, 0.000128224608, 3.12946749  , -0.0148776136, -4.20819561E-06, 921.4323    , 31.0766315  , 793.6841    , 0.03        , 3           , 3           , 0           , 0
-0.1446275  , -0.121439025, 9.794213    , 0.00020032977, -0.000100522506, 0.000405744155, 3.12946963  , -0.0148766572, -8.277879E-06, 921.4323    , 31.0766315  , 793.6841    , 0.04        , 3           , 4           , 0           , 0
-0.148657292, -0.12564519 , 9.795015    , -0.000111811023, -8.930307E-05, -0.000196476612, 3.12946844  , -0.01487574 , -6.32391448E-06, 921.4323    , 31.0766315  , 793.6841    , 0.05        , 3           , 5           , 0           , 0
-0.146769911, -0.122886159, 9.792024    , -0.000163581542, 0.000237139262, -0.0001668827, 3.12946677  , -0.0148780905, -4.626326E-06, 921.4323    , 31.0766315  , 793.6841    , 0.06        , 3           , 6           , 0           , 0
-0.149135813, -0.120187059, 9.797889    , -0.000312444783, 0.00018337401, 0.000871492433, 3.129464    , -0.01488003 , -1.33191115E-05, 921.4323    , 31.0766315  , 793.6841    , 0.07        , 3           , 7           , 0           , 0
-0.148556381, -0.119318567, 9.791814    , -0.000542810943, 0.0008677222, 0.0004723268, 3.12945843  , -0.0148887653, -1.79371564E-05, 921.4323    , 31.0766315  , 793.6841    , 0.08        , 3           , 8           , 5           , 5
-0.146868557, -0.120986126, 9.79004     , 0.0002555591, 0.000164580808, -0.00046195407, 3.129461    , -0.0148903532, -1.32975892E-05, 921.4323    , 31.0766315  , 793.6841    , 0.09        , 3           , 9           , 5           , 0.1
-0.149406046, -0.119828239, 9.786369    , 0.00073971547, -0.000121487654, 0.00100653572, 3.12946844  , -0.0148892626, -2.33777973E-05, 921.4323    , 31.0766315  , 793.6841    , 0.1         , 3           , 10          , 0.1         , 0.1
-0.143401816, -0.1201549  , 9.793989    , 0.000825552444, 0.0003072298, -3.147434E-05, 3.1294682   , -0.0148947164, -2.28980589E-05, 921.4323    , 31.0766315  , 794.141357  , 0.11        , 3           , 11          , 0.0109544508, 0.0109544508
-0.140998438, -0.1196558  , 9.796327    , -0.000462894619, -0.0002991136, -0.0006858097, 3.12946343  , -0.0148916431, -1.60761483E-05, 921.4323    , 31.0766315  , 794.141357  , 0.12        , 3           , 12          , 0.174642488 , 0
-0.147658616, -0.118133366, 9.794266    , 0.000465102028, 0.000351065159, -0.00115889171, 3.129468    , -0.0148950145, -4.44450961E-06, 921.4111    , 31.1165237  , 794.141357  , 0.13        , 3           , 13          , 0           , 0
-0.147366911, -0.132098168, 9.79706     , 0.00038470907, -2.261225E-05, -0.000982249, 3.12947178  , -0.0148946662, 5.37536835E-06, 921.4111    , 31.1165237  , 794.141357  , 0.14        , 3           , 14          , 3.78798031E-05, -0.000193061453
-0.14132157 , -0.125407308, 9.799957    , 0.000148994877, 0.000192092819, -0.00127110234, 3.129473    , -0.0148964366, 1.81098512E-05, 921.4111    , 31.1165237  , 794.141357  , 0.15        , 3           , 15          , 0           , 3.13871824E-05
-0.134593025, -0.124585941, 9.792473    , 0.00017161  , -6.33222226E-06, -2.16316621E-05, 3.12947464  , -0.0148963705, 1.83253978E-05, 921.4111    , 31.1165237  , 794.141357  , 0.16        , 3           , 16          , 0           , 1.401298E-45
-0.146293491, -0.126725987, 9.788576    , -0.000111173358, 3.77118849E-05, -0.000149529951, 3.12947345  , -0.014896729, 1.9825291E-05, 921.4111    , 31.1165237  , 794.141357  , 0.17        , 3           , 20          , 0           , 0
-0.147300079, -0.119995728, 9.796118    , -2.913075E-05, -3.34167853E-05, -0.000464138953, 3.12947321  , -0.0148963388, 2.44626935E-05, 921.4111    , 31.1165237  , 794.1414    , 0.18        , 3           , 21          , 0           , 0
-0.14514187 , -0.116077557, 9.790083    , -8.980323E-05, -0.0006105456, -0.000193398257, 3.12947226  , -0.01489021 , 2.63226975E-05, 921.4111    , 31.1165237  , 794.1415    , 0.19        , 3           , 22          , 0           , 0
-0.151781768, -0.125126332, 9.79441     , -0.0001805468, -0.0005531354, -7.320676E-05, 3.12947035  , -0.0148846693, 2.69877128E-05, 921.4111    , 31.1165237  , 794.141541  , 0.2         , 3           , 40          , 0           , 0
-0.147981673, -0.117068507, 9.791594    , 9.971234E-05, 2.68244185E-05, -0.000117563352, 3.12945724  , -0.0148802642, 2.83793433E-05, 921.4111    , 31.1165237  , 794.236938  , 0.21        , 3           , 41          , 0           , 0
-0.148624986, -0.117019579, 9.79453     , -0.000187411686, -0.0002812086, 0.000291252945, 3.12945533  , -0.0148774879, 2.54326515E-05, 921.4111    , 31.1165237  , 794.237     , 0.22        , 3           , 42          , 0           , 0
-0.143799737, -0.121000864, 9.7983      , -0.000562545669, -0.000400850666, 0.000767072139, 3.12944984  , -0.0148735745, 1.77131824E-05, 921.4452    , 31.13986    , 794.237061  , 0.23        , 3           , 255         , 0           , 0
-0.152219743, -0.115288638, 9.791886    , -0.000201449162, -2.022316E-05, -0.000100286466, 3.1294477   , -0.01487336 , 1.87135975E-05, 921.4452    , 31.13986    , 794.2371    , 0.24        , 3           , 255         , 0           , 0
-0.146642178, -0.109933354, 9.793295    , 0.000156435388, -0.000290117, -4.35055881E-05, 3.12944937  , -0.0148704527, 1.91134277E-05, 921.4452    , 31.13986    , 794.2372    , 0.25        , 3           , 255         , 0           , 0
-0.149571538, -0.116668686, 9.795184    , -0.0004275414, 0.0001489919, 0.000160098542, 3.129445    , -0.0148719633, 1.75305213E-05, 921.4452    , 31.13986    , 794.237244  , 0.26        , 3           , 255         , 0           , 0
-0.148531914, -0.115960538, 9.794774    , 0.000264733768, 0.000487002835, 0.0009237991, 3.129448    , -0.0148769431, 8.351577E-06, 921.4452    , 31.13986    , 794.2373    , 0.27        , 3           , 255         , 0           , 0
-0.151138812, -0.119077936, 9.799902    , -0.000151098167, 9.884589E-05, 0.000100024168, 3.12944627  , -0.0148779433, 7.36332E-06 , 921.4452    , 31.13986    , 794.237366  , 0.28        , 3           , 255         , 0           , 0
-0.144921929, -0.112876251, 9.796908    , 0.000100210353, 5.135672E-05, -0.000147995277, 3.12944722  , -0.0148784388, 8.849541E-06, 921.4452    , 31.13986    , 794.2374    , 0.29        , 3           , 255         , 0           , 0
-0.136219412, -0.118891262, 9.797244    , -0.000129957189, -0.0005828876, -4.22496742E-05, 3.129446    , -0.0148726059, 9.201234E-06, 921.4452    , 31.13986    , 794.2375    , 0.3         , 3           , 255         , 0           , 0
-0.1469225  , -0.116416931, 9.79157448  , -0.000420823053, -0.0001873541, 0.000192033564, 3.12945     , -0.014874815, 7.135478E-06, 921.4452    , 31.13986    , 794.1664    , 0.31        , 3           , 255         , 0           , 0
-0.150406808, -0.108364962, 9.797098    , -0.000173493361, 9.41015242E-05, 6.549523E-05, 3.12944841  , -0.014875765, 6.491964E-06, 921.4452    , 31.13986    , 794.166443  , 0.32        , 3           , 255         , 0           , 0
-0.147325113, -0.11350558 , 9.794627    , -6.064264E-05, -3.710302E-05, 0.00031590063, 3.1294477   , -0.0148754315, 3.32841319E-06, 921.4806    , 31.1579075  , 794.1665    , 0.33        , 3           , 255         , 0           , 0
-0.141615108, -0.119058967, 9.795103    , -0.000290291151, -0.00014565498, -0.0006659688, 3.12944484  , -0.0148738949, 9.970497E-06, 921.4806    , 31.1579075  , 794.166565  , 0.34        , 3           , 255         , 0           , 0
-0.133271575, -0.109947309, 9.78817     , 0.000196747147, -4.23716265E-05, -0.000308041926, 3.12944674  , -0.0148734339, 1.304581E-05, 921.4806    , 31.1579075  , 794.1666    , 0.35        , 3           , 255         , 0           , 0
-0.1373157  , -0.101280823, 9.792918    , 0.000256169878, -0.000151661545, 0.0001837032, 3.12944937  , -0.01487194 , 1.11903382E-05, 921.4806    , 31.1579075  , 794.1667    , 0.36        , 3           , 255         , 0           , 0
-0.147937968, -0.109809086, 9.795491    , 0.000233289873, 0.000203821284, 3.234048E-05, 3.12945175  , -0.0148739824, 1.08916629E-05, 921.4806    , 31.1579075  , 794.166748  , 0.37        , 3           , 255         , 0           , 0
-0.135169238, -0.108086966, 9.795332    , 0.000143783822, 0.0001295965, 0.000150084466, 3.12945318  , -0.0148752956, 9.406541E-06, 921.4806    , 31.1579075  , 794.1668    , 0.38        , 3           , 255         , 0           , 0
-0.136244491, -0.106104873, 9.789301    , 0.0005208333, 0.000336208439, -0.000480264454, 3.12945819  , -0.014878599, 1.42500494E-05, 921.4806    , 31.1579075  , 794.1669    , 0.39        , 3           , 255         , 0           , 0
-0.14752841 , -0.113785483, 9.795054    , 0.00018241012, 0.000544745941, -4.814632E-05, 3.12946     , -0.0148840416, 1.47976207E-05, 921.4806    , 31.1579075  , 794.166931  , 0.4         , 3           , 255         , 0           , 0
-0.14030847 , -0.115513586, 9.797931    , -3.78891746E-05, 0.0003148398, 0.0005609303, 3.129489    , -0.0148756476, 8.791924E-06, 921.4806    , 31.1579075  , 794.050659  , 0.41        , 3           , 255         , 0           , 0
-0.143365145, -0.117088631, 9.79431248  , 0.000307629962, 7.125097E-05, 0.000609547365, 3.129492    , -0.0148764336, 2.705006E-06, 921.4806    , 31.1579075  , 794.0507    , 0.42        , 3           , 255         , 0           , 0
-0.15045166 , -0.110938512, 9.801069    , 0.000606208341, -0.000342988584, -6.62950551E-05, 3.12949824  , -0.0148729989, 3.32647E-06 , 921.5047    , 31.1700516  , 794.0508    , 0.43        , 3           , 255         , 0           , 0
-0.151727512, -0.119975604, 9.802225    , 0.000101557613, 0.000291924953, -0.000502089737, 3.1294992   , -0.0148758562, 8.38274354E-06, 921.5047    , 31.1700516  , 794.050842  , 0.44        , 3           , 255         , 0           , 0
-0.138454035, -0.122361794, 9.802521    , 0.000282633438, -4.018996E-05, -0.000483812182, 3.12950182  , -0.0148753952, 1.3216064E-05, 921.5047    , 31.1700516  , 794.0509    , 0.45        , 3           , 255         , 0           , 0
-0.138110623, -0.120439276, 9.798901    , -0.000113514579, 0.000133062189, -0.0005991862, 3.12950063  , -0.0148766534, 1.92241023E-05, 921.5047    , 31.1700516  , 794.050964  , 0.46        , 3           , 255         , 0           , 0
-0.14929162 , -0.124361709, 9.794294    , 0.000151086118, 0.000428426429, -0.0003919456, 3.129502    , -0.01488089 , 2.319541E-05, 921.5047    , 31.1700516  , 794.051     , 0.47        , 3           , 255         , 0           , 0
-0.14044109 , -0.117555425, 9.796571    , 0.000224985677, -1.91995787E-05, -5.21512047E-05, 3.12950444  , -0.0148806926, 2.3714616E-05, 921.5047    , 31.1700516  , 794.0511    , 0.48        , 3           , 255         , 0           , 0
-0.142831951, -0.121855721, 9.79865     , 0.000142769582, -7.294948E-06, -0.000287459, 3.12950563  , -0.0148805846, 2.65883627E-05, 921.5047    , 31.1700516  , 794.051147  , 0.49        , 3           , 255         , 0           , 0
-0.145422384, -0.114921786, 9.797129    , 0.000313442026, 0.0003921906, 0.000418891141, 3.129509    , -0.0148845566, 2.24468E-05 , 921.5047    , 31.1700516  , 794.0512    , 0.5         , 3           , 255         , 0           , 0
-0.148554966, -0.119171143, 9.792407    , 2.31223275E-05, 0.00038213178, 8.42446752E-05, 3.12950921  , -0.0148839522, 2.16510871E-05, 921.5047    , 31.1700516  , 793.9363    , 0.51        , 3           , 255         , 0           , 0
-0.151060343, -0.122279838, 9.793485    , -8.11706559E-05, -7.77778041E-05, 0.000546614232, 3.1295085   , -0.01488324 , 1.61754815E-05, 921.5047    , 31.1700516  , 793.93634   , 0.52        , 3           , 255         , 0           , 0
-0.1476112  , -0.115875319, 9.798803    , -0.00033200442, -3.50568444E-05, 0.0002804802, 3.12950516  , -0.014882924, 1.3366418E-05, 921.4663    , 31.176157   , 793.9364    , 0.53        , 3           , 255         , 0           , 0
-0.146672755, -0.118597582, 9.794466    , 0.000104363527, 0.0002650238, 0.0008453317, 3.12950635  , -0.0148856752, 4.945019E-06, 921.4663    , 31.176157   , 793.936462  , 0.54        , 3           , 255         , 0           , 0
-0.149694964, -0.121784173, 9.796995    , 0.001061587 , 0.000439673138, -1.46476887E-05, 3.12951684  , -0.0148900682, 5.144614E-06, 921.4663    , 31.176157   , 793.9365    , 0.55        , 3           , 255         , 0           , 0
-0.146616623, -0.125379771, 9.793448    , 0.000240300418, 0.000384900428, -0.000182436444, 3.12951922  , -0.014893895, 7.015485E-06, 921.4663    , 31.176157   , 793.9366    , 0.56        , 3           , 255         , 0           , 0
-0.1444703  , -0.123973154, 9.797218    , 9.882511E-05, 5.7141704E-05, 0.000700532866, 3.12952042  , -0.0148945516, 1.69621384E-08, 921.4663    , 31.176157   , 793.936646  , 0.57        , 3           , 255         , 0           , 0
-0.139877245, -0.120514549, 9.798571    , 6.05805E-05 , -0.000492516963, -0.000850504264, 3.129521    , -0.0148895262, 8.46268E-06 , 921.4663    , 31.176157   , 793.9367    , 0.58        , 3           , 255         , 0           , 0
-0.146468431, -0.110124551, 9.795877    , -0.000306010916, 9.783068E-05, -0.0005656232, 3.12951779  , -0.0148904342, 1.41308E-05 , 921.4663    , 31.176157   , 793.936768  , 0.59        , 3           , 255         , 0           , 0
-0.147570685, -0.112146057, 9.793275    , 7.31936743E-05, 0.00013761934, -0.0003715933, 3.12951851  , -0.014891766, 1.78634018E-05, 921.4663    , 31.176157   , 793.9368    , 0.6         , 3           , 255         , 0           , 0
-0.150552019, -0.124718964, 9.795671    , -6.07221918E-05, -0.00056937593, 0.000402734324, 3.129516    , -0.0148890214, 1.37953484E-05, 921.4663    , 31.176157   , 793.9192    , 0.61        , 3           , 255         , 0           , 0
-0.145137265, -0.116264746, 9.799447    , -0.000235948522, -6.23790838E-05, -0.0009927229, 3.1295135   , -0.01488828 , 2.37151762E-05, 921.4663    , 31.176157   , 793.91925   , 0.62        , 3           , 255         , 0           , 0
-0.148986816, -0.115656093, 9.791263    , -0.0006692363, 0.000221115522, -0.00044098057, 3.12950659  , -0.0148904361, 2.81517478E-05, 921.4755    , 31.1839581  , 793.9193    , 0.63        , 3           , 255         , 0           , 0
-0.1451852  , -0.1211582  , 9.80176     , -3.875384E-05, 9.193507E-06, -8.170346E-05, 3.12950635  , -0.014890518, 2.8969911E-05, 921.4755    , 31.1839581  , 793.9194    , 0.64        , 3           , 255         , 0           , 0
-0.145724446, -0.119653523, 9.80195     , 8.909058E-05, 0.000168673476, -0.000347577065, 3.129507    , -0.0148921618, 3.2466105E-05, 921.4755    , 31.1839581  , 793.919434  , 0.65        , 3           , 255         , 0           , 0
-0.145481065, -0.11913453 , 9.80275     , 0.0006130648, -0.000114855327, -9.36455763E-05, 3.12951326  , -0.0148910023, 3.33886928E-05, 921.4755    , 31.1839581  , 793.9195    , 0.66        , 3           , 255         , 0           , 0
-0.148431972, -0.122862436, 9.788888    , 0.000198787879, 5.72490244E-05, -0.000179721043, 3.12951517  , -0.0148915527, 3.51928356E-05, 921.4755    , 31.1839581  , 793.9196    , 0.67        , 3           , 255         , 0           , 0
-0.144628808, -0.115810573, 9.78712749  , 9.77730961E-05, -3.99922865E-05, -0.000207209174, 3.12951612  , -0.0148911271, 3.726013E-05, 921.4755    , 31.1839581  , 793.919739  , 0.68        , 3           , 255         , 0           , 0
-0.139998153, -0.109748483, 9.796643    , -5.1586092E-05, 2.5115005E-06, 0.0001853351, 3.12951565  , -0.0148911746, 3.5407058E-05, 921.4755    , 31.1839581  , 793.919861  , 0.69        , 3           , 255         , 0           , 0
-0.14176093 , -0.117131755, 9.789069    , 0.0003632058, -0.0003004072, 0.000449326646, 3.12951946  , -0.0148882251, 3.087746E-05, 921.4755    , 31.1839581  , 793.92      , 0.7         , 3           , 255         , 0           , 0
-0.14178364 , -0.115657806, 9.795184    , 1.3959685E-05, -0.000115755465, 7.273613E-05, 3.12952     , -0.0148862228, 3.012862E-05, 921.4755    , 31.1839581  , 793.8946    , 0.71        , 3           , 255         , 0           , 0
-0.146007687, -0.114357091, 9.793544    , 0.000340193015, 3.74493247E-05, 0.00024114782, 3.12952352  , -0.014886626, 2.772162E-05, 921.4755    , 31.1839581  , 793.894653  , 0.72        , 3           , 255         , 0           , 0
-0.152018234, -0.111606956, 9.791317    , 2.48668184E-05, 0.000312794262, 0.000297343417, 3.12952375  , -0.0148897916, 2.4785897E-05, 921.440247  , 31.1861286  , 793.8947    , 0.73        , 3           , 255         , 0           , 0
-0.149265423, -0.1090976  , 9.792486    , -0.000155648115, -0.000120262019, -0.000126181709, 3.129522    , -0.0148885744, 2.6033209E-05, 921.440247  , 31.1861286  , 793.8948    , 0.74        , 3           , 255         , 0           , 0
-0.139806479, -0.104832008, 9.792303    , -0.000222417977, -0.000392598333, 0.0005869274, 3.12952     , -0.01488472 , 2.01164621E-05, 921.440247  , 31.1861286  , 793.894836  , 0.75        , 3           , 255         , 0           , 0
-0.138716221, -0.101794243, 9.797752    , -0.000655324664, -0.0001929225, 0.000570579665, 3.1295135   , -0.01488286 , 1.4387283E-05, 921.440247  , 31.1861286  , 793.8949    , 0.76        , 3           , 255         , 0           , 0
-0.143417627, -0.111389875, 9.78910351  , 4.97002075E-05, 9.52130649E-05, 0.0003199826, 3.12951422  , -0.01488385 , 1.119891E-05, 921.440247  , 31.1861286  , 793.895     , 0.77        , 3           , 255         , 0           , 0
-0.141238719, -0.115420796, 9.7976      , -0.000384002837, 0.000427618274, 0.0002481091, 3.1295104   , -0.0148881562, 8.769447E-06, 921.440247  , 31.1861286  , 793.895142  , 0.78        , 3           , 255         , 0           , 0
-0.145094976, -0.116401754, 9.793965    , -2.19014128E-05, 4.89092345E-05, -0.0001437634, 3.12951016  , -0.0148886275, 1.02130043E-05, 921.440247  , 31.1861286  , 793.895264  , 0.79        , 3           , 255         , 0           , 0
-0.137271941, -0.108830154, 9.794278    , 0.0006799943, 0.000249468285, -0.000255640916, 3.12951684  , -0.0148910908, 1.27995736E-05, 921.440247  , 31.1861286  , 793.8954    , 0.8         , 3           , 255         , 0           , 0
-0.1440374  , -0.11537721 , 9.79337     , -0.0002759676, -2.49696459E-05, -9.200949E-05, 3.12953639  , -0.0148836132, 1.33831763E-05, 921.440247  , 31.1861286  , 793.9198    , 0.81        , 3           , 255         , 0           , 0
-0.145068556, -0.114513241, 9.797463    , 2.00708055E-05, 0.000169906038, -0.0002479493, 3.12953663  , -0.0148852812, 1.588319E-05, 921.440247  , 31.1861286  , 793.9199    , 0.82        , 3           , 255         , 0           , 0
-0.147408858, -0.113091387, 9.783369    , 0.000521986047, -0.00050648296, -0.000209215214, 3.12954187  , -0.0148801962, 1.791432E-05, 921.441833  , 31.1920986  , 793.920044  , 0.83        , 3           , 255         , 0           , 0
-0.154937059, -0.122683182, 9.789183    , 8.884752E-05, 0.0004289411, -0.0003977323, 3.12954259  , -0.0148844346, 2.19433859E-05, 921.441833  , 31.1920986  , 793.920166  , 0.84        , 3           , 255         , 0           , 0
-0.153773233, -0.118142247, 9.787053    , 0.00023290806, 0.000211758437, -0.0005983344, 3.129545    , -0.01488648 , 2.79523265E-05, 921.441833  , 31.1920986  , 793.9203    , 0.85        , 3           , 255         , 0           , 0
-0.146635085, -0.121661186, 9.801669    , 9.165687E-05, 0.0002147245, -2.488252E-05, 3.129546    , -0.0148886247, 2.82270175E-05, 921.441833  , 31.1920986  , 793.9204    , 0.86        , 3           , 255         , 0           , 0
-0.142606944, -0.118754245, 9.799974    , 0.000596952043, 0.00024668625, 0.0008078826, 3.129552    , -0.0148911867, 2.0177793E-05, 921.441833  , 31.1920986  , 793.920532  , 0.87        , 3           , 255         , 0           , 0
-0.151224166, -0.122227214, 9.794898    , 0.000372899551, 0.000234302628, 0.000438611518, 3.1295557   , -0.0148935821, 1.58198327E-05, 921.441833  , 31.1920986  , 793.920654  , 0.88        , 3           , 255         , 0           , 0
-0.14946723 , -0.118873455, 9.791872    , -0.0001347429, 0.000328156748, -0.0003671147, 3.12955427  , -0.01489682 , 1.95305256E-05, 921.441833  , 31.1920986  , 793.9208    , 0.89        , 3           , 255         , 0           , 0
-0.138415992, -0.123963013, 9.795067    , 0.000480196817, 0.000213804611, -9.7339E-05 , 3.129559    , -0.0148989456, 2.0529671E-05, 921.441833  , 31.1920986  , 793.9209    , 0.9         , 3           , 255         , 0           , 0
-0.131824255, -0.123874046, 9.79978752  , 0.000112574591, 2.943317E-05, 8.328278E-05, 3.12955737  , -0.0149039505, 1.97421E-05 , 921.441833  , 31.1920986  , 793.93866   , 0.91        , 3           , 255         , 0           , 0
-0.139632061, -0.126388818, 9.79898548  , 0.000111707268, 0.00063490693, -0.0008379598, 3.12955832  , -0.0149102  , 2.81982375E-05, 921.441833  , 31.1920986  , 793.938843  , 0.92        , 3           , 255         , 0           , 0
-0.149545327, -0.1183712  , 9.782917    , -0.000194859269, 0.0002387646, -0.000239459929, 3.12955642  , -0.0149125569, 3.06216E-05 , 921.4572    , 31.1932526  , 793.939     , 0.93        , 3           , 255         , 0           , 0
-0.1461358  , -0.117461883, 9.79381752  , 0.000710690161, 0.000207742734, 2.77188847E-05, 3.12956357  , -0.0149146374, 3.03694051E-05, 921.4572    , 31.1932526  , 793.9392    , 0.94        , 3           , 255         , 0           , 0
-0.1434983  , -0.115116596, 9.793426    , 0.000156905575, -0.000105612271, -0.0007653944, 3.129565    , -0.01491349 , 3.80107522E-05, 921.4572    , 31.1932526  , 793.9394    , 0.95        , 3           , 255         , 0           , 0
-0.14713724 , -0.116854228, 9.787336    , -0.000258895947, -3.81353166E-05, -0.000778937363, 3.12956238  , -0.0149130151, 4.57956448E-05, 921.4572    , 31.1932526  , 793.9396    , 0.96        , 3           , 255         , 0           , 0
-0.1476985  , -0.109193824, 9.794711    , -0.000173188309, -0.000185511744, -0.000350495044, 3.12956047  , -0.014911117, 4.9278322E-05, 921.4572    , 31.1932526  , 793.939758  , 0.97        , 3           , 255         , 0           , 0
-0.149383992, -0.10942094 , 9.804637    , 0.000113272486, -3.17038357E-05, -0.0005878539, 3.12956166  , -0.01491073 , 5.51531339E-05, 921.4572    , 31.1932526  , 793.939941  , 0.98        , 3           , 255         , 0           , 0
-0.146737486, -0.1046731  , 9.79325     , 0.000248373137, -0.000327947142, -0.000397333468, 3.129564    , -0.014907402, 5.90870659E-05, 921.4572    , 31.1932526  , 793.9401    , 0.99        , 3           , 255         , 0           , 0
-0.147063956, -0.113338925, 9.795035    , 0.000156404465, -0.000318215345, 0.000395080657, 3.12956572  , -0.0149042681, 5.509793E-05, 921.4572    , 31.1932526  , 793.9403    , 1           , 3           , 0           , 6.47523642  , 100
-0.148475856, -0.118060336, 9.794528    , 0.000189876955, -5.750137E-05, 0.000213716063, 3.129574    , -0.0149003174, 5.28569726E-05, 921.4572    , 31.1932526  , 793.937866  , 1.01        , 3           , 1           , 0           , 0
-0.1477268  , -0.114850007, 9.79733849  , 0.000139581825, 0.000262940943, 0.000127942127, 3.12957549  , -0.0149029614, 5.1609135E-05, 921.4572    , 31.1932526  , 793.938049  , 1.02        , 3           , 2           , 0           , 0
-0.152075678, -0.120837525, 9.796575    , 9.378373E-05, 0.000221659735, 0.000354583957, 3.12957644  , -0.01490522 , 4.808989E-05, 921.4847    , 31.1938629  , 793.938232  , 1.03        , 3           , 3           , 0           , 0
-0.149723947, -0.120028712, 9.793097    , 0.000106156571, -0.000205807621, 4.738343E-05, 3.1295774   , -0.0149031682, 4.75913148E-05, 921.4847    , 31.1938629  , 793.9384    , 1.04        , 3           , 4           , 0           , 0
-0.1405255  , -0.112697318, 9.793329    , -0.000425061735, -0.000196816749, 0.000125273829, 3.12957335  , -0.0149012152, 4.63149154E-05, 921.4847    , 31.1938629  , 793.9386    , 1.05        , 3           , 5           , 0           , 0
-0.145187289, -0.115380444, 9.79439449  , -5.04691343E-05, 0.000132655812, -5.40700858E-05, 3.12957287  , -0.0149025349, 4.687157E-05, 921.4847    , 31.1938629  , 793.9388    , 1.06        , 3           , 6           , 0           , 0
-0.1479379  , -0.115032852, 9.787082    , 0.0006327259, 0.0001422497, 0.00100042054, 3.12957931  , -0.0149040781, 3.68843175E-05, 921.4847    , 31.1938629  , 793.938965  , 1.07        , 3           , 7           , 0           , 0
-0.153527439, -0.102482222, 9.791451    , 0.00011692394, 0.000408482883, 0.000489391736, 3.1295805   , -0.0149082206, 3.20394065E-05, 921.4847    , 31.1938629  , 793.939148  , 1.08        , 3           , 8           , 5           , 5
-0.154289618, -0.120129205, 9.803419    , 0.000224514326, 0.0001367822, -0.0002165786, 3.12958264  , -0.0149095627, 3.42216481E-05, 921.4847    , 31.1938629  , 793.939331  , 1.09        , 3           , 9           , 5           , 0.1
-0.147085547, -0.1173869  , 9.793114    , -0.0002716671, -0.000196915527, -5.408623E-05, 3.12958     , -0.0149075864, 3.47388559E-05, 921.4847    , 31.1938629  , 793.9395    , 1.1         , 3           , 10          , 0.1         , 0.1
-0.153091133, -0.111965455, 9.793363    , -0.000122998332, -5.07001678E-05, 0.000251544145, 3.12958431  , -0.0149142928, 3.21363477E-05, 921.4847    , 31.1938629  , 793.9085    , 1.11        , 3           , 11          , 0.009368178 , 0.0093681775
-0.148774311, -0.117653534, 9.786651    , -0.000256786618, -0.000206990153, 0.000723555044, 3.12958169  , -0.0149123091, 2.48758242E-05, 921.4847    , 31.1938629  , 793.9086    , 1.12        , 3           , 12          , 0.174642846 , 0
-0.1443619  , -0.117875949, 9.797008    , 0.0005548439, -0.000252487836, -0.000170401836, 3.12958717  , -0.0149097638, 2.65495528E-05, 921.4902    , 31.1950169  , 793.908752  , 1.13        , 3           , 13          , 0           , 0
-0.143252209, -0.11781697 , 9.787232    , -0.000104836829, 0.000459892035, 0.0005763444, 3.12958622  , -0.0149144325, 2.084125E-05, 921.4902    , 31.1950169  , 793.9089    , 1.14        , 3           , 14          , 3.78388759E-05, -0.0001930601
-0.1477935  , -0.113781549, 9.793086    , 0.000394625415, 0.000261216366, -2.86929153E-05, 3.12959027  , -0.01491704 , 2.11595434E-05, 921.4902    , 31.1950169  , 793.909     , 1.15        , 3           , 15          , 0           , 3.13865858E-05
-0.159974322, -0.112986229, 9.798413    , 0.000459477946, -9.589437E-05, -0.0007018903, 3.1295948   , -0.0149159972, 2.81670418E-05, 921.4902    , 31.1950169  , 793.9091    , 1.16        , 3           , 16          , 0           , 1.401298E-45
-0.1464944  , -0.121930286, 9.805904    , 3.74340379E-06, -3.95451934E-05, -0.000251024059, 3.1295948   , -0.0149155715, 3.06725742E-05, 921.4902    , 31.1950169  , 793.909241  , 1.17        , 3           , 20          , 0           , 0
-0.146316379, -0.110849366, 9.804645    , -0.000165743113, -8.171909E-05, -0.000175329333, 3.12959313  , -0.0149147334, 3.241609E-05, 921.4902    , 31.1950169  , 793.909363  , 1.18        , 3           , 21          , 0           , 0
-0.149971053, -0.11556232 , 9.799182    , -8.201216E-05, -9.051846E-05, 0.000196422086, 3.12959218  , -0.0149138514, 3.044098E-05, 921.4902    , 31.1950169  , 793.9095    , 1.19        , 3           , 22          , 0           , 0
-0.141977221, -0.114794053, 9.799739    , -0.000141983779, 0.000343881373, 2.23242932E-05, 3.12959075  , -0.0149172936, 3.0259007E-05, 921.4902    , 31.1950169  , 793.9096    , 1.2         , 3           , 40          , 0           , 0
-0.150503546, -0.124564007, 9.792754    , 0.0004437323, 0.000228963792, -0.000124809216, 3.1296      , -0.01492433 , 3.14625759E-05, 921.4902    , 31.1950169  , 793.8768    , 1.21        , 3           , 41          , 0           , 0
-0.15147154 , -0.120417632, 9.800421    , 9.446734E-05, -4.50170774E-06, -0.0003623586, 3.129601    , -0.01492424 , 3.50856753E-05, 921.4902    , 31.1950169  , 793.876831  , 1.22        , 3           , 42          , 0           , 0
-0.143836066, -0.111344896, 9.785257    , 0.0005243524, -0.000433343725, -0.00066240743, 3.129606    , -0.0149198277, 4.16579E-05 , 921.4663    , 31.1996975  , 793.8769    , 1.23        , 3           , 255         , 0           , 0
-0.139002547, -0.116057895, 9.792241    , -3.268776E-05, -2.38159409E-05, -0.000728813931, 3.12960577  , -0.0149195017, 4.89432823E-05, 921.4663    , 31.1996975  , 793.876953  , 1.24        , 3           , 255         , 0           , 0
-0.138046086, -0.125097066, 9.786589    , -0.000422322046, 0.000102405036, -0.000129810782, 3.12960148  , -0.01492051 , 5.025368E-05, 921.4663    , 31.1996975  , 793.877     , 1.25        , 3           , 255         , 0           , 0
-0.145859614, -0.119296253, 9.799963    , -0.000224369767, -0.000270152959, -0.0001806834, 3.129599    , -0.0149177881, 5.202814E-05, 921.4663    , 31.1996975  , 793.8771    , 1.26        , 3           , 255         , 0           , 0
-0.15010491 , -0.121151961, 9.7967      , -7.37226437E-05, -0.000360860984, -0.000303895067, 3.12959838  , -0.0149141438, 5.50238547E-05, 921.4663    , 31.1996975  , 793.877136  , 1.27        , 3           , 255         , 0           , 0
-0.131249428, -0.12167982 , 9.799604    , -9.710949E-05, 4.35415E-05 , -0.0001788196, 3.12959743  , -0.0149145573, 5.68172982E-05, 921.4663    , 31.1996975  , 793.8772    , 1.28        , 3           , 255         , 0           , 0
-0.135650739, -0.117097929, 9.802023    , 1.92700136E-05, -0.00018923133, -0.000649946742, 3.12959743  , -0.0149125857, 6.329416E-05, 921.4663    , 31.1996975  , 793.877258  , 1.29        , 3           , 255         , 0           , 0
-0.144747376, -0.122321248, 9.798207    , 0.00021404383, -0.000333050353, 0.000187121012, 3.12959957  , -0.0149092814, 6.138297E-05, 921.4663    , 31.1996975  , 793.8773    , 1.3         , 3           , 255         , 0           , 0
-0.15171352 , -0.121253692, 9.80014     , -9.496318E-06, -6.280132E-05, 0.000319338142, 3.12959361  , -0.0149011286, 5.827063E-05, 921.4663    , 31.1996975  , 793.8726    , 1.31        , 3           , 255         , 0           , 0
-0.144836619, -0.130836964, 9.790701    , 0.000102811449, -0.00028441014, 0.00033426506, 3.1295948   , -0.0148983244, 5.48938151E-05, 921.4663    , 31.1996975  , 793.8727    , 1.32        , 3           , 255         , 0           , 0
-0.14530769 , -0.132260039, 9.795401    , 8.707402E-05, -2.88378214E-06, 0.0004399108, 3.12959576  , -0.0148983477, 5.049429E-05, 921.434448  , 31.1989517  , 793.872742  , 1.33        , 3           , 255         , 0           , 0
-0.147432849, -0.11781963 , 9.795418    , 0.000689417531, 3.766286E-05, 0.000168150378, 3.12960267  , -0.0148987481, 4.88172918E-05, 921.434448  , 31.1989517  , 793.8728    , 1.34        , 3           , 255         , 0           , 0
-0.145081192, -0.1122144  , 9.800273    , 0.000139523079, 0.000209045247, -0.000376879965, 3.12960386  , -0.0149007905, 5.261121E-05, 921.434448  , 31.1989517  , 793.872864  , 1.35        , 3           , 255         , 0           , 0
-0.139852256, -0.122415245, 9.800833    , 0.0006863353, 0.0001329136, -0.0008067809, 3.12961078  , -0.0149020236, 6.0695078E-05, 921.434448  , 31.1989517  , 793.8729    , 1.36        , 3           , 255         , 0           , 0
-0.150338456, -0.11837206 , 9.800459    , 0.000602475 , -0.000106142863, -0.000579667452, 3.1296165   , -0.014900892, 6.6479115E-05, 921.434448  , 31.1989517  , 793.873     , 1.37        , 3           , 255         , 0           , 0
-0.144850448, -0.120640375, 9.794401    , 0.000211008883, -0.000199130242, -0.000288856158, 3.12961864  , -0.0148988673, 6.934387E-05, 921.434448  , 31.1989517  , 793.873047  , 1.38        , 3           , 255         , 0           , 0
-0.144505858, -0.115838885, 9.791754    , -0.000339528953, 2.49473233E-05, 9.139018E-05, 3.12961531  , -0.0148991281, 6.84329352E-05, 921.434448  , 31.1989517  , 793.8731    , 1.39        , 3           , 255         , 0           , 0
-0.147695392, -0.121571161, 9.793831    , 0.000183753058, 0.000339433143, 0.000428947824, 3.12961721  , -0.0149025721, 6.418405E-05, 921.434448  , 31.1989517  , 793.873169  , 1.4         , 3           , 255         , 0           , 0
-0.141070515, -0.124677137, 9.788847    , 0.0005126965, 0.0005243809, -0.000182626347, 3.12961364  , -0.0149081815, 6.620195E-05, 921.434448  , 31.1989517  , 793.902     , 1.41        , 3           , 255         , 0           , 0
-0.142581984, -0.122831419, 9.794317    , 0.0001157079, 0.000167926148, -4.192808E-05, 3.12961483  , -0.014909856, 6.66413544E-05, 921.434448  , 31.1989517  , 793.902161  , 1.42        , 3           , 255         , 0           , 0
-0.146609217, -0.1181583  , 9.797701    , -0.000433026173, 0.00011754156, -0.000170778992, 3.12961054  , -0.0149110109, 6.83632461E-05, 921.4482    , 31.1996975  , 793.902344  , 1.43        , 3           , 255         , 0           , 0
-0.143040568, -0.119269647, 9.797411    , -0.000175522524, -0.000151255692, -0.000102174788, 3.12960863  , -0.0149094854, 6.936688E-05, 921.4482    , 31.1996975  , 793.9025    , 1.44        , 3           , 255         , 0           , 0
-0.150593445, -0.114031553, 9.795805    , -0.000107970882, -7.83399737E-05, -0.00031124783, 3.12960744  , -0.0149086658, 7.247002E-05, 921.4482    , 31.1996975  , 793.9027    , 1.45        , 3           , 255         , 0           , 0
-0.147648677, -0.102666929, 9.793443    , -0.000498597568, -0.00014079336, -0.000381723279, 3.12960243  , -0.014907212, 7.627042E-05, 921.4482    , 31.1996975  , 793.9029    , 1.46        , 3           , 255         , 0           , 0
-0.152008414, -0.111283526, 9.787824    , 0.000404680584, -0.0001214786, -0.0005413984, 3.12960649  , -0.0149059324, 8.166993E-05, 921.4482    , 31.1996975  , 793.9031    , 1.47        , 3           , 255         , 0           , 0
-0.15038085 , -0.116992652, 9.798586    , -0.000198065012, -5.36963635E-05, -0.00064140273, 3.12960434  , -0.0149053186, 8.807761E-05, 921.4482    , 31.1996975  , 793.903259  , 1.48        , 3           , 255         , 0           , 0
-0.151989609, -0.121256277, 9.801237    , 0.0007930647, 0.0006136683, -0.0009898097, 3.12961221  , -0.014911334, 9.80494E-05 , 921.4482    , 31.1996975  , 793.903442  , 1.49        , 3           , 255         , 0           , 0
-0.1463218  , -0.117870733, 9.793706    , 0.000845484436, 0.0002258418, -0.00053926796, 3.12962055  , -0.01491353 , 0.00010346921, 921.4482    , 31.1996975  , 793.9036    , 1.5         , 3           , 255         , 0           , 0
-0.148499891, -0.113986537, 9.793032    , 0.000189134124, 0.000314251578, -0.0009378483, 3.12962341  , -0.0149193471, 0.000112868045, 921.4482    , 31.1996975  , 793.9151    , 1.51        , 3           , 255         , 0           , 0
-0.145150453, -0.115268663, 9.794284    , 0.000510590558, -0.000128597065, -0.000692017551, 3.12962842  , -0.0149179818, 0.000119772943, 921.4482    , 31.1996975  , 793.915344  , 1.52        , 3           , 255         , 0           , 0
-0.150347233, -0.112955011, 9.805376    , -0.000266502117, 0.000180770337, -0.0002534809, 3.1296258   , -0.0149197578, 0.000122329409, 921.448059  , 31.2013264  , 793.9156    , 1.53        , 3           , 255         , 0           , 0
-0.1466776  , -0.113335133, 9.793418    , 0.000138719362, -0.000136543109, 0.000640020648, 3.12962723  , -0.0149184689, 0.000115912779, 921.448059  , 31.2013264  , 793.915833  , 1.54        , 3           , 255         , 0           , 0
-0.145979211, -0.119637273, 9.81168652  , 0.0001568092, -0.000282606459, 0.000330107723, 3.129629    , -0.0149156824, 0.000112577844, 921.448059  , 31.2013264  , 793.9161    , 1.55        , 3           , 255         , 0           , 0
-0.151181549, -0.121114455, 9.804823    , -0.000165402162, 4.63473843E-05, 0.0002276579, 3.12962723  , -0.0149161732, 0.000110306777, 921.448059  , 31.2013264  , 793.9163    , 1.56        , 3           , 255         , 0           , 0
-0.146023   , -0.106463194, 9.796237    , 0.00052214996, 0.000304361951, -0.0006747069, 3.12963247  , -0.0149191348, 0.000117090363, 921.448059  , 31.2013264  , 793.916565  , 1.57        , 3           , 255         , 0           , 0
-0.139857024, -0.11078231 , 9.793387    , 0.000221348862, 0.00026098534, -0.0009812596, 3.12963438  , -0.0149216289, 0.000126934319, 921.448059  , 31.2013264  , 793.9168    , 1.58        , 3           , 255         , 0           , 0
-0.138833329, -0.110429525, 9.793999    , 5.91463177E-05, 0.0005884791, -0.000967354048, 3.12963486  , -0.0149273956, 0.000136678354, 921.448059  , 31.2013264  , 793.917053  , 1.59        , 3           , 255         , 0           , 0
-0.145642012, -0.118027888, 9.79797649  , 1.58707116E-05, 0.00087564264, 0.000334104 , 3.129635    , -0.014936191, 0.000133442 , 921.448059  , 31.2013264  , 793.9173    , 1.6         , 3           , 255         , 0           , 0
-0.1487926  , -0.120119855, 9.801398    , 0.000294177036, 0.000253500242, -4.439934E-05, 3.129644    , -0.0149380229, 0.000133828915, 921.448059  , 31.2013264  , 793.927551  , 1.61        , 3           , 255         , 0           , 0
-0.144629925, -0.120558523, 9.808448    , 2.32653838E-05, -0.000495319, -0.0002877116, 3.12964416  , -0.0149330348, 0.0001366469, 921.448059  , 31.2013264  , 793.927856  , 1.62        , 3           , 255         , 0           , 0
-0.150511116, -0.124411426, 9.782183    , -0.0002907519, 0.00018477469, 0.00014123779, 3.12964129  , -0.0149348993, 0.000135256589, 921.443237  , 31.20309    , 793.928162  , 1.63        , 3           , 255         , 0           , 0
-0.149221867, -0.117485479, 9.786095    , -0.000215237553, 0.000464750017, 0.0003410619, 3.12963915  , -0.0149395885, 0.00013190147, 921.443237  , 31.20309    , 793.928467  , 1.64        , 3           , 255         , 0           , 0
-0.148695529, -0.1169858  , 9.796091    , 2.69876182E-06, 8.480114E-06, -0.0006562143, 3.129639    , -0.0149395941, 0.0001384647, 921.443237  , 31.20309    , 793.9288    , 1.65        , 3           , 255         , 0           , 0
-0.143468484, -0.1267525  , 9.811015    , 6.34265743E-05, 0.000245667674, -0.000507939665, 3.12963963  , -0.01494199 , 0.000143573561, 921.443237  , 31.20309    , 793.929138  , 1.66        , 3           , 255         , 0           , 0
-0.147426754, -0.121761382, 9.804737    , -0.000482976669, 0.000355926371, -0.0003760784, 3.12963462  , -0.0149455033, 0.000147376952, 921.443237  , 31.20309    , 793.9295    , 1.67        , 3           , 255         , 0           , 0
-0.150314391, -0.124473736, 9.794092    , 2.46225027E-05, 0.0005596077, 0.000240736321, 3.12963486  , -0.0149511266, 0.000145036465, 921.443237  , 31.20309    , 793.9299    , 1.68        , 3           , 255         , 0           , 0
-0.146297723, -0.123099126, 9.787488    , 0.0001366976, -9.72021953E-05, 0.000305681344, 3.12963629  , -0.0149501907, 0.000141967976, 921.443237  , 31.20309    , 793.930237  , 1.69        , 3           , 255         , 0           , 0
-0.134740084, -0.122580789, 9.793481    , 8.520896E-05, -0.000101861573, -9.01253661E-05, 3.12963724  , -0.0149491625, 0.000142857083, 921.443237  , 31.20309    , 793.9306    , 1.7         , 3           , 255         , 0           , 0
-0.133104607, -0.125180349, 9.79293251  , 0.000179371855, 8.298804E-05, 0.000275910919, 3.12962914  , -0.0149500929, 0.000140254357, 921.443237  , 31.20309    , 793.9452    , 1.71        , 3           , 255         , 0           , 0
-0.146902367, -0.126244754, 9.7980175   , 4.6807465E-05, 0.000532096 , 0.0006605588, 3.12962985  , -0.0149554927, 0.0001337123, 921.443237  , 31.20309    , 793.9456    , 1.72        , 3           , 255         , 0           , 0
-0.139793679, -0.119372986, 9.794967    , -0.000260142959, 0.000164398909, 0.000643625041, 3.12962723  , -0.0149572128, 0.000127295614, 921.441     , 31.2010536  , 793.946045  , 1.73        , 3           , 255         , 0           , 0
-0.137022957, -0.12514995 , 9.794428    , 0.000198689231, -1.0686068E-05, -0.000235991116, 3.12962937  , -0.0149570778, 0.000129654276, 921.441     , 31.2010536  , 793.9465    , 1.74        , 3           , 255         , 0           , 0
-0.147483   , -0.125888467, 9.796292    , -0.000117556672, -0.0006191615, -0.000497881731, 3.129628    , -0.0149508258, 0.000134559115, 921.441     , 31.2010536  , 793.9469    , 1.75        , 3           , 255         , 0           , 0
-0.1461797  , -0.1187196  , 9.790878    , -0.0003777701, -0.000382070371, 0.000687828753, 3.12962437  , -0.0149470884, 0.000127634979, 921.441     , 31.2010536  , 793.9473    , 1.76        , 3           , 255         , 0           , 0
-0.15197508 , -0.122964777, 9.791777    , 0.000407058367, 0.0001554009, 0.000467791047, 3.12962842  , -0.0149486978, 0.000122975587, 921.441     , 31.2010536  , 793.947754  , 1.77        , 3           , 255         , 0           , 0
-0.1525285  , -0.123189308, 9.800975    , -0.000306462549, -0.0002153986, 0.000591259042, 3.12962556  , -0.0149466144, 0.00011703714, 921.441     , 31.2010536  , 793.9482    , 1.78        , 3           , 255         , 0           , 0
-0.149951309, -0.11796017 , 9.79923248  , -0.000176790549, 1.17219024E-05, 0.000600079133, 3.129624    , -0.0149468025, 0.000111037662, 921.441     , 31.2010536  , 793.9486    , 1.79        , 3           , 255         , 0           , 0
-0.1588287  , -0.1261529  , 9.793366    , 0.000212615909, 0.0006133366, -0.0004053361, 3.1296258   , -0.0149528868, 0.00011516449, 921.441     , 31.2010536  , 793.949036  , 1.8         , 3           , 255         , 0           , 0
-0.1446674  , -0.119820237, 9.793401    , 8.67966155E-05, -0.000139377167, -0.000146959923, 3.12961388  , -0.0149512207, 0.000116809337, 921.441     , 31.2010536  , 793.9646    , 1.81        , 3           , 255         , 0           , 0
-0.140554056, -0.120657243, 9.79545     , -7.036253E-05, 0.000353077077, 0.000741943542, 3.1296134   , -0.0149548408, 0.000109432076, 921.441     , 31.2010536  , 793.965149  , 1.82        , 3           , 255         , 0           , 0
-0.145296246, -0.1207871  , 9.80202     , -0.000180272909, 0.000120601544, 0.000651114737, 3.12961149  , -0.0149561251, 0.000102935286, 921.4603    , 31.2017326  , 793.9657    , 1.83        , 3           , 255         , 0           , 0
-0.152789116, -0.121166512, 9.793641    , -0.000241850124, 0.0003703808, -0.000670300331, 3.129609    , -0.0149597488, 0.000109682776, 921.4603    , 31.2017326  , 793.966248  , 1.84        , 3           , 255         , 0           , 0
-0.146349356, -0.11747025 , 9.797664    , -0.000179182622, -7.90501945E-05, -0.000360945764, 3.1296072   , -0.0149589153, 0.000113282818, 921.4603    , 31.2017326  , 793.9668    , 1.85        , 3           , 255         , 0           , 0
-0.1396066  , -0.11495427 , 9.788696    , 0.000414107548, -9.857956E-05, -4.07106963E-05, 3.12961149  , -0.0149579244, 0.000113678107, 921.4603    , 31.2017326  , 793.967346  , 1.86        , 3           , 255         , 0           , 0
-0.1441215  , -0.109351352, 9.782922    , -7.47087252E-05, -4.091524E-05, 9.690168E-05, 3.12961054  , -0.0149575267, 0.000112704169, 921.4603    , 31.2017326  , 793.9679    , 1.87        , 3           , 255         , 0           , 0
-0.148064956, -0.116649531, 9.79557     , -0.000732742657, -0.000204939744, 0.000379752339, 3.12960339  , -0.0149555234, 0.000108882021, 921.4603    , 31.2017326  , 793.968445  , 1.88        , 3           , 255         , 0           , 0
-0.146681249, -0.115389265, 9.806643    , 0.000280216569, 5.19691675E-05, -0.000247743854, 3.12960625  , -0.0149560133, 0.000111365727, 921.4603    , 31.2017326  , 793.969     , 1.89        , 3           , 255         , 0           , 0
-0.155442759, -0.117326573, 9.796089    , 0.00051494583, 5.00687747E-06, -8.23170849E-05, 3.12961125  , -0.0149560533, 0.000112189518, 921.4603    , 31.2017326  , 793.969543  , 1.9         , 3           , 255         , 0           , 0
-0.1551324  , -0.120724261, 9.785695    , 1.64777412E-05, -1.912177E-05, -0.000298455823, 3.12961149  , -0.0149554117, 0.000115170522, 921.4603    , 31.2017326  , 793.960449  , 1.91        , 3           , 255         , 0           , 0
-0.147523358, -0.123863056, 9.787825    , 0.000472044572, -3.82926373E-06, -9.867338E-05, 3.12961626  , -0.01495536 , 0.000116156822, 921.4603    , 31.2017326  , 793.960938  , 1.92        , 3           , 255         , 0           , 0
-0.140841186, -0.1140331  , 9.80076     , 0.000111316855, -0.000345141336, -0.0004809362, 3.12961721  , -0.01495185 , 0.000120924924, 921.4454    , 31.2059383  , 793.9614    , 1.93        , 3           , 255         , 0           , 0
-0.150736451, -0.111753747, 9.790979    , -0.000130667366, 5.90106647E-05, 4.785237E-05, 3.129616    , -0.0149524463, 0.000120453456, 921.4454    , 31.2059383  , 793.9619    , 1.94        , 3           , 255         , 0           , 0
-0.15448527 , -0.108677939, 9.793912    , 4.42848468E-05, 0.00032655627, -0.0003766832, 3.12961626  , -0.0149556678, 0.000124259459, 921.4454    , 31.2059383  , 793.9624    , 1.95        , 3           , 255         , 0           , 0
-0.1406682  , -0.114876531, 9.795388    , -3.11290059E-05, 0.000145002909, 0.00042083225, 3.129616    , -0.0149571681, 0.000120068442, 921.4454    , 31.2059383  , 793.9629    , 1.96        , 3           , 255         , 0           , 0
-0.14040044 , -0.121465445, 9.782237    , 0.000803127652, -0.000329759321, 0.0009664813, 3.12962413  , -0.0149539867, 0.000110363995, 921.4454    , 31.2059383  , 793.9634    , 1.97        , 3           , 255         , 0           , 0
-0.155851975, -0.115805686, 9.788716    , 0.000540501438, 0.0003241772, 0.00104341307, 3.12962985  , -0.0149573525, 9.99685E-05 , 921.4454    , 31.2059383  , 793.963867  , 1.98        , 3           , 255         , 0           , 0
-0.155250221, -0.1094514  , 9.80768     , 0.0007493282, 0.00051906443, 6.24709937E-05, 3.12963724  , -0.0149625493, 9.94058646E-05, 921.4454    , 31.2059383  , 793.964355  , 1.99        , 3           , 255         , 0           , 0
-0.1495736  , -0.1191118  , 9.81651     , 0.000320495747, 8.021931E-05, -0.00103889988, 3.12964034  , -0.01496323 , 0.000109804612, 921.4454    , 31.2059383  , 793.964844  , 2           , 3           , 0           , 7.47523642  , 200
-0.144614622, -0.118495807, 9.799942    , 0.0005448128, 0.000367515546, -0.0002753091, 3.12964869  , -0.0149723189, 0.0001125588, 921.4454    , 31.2059383  , 793.97406   , 2.01        , 3           , 1           , 0           , 0
-0.155452162, -0.10812372 , 9.786353    , 0.0006646934, 3.06547736E-05, 0.0006278608, 3.12965536  , -0.0149727  , 0.000106283762, 921.4454    , 31.2059383  , 793.9746    , 2.02        , 3           , 2           , 0           , 0
-0.143814608, -0.113709666, 9.77849     , 0.000418593816, -0.000203091346, 0.00055240636, 3.12965965  , -0.0149707338, 0.000100735386, 921.4062    , 31.2064819  , 793.975159  , 2.03        , 3           , 3           , 0           , 0
-0.143466771, -0.109001294, 9.784668    , -0.000689216366, 0.000176945032, -0.000216126355, 3.12965274  , -0.0149724782, 0.000102917787, 921.4062    , 31.2064819  , 793.9757    , 2.04        , 3           , 4           , 0           , 0
-0.143754914, -0.117163815, 9.794536    , -0.0006850204, -0.000266891846, -0.0005092765, 3.12964582  , -0.0149697484, 0.000107978754, 921.4062    , 31.2064819  , 793.976257  , 2.05        , 3           , 5           , 0           , 0
-0.14431867 , -0.112251237, 9.800438    , 0.0001244574, -0.0004128855, -0.000409561646, 3.129647    , -0.0149655715, 0.000112025111, 921.4062    , 31.2064819  , 793.9768    , 2.06        , 3           , 6           , 0           , 0
-0.1416105  , -0.11971581 , 9.789324    , 1.12263115E-05, -0.0001624433, 0.0001500003, 3.129647    , -0.0149639668, 0.000110505687, 921.4062    , 31.2064819  , 793.977356  , 2.07        , 3           , 7           , 0           , 0
-0.146249667, -0.113449156, 9.78604     , 4.471202E-05, -0.000215072723, 0.000145237165, 3.12964749  , -0.0149618322, 0.0001090276, 921.4062    , 31.2064819  , 793.9779    , 2.08        , 3           , 8           , 5           , 5
-0.1431992  , -0.106907748, 9.787997    , 0.000144581936, 0.000218392554, 0.000489211 , 3.12964916  , -0.0149640748, 0.000104161496, 921.4062    , 31.2064819  , 793.978455  , 2.09        , 3           , 9           , 5           , 0.1
-0.147967428, -0.1189388  , 9.797033    , 0.000189136059, 0.000221905488, 0.0004610563, 3.129651    , -0.0149663482, 9.957737E-05, 921.4062    , 31.2064819  , 793.979     , 2.1         , 3           , 10          , 0.1         , 0.1
-0.1374729  , -0.125776246, 9.800299    , 0.0007462753, 6.339887E-05, -0.000327302521, 3.12966752  , -0.0149636427, 0.000102721482, 921.4062    , 31.2064819  , 794.0349    , 2.11        , 3           , 11          , 0.008397664 , 0.008397663
-0.141670063, -0.124299407, 9.794516    , 0.000261311448, -0.0001837053, -0.0010589523, 3.12967014  , -0.0149616776, 0.000113289265, 921.4062    , 31.2064819  , 794.0358    , 2.12        , 3           , 12          , 0.174643889 , 0
-0.150611445, -0.122656   , 9.787016    , -0.0003089263, 0.000189160972, -7.36510556E-05, 3.129667    , -0.01496356 , 0.000114048344, 921.4243    , 31.2069569  , 794.036743  , 2.13        , 3           , 13          , 0           , 0
-0.147091448, -0.122101292, 9.789907    , -0.00028815784, -0.0003250948, -9.516059E-05, 3.129664    , -0.0149602983, 0.000114961185, 921.4243    , 31.2069569  , 794.037659  , 2.14        , 3           , 14          , 3.785957E-05, -0.000193063112
-0.136757165, -0.122348845, 9.797165    , 0.000146988212, -0.000143306155, -0.000510680955, 3.12966537  , -0.0149588054, 0.000120050987, 921.4243    , 31.2069569  , 794.0386    , 2.15        , 3           , 15          , 0           , 3.13868622E-05
-0.150438637, -0.117580391, 9.812724    , 0.000240835012, 7.210323E-05, -3.862788E-05, 3.12966776  , -0.0149595216, 0.000120445882, 921.4243    , 31.2069569  , 794.0395    , 2.16        , 3           , 16          , 0           , 1.401298E-45
-0.145177   , -0.117133282, 9.805781    , -0.000103524566, -0.000244960858, -0.0006791354, 3.12966681  , -0.0149569912, 0.000127208128, 921.4243    , 31.2069569  , 794.0404    , 2.17        , 3           , 20          , 0           , 0
-0.144234985, -0.120827392, 9.795199    , 0.0004909453, 0.000310147734, -0.0007045332, 3.12967157  , -0.0149600077, 0.00013429056, 921.4243    , 31.2069569  , 794.0413    , 2.18        , 3           , 21          , 0           , 0
-0.146333054, -0.126800865, 9.78006649  , -0.000262537971, -0.0001142362, -0.000371421746, 3.12966871  , -0.0149588222, 0.000137991214, 921.4243    , 31.2069569  , 794.042236  , 2.19        , 3           , 22          , 0           , 0
-0.150000572, -0.125849128, 9.785448    , -0.000339994818, -0.000131191191, 0.0005825786, 3.12966561  , -0.01495758 , 0.000132149682, 921.4243    , 31.2069569  , 794.043152  , 2.2         , 3           , 40          , 0           , 0
-0.1495615  , -0.12803261 , 9.789753    , -0.000465449528, -0.0002523512, 0.000184418517, 3.12964916  , -0.0149518549, 0.000130450659, 921.4243    , 31.2069569  , 794.0692    , 2.21        , 3           , 41          , 0           , 0
-0.146739125, -0.123918556, 9.796778    , 0.000118635238, -0.000194572523, 0.000128189364, 3.12965035  , -0.0149499243, 0.000129145512, 921.4243    , 31.2069569  , 794.0703    , 2.22        , 3           , 42          , 0           , 0
-0.139126033, -0.12720947 , 9.800525    , 0.000170701242, -0.000124403945, 6.55290642E-05, 3.129652    , -0.0149486884, 0.000128475353, 921.4802    , 31.2078381  , 794.0714    , 2.23        , 3           , 255         , 0           , 0
-0.140691966, -0.112639867, 9.8012085   , 0.000198453665, -0.000199260627, -0.000825245, 3.129654    , -0.0149465976, 0.000136704126, 921.4802    , 31.2078381  , 794.0725    , 2.24        , 3           , 255         , 0           , 0
-0.14221707 , -0.113686144, 9.785602    , -0.000641416, 0.000301744556, -9.135004E-05, 3.12964749  , -0.0149496039, 0.000137653682, 921.4802    , 31.2078381  , 794.0736    , 2.25        , 3           , 255         , 0           , 0
-0.1402225  , -0.116478845, 9.779887    , -0.0006195058, -1.85662066E-06, -8.165841E-05, 3.12964129  , -0.014949576, 0.000138470044, 921.4802    , 31.2078381  , 794.0747    , 2.26        , 3           , 255         , 0           , 0
-0.145700365, -0.118155763, 9.796899    , -0.000426058978, -0.000255801919, 0.000203111282, 3.129637    , -0.0149470428, 0.000136408329, 921.4802    , 31.2078381  , 794.0758    , 2.27        , 3           , 255         , 0           , 0
-0.146890581, -0.121124074, 9.811202    , 0.000274656224, 0.000259309949, 0.000388963468, 3.12963986  , -0.0149496822, 0.000132549627, 921.4802    , 31.2078381  , 794.0769    , 2.28        , 3           , 255         , 0           , 0
-0.146970525, -0.104771063, 9.804251    , 0.000420473632, -0.00059897 , -0.000182239761, 3.12964416  , -0.01494367 , 0.000134300484, 921.4802    , 31.2078381  , 794.078     , 2.29        , 3           , 255         , 0           , 0
-0.138365477, -0.09660788 , 9.797668    , 0.0008993495, -0.000101798505, 0.000749886152, 3.12965322  , -0.0149427429, 0.000126789368, 921.4802    , 31.2078381  , 794.0791    , 2.3         , 3           , 255         , 0           , 0
-0.142271966, -0.09631674 , 9.781439    , 0.0008555383, -8.774924E-05, -9.447748E-05, 3.129663    , -0.0149366409, 0.000127703272, 921.4802    , 31.2078381  , 794.028748  , 2.31        , 3           , 255         , 0           , 0
-0.154418871, -0.100142553, 9.792165    , 0.000283909641, 0.0004212677, -0.000571874669, 3.12966585  , -0.0149407852, 0.000133472364, 921.4802    , 31.2078381  , 794.029541  , 2.32        , 3           , 255         , 0           , 0
-0.15047653 , -0.09930687 , 9.785486    , -0.0001404286, 0.00018134393, -0.0007759677, 3.12966442  , -0.0149425045, 0.000141253782, 921.505     , 31.2070255  , 794.030334  , 2.33        , 3           , 255         , 0           , 0
-0.14478305 , -0.102829024, 9.809731    , 0.0003494955, 0.00015351914, -0.00046558032, 3.12966776  , -0.0149439834, 0.000145927974, 921.505     , 31.2070255  , 794.0311    , 2.34        , 3           , 255         , 0           , 0
-0.157779455, -0.10453137 , 9.800488    , 0.0005679231, 0.000163935983, -0.000700634962, 3.12967324  , -0.0149455387, 0.000152953973, 921.505     , 31.2070255  , 794.0319    , 2.35        , 3           , 255         , 0           , 0
-0.149867713, -0.116486773, 9.788179    , 2.68080439E-05, -7.833657E-05, 6.103904E-05, 3.12967348  , -0.0149447629, 0.000152334222, 921.505     , 31.2070255  , 794.0327    , 2.36        , 3           , 255         , 0           , 0
-0.14076224 , -0.119727768, 9.786571    , -0.00046929263, 0.000440581 , -0.0005019299, 3.12966871  , -0.0149491094, 0.000157406132, 921.505     , 31.2070255  , 794.0335    , 2.37        , 3           , 255         , 0           , 0
-0.1396069  , -0.128273681, 9.793797    , -0.000198965427, 0.000189886792, -0.00046728985, 3.12966681  , -0.0149509525, 0.000162101758, 921.505     , 31.2070255  , 794.0343    , 2.38        , 3           , 255         , 0           , 0
-0.153291032, -0.122074805, 9.800998    , -0.000309945259, -0.000125047518, -0.000533587649, 3.12966347  , -0.0149496384, 0.000167422768, 921.505     , 31.2070255  , 794.0351    , 2.39        , 3           , 255         , 0           , 0
-0.154110432, -0.12679112 , 9.807084    , 0.0003681968, -0.0002057926, -0.000108087828, 3.12966728  , -0.0149475671, 0.000168479135, 921.505     , 31.2070255  , 794.0359    , 2.4         , 3           , 255         , 0           , 0
-0.15207985 , -0.126702785, 9.80139351  , 0.000199075934, -0.000385883555, 7.056263E-05, 3.12967968  , -0.0149484314, 0.000167572929, 921.505     , 31.2070255  , 793.9576    , 2.41        , 3           , 255         , 0           , 0
-0.142415032, -0.128537789, 9.78566551  , -1.06540192E-05, 9.931072E-05, 0.0003657286, 3.12967944  , -0.014949468, 0.000163927412, 921.505     , 31.2070255  , 793.9579    , 2.42        , 3           , 255         , 0           , 0
-0.147934273, -0.112230316, 9.78904     , 0.000412486173, 0.000455311325, -0.000586042937, 3.12968349  , -0.0149539514, 0.000169842184, 921.4473    , 31.2086525  , 793.9582    , 2.43        , 3           , 255         , 0           , 0
-0.146389782, -0.114441454, 9.789346    , 0.000214334 , -0.0006044595, -0.000213052714, 3.12968564  , -0.0149478847, 0.000171900771, 921.4473    , 31.2086525  , 793.9585    , 2.44        , 3           , 255         , 0           , 0
-0.1489138  , -0.120053314, 9.805023    , 0.0004114066, -0.000242443624, 7.783481E-06, 3.12968969  , -0.0149454586, 0.000171794047, 921.4473    , 31.2086525  , 793.9588    , 2.45        , 3           , 255         , 0           , 0
-0.146737412, -0.104336157, 9.800869    , -9.662947E-05, 0.000265301816, 0.0003027103, 3.129689    , -0.0149481483, 0.000168798491, 921.4473    , 31.2086525  , 793.9591    , 2.46        , 3           , 255         , 0           , 0
-0.152258143, -0.110528424, 9.799737    , 0.000447577331, 1.90768624E-05, 0.00043718837, 3.12969351  , -0.0149483914, 0.000164428813, 921.4473    , 31.2086525  , 793.9594    , 2.47        , 3           , 255         , 0           , 0
-0.140781164, -0.119504549, 9.786479    , 0.000141235476, 0.0002122875, 0.0003123615, 3.129695    , -0.0149505511, 0.000161330419, 921.4473    , 31.2086525  , 793.9597    , 2.48        , 3           , 255         , 0           , 0
-0.142881125, -0.121439241, 9.786331    , -0.000384480576, 0.0004557533, 0.000292051263, 3.12969112  , -0.0149551434, 0.0001584641, 921.4473    , 31.2086525  , 793.96      , 2.49        , 3           , 255         , 0           , 0
-0.1412687  , -0.122025706, 9.791844    , 3.495814E-05, -0.000271761732, 0.000212546554, 3.12969136  , -0.014952451, 0.000156306269, 921.4473    , 31.2086525  , 793.9603    , 2.5         , 3           , 255         , 0           , 0
-0.1485247  , -0.122172631, 9.796618    , 0.000440731179, -6.687347E-05, 3.482663E-05, 3.129693    , -0.0149512934, 0.000155993737, 921.4473    , 31.2086525  , 793.968     , 2.51        , 3           , 255         , 0           , 0
-0.138611719, -0.128430024, 9.797827    , -0.000176217378, 0.0003007375, -0.0002804233, 3.12969112  , -0.0149542671, 0.000158833791, 921.4473    , 31.2086525  , 793.9684    , 2.52        , 3           , 255         , 0           , 0
-0.138386443, -0.129360765, 9.798567    , -0.000559378357, 0.0002809225, -0.0004088469, 3.1296854   , -0.0149570284, 0.000162955752, 921.461243  , 31.20906    , 793.96875   , 2.53        , 3           , 255         , 0           , 0
-0.14876613 , -0.129254788, 9.787947    , -0.0007006591, 0.000275373517, -8.310681E-05, 3.12967849  , -0.01495977 , 0.000163819641, 921.461243  , 31.20906    , 793.9691    , 2.54        , 3           , 255         , 0           , 0
-0.150214151, -0.127399653, 9.789012    , 0.000320288265, 0.000312134041, -0.000849570439, 3.12968159  , -0.0149627887, 0.000172352666, 921.461243  , 31.20906    , 793.9695    , 2.55        , 3           , 255         , 0           , 0
-0.146821231, -0.129486114, 9.792679    , 0.000543609145, 0.0002931758, 0.000157971313, 3.129687    , -0.0149657428, 0.000170807849, 921.461243  , 31.20906    , 793.969849  , 2.56        , 3           , 255         , 0           , 0
-0.146956921, -0.126933321, 9.79838848  , 0.000348090049, 0.000238280612, -8.136346E-05, 3.12969041  , -0.014968113, 0.000171649866, 921.461243  , 31.20906    , 793.9702    , 2.57        , 3           , 255         , 0           , 0
-0.151955724, -0.124356374, 9.799373    , 4.39124051E-06, 8.578102E-05, 0.0007469212, 3.12969065  , -0.01496906 , 0.000164190744, 921.461243  , 31.20906    , 793.9706    , 2.58        , 3           , 255         , 0           , 0
-0.148966059, -0.120934829, 9.791235    , -0.000969425833, 6.87045249E-05, 0.000876810751, 3.129681    , -0.01496985 , 0.000155430665, 921.461243  , 31.20906    , 793.970947  , 2.59        , 3           , 255         , 0           , 0
-0.139592916, -0.119574025, 9.793444    , -0.0003918066, -5.32378326E-05, -0.000156319453, 3.129677    , -0.0149693  , 0.000156987546, 921.461243  , 31.20906    , 793.9713    , 2.6         , 3           , 255         , 0           , 0
-0.14062348 , -0.122185133, 9.797174    , -0.000615725643, -8.483327E-05, -0.000450065651, 3.12965322  , -0.0149670718, 0.000161742151, 921.461243  , 31.20906    , 793.9588    , 2.61        , 3           , 255         , 0           , 0
-0.145230636, -0.121838614, 9.798304    , -0.000376830751, -0.000374619471, -0.000313528872, 3.1296494   , -0.01496329 , 0.00016483276, 921.461243  , 31.20906    , 793.9591    , 2.62        , 3           , 255         , 0           , 0
-0.1396431  , -0.11476393 , 9.804063    , -0.0006181834, -0.0002279015, 0.0006472225, 3.12964344  , -0.0149610881, 0.00015833319, 921.470459  , 31.211298   , 793.9594    , 2.63        , 3           , 255         , 0           , 0
-0.137814209, -0.117709376, 9.791436    , -0.0003790579, -0.000270086224, -8.936517E-06, 3.12963963  , -0.0149583863, 0.000158390292, 921.470459  , 31.211298   , 793.9597    , 2.64        , 3           , 255         , 0           , 0
-0.145315439, -0.119562864, 9.794462    , 0.000496154069, 2.40295922E-05, 0.000170693253, 3.12964463  , -0.0149586471, 0.0001566862, 921.470459  , 31.211298   , 793.96      , 2.65        , 3           , 255         , 0           , 0
-0.142734   , -0.117811963, 9.793845    , 0.000334401237, 0.000306113274, 0.000354383956, 3.129648    , -0.01496175 , 0.000153178888, 921.470459  , 31.211298   , 793.9603    , 2.66        , 3           , 255         , 0           , 0
-0.141817719, -0.118917249, 9.780815    , 0.000551994541, 7.44522549E-06, 0.000424179772, 3.12965345  , -0.014961875, 0.000148937921, 921.470459  , 31.211298   , 793.960632  , 2.67        , 3           , 255         , 0           , 0
-0.144176871, -0.124009207, 9.788075    , 0.000371360977, 0.000111536785, 6.607889E-05, 3.12965727  , -0.0149629992, 0.000148290448, 921.470459  , 31.211298   , 793.960938  , 2.68        , 3           , 255         , 0           , 0
-0.148256809, -0.124801435, 9.791744    , 0.00056849164, -0.000191784813, 0.000170443469, 3.129663    , -0.0149611048, 0.0001465631, 921.470459  , 31.211298   , 793.961243  , 2.69        , 3           , 255         , 0           , 0
-0.150355071, -0.122705624, 9.792982    , 0.000599647756, -0.000290386874, -0.0005388197, 3.129669    , -0.0149581367, 0.000151916771, 921.470459  , 31.211298   , 793.961548  , 2.7         , 3           , 255         , 0           , 0
-0.147095   , -0.126459509, 9.802776    , -0.0003947455, -0.000351949944, 5.133145E-05, 3.129658    , -0.014948586, 0.000151466476, 921.470459  , 31.211298   , 793.9373    , 2.71        , 3           , 255         , 0           , 0
-0.140166968, -0.117699765, 9.794638    , -0.000432546076, -0.0002005328, -4.724323E-06, 3.12965369  , -0.0149465809, 0.000151489774, 921.470459  , 31.211298   , 793.9375    , 2.72        , 3           , 255         , 0           , 0
-0.142822057, -0.107390009, 9.805163    , 0.000160493582, -0.000411552261, 0.000175403766, 3.12965512  , -0.0149424849, 0.000149686573, 921.4311    , 31.2091961  , 793.9377    , 2.73        , 3           , 255         , 0           , 0
-0.15412043 , -0.116247356, 9.804858    , 0.0002448093, -0.000122822748, -9.38335652E-05, 3.12965775  , -0.0149412462, 0.000150610271, 921.4311    , 31.2091961  , 793.937866  , 2.74        , 3           , 255         , 0           , 0
-0.1449368  , -0.121110633, 9.796984    , 0.00042414217, 4.42042074E-06, -0.0004400154, 3.1296618   , -0.0149412379, 0.000155011017, 921.4311    , 31.2091961  , 793.938049  , 2.75        , 3           , 255         , 0           , 0
-0.144463465, -0.113650836, 9.794249    , -0.000396401068, -3.8815997E-05, 0.000159328862, 3.129658    , -0.0149408691, 0.000153413072, 921.4311    , 31.2091961  , 793.938232  , 2.76        , 3           , 255         , 0           , 0
-0.148994714, -0.11358428 , 9.79595     , 8.45385657E-05, -3.51403578E-05, 0.000405921484, 3.1296587   , -0.0149405664, 0.0001493496, 921.4311    , 31.2091961  , 793.9384    , 2.77        , 3           , 255         , 0           , 0
-0.144570887, -0.12043637 , 9.794736    , -8.442087E-05, -3.671687E-05, -0.000236287291, 3.129658    , -0.0149401715, 0.000151708125, 921.4311    , 31.2091961  , 793.9386    , 2.78        , 3           , 255         , 0           , 0
-0.148127377, -0.118740894, 9.800044    , 0.000338551443, 0.000188503938, 0.000356628385, 3.12966132  , -0.0149420984, 0.000148164283, 921.4311    , 31.2091961  , 793.9388    , 2.79        , 3           , 255         , 0           , 0
-0.140560672, -0.120391414, 9.792811    , -0.000191446859, 0.0005769763, -0.000170099374, 3.12965941  , -0.0149478484, 0.000149934145, 921.4311    , 31.2091961  , 793.938965  , 2.8         , 3           , 255         , 0           , 0
-0.145744175, -0.118558869, 9.794149    , -0.000189588725, 3.574774E-05, 0.000224746022, 3.12965655  , -0.014946959, 0.000147705738, 921.4311    , 31.2091961  , 793.9723    , 2.81        , 3           , 255         , 0           , 0
-0.147430882, -0.119844005, 9.803385    , -3.82262151E-05, -0.000371455273, 0.0005545318, 3.12965631  , -0.01494331 , 0.000142116 , 921.4311    , 31.2091961  , 793.9727    , 2.82        , 3           , 255         , 0           , 0
-0.14297621 , -0.118090406, 9.793566    , -2.14708471E-05, -0.000150992782, 2.3555709E-05, 3.129656    , -0.0149418032, 0.0001418624, 921.4252    , 31.2112312  , 793.973145  , 2.83        , 3           , 255         , 0           , 0
-0.145901352, -0.126188323, 9.789394    , -0.00019579567, -4.549697E-05, -0.0001600448, 3.12965417  , -0.0149413291, 0.000143457437, 921.4252    , 31.2112312  , 793.9736    , 2.84        , 3           , 255         , 0           , 0
-0.157115817, -0.115990184, 9.796263    , -0.00072539004, 0.0004087857, 0.000424731319, 3.12964678  , -0.0149454642, 0.000139258889, 921.4252    , 31.2112312  , 793.974     , 2.85        , 3           , 255         , 0           , 0
-0.153174713, -0.116416909, 9.788857    , 1.42484641E-05, -1.75881141E-05, 1.19096585E-05, 3.129647    , -0.01494529 , 0.000139137686, 921.4252    , 31.2112312  , 793.9744    , 2.86        , 3           , 255         , 0           , 0
-0.143569022, -0.114283681, 9.795044    , -7.87514E-05, -4.53205575E-05, -0.000551348552, 3.129646    , -0.0149447713, 0.000144645848, 921.4252    , 31.2112312  , 793.974854  , 2.87        , 3           , 255         , 0           , 0
-0.14818731 , -0.115207061, 9.798973    , 5.70179E-05 , 0.000316882215, 0.0007464579, 3.12964678  , -0.01494803 , 0.000137219 , 921.4252    , 31.2112312  , 793.9753    , 2.88        , 3           , 255         , 0           , 0
-0.152844459, -0.123861089, 9.793337    , 5.694103E-05, 8.307011E-05, 0.0009008697, 3.12964749  , -0.0149489678, 0.000128220083, 921.4252    , 31.2112312  , 793.9757    , 2.89        , 3           , 255         , 0           , 0
-0.143102139, -0.1267315  , 9.801297    , 4.97341571E-05, -0.0002784212, 5.85123162E-05, 3.129648    , -0.01494619 , 0.0001276017, 921.4252    , 31.2112312  , 793.976135  , 2.9         , 3           , 255         , 0           , 0
-0.148429438, -0.130480051, 9.796118    , 0.000472121668, 6.20580977E-06, 0.000438319985, 3.12964845  , -0.0149491038, 0.00012328515, 921.4252    , 31.2112312  , 794.0127    , 2.91        , 3           , 255         , 0           , 0
-0.153914377, -0.1200601  , 9.797306    , 0.000490654144, 0.000209150458, 0.000378143624, 3.12965345  , -0.01495124 , 0.000119528631, 921.4252    , 31.2112312  , 794.013367  , 2.92        , 3           , 255         , 0           , 0
-0.135420516, -0.128814772, 9.78784     , -0.00012816969, 0.0001404226, -0.0003081275, 3.129652    , -0.0149526075, 0.00012262672, 921.498352  , 31.2155724  , 794.014038  , 2.93        , 3           , 255         , 0           , 0
-0.136598632, -0.125260875, 9.785583    , -0.000157743314, 0.0003883792, -0.000809751335, 3.12965035  , -0.0149563951, 0.000130770743, 921.498352  , 31.2155724  , 794.0147    , 2.94        , 3           , 255         , 0           , 0
-0.145480543, -0.122373149, 9.787339    , 0.000267815049, 0.000387840963, -0.000169583553, 3.129653    , -0.0149602527, 0.000132512927, 921.498352  , 31.2155724  , 794.0154    , 2.95        , 3           , 255         , 0           , 0
-0.153030336, -0.114533827, 9.794955    , 0.00035438448, -0.000136007875, -0.000413112226, 3.12965655  , -0.0149588436, 0.000136627874, 921.498352  , 31.2155724  , 794.016052  , 2.96        , 3           , 255         , 0           , 0
-0.148316115, -0.114762351, 9.79957     , 0.0005659137, -0.0002919938, -0.000390044646, 3.129662    , -0.0149558773, 0.000140493532, 921.498352  , 31.2155724  , 794.0167    , 2.97        , 3           , 255         , 0           , 0
-0.143177062, -0.129369512, 9.800604    , 0.000179420458, -5.85719827E-05, 0.0003132748, 3.129664    , -0.0149553288, 0.000137353753, 921.498352  , 31.2155724  , 794.0174    , 2.98        , 3           , 255         , 0           , 0
-0.141779274, -0.121811748, 9.795897    , -0.0008949875, 1.72040018E-06, 0.0006213558, 3.12965512  , -0.0149554219, 0.0001311403, 921.498352  , 31.2155724  , 794.018066  , 2.99        , 3           , 255         , 0           , 0
-0.143025488, -0.12331716 , 9.795283    , -0.000537486339, -9.841737E-05, -0.000141556869, 3.12964964  , -0.0149544179, 0.000132544112, 921.498352  , 31.2155724  , 794.018738  , 3           , 3           , 0           , 8.475237    , 300
-0.142052561, -0.125718638, 9.79745     , 0.000266792951, -0.000362873368, -0.0002457165, 3.12964082  , -0.0149477469, 0.000135129085, 921.498352  , 31.2155724  , 793.946655  , 3.01        , 3           , 1           , 0           , 0
-0.141663119, -0.1240081  , 9.797379    , 0.000121487006, 4.50164371E-05, -0.000501723844, 3.129642    , -0.0149481371, 0.0001401518, 921.498352  , 31.2155724  , 793.946838  , 3.02        , 3           , 2           , 0           , 0
-0.1500608  , -0.113985792, 9.800746    , -0.000292508164, 0.000126006256, -2.62893591E-05, 3.12963915  , -0.0149493935, 0.000140429751, 921.478149  , 31.2140121  , 793.947     , 3.03        , 3           , 3           , 0           , 0
-0.143508047, -0.120010927, 9.796165    , -0.0004722325, 0.000121170444, 0.000423638965, 3.12963438  , -0.0149506563, 0.000136207775, 921.478149  , 31.2140121  , 793.9472    , 3.04        , 3           , 4           , 0           , 0
-0.14770782 , -0.121425249, 9.803884    , -0.000166034821, -0.000142060831, 0.000242146431, 3.12963271  , -0.014949264, 0.000133769281, 921.478149  , 31.2140121  , 793.9474    , 3.05        , 3           , 5           , 0           , 0
-0.148454189, -0.122333907, 9.802565    , 0.0006023246, 2.40319059E-05, -0.000769299862, 3.12963867  , -0.0149494139, 0.00014146528, 921.478149  , 31.2140121  , 793.947632  , 3.06        , 3           , 6           , 0           , 0
-0.152692318, -0.1192162  , 9.803064    , 2.04535318E-05, -0.0002590586, 0.000122388155, 3.129639    , -0.0149468379, 0.00014021041, 921.478149  , 31.2140121  , 793.9479    , 3.07        , 3           , 7           , 0           , 0
-0.145354182, -0.128368735, 9.792307    , 0.000233279861, -0.0002739476, 0.000224034855, 3.12964129  , -0.014944124, 0.000137937284, 921.478149  , 31.2140121  , 793.9481    , 3.08        , 3           , 8           , 5           , 5
-0.140792325, -0.125047952, 9.788529    , -0.000306584523, 3.06153961E-05, -3.98176635E-05, 3.1296382   , -0.0149444258, 0.000138339121, 921.478149  , 31.2140121  , 793.948364  , 3.09        , 3           , 9           , 5           , 0.1
-0.1549179  , -0.110624894, 9.791512    , -0.000309606869, 1.65571691E-07, 0.000387643347, 3.129635    , -0.0149444733, 0.000134462636, 921.478149  , 31.2140121  , 793.9486    , 3.1         , 3           , 10          , 0.1         , 0.1
-0.151097342, -0.119086742, 9.78658     , -6.274688E-05, 1.74688612E-05, 2.95883074E-05, 3.12962866  , -0.0149449995, 0.000134257352, 921.478149  , 31.2140121  , 793.914734  , 3.11        , 3           , 11          , 0.0076335   , 0.0076334984
-0.150956541, -0.123239279, 9.790194    , -0.000204026408, 0.000387002539, -3.37942147E-05, 3.12962651  , -0.0149488663, 0.00013464161, 921.478149  , 31.2140121  , 793.914734  , 3.12        , 3           , 12          , 0.174645633 , 0
-0.147805408, -0.111464739, 9.796194    , -1.92458847E-05, 0.000207136472, 8.883465E-05, 3.12962651  , -0.0149509478, 0.000133778056, 921.418945  , 31.2157078  , 793.914734  , 3.13        , 3           , 13          , 0           , 0
-0.142788976, -0.109284237, 9.795647    , 0.000194991822, -1.09971006E-05, 8.200623E-06, 3.12962842  , -0.0149508389, 0.000133694717, 921.418945  , 31.2157078  , 793.914734  , 3.14        , 3           , 14          , 3.80629E-05 , -0.000193017026
-0.144510359, -0.118768141, 9.79695     , -0.0004346477, 0.000203706921, -1.43601155E-05, 3.129624    , -0.0149528738, 0.00013386269, 921.418945  , 31.2157078  , 793.914734  , 3.15        , 3           , 15          , 0           , 3.13904457E-05
-0.152133808, -0.113461636, 9.789362    , -6.911687E-07, -0.000197005211, 0.000612599833, 3.12962413  , -0.0149509767, 0.000127713021, 921.418945  , 31.2157078  , 793.914734  , 3.16        , 3           , 16          , 0           , 1.401298E-45
-0.153049141, -0.116205916, 9.79458     , 5.03996562E-05, 0.0004923752, 0.000291011762, 3.12962461  , -0.014955936, 0.000124861777, 921.418945  , 31.2157078  , 793.914734  , 3.17        , 3           , 20          , 0           , 0
-0.148962542, -0.116106905, 9.793493    , -8.985793E-05, 0.000151958622, -0.000450460764, 3.12962365  , -0.0149574  , 0.000129384644, 921.418945  , 31.2157078  , 793.914734  , 3.18        , 3           , 21          , 0           , 0
-0.1556373  , -0.118803166, 9.799858    , 0.000224708871, 0.000267462747, -2.49912882E-05, 3.129626    , -0.0149600711, 0.000129666587, 921.418945  , 31.2157078  , 793.914734  , 3.19        , 3           , 22          , 0           , 0
-0.152951464, -0.1201304  , 9.795816    , 0.000345506676, 0.000463496777, -0.0005174522, 3.12962937  , -0.0149646448, 0.000134896633, 921.418945  , 31.2157078  , 793.914734  , 3.2         , 3           , 40          , 0           , 0
-0.150024071, -0.112724483, 9.793261    , 0.000255806634, 0.000377524528, -1.32265377E-05, 3.129633    , -0.0149748875, 0.0001350589, 921.418945  , 31.2157078  , 793.969543  , 3.21        , 3           , 41          , 0           , 0
-0.1577966  , -0.113100827, 9.792054    , 2.8239836E-05, 0.0001661756, -0.000420714059, 3.12963319  , -0.0149764987, 0.00013928597, 921.418945  , 31.2157078  , 793.9699    , 3.22        , 3           , 42          , 0           , 0
-0.150599331, -0.111165069, 9.793917    , -0.00046650134, 0.000173173161, -0.0005489936, 3.12962842  , -0.0149781629, 0.000144796708, 921.4545    , 31.2128582  , 793.9703    , 3.23        , 3           , 255         , 0           , 0
-0.14843899 , -0.113417491, 9.787681    , -0.0007341547, -0.00024305479, -0.000125644292, 3.129621    , -0.0149757182, 0.000146024075, 921.4545    , 31.2128582  , 793.970642  , 3.24        , 3           , 255         , 0           , 0
-0.149435878, -0.111176059, 9.790847    , -0.000313270721, -0.0007536261, -0.0002857913, 3.12961769  , -0.0149681475, 0.000148791776, 921.4545    , 31.2128582  , 793.971     , 3.25        , 3           , 255         , 0           , 0
-0.150764972, -0.111089751, 9.80213     , 0.00016061285, 4.64614131E-05, -0.0003442418, 3.12961936  , -0.0149685713, 0.000152239823, 921.4545    , 31.2128582  , 793.9714    , 3.26        , 3           , 255         , 0           , 0
-0.153095827, -0.113182582, 9.806312    , 0.0002857791, 0.000114782924, -0.0005264447, 3.12962222  , -0.0149696553, 0.00015751808, 921.4545    , 31.2128582  , 793.971741  , 3.27        , 3           , 255         , 0           , 0
-0.149569064, -0.111059465, 9.797147    , -3.34828073E-05, 0.000264705537, -0.0001927733, 3.12962174  , -0.01497228 , 0.000159477539, 921.4545    , 31.2128582  , 793.9721    , 3.28        , 3           , 255         , 0           , 0
-0.149812654, -0.1152944  , 9.795633    , 8.38560663E-05, 0.000452855369, -0.000895464, 3.12962246  , -0.0149767026, 0.000168486513, 921.4545    , 31.2128582  , 793.9725    , 3.29        , 3           , 255         , 0           , 0
-0.15011014 , -0.117150068, 9.802801    , -0.000112390248, 0.000307209266, -0.000741352036, 3.12962127  , -0.0149796857, 0.000175936933, 921.4545    , 31.2128582  , 793.972839  , 3.3         , 3           , 255         , 0           , 0
-0.137699679, -0.110314235, 9.801466    , 0.0001042154, 0.000269372977, -0.000322336069, 3.12962914  , -0.014989078, 0.000179089649, 921.4545    , 31.2128582  , 793.9687    , 3.31        , 3           , 255         , 0           , 0
-0.144344181, -0.119101509, 9.796448    , -1.87281967E-05, 0.000148348248, 0.000266808929, 3.129629    , -0.0149905933, 0.0001764393, 921.4545    , 31.2128582  , 793.969055  , 3.32        , 3           , 255         , 0           , 0
-0.151931211, -0.120480716, 9.794922    , 0.000172085769, -0.0002663698, 0.0006387079, 3.1296308   , -0.0149880061, 0.000170020227, 921.4569    , 31.2136726  , 793.9694    , 3.33        , 3           , 255         , 0           , 0
-0.150690168, -0.119156584, 9.793379    , -0.000107496671, 0.000123665988, 0.00068909867, 3.12962985  , -0.0149893248, 0.000163143937, 921.4569    , 31.2136726  , 793.9698    , 3.34        , 3           , 255         , 0           , 0
-0.142437309, -0.123196855, 9.800151    , 0.0002009244, -0.00012118122, 0.000695592957, 3.129632    , -0.014988197, 0.0001561734, 921.4569    , 31.2136726  , 793.970154  , 3.35        , 3           , 255         , 0           , 0
-0.1486113  , -0.121623337, 9.791753    , -0.000148492283, -0.000170139509, -0.00026618733, 3.12963033  , -0.0149864638, 0.000158814975, 921.4569    , 31.2136726  , 793.9705    , 3.36        , 3           , 255         , 0           , 0
-0.154471233, -0.121253014, 9.789892    , 0.000808882469, 0.000179313167, -0.0003266969, 3.12963843  , -0.0149882212, 0.000162103432, 921.4569    , 31.2136726  , 793.9709    , 3.37        , 3           , 255         , 0           , 0
-0.150078326, -0.12432009 , 9.791861    , 0.000709770247, -2.42842361E-06, -0.0005498413, 3.12964535  , -0.01498813 , 0.00016760164, 921.4569    , 31.2136726  , 793.971252  , 3.38        , 3           , 255         , 0           , 0
-0.146206468, -0.124321319, 9.794119    , 6.00712265E-05, 0.000148171908, 7.874711E-05, 3.129646    , -0.014989621, 0.000166831873, 921.4569    , 31.2136726  , 793.9716    , 3.39        , 3           , 255         , 0           , 0
-0.147195786, -0.1294443  , 9.799071    , -6.696231E-06, -0.000113993796, -0.0003758049, 3.12964582  , -0.0149884364, 0.000170576357, 921.4569    , 31.2136726  , 793.972     , 3.4         , 3           , 255         , 0           , 0
-0.159435973, -0.1307827  , 9.802575    , -0.000204071577, 9.272267E-05, 0.000353050651, 3.12963724  , -0.014990259, 0.000167157967, 921.4569    , 31.2136726  , 793.9646    , 3.41        , 3           , 255         , 0           , 0
-0.14894028 , -0.124840319, 9.801001    , 0.000396470015, -0.0003439663, 0.000199205475, 3.12964129  , -0.0149868429, 0.000165124758, 921.4569    , 31.2136726  , 793.964966  , 3.42        , 3           , 255         , 0           , 0
-0.141827255, -0.117284819, 9.799827    , -9.820346E-05, 0.000248569471, 0.000454949739, 3.12964034  , -0.0149893835, 0.00016060489, 921.422668  , 31.2142162  , 793.965332  , 3.43        , 3           , 255         , 0           , 0
-0.143879443, -0.115533665, 9.797087    , -1.04364572E-05, -0.000353096577, 0.000204331314, 3.12964     , -0.014985878, 0.000158519339, 921.422668  , 31.2142162  , 793.9657    , 3.44        , 3           , 255         , 0           , 0
-0.146166727, -0.116185226, 9.79657     , 0.000191123268, 0.00018612764, 0.000378454948, 3.12964225  , -0.0149877835, 0.000154756985, 921.422668  , 31.2142162  , 793.966064  , 3.45        , 3           , 255         , 0           , 0
-0.142634377, -0.1260674  , 9.795129    , -6.34621538E-05, -8.783654E-05, 0.000423024321, 3.12964153  , -0.0149869556, 0.000150516178, 921.422668  , 31.2142162  , 793.966431  , 3.46        , 3           , 255         , 0           , 0
-0.142279178, -0.129466459, 9.802888    , -0.0001213668, 0.000283466623, -0.000579151558, 3.12964034  , -0.0149897216, 0.000156341674, 921.422668  , 31.2142162  , 793.9668    , 3.47        , 3           , 255         , 0           , 0
-0.147182733, -0.115299739, 9.799287    , 0.0001509509, 0.000446291757, -0.00106887764, 3.12964153  , -0.0149940578, 0.000167083941, 921.422668  , 31.2142162  , 793.967163  , 3.48        , 3           , 255         , 0           , 0
-0.14721863 , -0.12115375 , 9.798792    , 0.000408940279, -0.000263460737, -0.000430841144, 3.12964559  , -0.01499137 , 0.000171360953, 921.422668  , 31.2142162  , 793.9675    , 3.49        , 3           , 255         , 0           , 0
-0.141657382, -0.129141241, 9.798817    , 0.000109761924, -0.0002937272, -0.000555852, 3.12964678  , -0.0149883674, 0.000176884467, 921.422668  , 31.2142162  , 793.9679    , 3.5         , 3           , 255         , 0           , 0
-0.145227343, -0.119409978, 9.792528    , 2.629642E-05, -0.000332481315, -0.00105003046, 3.12963963  , -0.014983926, 0.000187451951, 921.422668  , 31.2142162  , 794.009949  , 3.51        , 3           , 255         , 0           , 0
-0.149167031, -0.109659635, 9.794603    , 0.000379354868, 0.0001235599, 0.000278647 , 3.12964344  , -0.0149851935, 0.00018468019, 921.422668  , 31.2142162  , 794.010559  , 3.52        , 3           , 255         , 0           , 0
-0.149573565, -0.121495284, 9.801045    , 0.000159709467, -0.000410074, -8.167043E-05, 3.129645    , -0.0149810845, 0.000185447934, 921.4822    , 31.21442    , 794.011169  , 3.53        , 3           , 255         , 0           , 0
-0.1381125  , -0.118170843, 9.798533    , -0.00049025804, 0.000338120357, -0.000137166935, 3.12964     , -0.0149844494, 0.000186860023, 921.4822    , 31.21442    , 794.0118    , 3.54        , 3           , 255         , 0           , 0
-0.133962423, -0.116385005, 9.80839348  , 9.969625E-05, 0.0006185558, -0.0003817874, 3.129641    , -0.0149905868, 0.000190751918, 921.4822    , 31.21442    , 794.0124    , 3.55        , 3           , 255         , 0           , 0
-0.151631311, -0.121931866, 9.79568     , -0.0002688574, 0.000475296751, 0.000371576229, 3.12963843  , -0.014995384, 0.000187092883, 921.4822    , 31.21442    , 794.013     , 3.56        , 3           , 255         , 0           , 0
-0.141231492, -0.120372035, 9.792145    , -0.0004511051, 7.647382E-05, -0.000267417636, 3.129634    , -0.0149961151, 0.000189776227, 921.4822    , 31.21442    , 794.0136    , 3.57        , 3           , 255         , 0           , 0
-0.139834762, -0.114594474, 9.794216    , -0.0003870293, 0.000106385094, -0.0007008022, 3.12962985  , -0.0149970949, 0.000196797075, 921.4822    , 31.21442    , 794.0142    , 3.58        , 3           , 255         , 0           , 0
-0.149838135, -0.117868587, 9.79992     , -3.991568E-05, 1.0571719E-05, 0.000951278664, 3.12962961  , -0.0149973147, 0.000187285419, 921.4822    , 31.21442    , 794.014832  , 3.59        , 3           , 255         , 0           , 0
-0.150562257, -0.113707922, 9.80097     , -0.000441188546, 0.000161051852, 0.000426564 , 3.12962532  , -0.0149989771, 0.000183038981, 921.4822    , 31.21442    , 794.015442  , 3.6         , 3           , 255         , 0           , 0
-0.150583416, -0.110547028, 9.800476    , -0.0005001128, -0.0005430847, 0.000666166 , 3.12962     , -0.01499091 , 0.000176317422, 921.4822    , 31.21442    , 793.965942  , 3.61        , 3           , 255         , 0           , 0
-0.1408818  , -0.108270213, 9.800364    , 2.49738041E-05, -4.928284E-05, -0.000112274109, 3.12962031  , -0.0149904015, 0.000177434282, 921.4822    , 31.21442    , 793.966248  , 3.62        , 3           , 255         , 0           , 0
-0.1428001  , -0.107506946, 9.798976    , 0.000445769983, -8.03209E-06, 0.000276713137, 3.12962484  , -0.014990354, 0.000174666129, 921.452759  , 31.2157764  , 793.966553  , 3.63        , 3           , 255         , 0           , 0
-0.143641919, -0.106465146, 9.789449    , 0.0004315133, -1.16414594E-05, 0.000210554121, 3.12962914  , -0.0149902627, 0.000172559172, 921.452759  , 31.2157764  , 793.966858  , 3.64        , 3           , 255         , 0           , 0
-0.144808218, -0.108607076, 9.791008    , 0.000101930011, -0.0001621398, -0.000122402911, 3.12963     , -0.0149886264, 0.000173763809, 921.452759  , 31.2157764  , 793.967163  , 3.65        , 3           , 255         , 0           , 0
-0.142464563, -0.11375308 , 9.7907505   , 0.0004293492, 6.00861677E-06, 0.000287868548, 3.12963462  , -0.01498872 , 0.000170885789, 921.452759  , 31.2157764  , 793.967468  , 3.66        , 3           , 255         , 0           , 0
-0.152858764, -0.116506889, 9.796345    , -0.0001615358, 0.0006066696, 0.000112144349, 3.129633    , -0.0149948  , 0.000169836872, 921.452759  , 31.2157764  , 793.967834  , 3.67        , 3           , 255         , 0           , 0
-0.155695423, -0.128075451, 9.789769    , -0.000342378684, 8.569063E-05, 7.697632E-06, 3.12962937  , -0.0149956588, 0.000169770152, 921.452759  , 31.2157764  , 793.9682    , 3.68        , 3           , 255         , 0           , 0
-0.151967689, -0.113590524, 9.78886     , -0.000184165881, 5.2331714E-05, 0.000337770529, 3.1296277   , -0.0149962241, 0.000166398648, 921.452759  , 31.2157764  , 793.968567  , 3.69        , 3           , 255         , 0           , 0
-0.141987711, -0.126618281, 9.800978    , 0.000194749315, -1.4124671E-06, -0.000305668567, 3.12962961  , -0.0149961729, 0.000169455219, 921.452759  , 31.2157764  , 793.968933  , 3.7         , 3           , 255         , 0           , 0
-0.148412585, -0.1257405  , 9.79624     , 0.000158727576, -0.000282461959, -0.0004581037, 3.12963629  , -0.0149931824, 0.000173924622, 921.452759  , 31.2157764  , 793.968262  , 3.71        , 3           , 255         , 0           , 0
-0.141478732, -0.10923513 , 9.799341    , 0.0001838154, -7.475092E-05, -1.05757681E-05, 3.1296382   , -0.0149924336, 0.00017402145, 921.452759  , 31.2157764  , 793.9686    , 3.72        , 3           , 255         , 0           , 0
-0.137286857, -0.112807   , 9.802612    , 0.00016349912, -0.000561279, -0.0007212593, 3.12963963  , -0.0149867376, 0.000181167066, 921.447937  , 31.2188282  , 793.969     , 3.73        , 3           , 255         , 0           , 0
-0.148060411, -0.117861174, 9.797203    , 0.000220318761, 6.69499E-05 , 5.8009944E-05, 3.12964177  , -0.0149874119, 0.000180594943, 921.447937  , 31.2188282  , 793.96936   , 3.74        , 3           , 255         , 0           , 0
-0.140261158, -0.111811325, 9.787626    , 0.000202479481, -5.487504E-05, 0.000411630754, 3.129644    , -0.0149869118, 0.000176472022, 921.447937  , 31.2188282  , 793.9697    , 3.75        , 3           , 255         , 0           , 0
-0.145954356, -0.114819467, 9.792484    , 0.000195861619, 0.000164705765, -0.0007763538, 3.12964582  , -0.0149884671, 0.000184255361, 921.447937  , 31.2188282  , 793.9701    , 3.76        , 3           , 255         , 0           , 0
-0.142009661, -0.1204864  , 9.79315     , 0.0005667136, -0.0001996739, -0.0009538982, 3.12965131  , -0.0149863577, 0.00019377064, 921.447937  , 31.2188282  , 793.970459  , 3.77        , 3           , 255         , 0           , 0
-0.146668509, -0.119662918, 9.788481    , -0.000273564423, 9.515686E-05, 4.217968E-05, 3.12964869  , -0.0149873141, 0.000193360233, 921.447937  , 31.2188282  , 793.9708    , 3.78        , 3           , 255         , 0           , 0
-0.1455514  , -0.118139863, 9.789485    , 0.000208792218, -3.298692E-05, 0.0005920032, 3.12965083  , -0.0149870552, 0.000187436148, 921.447937  , 31.2188282  , 793.9712    , 3.79        , 3           , 255         , 0           , 0
-0.135807022, -0.1176118  , 9.798863    , 0.00023091989, 0.000264493749, 0.000346264918, 3.12965322  , -0.0149897421, 0.000184005054, 921.447937  , 31.2188282  , 793.971558  , 3.8         , 3           , 255         , 0           , 0
-0.132079825, -0.122635983, 9.794366    , -0.000347697147, 0.000247712247, 1.48584E-05 , 3.12965     , -0.0149862655, 0.000183880489, 921.447937  , 31.2188282  , 793.9771    , 3.81        , 3           , 255         , 0           , 0
-0.142249942, -0.120097592, 9.793764    , -0.000523250957, 0.00010447  , -0.000242721275, 3.12964487  , -0.0149872806, 0.0001863202, 921.447937  , 31.2188282  , 793.9775    , 3.82        , 3           , 255         , 0           , 0
-0.148153171, -0.117322586, 9.797372    , 0.000352699775, -0.00031413135, -0.0006205516, 3.12964821  , -0.0149840666, 0.0001924883, 921.4625    , 31.21659    , 793.977844  , 3.83        , 3           , 255         , 0           , 0
-0.147944331, -0.121320963, 9.798441    , 0.000162522163, 0.000117640411, -3.265348E-05, 3.12964988  , -0.0149852382, 0.000192828884, 921.4625    , 31.21659    , 793.9782    , 3.84        , 3           , 255         , 0           , 0
-0.139408   , -0.129213721, 9.798903    , -9.185158E-05, 0.0004453686, 0.000222617309, 3.129649    , -0.0149897188, 0.000190655875, 921.4625    , 31.21659    , 793.978638  , 3.85        , 3           , 255         , 0           , 0
-0.144813657, -0.126009777, 9.793313    , -4.74887165E-05, -4.01356665E-05, 0.0002497085, 3.12964845  , -0.0149893472, 0.000188153965, 921.4625    , 31.21659    , 793.979065  , 3.86        , 3           , 255         , 0           , 0
-0.1529002  , -0.1135118  , 9.795141    , -7.689738E-05, -0.000122086291, 0.0006812573, 3.12964773  , -0.0149882073, 0.000181326686, 921.4625    , 31.21659    , 793.9795    , 3.87        , 3           , 255         , 0           , 0
-0.14876467 , -0.115411   , 9.798472    , 0.000121704812, 1.18336175E-05, 5.92459146E-05, 3.12964916  , -0.014988333, 0.000180735646, 921.4625    , 31.21659    , 793.9799    , 3.88        , 3           , 255         , 0           , 0
-0.148220152, -0.116625525, 9.792952    , 0.000204510958, 6.692154E-05, 7.559467E-05, 3.129651    , -0.014989011, 0.000179987663, 921.4625    , 31.21659    , 793.980347  , 3.89        , 3           , 255         , 0           , 0
-0.1420969  , -0.110532224, 9.797185    , 0.0006831012, -7.1022514E-05, 0.000292213081, 3.129658    , -0.0149883358, 0.000177057009, 921.4625    , 31.21659    , 793.9808    , 3.9         , 3           , 255         , 0           , 0
-0.140338153, -0.119164445, 9.792814    , -0.000156400522, -0.000359934347, -0.0003893044, 3.129653    , -0.0149814924, 0.000180956937, 921.4625    , 31.21659    , 793.9642    , 3.91        , 3           , 255         , 0           , 0
-0.140833884, -0.112688147, 9.78889     , -9.261839E-05, -0.000156066992, -0.000669126632, 3.129652    , -0.0149798533, 0.000187629674, 921.4625    , 31.21659    , 793.9645    , 3.92        , 3           , 255         , 0           , 0
-0.138798848, -0.116370365, 9.799413    , -0.000159034331, -1.713229E-05, 3.727931E-05, 3.12965035  , -0.0149796866, 0.000187254831, 921.488464  , 31.21598    , 793.9648    , 3.93        , 3           , 255         , 0           , 0
-0.145787   , -0.123085119, 9.798597    , 3.16686746E-05, -9.828073E-07, -0.000715403, 3.12965059  , -0.0149795916, 0.000194408858, 921.488464  , 31.21598    , 793.9651    , 3.94        , 3           , 255         , 0           , 0
-0.1465691  , -0.120889559, 9.80594349  , 0.000460738665, 5.406962E-05, -6.816822E-05, 3.12965536  , -0.0149801243, 0.000195097018, 921.488464  , 31.21598    , 793.9654    , 3.95        , 3           , 255         , 0           , 0
-0.137489155, -0.11281164 , 9.79596     , 3.933698E-05, 4.06481558E-05, 0.000243820046, 3.1296556   , -0.0149805592, 0.000192663647, 921.488464  , 31.21598    , 793.9657    , 3.96        , 3           , 255         , 0           , 0
-0.148470208, -0.121558331, 9.796211    , -0.000263262918, 6.340614E-05, 0.0004046234, 3.12965322  , -0.0149812419, 0.0001886249, 921.488464  , 31.21598    , 793.966     , 3.97        , 3           , 255         , 0           , 0
-0.146667987, -0.124398828, 9.795401    , -0.0003781889, 0.00018073534, 0.00072867464, 3.1296494   , -0.0149831362, 0.000181359617, 921.488464  , 31.21598    , 793.9663    , 3.98        , 3           , 255         , 0           , 0
-0.143357471, -0.122037664, 9.79657     , -0.000154882771, 0.000212289669, 0.000101870653, 3.129648    , -0.01498527 , 0.000180366245, 921.488464  , 31.21598    , 793.9666    , 3.99        , 3           , 255         , 0           , 0
-0.161884859, -0.11973618 , 9.798869    , -0.0004506811, 0.000203632342, 0.000392642978, 3.12964344  , -0.0149873542, 0.000176464077, 921.488464  , 31.21598    , 793.9669    , 4           , 3           , 0           , 9.475237    , 400
-0.152552009, -0.119304322, 9.79212     , 0.0004544591, 0.000111223759, 0.0002580576, 3.12964487  , -0.0149860708, 0.000173944281, 921.488464  , 31.21598    , 793.9156    , 4.01        , 3           , 1           , 0           , 0
-0.1481553  , -0.124102637, 9.795332    , 0.000406646985, 0.0005265683, 0.000714027847, 3.129649    , -0.0149914231, 0.000166866783, 921.488464  , 31.21598    , 793.9156    , 4.02        , 3           , 2           , 0           , 0
-0.144384831, -0.120826527, 9.794735    , -0.00012703691, 7.03499245E-06, 0.0001660927, 3.12964773  , -0.0149915116, 0.000165206686, 921.4222    , 31.2174053  , 793.9156    , 4.03        , 3           , 3           , 0           , 0
-0.143426135, -0.106809162, 9.793981    , -0.000308889634, 0.000100847254, -0.0004461616, 3.12964463  , -0.0149924662, 0.00016968041, 921.4222    , 31.2174053  , 793.9156    , 4.04        , 3           , 4           , 0           , 0
-0.144775957, -0.107042052, 9.789284    , -0.000446894963, -0.000378837518, -0.0003187288, 3.12964     , -0.01498864 , 0.000172822474, 921.4222    , 31.2174053  , 793.9156    , 4.05        , 3           , 5           , 0           , 0
-0.15173386 , -0.112280369, 9.793452    , -0.000170423, -0.000150108055, -7.466144E-05, 3.12963843  , -0.01498713 , 0.000173551176, 921.4222    , 31.2174053  , 793.9156    , 4.06        , 3           , 6           , 0           , 0
-0.15021722 , -0.108649269, 9.791021    , -0.000494399632, -0.000192171763, -0.000256456668, 3.12963343  , -0.0149851786, 0.0001760928, 921.4222    , 31.2174053  , 793.9156    , 4.07        , 3           , 7           , 0           , 0
-0.144719034, -0.119136348, 9.795185    , 0.000370152964, -0.000109339933, 0.000311265467, 3.12963724  , -0.0149841225, 0.000172967018, 921.4222    , 31.2174053  , 793.9156    , 4.08        , 3           , 8           , 5           , 5
-0.142338723, -0.119079329, 9.795626    , 7.75535E-05 , 0.000214812288, 0.0005425664, 3.129638    , -0.0149863344, 0.000167566934, 921.4222    , 31.2174053  , 793.9156    , 4.09        , 3           , 9           , 5           , 0.1
-0.147172809, -0.114249192, 9.803488    , -0.0001443052, 0.000380249578, 0.000148838153, 3.12963653  , -0.0149901547, 0.000166124009, 921.4222    , 31.2174053  , 793.9156    , 4.1         , 3           , 10          , 0.1         , 0.1
-0.13586919 , -0.1103971  , 9.797522    , 0.0006308074, -7.637769E-05, 0.000286409835, 3.129646    , -0.0149895931, 0.0001632058, 921.4222    , 31.2174053  , 793.965759  , 4.11        , 3           , 11          , 0.00711845653, 0.00711845374
-0.138883442, -0.122530364, 9.794197    , 0.00019732595, 0.000219554626, 6.108238E-05, 3.129648    , -0.0149917947, 0.000162621189, 921.4222    , 31.2174053  , 793.966064  , 4.12        , 3           , 12          , 0.174648076 , 0
-0.1438314  , -0.127304435, 9.79944     , -0.000464116, 2.27768032E-06, -0.000557915948, 3.1296432   , -0.0149917519, 0.000168200684, 921.464     , 31.2173367  , 793.966431  , 4.13        , 3           , 13          , 0           , 0
-0.154315054, -0.122037128, 9.800312    , 0.000535152853, -0.000334503769, 0.000255275372, 3.12964869  , -0.0149884373, 0.000165607926, 921.464     , 31.2173367  , 793.9668    , 4.14        , 3           , 14          , 3.808884E-05, -0.000192993451
-0.1539569  , -0.118845224, 9.802882    , -0.0001935605, -0.000434082467, -0.000237068278, 3.12964654  , -0.0149840685, 0.0001679268, 921.464     , 31.2173367  , 793.967163  , 4.15        , 3           , 15          , 0           , 3.13911078E-05
-0.151348352, -0.1239393  , 9.804538    , 7.47232552E-05, -7.575829E-06, -0.00040684914, 3.12964725  , -0.0149839446, 0.000171994456, 921.464     , 31.2173367  , 793.9675    , 4.16        , 3           , 16          , 0           , 1.401298E-45
-0.1507715  , -0.117571332, 9.790837    , -0.00068203843, 0.000140487158, 0.000143971614, 3.12964058  , -0.0149853667, 0.000170571482, 921.464     , 31.2173367  , 793.9679    , 4.17        , 3           , 20          , 0           , 0
-0.145847708, -0.115837082, 9.790327    , -0.000546586642, -0.0004877136, -0.000297623134, 3.129635    , -0.0149804549, 0.000173489447, 921.464     , 31.2173367  , 793.968262  , 4.18        , 3           , 21          , 0           , 0
-0.143101722, -0.110978149, 9.796666    , -5.00261231E-05, 0.000212515588, -0.000232031976, 3.12963438  , -0.0149825523, 0.00017583523, 921.464     , 31.2173367  , 793.9686    , 4.19        , 3           , 22          , 0           , 0
-0.150405392, -0.118197858, 9.788437    , -0.000160112933, 0.000165761448, -0.000120099568, 3.129633    , -0.0149841961, 0.000177056063, 921.464     , 31.2173367  , 793.969     , 4.2         , 3           , 40          , 0           , 0
-0.143694833, -0.115813658, 9.788984    , -0.0006670137, 3.15079669E-05, -0.000437037816, 3.12962365  , -0.0149844633, 0.000181465875, 921.464     , 31.2173367  , 793.952     , 4.21        , 3           , 41          , 0           , 0
-0.139835432, -0.120836951, 9.792866    , -6.928311E-05, 0.000173918583, -0.0006536672, 3.129623    , -0.014986123, 0.000188023463, 921.464     , 31.2173367  , 793.9523    , 4.22        , 3           , 42          , 0           , 0
-0.14542003 , -0.122098468, 9.7893095   , -0.000120327823, 0.000281599467, -0.000146404011, 3.12962174  , -0.0149889207, 0.000189521219, 921.465149  , 31.2162514  , 793.9525    , 4.23        , 3           , 255         , 0           , 0
-0.150040224, -0.132087529, 9.790898    , -0.0007649785, 4.323211E-05, 0.000540431356, 3.129614    , -0.014989417, 0.000184122007, 921.465149  , 31.2162514  , 793.952759  , 4.24        , 3           , 255         , 0           , 0
-0.145802453, -0.132970124, 9.805695    , -0.0005981107, -0.000127442079, 0.000546554569, 3.12960815  , -0.0149882091, 0.0001786411, 921.465149  , 31.2162514  , 793.953     , 4.25        , 3           , 255         , 0           , 0
-0.1441628  , -0.135761648, 9.799274    , -0.000745723431, 0.000279019267, 0.0005411817, 3.129601    , -0.0149910618, 0.000173262641, 921.465149  , 31.2162514  , 793.953247  , 4.26        , 3           , 255         , 0           , 0
-0.15327318 , -0.138313532, 9.79788     , 0.000130118511, 0.000272338657, 0.000206424345, 3.12960219  , -0.01499381 , 0.000171231019, 921.465149  , 31.2162514  , 793.9535    , 4.27        , 3           , 255         , 0           , 0
-0.1511664  , -0.127856225, 9.802262    , -9.16846038E-05, 1.125384E-05, 0.000681963167, 3.12960148  , -0.0149940038, 0.000164412617, 921.465149  , 31.2162514  , 793.953735  , 4.28        , 3           , 255         , 0           , 0
-0.13994509 , -0.13362208 , 9.791409    , -0.0001709399, -0.00014569801, -0.0002813711, 3.12959957  , -0.0149925137, 0.000167208927, 921.465149  , 31.2162514  , 793.954     , 4.29        , 3           , 255         , 0           , 0
-0.144292086, -0.132699266, 9.79261     , -0.000147117127, -0.000151938744, -0.0001490586, 3.12959814  , -0.014990977, 0.0001686813, 921.465149  , 31.2162514  , 793.9542    , 4.3         , 3           , 255         , 0           , 0
-0.149343073, -0.13040413 , 9.794988    , 0.0005309261, 0.000113755435, 0.000360451784, 3.12958622  , -0.0149905914, 0.000165348349, 921.465149  , 31.2162514  , 793.937744  , 4.31        , 3           , 255         , 0           , 0
-0.148764729, -0.130554065, 9.795822    , 0.0007324726, 0.0003527393, -2.062885E-06, 3.12959361  , -0.0149941184, 0.0001654113, 921.465149  , 31.2162514  , 793.9379    , 4.32        , 3           , 255         , 0           , 0
-0.14863655 , -0.118159078, 9.797185    , 0.000839912042, 0.0006612243, 5.60354529E-05, 3.129602    , -0.0150007391, 0.000164930258, 921.4538    , 31.2176075  , 793.9381    , 4.33        , 3           , 255         , 0           , 0
-0.14451699 , -0.116758332, 9.787088    , 0.000338314043, 0.000124361031, -0.000344965229, 3.12960529  , -0.0150019415, 0.0001683949, 921.4538    , 31.2176075  , 793.9383    , 4.34        , 3           , 255         , 0           , 0
-0.144506708, -0.11745467 , 9.791137    , 0.0002071123, -0.000250080251, 0.00017606045, 3.12960744  , -0.0149994614, 0.0001666043, 921.4538    , 31.2176075  , 793.9385    , 4.35        , 3           , 255         , 0           , 0
-0.145556033, -0.120976113, 9.794644    , 0.0001168711, -0.0001994579, 2.687399E-05, 3.12960863  , -0.01499747 , 0.000166311642, 921.4538    , 31.2176075  , 793.93866   , 4.36        , 3           , 255         , 0           , 0
-0.144952863, -0.121609345, 9.812981    , 0.000515716849, 0.000460515032, 0.0006904298, 3.12961388  , -0.0150021594, 0.000159462419, 921.4538    , 31.2176075  , 793.938843  , 4.37        , 3           , 255         , 0           , 0
