Acc X       , Acc Y       , Acc Z       , Gyro X      , Gyro Y      , Gyro Z      , Euler X     , Euler Y     , Euler Z     , Pres X      , Pres Y      , Pres Z      , Time        , Status      , LowRate X   , LowRate Y   , LowRate Z    
-0.125410154, 9.7865      , 0.173223078 , 0           , 0           , 0           , -1.58849466 , -0.0128118992, 0           , 923.6225    , 31.843111   , 774.4665    , 0           , 2           , 0           , 6.289232    , 0
-0.126482934, 9.804611    , 0.169068724 , 0.00021764735, -1.43339566E-05, -0.000405255647, -1.58849251 , -0.0128159421, 2.160846E-07, 923.6225    , 31.843111   , 774.4665    , 0.01        , 3           , 1           , 0           , 0
-0.123874918, 9.798643    , 0.162825227 , 0.000188031991, -0.000185092649, -0.0007772083, -1.58849072 , -0.0128236795, 2.20369043E-06, 923.6225    , 31.843111   , 774.4665    , 0.02        , 3           , 2           , 0           , 0
-0.1253474  , 9.804723    , 0.169772178 , 0.000269328 , 3.779831E-05, -0.000391217327, -1.588488   , -0.0128275985, 1.89493164E-06, 923.575745  , 31.3971176  , 774.4665    , 0.03        , 3           , 3           , 0           , 0
-0.123348594, 9.800626    , 0.165540814 , -0.000184364966, 1.119767E-05, 0.000153861518, -1.58848989 , -0.0128260618, 1.75568744E-06, 923.575745  , 31.3971176  , 774.4665    , 0.04        , 3           , 4           , 0           , 0
-0.120340623, 9.795468    , 0.170855269 , 0.0005156528, 0.000233903513, -0.00046804655, -1.58848464 , -0.0128307827, -5.001614E-07, 923.575745  , 31.3971176  , 774.4665    , 0.05        , 3           , 5           , 0           , 0
-0.124119595, 9.811731    , 0.17892535  , 0.000392589427, 0.0003857956, -0.000103553379, -1.58848071 , -0.0128318854, -4.339389E-06, 923.575745  , 31.3971176  , 774.4665    , 0.06        , 3           , 6           , 0           , 0
-0.124307111, 9.802293    , 0.176620811 , 0.0005517509, -2.18133209E-07, 0.000764984637, -1.58847535 , -0.0128242364, -4.471647E-06, 923.575745  , 31.3971176  , 774.4665    , 0.07        , 3           , 7           , 0           , 0
-0.136782154, 9.80054     , 0.182798713 , 0.000183055177, -4.08219057E-06, -0.000148134844, -1.58847344 , -0.0128257181, -4.40505255E-06, 923.575745  , 31.3971176  , 774.4665    , 0.08        , 3           , 8           , 5           , 5
-0.12512739 , 9.797628    , 0.167304248 , 0.000128412968, -4.13227244E-05, -0.000403421844, -1.58847213 , -0.0128297443, -3.92119046E-06, 923.575745  , 31.3971176  , 774.4665    , 0.09        , 3           , 9           , 5           , 0.1
-0.122756384, 9.795986    , 0.171215445 , 0.000135026057, -0.0004695997, -0.000431875145, -1.58847082 , -0.012833979, 8.503675E-07, 923.575745  , 31.3971176  , 774.4665    , 0.1         , 3           , 10          , 0.1         , 0.1
-0.121726908, 9.79614449  , 0.16660516  , 0.000168993371, -9.595475E-05, -0.000155218819, -1.58846438 , -0.0128342118, 1.77431582E-06, 923.575745  , 31.3971176  , 774.886841  , 0.11        , 3           , 11          , 0.0109544508, 0.0109544508
-0.120350741, 9.803431    , 0.168140426 , 0.000104541832, -0.000359890779, -0.0006232434, -1.58846331 , -0.012840379, 5.482683E-06, 923.575745  , 31.3971176  , 774.886841  , 0.12        , 3           , 12          , 0.174642488 , 0
-0.120920941, 9.805186    , 0.163351655 , 0.000415115559, -0.000185224257, -0.00013857818, -1.58845925 , -0.0128417322, 7.35898675E-06, 923.549744  , 31.4353123  , 774.8869    , 0.13        , 3           , 13          , 0           , 0
-0.120359518, 9.799871    , 0.1714962   , 0.0009502555, 5.08871453E-05, -0.0002402889, -1.58844972 , -0.0128441425, 6.89235549E-06, 923.549744  , 31.4353123  , 774.886963  , 0.14        , 3           , 14          , -0.0007494783, -0.00036231798
-0.1271371  , 9.79593849  , 0.166116625 , 0.000125565275, -1.58088224E-05, -0.00012875619, -1.58844841 , -0.0128454259, 7.073048E-06, 923.549744  , 31.4353123  , 774.887     , 0.15        , 3           , 15          , 0           , 3.03689449E-05
-0.1228561  , 9.792148    , 0.17533268  , 0.0007874927, -0.000137134717, 0.000144475722, -1.58844054 , -0.0128439562, 8.41892E-06 , 923.549744  , 31.4353123  , 774.8871    , 0.16        , 3           , 16          , 0           , 1.401298E-45
-0.131145179, 9.788588    , 0.167635053 , 0.00036964743, -0.000368842244, -4.439261E-05, -1.58843684 , -0.0128443372, 1.21142448E-05, 923.549744  , 31.4353123  , 774.887146  , 0.17        , 3           , 20          , 0           , 0
-0.127055243, 9.791177    , 0.175861448 , -0.00022293115, -6.773969E-05, 0.000212401 , -1.58843911 , -0.0128422016, 1.27536514E-05, 923.549744  , 31.4353123  , 774.8872    , 0.18        , 3           , 21          , 0           , 0
-0.119283594, 9.79772     , 0.170244128 , 0.0006259268, 0.000232490944, -0.000281365443, -1.58843279 , -0.0128450533, 1.04787105E-05, 923.549744  , 31.4353123  , 774.887268  , 0.19        , 3           , 22          , 0           , 0
-0.122834966, 9.805116    , 0.17861113  , 0.000232691353, -0.0002915132, -0.00031823758, -1.58843052 , -0.0128481863, 1.34484762E-05, 923.549744  , 31.4353123  , 774.8873    , 0.2         , 3           , 40          , 0           , 0
-0.127407476, 9.788983    , 0.1758578   , 0.0006792187, -6.1890576E-05, -0.000400530145, -1.588416   , -0.0128448671, 1.40385173E-05, 923.549744  , 31.4353123  , 775.0037    , 0.21        , 3           , 41          , 0           , 0
-0.122353539, 9.80151     , 0.169702262 , 2.79495725E-05, 0.000470634433, 0.000150477426, -1.58841562 , -0.0128434421, 9.305147E-06, 923.549744  , 31.4353123  , 775.0038    , 0.22        , 3           , 42          , 0           , 0
-0.123650923, 9.793871    , 0.177437857 , -0.00019182422, 8.209006E-05, 0.000237666391, -1.58841753 , -0.0128410812, 8.442205E-06, 923.59314   , 31.461771   , 775.003845  , 0.23        , 3           , 255         , 0           , 0
-0.132097617, 9.793334    , 0.18171294  , -0.0001984571, -0.0003680223, 7.393889E-05, -1.58841956 , -0.0128402775, 1.210866E-05, 923.59314   , 31.461771   , 775.0039    , 0.24        , 3           , 255         , 0           , 0
-0.129597113, 9.794626    , 0.178346217 , 2.078712E-06, -0.000253294, -1.52015418E-05, -1.58841956 , -0.0128403846, 1.46439288E-05, 923.59314   , 31.461771   , 775.003967  , 0.25        , 3           , 255         , 0           , 0
-0.131835744, 9.797323    , 0.16800791  , -9.917363E-05, 0.000200594819, -2.1759286E-05, -1.58842063 , -0.012840637, 1.26418845E-05, 923.59314   , 31.461771   , 775.004     , 0.26        , 3           , 255         , 0           , 0
-0.12332283 , 9.795977    , 0.175174549 , -3.92182847E-05, 0.00026123377, -0.000218536225, -1.58842087 , -0.0128428685, 1.00679636E-05, 923.59314   , 31.461771   , 775.0041    , 0.27        , 3           , 255         , 0           , 0
-0.124053851, 9.79806     , 0.165537268 , -6.917387E-05, 0.00011668753, 0.000215891632, -1.58842146 , -0.01284073 , 8.863197E-06, 923.59314   , 31.461771   , 775.00415   , 0.28        , 3           , 255         , 0           , 0
-0.1259235  , 9.795973    , 0.175831392 , -0.000107311353, -7.065019E-05, -0.000748097431, -1.58842254 , -0.0128481975, 9.701456E-06, 923.59314   , 31.461771   , 775.0042    , 0.29        , 3           , 255         , 0           , 0
-0.126537949, 9.799556    , 0.168500945 , 0.000627116 , -0.000184716948, 0.000104795865, -1.58841622 , -0.0128471162, 1.15297935E-05, 923.59314   , 31.461771   , 775.0043    , 0.3         , 3           , 255         , 0           , 0
-0.128469333, 9.796099    , 0.168610126 , 0.000672079856, 0.0005440114, -0.0005441008, -1.58841228 , -0.0128553156, 6.22407742E-06, 923.59314   , 31.461771   , 774.9127    , 0.31        , 3           , 255         , 0           , 0
-0.129056484, 9.791759    , 0.163437143 , 0.000602388754, -0.000152030349, -0.000382363942, -1.58840632 , -0.0128591107, 7.811649E-06, 923.59314   , 31.461771   , 774.9128    , 0.32        , 3           , 255         , 0           , 0
-0.130360514, 9.802598    , 0.179200783 , 0.000161019911, -0.000501038041, 0.0005606494, -1.58840477 , -0.0128534157, 1.27219864E-05, 923.619263  , 31.47663    , 774.912842  , 0.33        , 3           , 255         , 0           , 0
-0.117362916, 9.798311    , 0.172823265 , 0.0008627575, -0.00040653898, -0.000573168567, -1.58839607 , -0.0128590753, 1.68872066E-05, 923.619263  , 31.47663    , 774.9129    , 0.34        , 3           , 255         , 0           , 0
-0.13482371 , 9.795479    , 0.177116185 , 0.0007278665, -8.443763E-05, -0.000674659, -1.5883888  , -0.012865806, 1.78498085E-05, 923.619263  , 31.47663    , 774.912964  , 0.35        , 3           , 255         , 0           , 0
-0.131721139, 9.802393    , 0.170136362 , -0.0002495334, 4.622797E-05, -0.000303385459, -1.5883913  , -0.0128688449, 1.74413926E-05, 923.619263  , 31.47663    , 774.913     , 0.36        , 3           , 255         , 0           , 0
-0.117618166, 9.797154    , 0.174642414 , -0.000187348283, -0.000101772806, 0.00011102805, -1.58839321 , -0.01286772 , 1.84403143E-05, 923.619263  , 31.47663    , 774.9131    , 0.37        , 3           , 255         , 0           , 0
-0.123628989, 9.795743    , 0.171588749 , -0.000240354391, 1.45795348E-05, 0.00054041663, -1.58839548 , -0.0128623173, 1.819862E-05, 923.619263  , 31.47663    , 774.913147  , 0.38        , 3           , 255         , 0           , 0
-0.126411289, 9.794227    , 0.166185588 , 0.000453009648, 0.000224888543, -0.000161719858, -1.588391   , -0.0128639722, 1.59776973E-05, 923.619263  , 31.47663    , 774.9132    , 0.39        , 3           , 255         , 0           , 0
-0.135134414, 9.793299    , 0.171352386 , 9.447685E-06, 0.000165268313, -0.000266684685, -1.58839083 , -0.0128666712, 1.43719617E-05, 923.619263  , 31.47663    , 774.913269  , 0.4         , 3           , 255         , 0           , 0
-0.130095989, 9.793172    , 0.171785444 , -7.801084E-05, 0.000485309574, -0.000186697085, -1.588389   , -0.01287267 , 9.518906E-06, 923.619263  , 31.47663    , 774.8075    , 0.41        , 3           , 255         , 0           , 0
-0.1317103  , 9.79471     , 0.173186228 , 2.452149E-05, -0.0002982663, 2.68986514E-05, -1.58838892 , -0.0128723476, 1.249659E-05, 923.619263  , 31.47663    , 774.807556  , 0.42        , 3           , 255         , 0           , 0
-0.125966042, 9.798391    , 0.166546121 , -0.0002706871, -0.0006741751, -0.00046087 , -1.58839166 , -0.0128768375, 1.93186261E-05, 923.5339    , 31.4878235  , 774.8076    , 0.43        , 3           , 255         , 0           , 0
-0.123976544, 9.795273    , 0.173781186 , -0.000291985751, -0.000400712772, -0.000701309065, -1.5883944  , -0.0128837777, 2.3447994E-05, 923.5339    , 31.4878235  , 774.8077    , 0.44        , 3           , 255         , 0           , 0
-0.129371747, 9.793953    , 0.171636611 , -0.000460520678, 4.88404476E-05, -0.0008454101, -1.58839917 , -0.0128922379, 2.31085E-05 , 923.5339    , 31.4878235  , 774.807739  , 0.45        , 3           , 255         , 0           , 0
-0.11631529 , 9.792142    , 0.189530537 , 0.0006111016, 2.84743146E-05, -0.000148581777, -1.588393   , -0.0128937289, 2.28505014E-05, 923.5339    , 31.4878235  , 774.807861  , 0.46        , 3           , 255         , 0           , 0
-0.129360855, 9.793476    , 0.168439686 , 0.0006125361, -1.90674909E-05, 0.000179310417, -1.58838677 , -0.0128919324, 2.3008839E-05, 923.5339    , 31.4878235  , 774.808     , 0.47        , 3           , 255         , 0           , 0
-0.12440677 , 9.798415    , 0.173231333 , 0.000488728634, 2.88840674E-05, 0.0006936338, -1.58838189 , -0.0128850015, 2.25976255E-05, 923.5339    , 31.4878235  , 774.8081    , 0.48        , 3           , 255         , 0           , 0
-0.127260089, 9.80217552  , 0.177612767 , -7.308804E-05, 0.000137853625, 0.000298478844, -1.5883826  , -0.0128820417, 2.11665283E-05, 923.5339    , 31.4878235  , 774.8082    , 0.49        , 3           , 255         , 0           , 0
-0.11855831 , 9.802164    , 0.178687185 , 0.000538790249, -0.0004275028, -0.000278862863, -1.58837724 , -0.0128847538, 2.54905535E-05, 923.5339    , 31.4878235  , 774.80835   , 0.5         , 3           , 255         , 0           , 0
-0.125771567, 9.801897    , 0.1781659   , 0.0002915652, 0.000116502226, -0.000170412051, -1.58837986 , -0.01288481 , 2.44268958E-05, 923.5339    , 31.4878235  , 774.9019    , 0.51        , 3           , 255         , 0           , 0
-0.126734063, 9.795502    , 0.178712472 , 0.000168014376, 1.47876563E-07, 0.000411710236, -1.58837819 , -0.012880696, 2.43528448E-05, 923.5339    , 31.4878235  , 774.902039  , 0.52        , 3           , 255         , 0           , 0
-0.127178714, 9.796556    , 0.171952367 , 0.0002103441, 0.00027784548, -0.000211772349, -1.588376   , -0.01288286 , 2.16117387E-05, 923.5936    , 31.4962349  , 774.902161  , 0.53        , 3           , 255         , 0           , 0
-0.122544132, 9.796606    , 0.159417421 , 0.0002995314, 0.0002465965, -1.04517676E-05, -1.58837306 , -0.0128830085, 1.914772E-05, 923.5936    , 31.4962349  , 774.9023    , 0.54        , 3           , 255         , 0           , 0
-0.1262295  , 9.797613    , 0.165114447 , 0.0007788396, 3.49580368E-05, -0.000225473108, -1.5883652  , -0.0128852688, 1.88370977E-05, 923.5936    , 31.4962349  , 774.9024    , 0.55        , 3           , 255         , 0           , 0
-0.131396592, 9.796161    , 0.172519565 , 0.0004720629, 1.08622771E-05, -0.000101008787, -1.58836043 , -0.01288628 , 1.87462865E-05, 923.5936    , 31.4962349  , 774.9025    , 0.56        , 3           , 255         , 0           , 0
-0.1217219  , 9.796629    , 0.183774784 , 0.000140842341, 0.000390922127, -3.88571862E-05, -1.58835912 , -0.0128867365, 1.4845119E-05, 923.5936    , 31.4962349  , 774.902649  , 0.57        , 3           , 255         , 0           , 0
-0.123719037, 9.796837    , 0.172947645 , 0.00028892752, 7.15956849E-05, -6.09389426E-05, -1.58835626 , -0.0128873605, 1.41400478E-05, 923.5936    , 31.4962349  , 774.9028    , 0.58        , 3           , 255         , 0           , 0
-0.123729631, 9.79627     , 0.176086634 , 0.000356610457, -0.000162062963, -0.000281965651, -1.58835268 , -0.0128901517, 1.581098E-05, 923.5936    , 31.4962349  , 774.9029    , 0.59        , 3           , 255         , 0           , 0
-0.136049166, 9.797201    , 0.170433745 , 0.000287906034, 0.000438007322, 7.696499E-05, -1.58834982 , -0.0128894579, 1.14175655E-05, 923.5936    , 31.4962349  , 774.903     , 0.6         , 3           , 255         , 0           , 0
-0.1217795  , 9.794565    , 0.175149173 , 0.000236102089, 0.000394281931, -0.000218150846, -1.58834946 , -0.0128923738, 7.53875065E-06, 923.5936    , 31.4962349  , 774.8724    , 0.61        , 3           , 255         , 0           , 0
-0.1211182  , 9.793087    , 0.171707    , 0.000597637671, 0.000190864084, -0.000330557436, -1.58834338 , -0.0128957089, 5.688061E-06, 923.5936    , 31.4962349  , 774.8725    , 0.62        , 3           , 255         , 0           , 0
-0.131544128, 9.792425    , 0.172344953 , 0.00012071291, 4.062138E-05, 0.0005248129, -1.58834231 , -0.0128904711, 5.18976049E-06, 923.5719    , 31.5011883  , 774.8726    , 0.63        , 3           , 255         , 0           , 0
-0.130614966, 9.791088    , 0.172023982 , 1.8519233E-05, 0.000116872921, 0.0002977762, -1.58834207 , -0.0128875142, 3.9696265E-06, 923.5719    , 31.5011883  , 774.872742  , 0.64        , 3           , 255         , 0           , 0
-0.123610519, 9.793661    , 0.1711756   , 0.00020251784, -6.78054639E-05, -0.000126540268, -1.58834    , -0.0128887678, 4.66957363E-06, 923.5719    , 31.5011883  , 774.872864  , 0.65        , 3           , 255         , 0           , 0
-0.128187329, 9.788275    , 0.176081225 , 6.850285E-05, 7.161673E-05, 0.0005512465, -1.58833945 , -0.0128832674, 3.8559956E-06, 923.5719    , 31.5011883  , 774.873     , 0.66        , 3           , 255         , 0           , 0
-0.1266791  , 9.79089451  , 0.177587941 , 0.0004352775, -0.000250059122, -7.24803249E-05, -1.588335   , -0.0128839482, 6.36891264E-06, 923.5719    , 31.5011883  , 774.8731    , 0.67        , 3           , 255         , 0           , 0
-0.1373674  , 9.803128    , 0.172065854 , 0.000323320972, -6.74455951E-05, 0.000512792671, -1.58833182 , -0.012878811, 6.9533653E-06, 923.5719    , 31.5011883  , 774.8732    , 0.68        , 3           , 255         , 0           , 0
-0.131103367, 9.798673    , 0.171260521 , -7.77433743E-05, 2.989074E-05, 6.00635976E-05, -1.58833265 , -0.0128782149, 6.64414029E-06, 923.5719    , 31.5011883  , 774.873352  , 0.69        , 3           , 255         , 0           , 0
-0.1261423  , 9.803049    , 0.178782374 , 0.0003688645, 0.0004673007, 5.40604669E-05, -1.588329   , -0.0128777567, 1.961528E-06, 923.5719    , 31.5011883  , 774.8735    , 0.7         , 3           , 255         , 0           , 0
-0.127816916, 9.794001    , 0.176519543 , -0.00021297473, 3.907195E-05, 0.000461346732, -1.58833671 , -0.012877658, 1.56195756E-06, 923.5719    , 31.5011883  , 774.881165  , 0.71        , 3           , 255         , 0           , 0
-0.135720223, 9.79392052  , 0.175108477 , 6.819854E-05, -0.000167578692, 0.0006154701, -1.58833611 , -0.012871475, 3.12950328E-06, 923.5719    , 31.5011883  , 774.881348  , 0.72        , 3           , 255         , 0           , 0
-0.135579884, 9.802231    , 0.165630564 , -0.000385510153, 2.49255681E-05, 0.0004978322, -1.58833992 , -0.0128665017, 2.79326787E-06, 923.5475    , 31.5055981  , 774.881531  , 0.73        , 3           , 255         , 0           , 0
-0.129143879, 9.793802    , 0.18109332  , 0.000152381836, 0.0003928908, 0.000116309719, -1.58833838 , -0.0128654074, -1.15446994E-06, 923.5475    , 31.5055981  , 774.8817    , 0.74        , 3           , 255         , 0           , 0
-0.126404092, 9.796565    , 0.177022979 , 0.0005939122, -0.0005193357, 0.00014379817, -1.58833253 , -0.0128638791, 4.01246962E-06, 923.5475    , 31.5055981  , 774.8819    , 0.75        , 3           , 255         , 0           , 0
-0.121424481, 9.800159    , 0.184394524 , -6.369129E-05, -0.000208568817, 0.000229678335, -1.58833313 , -0.0128615461, 6.058755E-06, 923.5475    , 31.5055981  , 774.8821    , 0.76        , 3           , 255         , 0           , 0
-0.123039782, 9.803775    , 0.170712024 , -4.55816044E-05, 0.000217977926, -0.0001863608, -1.58833373 , -0.0128634479, 3.91187859E-06, 923.5475    , 31.5055981  , 774.882263  , 0.77        , 3           , 255         , 0           , 0
-0.125092164, 9.791575    , 0.17299591  , 9.162462E-05, 0.000208633777, -0.000266745337, -1.58833277 , -0.0128661515, 1.87351054E-06, 923.5475    , 31.5055981  , 774.882446  , 0.78        , 3           , 255         , 0           , 0
-0.130853608, 9.798889    , 0.174586311 , -0.0001826667, -0.0003984676, 4.51984561E-05, -1.58833468 , -0.01286563 , 5.84965528E-06, 923.5475    , 31.5055981  , 774.8826    , 0.79        , 3           , 255         , 0           , 0
-0.132175639, 9.797608    , 0.173434958 , 0.000255472958, 0.0003114784, -0.000470630534, -1.58833218 , -0.0128703909, 2.81794973E-06, 923.5475    , 31.5055981  , 774.8828    , 0.8         , 3           , 255         , 0           , 0
-0.128304526, 9.797923    , 0.1754512   , -0.00040250225, 0.000229723344, 8.984959E-05, -1.58834434 , -0.0128761511, 6.100668E-07, 923.5475    , 31.5055981  , 774.9189    , 0.81        , 3           , 255         , 0           , 0
-0.121454194, 9.797213    , 0.171846479 , -0.000231078942, 0.000299801031, 0.000323952554, -1.5883466  , -0.0128729651, -2.44352714E-06, 923.5475    , 31.5055981  , 774.9191    , 0.82        , 3           , 255         , 0           , 0
-0.115042016, 9.800991    , 0.172246978 , 0.000172057771, 0.000255239778, -2.49535733E-05, -1.58834493 , -0.0128732584, -4.991371E-06, 923.5839    , 31.5070229  , 774.9194    , 0.83        , 3           , 255         , 0           , 0
-0.137138993, 9.795371    , 0.165360123 , -4.46559279E-05, 0.000464248355, 0.000237209315, -1.58834541 , -0.0128709693, -9.673983E-06, 923.5839    , 31.5070229  , 774.9196    , 0.84        , 3           , 255         , 0           , 0
-0.128764361, 9.787752    , 0.168129042 , 0.00018521829, 0.000229015772, -0.000402109581, -1.58834362 , -0.01287503 , -1.18935086E-05, 923.5839    , 31.5070229  , 774.919861  , 0.85        , 3           , 255         , 0           , 0
-0.130633324, 9.794151    , 0.1651183   , 0.0005212024, 0.000378904049, -9.25837157E-05, -1.58833826 , -0.0128760207, -1.56656788E-05, 923.5839    , 31.5070229  , 774.9201    , 0.86        , 3           , 255         , 0           , 0
-0.125423923, 9.791309    , 0.166567236 , 0.00102950563, -3.56267847E-05, 0.000206937926, -1.58832788 , -0.0128739458, -1.53462079E-05, 923.5839    , 31.5070229  , 774.920349  , 0.87        , 3           , 255         , 0           , 0
-0.125031263, 9.795488    , 0.168228611 , 0.0004950998, -0.000371393951, 0.00104875676, -1.588323   , -0.0128633948, -1.18171338E-05, 923.5839    , 31.5070229  , 774.9206    , 0.88        , 3           , 255         , 0           , 0
-0.128900319, 9.80045     , 0.1754951   , 0.0003233592, -0.000120422919, -0.0001811837, -1.58831978 , -0.0128651857, -1.05816325E-05, 923.5839    , 31.5070229  , 774.920837  , 0.89        , 3           , 255         , 0           , 0
-0.124241769, 9.79639     , 0.164419442 , 9.40045E-05 , 0.000142863966, 0.000437075476, -1.58831882 , -0.012860843, -1.208584E-05, 923.5839    , 31.5070229  , 774.9211    , 0.9         , 3           , 255         , 0           , 0
-0.121716663, 9.803032    , 0.179477289 , 9.09064E-05 , 2.91116885E-06, 0.000340345025, -1.588311   , -0.012858402, -1.22646707E-05, 923.5839    , 31.5070229  , 774.907654  , 0.91        , 3           , 255         , 0           , 0
-0.128981963, 9.79863548  , 0.172221333 , -0.0003813519, -0.000199511152, -0.000232588267, -1.58831477 , -0.0128606958, -1.0229096E-05, 923.5839    , 31.5070229  , 774.9079    , 0.92        , 3           , 255         , 0           , 0
-0.128433034, 9.800242    , 0.168971658 , 0.000163834658, 0.000326343754, 0.00022047339, -1.5883131  , -0.0128585473, -1.35309074E-05, 923.578064  , 31.5095329  , 774.908142  , 0.93        , 3           , 255         , 0           , 0
-0.120551288, 9.790159    , 0.167425945 , 0.0006305858, -0.000483744516, 0.000492206251, -1.58830678 , -0.0128535423, -8.780303E-06, 923.578064  , 31.5095329  , 774.9084    , 0.94        , 3           , 255         , 0           , 0
-0.11904601 , 9.798411    , 0.168721348 , 0.000298316416, 5.26560179E-05, 0.00110552355, -1.58830369 , -0.0128424978, -9.500275E-06, 923.578064  , 31.5095329  , 774.9086    , 0.95        , 3           , 255         , 0           , 0
-0.127595231, 9.79385     , 0.168417454 , 0.0002820314, 0.000491841754, 8.930122E-05, -1.58830082 , -0.0128416913, -1.44338983E-05, 923.578064  , 31.5095329  , 774.9089    , 0.96        , 3           , 255         , 0           , 0
-0.117113307, 9.783345    , 0.165935323 , 0.000371436 , 3.264961E-05, 0.000521592738, -1.58829713 , -0.0128364833, -1.48516283E-05, 923.578064  , 31.5095329  , 774.9091    , 0.97        , 3           , 255         , 0           , 0
-0.1186872  , 9.796143    , 0.178136185 , 3.400084E-05, -0.000452116336, 3.1442356E-05, -1.58829677 , -0.0128360894, -1.03362045E-05, 923.578064  , 31.5095329  , 774.909363  , 0.98        , 3           , 255         , 0           , 0
-0.125800952, 9.791948    , 0.17206943  , -4.05848841E-05, 9.26285E-05 , 0.000140873948, -1.58829713 , -0.012834697, -1.1287163E-05, 923.578064  , 31.5095329  , 774.9096    , 0.99        , 3           , 255         , 0           , 0
-0.122544006, 9.794497    , 0.181691378 , 7.58172246E-06, -1.003599E-05, -0.000108136373, -1.58829713 , -0.0128357764, -1.11674781E-05, 923.578064  , 31.5095329  , 774.909851  , 1           , 3           , 0           , 7.28923655  , 100
-0.126412109, 9.791109    , 0.172831029 , 0.000318446575, -0.000113826507, -0.000501484261, -1.588296   , -0.0128332134, -9.914745E-06, 923.578064  , 31.5095329  , 774.904968  , 1.01        , 3           , 1           , 0           , 0
-0.130189776, 9.795739    , 0.1794091   , 0.000523530063, 0.000299027684, 0.00011465748, -1.58829081 , -0.0128321191, -1.29240971E-05, 923.578064  , 31.5095329  , 774.9052    , 1.02        , 3           , 2           , 0           , 0
-0.125223666, 9.788101    , 0.171837047 , 0.000183714379, -0.000188654667, 7.951191E-05, -1.5882889  , -0.0128312912, -1.1051985E-05, 923.5641    , 31.5134     , 774.905457  , 1.03        , 3           , 3           , 0           , 0
-0.122470722, 9.800199    , 0.174716637 , -0.0001606188, 0.000150328342, 5.55636252E-05, -1.58829045 , -0.0128307641, -1.256504E-05, 923.5641    , 31.5134     , 774.9057    , 1.04        , 3           , 4           , 0           , 0
-0.126577586, 9.788875    , 0.165654629 , 0.000345665583, 0.000179546885, 0.000579718733, -1.58828712 , -0.012825   , -1.44618343E-05, 923.5641    , 31.5134     , 774.905945  , 1.05        , 3           , 5           , 0           , 0
-0.125731722, 9.791322    , 0.16989401  , 0.0008897646, -0.000153985951, -0.000283719681, -1.58827817 , -0.012827808, -1.28719385E-05, 923.5641    , 31.5134     , 774.9062    , 1.06        , 3           , 6           , 0           , 0
-0.1256633  , 9.789189    , 0.167120859 , -0.000159159768, 5.860263E-05, 0.000149769956, -1.58827984 , -0.0128263216, -1.34838656E-05, 923.5641    , 31.5134     , 774.906433  , 1.07        , 3           , 7           , 0           , 0
-0.128989279, 9.788649    , 0.17506209  , 4.06475738E-05, 1.73159351E-05, 0.000205734061, -1.58827949 , -0.0128242662, -1.36924991E-05, 923.5641    , 31.5134     , 774.9067    , 1.08        , 3           , 8           , 5           , 5
-0.12487217 , 9.795554    , 0.172446191 , 0.000542043 , -0.000197040179, 0.000134156115, -1.58827412 , -0.0128228907, -1.174541E-05, 923.5641    , 31.5134     , 774.9069    , 1.09        , 3           , 9           , 5           , 0.1
-0.125827461, 9.798529    , 0.162476867 , 0.0004616291, 8.75884143E-05, -2.77396921E-05, -1.58826947 , -0.012823184, -1.26162677E-05, 923.5641    , 31.5134     , 774.907166  , 1.1         , 3           , 10          , 0.1         , 0.1
-0.120754741, 9.797109    , 0.1690388   , 0.000256917323, -1.840014E-05, 3.68152469E-05, -1.58826649 , -0.0128244879, -1.24448907E-05, 923.5641    , 31.5134     , 774.9176    , 1.11        , 3           , 11          , 0.009560349 , 0.009560349
-0.117754743, 9.799538    , 0.17243658  , 0.000369955262, 0.000189571467, -0.000269409647, -1.5882628  , -0.0128272157, -1.42932522E-05, 923.5641    , 31.5134     , 774.917847  , 1.12        , 3           , 12          , 0.174642846 , 0
-0.121263608, 9.788126    , 0.179705411 , -1.41124474E-06, 1.9983534E-05, -0.000409090571, -1.5882628  , -0.0128313089, -1.44217856E-05, 923.565     , 31.5138741  , 774.9181    , 1.13        , 3           , 13          , 0           , 0
-0.118865706, 9.792379    , 0.172944814 , -9.87604144E-05, -0.000116081646, -0.000153772708, -1.58826375 , -0.012832826, -1.32347186E-05, 923.565     , 31.5138741  , 774.918335  , 1.14        , 3           , 14          , -0.0007494699, -0.00036231798
-0.11612463 , 9.797815    , 0.1698648   , -0.000552727433, -0.00046766657, -0.00072274456, -1.58826923 , -0.01283997 , -8.432424E-06, 923.565     , 31.5138741  , 774.9186    , 1.15        , 3           , 15          , 0           , 3.03731267E-05
-0.121176109, 9.792848    , 0.170796186 , -0.000115130038, -0.000557268155, 0.000250541139, -1.58827043 , -0.0128373681, -2.904103E-06, 923.565     , 31.5138741  , 774.9188    , 1.16        , 3           , 16          , 0           , 1.401298E-45
-0.126101762, 9.799013    , 0.179442808 , -0.00019340188, -0.0002481674, 1.13641163E-05, -1.58827245 , -0.01283721 , -4.2425242E-07, 923.565     , 31.5138741  , 774.9191    , 1.17        , 3           , 20          , 0           , 0
-0.136792228, 9.788897    , 0.169173464 , 0.000299987558, -0.0002626167, -0.000635098, -1.58826947 , -0.0128435139, 2.3117334E-06, 923.565     , 31.5138741  , 774.919434  , 1.18        , 3           , 21          , 0           , 0
-0.135569692, 9.787659    , 0.174760655 , 0.000698803 , -0.000127886859, -0.000327995716, -1.58826244 , -0.0128467707, 3.64736E-06 , 923.565     , 31.5138741  , 774.919739  , 1.19        , 3           , 22          , 0           , 0
-0.132608578, 9.789921    , 0.16990836  , 0.000477006077, 0.000180983712, -0.0001986778, -1.58825755 , -0.0128487889, 1.87257854E-06, 923.565     , 31.5138741  , 774.920044  , 1.2         , 3           , 40          , 0           , 0
-0.119979717, 9.791228    , 0.1807863   , -0.00011265534, 0.0001414986, -1.82787371E-05, -1.58826339 , -0.0128460573, 5.201866E-07, 923.565     , 31.5138741  , 774.927734  , 1.21        , 3           , 41          , 0           , 0
-0.113082752, 9.79855     , 0.167350262 , -0.000102416263, -0.000140201068, -0.00114577566, -1.58826447 , -0.0128574874, 2.12172836E-06, 923.565     , 31.5138741  , 774.92804   , 1.22        , 3           , 42          , 0           , 0
-0.111167885, 9.787108    , 0.173026055 , 1.60642085E-05, 0.000274460559, -0.0008773783, -1.58826423 , -0.0128663089, -4.68494022E-07, 923.5988    , 31.511364   , 774.928345  , 1.23        , 3           , 255         , 0           , 0
-0.120629713, 9.791352    , 0.1659793   , -2.75369966E-05, 0.000215574648, -0.000246694777, -1.58826458 , -0.0128688132, -2.58044315E-06, 923.5988    , 31.511364   , 774.92865   , 1.24        , 3           , 255         , 0           , 0
-0.12764433 , 9.794664    , 0.178787321 , 0.0004424288, 5.25551441E-05, 3.784201E-05, -1.58826017 , -0.0128684444, -3.11180679E-06, 923.5988    , 31.511364   , 774.928955  , 1.25        , 3           , 255         , 0           , 0
-0.1283315  , 9.787119    , 0.177714318 , 0.000351453258, -0.0004569614, -0.000755935733, -1.5882566  , -0.012875922, 1.58896808E-06, 923.5988    , 31.511364   , 774.92926   , 1.26        , 3           , 255         , 0           , 0
-0.132821977, 9.793032    , 0.166830912 , -0.000299841049, -0.000508446537, 0.000130740969, -1.5882597  , -0.0128745269, 6.64972868E-06, 923.5988    , 31.511364   , 774.929565  , 1.27        , 3           , 255         , 0           , 0
-0.126957327, 9.795072    , 0.1710197   , -7.98871E-06, -0.000333482458, 0.000408713153, -1.5882597  , -0.0128703825, 9.912888E-06, 923.5988    , 31.511364   , 774.9299    , 1.28        , 3           , 255         , 0           , 0
-0.130629629, 9.791695    , 0.1661909   , 0.00039724  , -0.000123616075, 1.08156637E-05, -1.58825576 , -0.012870254, 1.1146526E-05, 923.5988    , 31.511364   , 774.9302    , 1.29        , 3           , 255         , 0           , 0
-0.115996875, 9.79936     , 0.16918017  , 0.000437186885, -9.576033E-05, 0.000257913227, -1.58825147 , -0.0128676584, 1.20592986E-05, 923.5988    , 31.511364   , 774.9305    , 1.3         , 3           , 255         , 0           , 0
-0.11652942 , 9.788002    , 0.169845477 , -0.000110080757, -0.000184305682, 0.0004727868, -1.58825433 , -0.0128535293, 1.38419928E-05, 923.5988    , 31.511364   , 774.902649  , 1.31        , 3           , 255         , 0           , 0
-0.115517177, 9.795       , 0.174502611 , 0.0003867427, 0.0002530299, 0.0008221824, -1.5882504  , -0.0128453514, 1.116748E-05, 923.5988    , 31.511364   , 774.9029    , 1.32        , 3           , 255         , 0           , 0
-0.118612722, 9.799075    , 0.171174288 , 0.000435037626, -0.00019137896, -0.000383953826, -1.58824611 , -0.0128491577, 1.31481011E-05, 923.573364  , 31.5139427  , 774.903137  , 1.33        , 3           , 255         , 0           , 0
-0.125549048, 9.789228    , 0.183285937 , 0.000439216878, -0.0006667967, -0.000222124363, -1.5882417  , -0.0128512625, 1.98541784E-05, 923.573364  , 31.5139427  , 774.9034    , 1.34        , 3           , 255         , 0           , 0
-0.130056381, 9.786035    , 0.171529    , 0.000321285537, -0.000153913948, 0.000157287461, -1.58823848 , -0.0128496625, 2.13663061E-05, 923.573364  , 31.5139427  , 774.9036    , 1.35        , 3           , 255         , 0           , 0
-0.12383379 , 9.791193    , 0.178194582 , 0.000161191274, -0.0002727701, -0.0002525438, -1.58823693 , -0.0128521416, 2.41376856E-05, 923.573364  , 31.5139427  , 774.9039    , 1.36        , 3           , 255         , 0           , 0
-0.130959183, 9.798696    , 0.169439286 , 0.000367869943, -0.000238680368, -0.0007188753, -1.58823323 , -0.0128592867, 2.66492061E-05, 923.573364  , 31.5139427  , 774.9041    , 1.37        , 3           , 255         , 0           , 0
-0.120291367, 9.802705    , 0.1770018   , 0.0005409406, 0.000466891361, 7.145291E-05, -1.58822787 , -0.0128586534, 2.19684553E-05, 923.573364  , 31.5139427  , 774.904358  , 1.38        , 3           , 255         , 0           , 0
-0.1239502  , 9.796138    , 0.1695465   , 0.000228974735, 0.000366151246, -0.000250358018, -1.58822548 , -0.0128612211, 1.83509019E-05, 923.573364  , 31.5139427  , 774.9046    , 1.39        , 3           , 255         , 0           , 0
-0.127698213, 9.790644    , 0.163784459 , 0.0006219982, -0.000220350543, -0.000296929473, -1.58821929 , -0.012864151, 2.060582E-05, 923.573364  , 31.5139427  , 774.904846  , 1.4         , 3           , 255         , 0           , 0
-0.126828954, 9.797433    , 0.17072697  , 0.000160277879, -0.000114627386, -0.00011186512, -1.58822286 , -0.0128585156, 2.1838523E-05, 923.573364  , 31.5139427  , 774.9057    , 1.41        , 3           , 255         , 0           , 0
-0.123080231, 9.796475    , 0.168114275 , -0.0001499299, 0.000488623162, -0.0002873108, -1.58822441 , -0.0128614716, 1.70036328E-05, 923.573364  , 31.5139427  , 774.905945  , 1.42        , 3           , 255         , 0           , 0
-0.120674074, 9.800503    , 0.172185779 , 0.000358179 , 0.000520495232, 2.83738573E-05, -1.58822083 , -0.0128612807, 1.17952432E-05, 923.582153  , 31.51937    , 774.9062    , 1.43        , 3           , 255         , 0           , 0
-0.120268643, 9.792292    , 0.161818251 , 0.00112332939, 0.000118024385, 0.0004277583, -1.58820963 , -0.0128570236, 1.0540648E-05, 923.582153  , 31.51937    , 774.906433  , 1.44        , 3           , 255         , 0           , 0
-0.123127483, 9.797995    , 0.179358914 , 0.000386637868, -1.15297444E-05, 0.00072829047, -1.5882057  , -0.0128497407, 1.05294721E-05, 923.582153  , 31.51937    , 774.9067    , 1.45        , 3           , 255         , 0           , 0
-0.122385956, 9.798477    , 0.1711082   , -0.00020273 , -7.112461E-05, -0.0001518367, -1.58820772 , -0.0128512457, 1.12666748E-05, 923.582153  , 31.51937    , 774.9069    , 1.46        , 3           , 255         , 0           , 0
-0.11846453 , 9.789196    , 0.184308618 , -5.25516225E-06, -0.000272470439, -0.000357169949, -1.58820784 , -0.01285477 , 1.40529564E-05, 923.582153  , 31.51937    , 774.907166  , 1.47        , 3           , 255         , 0           , 0
-0.117282331, 9.797619    , 0.175237119 , 7.01384852E-05, 0.000122725774, -0.000181264069, -1.588207   , -0.0128566045, 1.28575057E-05, 923.582153  , 31.51937    , 774.9074    , 1.48        , 3           , 255         , 0           , 0
-0.1290206  , 9.802598    , 0.179847747 , 0.000557534862, 0.000220929564, 0.000318371458, -1.58820152 , -0.0128534585, 1.05928075E-05, 923.582153  , 31.51937    , 774.907654  , 1.49        , 3           , 255         , 0           , 0
-0.128073156, 9.799531    , 0.171570569 , 0.000474223343, 9.71368863E-05, 0.000554358936, -1.58819687 , -0.0128479358, 9.524956E-06, 923.582153  , 31.51937    , 774.9079    , 1.5         , 3           , 255         , 0           , 0
-0.1233838  , 9.791374    , 0.172266558 , 0.00016926945, 0.000157041242, 0.000490924 , -1.58820093 , -0.012836745, 7.944371E-06, 923.582153  , 31.51937    , 774.899231  , 1.51        , 3           , 255         , 0           , 0
-0.130978316, 9.793064    , 0.160713285 , 0.000485925644, -0.000427539926, -0.000270568853, -1.58819616 , -0.012839376, 1.2266064E-05, 923.582153  , 31.51937    , 774.8995    , 1.52        , 3           , 255         , 0           , 0
-0.127257362, 9.793571    , 0.177223325 , 0.000170158688, 6.147771E-05, -0.000111140194, -1.58819449 , -0.0128404973, 1.1670435E-05, 923.592834  , 31.51808    , 774.8997    , 1.53        , 3           , 255         , 0           , 0
-0.12535432 , 9.786322    , 0.17883864  , -0.000143751968, -0.000116241659, 0.0006485776, -1.58819592 , -0.0128339939, 1.27196536E-05, 923.592834  , 31.51808    , 774.899963  , 1.54        , 3           , 255         , 0           , 0
-0.13267383 , 9.79495     , 0.181996435 , 0.000139737327, -9.353881E-05, 0.00036954158, -1.58819449 , -0.0128302835, 1.3590512E-05, 923.592834  , 31.51808    , 774.9002    , 1.55        , 3           , 255         , 0           , 0
-0.126088783, 9.79853249  , 0.169556811 , 0.0006532309, -2.09815917E-05, 3.11469266E-05, -1.588188   , -0.0128299668, 1.37954194E-05, 923.592834  , 31.51808    , 774.900452  , 1.56        , 3           , 255         , 0           , 0
-0.128441423, 9.7919445   , 0.164142042 , 0.000273434 , 0.000157447736, -0.00105573726, -1.58818531 , -0.0128405485, 1.2404379E-05, 923.592834  , 31.51808    , 774.9007    , 1.57        , 3           , 255         , 0           , 0
-0.126121834, 9.795706    , 0.1707402   , -0.000124232669, -0.0001697386, -8.519699E-06, -1.58818662 , -0.0128406035, 1.41037171E-05, 923.592834  , 31.51808    , 774.90094   , 1.58        , 3           , 255         , 0           , 0
-0.1325072  , 9.789929    , 0.165801749 , 0.000782416668, -0.000143170881, 6.89902845E-06, -1.58817875 , -0.01284051 , 1.55334146E-05, 923.592834  , 31.51808    , 774.9012    , 1.59        , 3           , 255         , 0           , 0
-0.124571607, 9.791556    , 0.173031732 , 0.000143655925, 8.65760958E-05, -0.000137442854, -1.58817732 , -0.0128419  , 1.469236E-05, 923.592834  , 31.51808    , 774.9014    , 1.6         , 3           , 255         , 0           , 0
-0.12714988 , 9.78969     , 0.167385772 , 0.000149664644, -0.000272097939, -0.000624369364, -1.5881784  , -0.012853547, 1.755502E-05, 923.592834  , 31.51808    , 774.881836  , 1.61        , 3           , 255         , 0           , 0
-0.12945275 , 9.792178    , 0.176166832 , -2.261257E-05, -0.000108459208, 0.000254922139, -1.58817863 , -0.0128509793, 1.85949266E-05, 923.592834  , 31.51808    , 774.881958  , 1.62        , 3           , 255         , 0           , 0
-0.121576548, 9.789569    , 0.173670441 , 0.000245795178, 2.87469011E-05, 0.000308023416, -1.58817625 , -0.012847906, 1.82540334E-05, 923.569458  , 31.5204544  , 774.8821    , 1.63        , 3           , 255         , 0           , 0
-0.116591156, 9.796576    , 0.176440984 , 0.000234133448, 5.22160262E-05, 0.000814005733, -1.58817387 , -0.0128397774, 1.75908735E-05, 923.569458  , 31.5204544  , 774.8822    , 1.64        , 3           , 255         , 0           , 0
-0.119912848, 9.796842    , 0.163666278 , 0.000366263819, -0.000395670417, 2.23731749E-05, -1.58817017 , -0.012839484, 2.15423352E-05, 923.569458  , 31.5204544  , 774.8823    , 1.65        , 3           , 255         , 0           , 0
-0.125761077, 9.797204    , 0.174068362 , 0.000198934169, -0.0004903604, -0.0006919387, -1.58816814 , -0.0128463171, 2.65649087E-05, 923.569458  , 31.5204544  , 774.882446  , 1.66        , 3           , 255         , 0           , 0
-0.129315332, 9.80149651  , 0.173212871 , 0.00038686383, -0.0003213639, -0.0008794017, -1.58816433 , -0.0128550548, 2.99309868E-05, 923.569458  , 31.5204544  , 774.882568  , 1.67        , 3           , 255         , 0           , 0
-0.128562763, 9.79939     , 0.176514    , -0.00022214849, 0.0005924284, -0.00049093453, -1.58816648 , -0.0128600644, 2.40929821E-05, 923.569458  , 31.5204544  , 774.8827    , 1.68        , 3           , 255         , 0           , 0
-0.128909528, 9.800663    , 0.171797991 , 0.000178597111, 0.000142636942, -0.00023934069, -1.58816457 , -0.0128624821, 2.27075252E-05, 923.569458  , 31.5204544  , 774.8828    , 1.69        , 3           , 255         , 0           , 0
-0.1220731  , 9.789637    , 0.16830197  , 0.000746260164, -0.00010826494, -0.000118360833, -1.588157   , -0.0128636472, 2.38103039E-05, 923.569458  , 31.5204544  , 774.883     , 1.7         , 3           , 255         , 0           , 0
-0.114456832, 9.797915    , 0.167816922 , 0.000916658668, -7.204621E-05, 0.000171937325, -1.58815217 , -0.01286001 , 2.45549545E-05, 923.569458  , 31.5204544  , 774.890564  , 1.71        , 3           , 255         , 0           , 0
-0.120548129, 9.786386    , 0.168049842 , 0.0007210764, -0.000113237067, -0.000323875574, -1.588145   , -0.0128632272, 2.57429547E-05, 923.569458  , 31.5204544  , 774.890747  , 1.72        , 3           , 255         , 0           , 0
-0.123569869, 9.794774    , 0.172775775 , 0.000325536152, -0.000129241584, 0.000231688173, -1.5881418  , -0.0128608886, 2.69952216E-05, 923.552734  , 31.51903    , 774.8909    , 1.73        , 3           , 255         , 0           , 0
-0.127881959, 9.801939    , 0.166614026 , 0.000680222 , -5.57942549E-05, -0.000212522966, -1.58813488 , -0.0128630036, 2.75889888E-05, 923.552734  , 31.51903    , 774.8911    , 1.74        , 3           , 255         , 0           , 0
-0.133768082, 9.800537    , 0.176417932 , 0.000114663271, -0.000197041983, 0.000423355435, -1.58813381 , -0.0128587354, 2.948625E-05, 923.552734  , 31.51903    , 774.8913    , 1.75        , 3           , 255         , 0           , 0
-0.136311531, 9.802053    , 0.1704073   , 0.000186650781, -0.000106089952, 0.0005820431, -1.5881319  , -0.0128529  , 3.04455862E-05, 923.552734  , 31.51903    , 774.8915    , 1.76        , 3           , 255         , 0           , 0
-0.127979308, 9.803212    , 0.18010655  , 7.33778E-05 , -0.000650507864, -0.001383506, -1.58813131 , -0.012866619, 3.71907881E-05, 923.552734  , 31.51903    , 774.891663  , 1.77        , 3           , 255         , 0           , 0
-0.1293501  , 9.796366    , 0.173295215 , 0.000599108462, -0.000709044049, -0.0013185452, -1.58812535 , -0.012879679, 4.45078767E-05, 923.552734  , 31.51903    , 774.891846  , 1.78        , 3           , 255         , 0           , 0
-0.1239879  , 9.799764    , 0.177488059 , 0.000562594738, -0.000488485559, -0.00084693 , -1.58811975 , -0.0128880618, 4.95393E-05 , 923.552734  , 31.51903    , 774.8921    , 1.79        , 3           , 255         , 0           , 0
-0.114286028, 9.794701    , 0.176208347 , 0.00051753025, -9.165623E-05, -0.000235795655, -1.58811462 , -0.0128904041, 5.04958443E-05, 923.552734  , 31.51903    , 774.892334  , 1.8         , 3           , 255         , 0           , 0
-0.124010645, 9.798634    , 0.175609142 , 0.0004779841, 3.408271E-05, 0.000650935865, -1.58811557 , -0.0128823528, 5.01149E-05 , 923.552734  , 31.51903    , 774.9181    , 1.81        , 3           , 255         , 0           , 0
-0.132083923, 9.798279    , 0.1730645   , 0.000352546922, -5.31357364E-05, 0.0002528032, -1.588112   , -0.012879815, 5.060249E-05, 923.552734  , 31.51903    , 774.918457  , 1.82        , 3           , 255         , 0           , 0
-0.13441734 , 9.797636    , 0.176450714 , -0.00019577652, 0.000140108037, -0.0001294172, -1.588114   , -0.0128811337, 4.922495E-05, 923.5727    , 31.5182838  , 774.9188    , 1.83        , 3           , 255         , 0           , 0
-0.1360274  , 9.798073    , 0.171866208 , -0.000682467769, 1.68314145E-05, -0.000119023149, -1.58812082 , -0.0128823267, 4.90773273E-05, 923.5727    , 31.5182838  , 774.9192    , 1.84        , 3           , 255         , 0           , 0
-0.12607494 , 9.793427    , 0.166759059 , 7.959205E-05, -6.946715E-05, -0.000417411153, -1.58812    , -0.0128864879, 4.984294E-05, 923.5727    , 31.5182838  , 774.919556  , 1.85        , 3           , 255         , 0           , 0
-0.12602362 , 9.802332    , 0.166498691 , 0.0007631038, 0.000179859067, -0.000357066048, -1.58811235 , -0.0128900893, 4.810728E-05, 923.5727    , 31.5182838  , 774.9199    , 1.86        , 3           , 255         , 0           , 0
-0.126042   , 9.79921     , 0.166046321 , 0.000457481918, 0.000568317 , -0.000153808578, -1.58810771 , -0.0128917247, 4.24518148E-05, 923.5727    , 31.5182838  , 774.9203    , 1.87        , 3           , 255         , 0           , 0
-0.120379269, 9.797402    , 0.170599252 , -5.09605161E-05, -0.000118256896, -0.000505730044, -1.5881083  , -0.0128967613, 4.37217823E-05, 923.5727    , 31.5182838  , 774.920654  , 1.88        , 3           , 255         , 0           , 0
-0.124726318, 9.795538    , 0.171293765 , 0.0002639864, -0.000346649525, -8.916977E-07, -1.58810556 , -0.01289671 , 4.718799E-05, 923.5727    , 31.5182838  , 774.921     , 1.89        , 3           , 255         , 0           , 0
-0.128617957, 9.792383    , 0.175533414 , 8.063915E-06, -0.000243248447, 5.80309134E-05, -1.58810556 , -0.012896087, 4.96100947E-05, 923.5727    , 31.5182838  , 774.9214    , 1.9         , 3           , 255         , 0           , 0
-0.132012874, 9.79479     , 0.1786499   , 0.000145456637, 0.000425779843, 0.000665657863, -1.58810711 , -0.0128925117, 4.527722E-05, 923.5727    , 31.5182838  , 774.921143  , 1.91        , 3           , 255         , 0           , 0
-0.124436595, 9.79709148  , 0.183503836 , 0.0005386857, 4.331197E-05, 0.0005097415, -1.58810174 , -0.0128874229, 4.47561E-05 , 923.5727    , 31.5182838  , 774.9215    , 1.92        , 3           , 255         , 0           , 0
-0.133288577, 9.786962    , 0.180067614 , -0.000127207255, 0.0002331781, 0.0003085957, -1.58810294 , -0.0128843794, 4.23712481E-05, 923.6168    , 31.51774    , 774.9219    , 1.93        , 3           , 255         , 0           , 0
-0.1341278  , 9.795027    , 0.180346549 , 0.0001413828, -6.72173337E-06, -0.000347166031, -1.58810163 , -0.0128878495, 4.24993159E-05, 923.6168    , 31.51774    , 774.922241  , 1.94        , 3           , 255         , 0           , 0
-0.123210609, 9.801718    , 0.176449656 , -8.747744E-05, -0.000287465053, -0.000582543, -1.58810246 , -0.0128936246, 4.54742076E-05, 923.6168    , 31.51774    , 774.9226    , 1.95        , 3           , 255         , 0           , 0
-0.126013651, 9.79075     , 0.176062346 , -9.49425157E-07, 0.000361147657, 0.000105942854, -1.58810246 , -0.0128926281, 4.18450072E-05, 923.6168    , 31.51774    , 774.923     , 1.96        , 3           , 255         , 0           , 0
-0.123277724, 9.782872    , 0.176113471 , -7.47554E-05, -0.0001898001, -0.000171980457, -1.588103   , -0.0128943138, 4.3771608E-05, 923.6168    , 31.51774    , 774.92334   , 1.97        , 3           , 255         , 0           , 0
-0.129304379, 9.797529    , 0.176957935 , 0.000219297362, -0.0001896352, -0.0006923094, -1.58810091 , -0.0129012037, 4.57876267E-05, 923.6168    , 31.51774    , 774.9237    , 1.98        , 3           , 255         , 0           , 0
-0.134026021, 9.799269    , 0.169596821 , 3.951392E-05, -7.952517E-05, -0.000475941342, -1.58810055 , -0.0129059488, 4.66654747E-05, 923.6168    , 31.51774    , 774.924133  , 1.99        , 3           , 255         , 0           , 0
-0.127344772, 9.798318    , 0.165230185 , 0.000464882265, -0.000172067084, -0.000399184821, -1.588096   , -0.0129099088, 4.84551674E-05, 923.6168    , 31.51774    , 774.924561  , 2           , 3           , 0           , 8.289237    , 200
-0.123561822, 9.797775    , 0.16902864  , 0.00101736607, -0.000195275759, -0.00018022873, -1.58810055 , -0.0129169365, 5.06299875E-05, 923.6168    , 31.51774    , 774.8709    , 2.01        , 3           , 1           , 0           , 0
-0.131172568, 9.786867    , 0.163785338 , -7.08168955E-05, -0.000111143338, 2.54078623E-05, -1.58810115 , -0.0129166637, 5.173696E-05, 923.6168    , 31.51774    , 774.871     , 2.02        , 3           , 2           , 0           , 0
-0.125261217, 9.790182    , 0.172045842 , -0.000197005575, 0.000179895273, -0.00012472074, -1.58810318 , -0.0129179414, 4.996031E-05, 923.5636    , 31.5169945  , 774.871033  , 2.03        , 3           , 3           , 0           , 0
-0.12035308 , 9.786804    , 0.171840712 , -5.3792086E-05, -1.19537581E-05, -0.000189444792, -1.58810377 , -0.0129198311, 5.01121358E-05, 923.5636    , 31.5169945  , 774.8711    , 2.04        , 3           , 4           , 0           , 0
-0.128800541, 9.786693    , 0.168349892 , 0.000226112956, -0.000148709456, 0.00017613369, -1.58810151 , -0.0129180448, 5.156791E-05, 923.5636    , 31.5169945  , 774.871155  , 2.05        , 3           , 5           , 0           , 0
-0.129417449, 9.788275    , 0.167202726 , -8.256431E-05, 8.544157E-05, -0.000403077138, -1.58810234 , -0.01292209 , 5.078367E-05, 923.5636    , 31.5169945  , 774.8712    , 2.06        , 3           , 6           , 0           , 0
-0.124545828, 9.793074    , 0.1762121   , 0.00076436816, 0.000226161588, -0.0002932225, -1.58809459 , -0.0129250586, 4.8573E-05  , 923.5636    , 31.5169945  , 774.8713    , 2.07        , 3           , 7           , 0           , 0
-0.127054751, 9.799402    , 0.16242601  , 0.000226035423, -0.000281311164, -0.000116766474, -1.58809233 , -0.0129261781, 5.140539E-05, 923.5636    , 31.5169945  , 774.871338  , 2.08        , 3           , 8           , 5           , 5
-0.12190108 , 9.801319    , 0.172246292 , -0.000102418591, 7.28571E-05 , -0.001064198, -1.5880934  , -0.0129368305, 5.08614539E-05, 923.5636    , 31.5169945  , 774.8714    , 2.09        , 3           , 9           , 5           , 0.1
-0.1242792  , 9.78526     , 0.16238974  , 0.000648802554, 0.0001119753, -0.00074116257, -1.58808684 , -0.0129442587, 4.986999E-05, 923.5636    , 31.5169945  , 774.87146   , 2.1         , 3           , 10          , 0.1         , 0.1
-0.1164013  , 9.788282    , 0.169083908 , 0.0003799936, -0.00024308046, -6.595309E-05, -1.58808064 , -0.0129425693, 5.227998E-05, 923.5636    , 31.5169945  , 774.8886    , 2.11        , 3           , 11          , 0.008497778 , 0.008497776
-0.1200945  , 9.790724    , 0.164322987 , -6.673287E-05, -0.000210026657, 0.000459840579, -1.58808136 , -0.0129379351, 5.430065E-05, 923.5636    , 31.5169945  , 774.8888    , 2.12        , 3           , 12          , 0.174643889 , 0
-0.1312025  , 9.795522    , 0.1757322   , -0.000195385772, -7.70535553E-05, 0.000230535254, -1.58808327 , -0.0129356151, 5.5031338E-05, 923.6056    , 31.5195732  , 774.889     , 2.13        , 3           , 13          , 0           , 0
-0.131948754, 9.791789    , 0.173979759 , -0.000237021246, -0.000358540827, 0.000193466985, -1.58808565 , -0.0129336184, 5.85827656E-05, 923.6056    , 31.5195732  , 774.88916   , 2.14        , 3           , 14          , -0.0007493753, -0.0003623164
-0.133707851, 9.793098    , 0.169416025 , -0.0001639513, 0.0001147757, 0.000161552074, -1.58808732 , -0.012932024, 5.74073347E-05, 923.6056    , 31.5195732  , 774.889343  , 2.15        , 3           , 15          , 0           , 3.03501765E-05
-0.127926618, 9.79015     , 0.169060946 , -0.000186917721, 0.000187592057, 0.0003847451, -1.58808923 , -0.01292821 , 5.54648977E-05, 923.6056    , 31.5195732  , 774.8895    , 2.16        , 3           , 16          , 0           , 1.401298E-45
-0.116969243, 9.789667    , 0.1651491   , 0.000123500766, 8.06693E-05 , 0.000280083623, -1.588088   , -0.0129254228, 5.460987E-05, 923.6056    , 31.5195732  , 774.8897    , 2.17        , 3           , 20          , 0           , 0
-0.124247253, 9.783152    , 0.174964473 , 0.000195532455, 0.000347481866, 0.0002591333, -1.588086   , -0.0129228923, 5.10910359E-05, 923.6056    , 31.5195732  , 774.8899    , 2.18        , 3           , 21          , 0           , 0
-0.124744751, 9.794739    , 0.171217829 , -8.43908638E-05, 0.0003926304, -0.000367105531, -1.58808684 , -0.0129266316, 4.722852E-05, 923.6056    , 31.5195732  , 774.8901    , 2.19        , 3           , 22          , 0           , 0
-0.12083032 , 9.805209    , 0.169947654 , -0.000178471848, 0.000293859048, -0.0006739297, -1.58808863 , -0.01293342 , 4.44068464E-05, 923.6056    , 31.5195732  , 774.890259  , 2.2         , 3           , 40          , 0           , 0
-0.11452055 , 9.803388    , 0.1730682   , -0.0004166452, 0.0005331993, 0.0008742526, -1.588095   , -0.01292027 , 3.8952563E-05, 923.6056    , 31.5195732  , 774.8527    , 2.21        , 3           , 41          , 0           , 0
-0.123890318, 9.804405    , 0.180173084 , 0.000556630956, 0.000121293968, -0.000263777183, -1.58808923 , -0.01292293 , 3.77845827E-05, 923.6056    , 31.5195732  , 774.8527    , 2.22        , 3           , 42          , 0           , 0
-0.121965572, 9.791372    , 0.182036474 , 0.0009927187, -0.0003389701, -0.00043854097, -1.58807945 , -0.0129272556, 4.1250325E-05, 923.581055  , 31.52093    , 774.8527    , 2.23        , 3           , 255         , 0           , 0
-0.128223047, 9.791138    , 0.184690177 , -2.652104E-05, -0.00048638758, -0.000185144541, -1.58807993 , -0.0129290223, 4.614623E-05, 923.581055  , 31.52093    , 774.8527    , 2.24        , 3           , 255         , 0           , 0
-0.134913638, 9.79828     , 0.171287835 , 0.000373836869, -0.000448913546, 1.41306027E-05, -1.58807611 , -0.0129288035, 5.063186E-05, 923.581055  , 31.52093    , 774.8527    , 2.25        , 3           , 255         , 0           , 0
-0.12480019 , 9.796485    , 0.171648949 , 0.0002955721, -0.0005201867, -0.000302058674, -1.58807325 , -0.0129317334, 5.58849533E-05, 923.581055  , 31.52093    , 774.8527    , 2.26        , 3           , 255         , 0           , 0
-0.121944785, 9.791196    , 0.160315156 , -6.981654E-05, -0.00025608408, -0.000308475079, -1.588074   , -0.0129347714, 5.84989466E-05, 923.581055  , 31.52093    , 774.8527    , 2.27        , 3           , 255         , 0           , 0
-0.123854831, 9.791695    , 0.16976     , -6.82626851E-05, -0.000548482349, -0.000218526184, -1.58807468 , -0.0129368613, 6.402075E-05, 923.581055  , 31.52093    , 774.8527    , 2.28        , 3           , 255         , 0           , 0
-0.125426114, 9.795306    , 0.166371137 , -0.000102019229, 0.000202422627, -0.00040938548, -1.58807564 , -0.01294099 , 6.206761E-05, 923.581055  , 31.52093    , 774.8527    , 2.29        , 3           , 255         , 0           , 0
-0.131462067, 9.798231    , 0.1689379   , 0.000102036283, -0.000232903578, -0.000147022889, -1.58807468 , -0.0129424194, 6.442219E-05, 923.581055  , 31.52093    , 774.8527    , 2.3         , 3           , 255         , 0           , 0
-0.132798761, 9.80018     , 0.169948667 , -5.66844246E-05, -9.47146E-05, 5.29566E-05 , -1.58808172 , -0.0129389372, 6.544393E-05, 923.581055  , 31.52093    , 774.850769  , 2.31        , 3           , 255         , 0           , 0
-0.130865261, 9.799568    , 0.169979721 , 0.000515793334, 1.13461283E-06, -0.000409044471, -1.58807659 , -0.0129430238, 6.550355E-05, 923.581055  , 31.52093    , 774.850769  , 2.32        , 3           , 255         , 0           , 0
-0.129297927, 9.801033    , 0.17265445  , 0.000215152279, 8.608532E-05, 0.0007801042, -1.58807445 , -0.0129352408, 6.4507396E-05, 923.5906    , 31.520319   , 774.850769  , 2.33        , 3           , 255         , 0           , 0
-0.126591459, 9.792587    , 0.168207929 , 0.000192261592, -0.000394068862, 0.0009173649, -1.58807254 , -0.012926   , 6.828841E-05, 923.5906    , 31.520319   , 774.850769  , 2.34        , 3           , 255         , 0           , 0
-0.127225667, 9.790138    , 0.174410418 , 0.00033978  , 0.0001596987, 0.00061840174, -1.58806908 , -0.0129198451, 6.658581E-05, 923.5906    , 31.520319   , 774.850769  , 2.35        , 3           , 255         , 0           , 0
-0.125007182, 9.803271    , 0.1793374   , -0.000338625454, -3.94465169E-05, -0.000439171563, -1.58807254 , -0.01292423 , 6.705524E-05, 923.5906    , 31.520319   , 774.850769  , 2.36        , 3           , 255         , 0           , 0
-0.119810686, 9.802542    , 0.1834478   , -9.052368E-05, -0.000307114184, -0.000841371657, -1.58807337 , -0.0129325865, 7.027137E-05, 923.5906    , 31.520319   , 774.850769  , 2.37        , 3           , 255         , 0           , 0
-0.122138485, 9.792285    , 0.1723954   , -0.000268893025, 0.000106311549, 0.00047087553, -1.588076   , -0.0129278982, 6.91276146E-05, 923.5906    , 31.520319   , 774.850769  , 2.38        , 3           , 255         , 0           , 0
-0.128908008, 9.788364    , 0.17781125  , 0.000390540255, -7.68453756E-05, 0.00043896836, -1.58807218 , -0.0129234977, 6.981963E-05, 923.5906    , 31.520319   , 774.850769  , 2.39        , 3           , 255         , 0           , 0
-0.128358349, 9.788258    , 0.167032808 , 0.000470644474, -0.000171754189, 0.000283037953, -1.58806741 , -0.0129206367, 7.14873E-05 , 923.5906    , 31.520319   , 774.850769  , 2.4         , 3           , 255         , 0           , 0
-0.130772129, 9.79056     , 0.1760367   , 0.000104808016, -5.038199E-05, -0.000155659858, -1.58807445 , -0.0129230917, 7.212159E-05, 923.5906    , 31.520319   , 774.8366    , 2.41        , 3           , 255         , 0           , 0
-0.1229846  , 9.799743    , 0.1697745   , 0.000313066615, -9.942657E-05, 0.0002247064, -1.58807135 , -0.0129208285, 7.30772E-05 , 923.5906    , 31.520319   , 774.836548  , 2.42        , 3           , 255         , 0           , 0
-0.131108418, 9.804178    , 0.170175686 , 0.000199056638, -2.74158083E-06, -2.68960357E-05, -1.58806932 , -0.0129210977, 7.310933E-05, 923.6071    , 31.5190983  , 774.8365    , 2.43        , 3           , 255         , 0           , 0
-0.1299065  , 9.797401    , 0.166442469 , 0.000345874869, 0.000234068459, -0.0006716072, -1.58806586 , -0.0129278516, 7.08847E-05 , 923.6071    , 31.5190983  , 774.8364    , 2.44        , 3           , 255         , 0           , 0
-0.126430422, 9.795791    , 0.173751235 , 0.000256131578, 0.000397030672, -0.00036453 , -1.58806324 , -0.0129315667, 6.69784E-05 , 923.6071    , 31.5190983  , 774.836365  , 2.45        , 3           , 255         , 0           , 0
-0.131570771, 9.794551    , 0.1694508   , -0.000163120334, 9.44485655E-05, 0.000275744649, -1.588065   , -0.0129288239, 6.59869256E-05, 923.6071    , 31.5190983  , 774.8363    , 2.46        , 3           , 255         , 0           , 0
-0.125938028, 9.79375648  , 0.169565111 , -0.000251715479, -0.000158119132, 1.68118277E-05, -1.58806753 , -0.0129286284, 6.756519E-05, 923.6071    , 31.5190983  , 774.836243  , 2.47        , 3           , 255         , 0           , 0
-0.126749247, 9.79900551  , 0.1656389   , -0.0005175467, -0.000274165825, -0.000409297354, -1.58807266 , -0.012932674, 7.037756E-05, 923.6071    , 31.5190983  , 774.8362    , 2.48        , 3           , 255         , 0           , 0
-0.118814312, 9.797384    , 0.179569811 , -0.0004162214, 0.000215569409, -0.000878081541, -1.58807683 , -0.0129414909, 6.837366E-05, 923.6071    , 31.5190983  , 774.8361    , 2.49        , 3           , 255         , 0           , 0
-0.12193463 , 9.790895    , 0.179434121 , 0.000303085544, 0.000169141713, -0.000186741643, -1.58807373 , -0.0129433889, 6.671483E-05, 923.6071    , 31.5190983  , 774.83606   , 2.5         , 3           , 255         , 0           , 0
-0.118503332, 9.798502    , 0.170206621 , 0.0005892577, -0.000160507509, 0.000302823726, -1.5880729  , -0.0129402038, 6.83322E-05 , 923.6071    , 31.5190983  , 774.8013    , 2.51        , 3           , 255         , 0           , 0
-0.116261341, 9.799497    , 0.175015479 , 0.000394121744, -0.000261490059, -0.0007300241, -1.588069   , -0.012947455, 7.107239E-05, 923.6071    , 31.5190983  , 774.800964  , 2.52        , 3           , 255         , 0           , 0
-0.118392751, 9.798819    , 0.169872552 , -0.000190508144, -0.000460251, -0.0002183155, -1.58807087 , -0.0129495589, 7.571217E-05, 923.5674    , 31.51937    , 774.800659  , 2.53        , 3           , 255         , 0           , 0
-0.127190739, 9.796366    , 0.1745719   , 0.0001145298, -0.000346859684, 0.000387524924, -1.58806968 , -0.0129456241, 7.91131752E-05, 923.5674    , 31.51937    , 774.800354  , 2.54        , 3           , 255         , 0           , 0
-0.1292966  , 9.795882    , 0.1647655   , -0.000159561925, 0.0003218132, 0.000110198118, -1.58807123 , -0.012944581, 7.587608E-05, 923.5674    , 31.51937    , 774.800049  , 2.55        , 3           , 255         , 0           , 0
-0.123472348, 9.803762    , 0.176194429 , 0.000573004945, 0.000198551541, -0.000249088043, -1.58806551 , -0.0129471049, 7.39336538E-05, 923.5674    , 31.51937    , 774.799744  , 2.56        , 3           , 255         , 0           , 0
-0.1235397  , 9.802305    , 0.171249077 , 0.0007079761, 0.000230842328, 0.000192910244, -1.58805847 , -0.0129452152, 7.159211E-05, 923.5674    , 31.51937    , 774.799438  , 2.57        , 3           , 255         , 0           , 0
-0.12657769 , 9.800954    , 0.16770497  , 0.000128809363, 0.0002653656, 0.0005906064, -1.588057   , -0.0129393563, 6.883563E-05, 923.5674    , 31.51937    , 774.799133  , 2.58        , 3           , 255         , 0           , 0
-0.128384784, 9.791609    , 0.164438516 , 0.0006543585, 0.0002075694, -0.000119169286, -1.5880506  , -0.0129405819, 6.678096E-05, 923.5674    , 31.51937    , 774.7988    , 2.59        , 3           , 255         , 0           , 0
-0.121497035, 9.801771    , 0.177876189 , 0.0006064519, -0.000369905843, 0.000324892229, -1.58804452 , -0.0129372729, 7.042319E-05, 923.5674    , 31.51937    , 774.7986    , 2.6         , 3           , 255         , 0           , 0
-0.126142427, 9.792421    , 0.176883668 , 0.000411149755, -0.000288054085, -2.9090992E-05, -1.58804333 , -0.0129320389, 7.33459237E-05, 923.5674    , 31.51937    , 774.8224    , 2.61        , 3           , 255         , 0           , 0
-0.1326127  , 9.794886    , 0.169101089 , -2.54198676E-06, -0.000139636366, 0.000113194867, -1.58804333 , -0.0129308831, 7.47225349E-05, 923.5674    , 31.51937    , 774.822266  , 2.62        , 3           , 255         , 0           , 0
-0.131638482, 9.791647    , 0.1716375   , 0.0002361245, 0.000150330365, -0.0006563066, -1.58804107 , -0.0129374713, 7.333242E-05, 923.633     , 31.5235748  , 774.822144  , 2.63        , 3           , 255         , 0           , 0
-0.129874527, 9.792711    , 0.1785845   , 9.553769E-05, -4.445904E-05, -9.355195E-05, -1.58804    , -0.0129383989, 7.379347E-05, 923.633     , 31.5235748  , 774.822     , 2.64        , 3           , 255         , 0           , 0
-0.121873334, 9.792748    , 0.182001948 , 5.07029472E-06, 0.000281700515, 0.000193159067, -1.58804    , -0.0129365157, 7.094338E-05, 923.633     , 31.5235748  , 774.8219    , 2.65        , 3           , 255         , 0           , 0
-0.126773447, 9.795446    , 0.170276761 , 8.716597E-07, 0.000191195286, -0.000563491834, -1.58804    , -0.0129421838, 6.912902E-05, 923.633     , 31.5235748  , 774.8218    , 2.66        , 3           , 255         , 0           , 0
-0.118980922, 9.794802    , 0.179397643 , -0.000231550657, 5.73124562E-05, -0.000783523661, -1.58804238 , -0.0129500255, 6.86917338E-05, 923.633     , 31.5235748  , 774.821655  , 2.67        , 3           , 255         , 0           , 0
-0.120097719, 9.794504    , 0.1787309   , 0.0007513735, 0.00010565386, 0.0006173374, -1.58803487 , -0.0129438713, 6.75288757E-05, 923.633     , 31.5235748  , 774.821533  , 2.68        , 3           , 255         , 0           , 0
-0.133964792, 9.795348    , 0.186199754 , 0.0011072692, 0.000114164286, 0.000173659428, -1.58802378 , -0.0129421549, 6.63585743E-05, 923.633     , 31.5235748  , 774.8214    , 2.69        , 3           , 255         , 0           , 0
-0.136792272, 9.79278     , 0.169831842 , 1.78012415E-05, 0.000199101283, 0.000101142054, -1.58802354 , -0.01294118 , 6.435046E-05, 923.633     , 31.5235748  , 774.8213    , 2.7         , 3           , 255         , 0           , 0
-0.128516972, 9.784852    , 0.1774871   , 4.648103E-05, 0.000232684964, -0.00107708178, -1.58803773 , -0.0129542649, 6.23987362E-05, 923.633     , 31.5235748  , 774.7526    , 2.71        , 3           , 255         , 0           , 0
-0.124461852, 9.790091    , 0.172062233 , 0.000414943061, 0.000133738911, -4.45824662E-05, -1.58803356 , -0.0129547333, 6.106915E-05, 923.633     , 31.5235748  , 774.7521    , 2.72        , 3           , 255         , 0           , 0
-0.12774466 , 9.792218    , 0.17536366  , -0.000133419, -8.233971E-05, 0.000174276909, -1.58803487 , -0.0129529769, 6.186271E-05, 923.6007    , 31.5204544  , 774.7515    , 2.73        , 3           , 255         , 0           , 0
-0.11840044 , 9.798007    , 0.166619256 , 0.000277496554, -5.859998E-05, 0.000600153464, -1.58803213 , -0.0129469652, 6.23447049E-05, 923.6007    , 31.5204544  , 774.751     , 2.74        , 3           , 255         , 0           , 0
-0.119092129, 9.797083    , 0.1723977   , 0.000860108354, 0.00021462336, -0.000232398321, -1.58802354 , -0.0129493261, 6.023834E-05, 923.6007    , 31.5204544  , 774.7504    , 2.75        , 3           , 255         , 0           , 0
-0.122146189, 9.797938    , 0.162726551 , 0.000186207355, -0.0002198104, -0.000479703536, -1.58802176 , -0.0129540833, 6.251935E-05, 923.6007    , 31.5204544  , 774.7499    , 2.76        , 3           , 255         , 0           , 0
-0.1268153  , 9.791378    , 0.160141915 , 0.0005528254, -0.000427954248, 0.000262843882, -1.58801615 , -0.0129513824, 6.675257E-05, 923.6007    , 31.5204544  , 774.7493    , 2.77        , 3           , 255         , 0           , 0
-0.1267076  , 9.795172    , 0.159257635 , 0.0006139589, 0.00014618304, -5.884611E-05, -1.58801007 , -0.0129519952, 6.530004E-05, 923.6007    , 31.5204544  , 774.7488    , 2.78        , 3           , 255         , 0           , 0
-0.125104532, 9.794575    , 0.160980389 , 0.000202532741, 0.000303893816, -0.000416064868, -1.58800793 , -0.0129562076, 6.23335363E-05, 923.6007    , 31.5204544  , 774.7482    , 2.79        , 3           , 255         , 0           , 0
-0.132827386, 9.795639    , 0.172614962 , 0.0004712393, -2.88186129E-07, -0.0005706112, -1.58800316 , -0.0129619129, 6.24341337E-05, 923.6007    , 31.5204544  , 774.7477    , 2.8         , 3           , 255         , 0           , 0
-0.125012115, 9.79183     , 0.175356    , 0.000465392659, 0.000202807772, -5.21830661E-05, -1.58799708 , -0.0129591832, 6.0395756E-05, 923.6007    , 31.5204544  , 774.733154  , 2.81        , 3           , 255         , 0           , 0
-0.125214726, 9.799074    , 0.17735967  , 0.000203160627, -0.00043020185, -0.0003223508, -1.587995   , -0.0129623329, 6.47523848E-05, 923.6007    , 31.5204544  , 774.732544  , 2.82        , 3           , 255         , 0           , 0
-0.120630905, 9.797299    , 0.166530475 , 0.000333765231, 7.15849746E-05, 0.0003501597, -1.58799171 , -0.0129588451, 6.39760547E-05, 923.598755  , 31.51774    , 774.731934  , 2.83        , 3           , 255         , 0           , 0
-0.118479572, 9.800934    , 0.1802452   , 0.000196005451, 5.54757426E-05, 0.000204486627, -1.58798969 , -0.01295681 , 6.338648E-05, 923.598755  , 31.51774    , 774.7313    , 2.84        , 3           , 255         , 0           , 0
-0.124858096, 9.794256    , 0.170399576 , 0.000712403969, 0.0003471897, 0.000133876718, -1.58798254 , -0.0129555324, 5.98913975E-05, 923.598755  , 31.51774    , 774.7307    , 2.85        , 3           , 255         , 0           , 0
-0.122558847, 9.801049    , 0.176818237 , 0.000533318729, -7.98795663E-05, -0.0001865812, -1.58797717 , -0.012957382, 6.07222137E-05, 923.598755  , 31.51774    , 774.7301    , 2.86        , 3           , 255         , 0           , 0
-0.129803687, 9.7975235   , 0.170474485 , 0.0003841631, -6.30746945E-05, -0.000654876756, -1.58797324 , -0.012963919, 6.14650053E-05, 923.598755  , 31.51774    , 774.7295    , 2.87        , 3           , 255         , 0           , 0
-0.129624233, 9.795584    , 0.182584673 , 0.000181086245, 0.0002536903, -0.000317688246, -1.58797145 , -0.0129671386, 5.89828269E-05, 923.598755  , 31.51774    , 774.7289    , 2.88        , 3           , 255         , 0           , 0
-0.13160114 , 9.791685    , 0.179237038 , -7.8070676E-05, 0.000213002757, 6.027163E-05, -1.58797228 , -0.0129665714, 5.684293E-05, 923.598755  , 31.51774    , 774.7283    , 2.89        , 3           , 255         , 0           , 0
-0.122317336, 9.794119    , 0.175558373 , -9.01202438E-05, 0.000148432242, -0.0005435107, -1.58797312 , -0.0129720336, 5.5452354E-05, 923.598755  , 31.51774    , 774.727661  , 2.9         , 3           , 255         , 0           , 0
-0.120134972, 9.797084    , 0.171619922 , 0.0004173412, 5.09972742E-05, 0.000208937447, -1.58798063 , -0.012966739, 5.50579025E-05, 923.598755  , 31.51774    , 774.7188    , 2.91        , 3           , 255         , 0           , 0
-0.119618513, 9.79995     , 0.170491129 , 0.0007384352, -0.000294006575, 0.000564936956, -1.58797324 , -0.01296104 , 5.790147E-05, 923.598755  , 31.51774    , 774.7182    , 2.92        , 3           , 255         , 0           , 0
-0.122081026, 9.797728    , 0.174023062 , 0.0004089246, 0.0003513713, -4.027845E-05, -1.58796918 , -0.0129615059, 5.439567E-05, 923.5854    , 31.5197754  , 774.7176    , 2.93        , 3           , 255         , 0           , 0
-0.129496977, 9.797145    , 0.174170509 , 0.0003615674, -0.000175268418, -0.000537222833, -1.58796561 , -0.0129668452, 5.62403147E-05, 923.5854    , 31.5197754  , 774.717     , 2.94        , 3           , 255         , 0           , 0
-0.135119468, 9.794085    , 0.1775414   , 0.0006015456, -0.000191257888, -0.000847863266, -1.58795965 , -0.0129752886, 5.82982575E-05, 923.5854    , 31.5197754  , 774.7164    , 2.95        , 3           , 255         , 0           , 0
-0.135252   , 9.787654    , 0.167922139 , 0.000251964084, -0.00027064755, -0.00047686146, -1.58795714 , -0.0129800085, 6.108594E-05, 923.5854    , 31.5197754  , 774.715759  , 2.96        , 3           , 255         , 0           , 0
-0.129827037, 9.801302    , 0.176725522 , 0.0009315574, 0.000252897473, -0.0009849052, -1.58794773 , -0.0129899  , 5.87257746E-05, 923.5854    , 31.5197754  , 774.715149  , 2.97        , 3           , 255         , 0           , 0
-0.123168968, 9.796936    , 0.1698992   , 0.000679810531, 4.211429E-05, -0.0004975819, -1.58794093 , -0.0129948827, 5.8390473E-05, 923.5854    , 31.5197754  , 774.714539  , 2.98        , 3           , 255         , 0           , 0
-0.124168381, 9.798941    , 0.1795307   , 0.000870792 , 0.000177818292, -0.000645839958, -1.58793223 , -0.0130013684, 5.67232746E-05, 923.5854    , 31.5197754  , 774.7139    , 2.99        , 3           , 255         , 0           , 0
-0.122285329, 9.796465    , 0.1738723   , 0.00101246918, 0.000755032757, -0.000459322968, -1.587922   , -0.0130060911, 4.92520448E-05, 923.5854    , 31.5197754  , 774.7133    , 3           , 3           , 0           , 9.289237    , 300
-0.131217226, 9.796117    , 0.184930965 , 0.000880677 , 0.000416555355, -0.000619304, -1.58792174 , -0.0130107626, 4.53052271E-05, 923.5854    , 31.5197754  , 774.7252    , 3.01        , 3           , 1           , 0           , 0
-0.134741873, 9.80294     , 0.173916966 , 0.0004011783, 2.50355224E-05, -0.000841023633, -1.5879178  , -0.0130191762, 4.51990527E-05, 923.5854    , 31.5197754  , 774.7247    , 3.02        , 3           , 2           , 0           , 0
-0.133583724, 9.792217    , 0.181900159 , 0.0005267566, 0.0003022093, -0.000580940861, -1.58791244 , -0.0130250361, 4.2275853E-05, 923.5642    , 31.51774    , 774.7241    , 3.03        , 3           , 3           , 0           , 0
-0.131589979, 9.796413    , 0.184579462 , 0.000766227429, 0.00025234808, -0.000398539472, -1.58790469 , -0.0130290613, 3.982115E-05, 923.5642    , 31.51774    , 774.7236    , 3.04        , 3           , 4           , 0           , 0
-0.122412562, 9.79204     , 0.174272209 , 0.00185876666, -0.000179815135, -0.000110801608, -1.58788621 , -0.01303014 , 4.163785E-05, 923.5642    , 31.51774    , 774.723     , 3.05        , 3           , 5           , 0           , 0
-0.128440574, 9.798597    , 0.173167512 , 0.00172600581, -0.000233828585, -0.0006125498, -1.587869   , -0.0130362231, 4.40809163E-05, 923.5642    , 31.51774    , 774.7225    , 3.06        , 3           , 6           , 0           , 0
-0.122283474, 9.801829    , 0.168030471 , 0.0008753884, -0.000317258557, -0.000306585338, -1.58786035 , -0.013039235, 4.73063556E-05, 923.5642    , 31.51774    , 774.7219    , 3.07        , 3           , 7           , 0           , 0
-0.118346594, 9.79881     , 0.173514262 , 0.00109344  , 6.07712718E-05, -0.000380312034, -1.5878495  , -0.0130430451, 4.67633654E-05, 923.5642    , 31.51774    , 774.7214    , 3.08        , 3           , 8           , 5           , 5
-0.12365292 , 9.79885     , 0.169960111 , 0.00114042172, 9.531449E-05, -0.0008388547, -1.587838   , -0.0130514484, 4.595351E-05, 923.5642    , 31.51774    , 774.7208    , 3.09        , 3           , 9           , 5           , 0.1
-0.117875434, 9.794346    , 0.1753619   , 0.00104197487, -0.000156887138, -0.0008114222, -1.58782768 , -0.0130595351, 4.76612367E-05, 923.5642    , 31.51774    , 774.7203    , 3.1         , 3           , 10          , 0.1         , 0.1
-0.117582008, 9.786819    , 0.157377958 , 0.0004510711, -0.000198109134, -0.000168986677, -1.587836   , -0.0130592464, 4.98379231E-05, 923.5642    , 31.51774    , 774.7612    , 3.11        , 3           , 11          , 0.00775364134, 0.007753637
-0.129996747, 9.793739    , 0.166899636 , 0.000248540251, -4.99297748E-05, -0.000351936818, -1.58783352 , -0.0130627556, 5.03958363E-05, 923.5642    , 31.51774    , 774.761     , 3.12        , 3           , 12          , 0.174645633 , 0
-0.131230935, 9.802869    , 0.16549091  , 0.000555637642, 0.000161932112, 0.0003933497, -1.587828   , -0.01305885 , 4.87095349E-05, 923.584534  , 31.5171986  , 774.760742  , 3.13        , 3           , 13          , 0           , 0
-0.118904054, 9.789373    , 0.1794791   , 0.0001927474, 0.000342738844, 0.000663264 , -1.587826   , -0.0130522773, 4.51697379E-05, 923.584534  , 31.5171986  , 774.7605    , 3.14        , 3           , 14          , -0.0007490976, -0.0003623116
-0.129422411, 9.796232    , 0.16656889  , 0.000959388155, 0.0001229586, 0.000290395663, -1.58781648 , -0.0130493948, 4.38913848E-05, 923.584534  , 31.5171986  , 774.760254  , 3.15        , 3           , 15          , 0           , 3.02764929E-05
-0.1281386  , 9.796809    , 0.174705267 , 0.00113102573, 0.000284104055, -7.331863E-05, -1.58780515 , -0.0130501762, 4.10631837E-05, 923.584534  , 31.5171986  , 774.76      , 3.16        , 3           , 16          , 0           , 1.401298E-45
-0.122811481, 9.799123    , 0.164495841 , 0.0004768415, -0.000246720621, -0.00067383307, -1.58780026 , -0.0130568715, 4.36441E-05 , 923.584534  , 31.5171986  , 774.759766  , 3.17        , 3           , 20          , 0           , 0
-0.129931659, 9.79144     , 0.155225962 , 0.000460906 , -0.00017476955, -0.000222853516, -1.58779573 , -0.0130590713, 4.542913E-05, 923.584534  , 31.5171986  , 774.7595    , 3.18        , 3           , 21          , 0           , 0
-0.133723766, 9.794189    , 0.1631566   , 0.00121829927, -3.60060658E-05, 0.000240795474, -1.58778346 , -0.0130566563, 4.57476744E-05, 923.584534  , 31.5171986  , 774.7593    , 3.19        , 3           , 22          , 0           , 0
-0.12744683 , 9.795652    , 0.168606624 , 0.0007557098, 0.000161747841, 0.000563536247, -1.587776   , -0.01305105 , 4.403528E-05, 923.584534  , 31.5171986  , 774.759033  , 3.2         , 3           , 40          , 0           , 0
-0.124879494, 9.796916    , 0.16971764  , 0.000243558025, 0.000597141 , -0.000331503281, -1.58777249 , -0.0130528249, 3.810831E-05, 923.584534  , 31.5171986  , 774.766052  , 3.21        , 3           , 41          , 0           , 0
-0.1231847  , 9.796373    , 0.163431972 , 0.000831629033, 0.000190769584, -0.00100297364, -1.58776414 , -0.0130628832, 3.63707841E-05, 923.584534  , 31.5171986  , 774.765869  , 3.22        , 3           , 42          , 0           , 0
-0.121593878, 9.791293    , 0.166947812 , 0.000232549384, 6.61574E-05 , -0.000149790809, -1.58776176 , -0.0130643928, 3.57346362E-05, 923.6114    , 31.519165   , 774.7657    , 3.23        , 3           , 255         , 0           , 0
-0.121357128, 9.785074    , 0.163887069 , 0.000202377036, -0.000151623128, 0.000651159731, -1.58775973 , -0.0130578559, 3.71396563E-05, 923.6114    , 31.519165   , 774.7655    , 3.24        , 3           , 255         , 0           , 0
-0.127092913, 9.793868    , 0.168602034 , 0.000453512 , 0.000386271015, 0.000222654227, -1.5877552  , -0.0130556971, 3.32403361E-05, 923.6114    , 31.519165   , 774.7653    , 3.25        , 3           , 255         , 0           , 0
-0.128174976, 9.797811    , 0.167683885 , 0.00100348587, -0.000146528328, -0.0009155901, -1.58774519 , -0.0130648278, 3.48605136E-05, 923.6114    , 31.519165   , 774.765137  , 3.26        , 3           , 255         , 0           , 0
-0.123574354, 9.802305    , 0.179796323 , 0.0006235222, -0.0002097582, -0.000246476, -1.58773887 , -0.0130672557, 3.69990157E-05, 923.6114    , 31.519165   , 774.764954  , 3.27        , 3           , 255         , 0           , 0
-0.123912431, 9.79714     , 0.16995725  , 0.000461984542, 9.230638E-05, -0.0004410619, -1.58773422 , -0.01307168 , 3.615098E-05, 923.6114    , 31.519165   , 774.7648    , 3.28        , 3           , 255         , 0           , 0
-0.120104089, 9.794825    , 0.1762046   , 0.00114756415, 0.000497178349, 8.236242E-06, -1.58772278 , -0.0130716823, 3.11782242E-05, 923.6114    , 31.519165   , 774.7646    , 3.29        , 3           , 255         , 0           , 0
-0.121722125, 9.795138    , 0.16836822  , 0.0007380905, 0.000301810825, -0.0005811572, -1.58771539 , -0.0130775413, 2.82587444E-05, 923.6114    , 31.519165   , 774.7644    , 3.3         , 3           , 255         , 0           , 0
-0.126022145, 9.805269    , 0.175126225 , 0.000144976773, -0.000180651929, -0.000925175031, -1.58771944 , -0.0130794141, 3.02933931E-05, 923.6114    , 31.519165   , 774.732849  , 3.31        , 3           , 255         , 0           , 0
-0.1296984  , 9.801801    , 0.161155537 , 0.000132806832, 0.000138717209, 0.000376859738, -1.58771813 , -0.01307567 , 2.88427345E-05, 923.6114    , 31.519165   , 774.7325    , 3.32        , 3           , 255         , 0           , 0
-0.126364321, 9.79474     , 0.170237109 , 0.00103055325, -5.9795042E-05, 7.296346E-05, -1.58770776 , -0.01307493 , 2.9427656E-05, 923.550049  , 31.5197754  , 774.7321    , 3.33        , 3           , 255         , 0           , 0
-0.127312347, 9.799288    , 0.16346693  , 0.000445733051, 0.000296359649, -7.719404E-05, -1.58770323 , -0.0130757522, 2.64769715E-05, 923.550049  , 31.5197754  , 774.73175   , 3.34        , 3           , 255         , 0           , 0
-0.128379941, 9.796084    , 0.174704343 , 0.0007426844, 0.0002760542, -0.000148393738, -1.58769584 , -0.0130772814, 2.37414424E-05, 923.550049  , 31.5197754  , 774.7314    , 3.35        , 3           , 255         , 0           , 0
-0.132710442, 9.799961    , 0.168034166 , 0.00102278846, 0.000316103658, -0.000134616552, -1.58768559 , -0.01307868 , 2.06040168E-05, 923.550049  , 31.5197754  , 774.731     , 3.36        , 3           , 255         , 0           , 0
-0.139706418, 9.793031    , 0.1640239   , 0.0009850017, -0.000190789258, 0.000144938167, -1.58767569 , -0.0130771995, 2.24868472E-05, 923.550049  , 31.5197754  , 774.730652  , 3.37        , 3           , 255         , 0           , 0
-0.121831618, 9.791049    , 0.1684901   , 0.000486473844, -0.000576263759, 0.0005316738, -1.58767092 , -0.0130717894, 2.81590837E-05, 923.550049  , 31.5197754  , 774.7303    , 3.38        , 3           , 255         , 0           , 0
-0.133636028, 9.80226     , 0.169973671 , 9.232428E-05, 5.49538527E-06, -0.0008084376, -1.58767    , -0.0130798705, 2.824105E-05, 923.550049  , 31.5197754  , 774.7299    , 3.39        , 3           , 255         , 0           , 0
-0.129042   , 9.805681    , 0.171715811 , 0.000467710517, 0.000596659258, -0.0008505478, -1.5876652  , -0.0130884759, 2.24174582E-05, 923.550049  , 31.5197754  , 774.729553  , 3.4         , 3           , 255         , 0           , 0
-0.123124361, 9.804769    , 0.166738    , 0.000864335452, 1.40589254E-05, -0.000154013876, -1.58766067 , -0.0130917868, 2.2356453E-05, 923.550049  , 31.5197754  , 774.7898    , 3.41        , 3           , 255         , 0           , 0
-0.124337435, 9.784353    , 0.168761224 , 0.000453750719, -0.0001429602, -0.0009442337, -1.58765614 , -0.0131012034, 2.39449619E-05, 923.550049  , 31.5197754  , 774.789856  , 3.42        , 3           , 255         , 0           , 0
-0.12717703 , 9.789324    , 0.163854748 , 0.000708687643, -0.000372915674, -0.000251941237, -1.58764911 , -0.0131036593, 2.77157487E-05, 923.546753  , 31.5201836  , 774.7899    , 3.43        , 3           , 255         , 0           , 0
-0.129930347, 9.789419    , 0.170458    , 0.00137667614, -4.32582165E-05, -4.277551E-05, -1.5876354  , -0.0131040793, 2.815537E-05, 923.546753  , 31.5201836  , 774.79      , 3.44        , 3           , 255         , 0           , 0
-0.122845292, 9.805121    , 0.166905269 , 0.000713161251, 0.000435740716, 0.000296804879, -1.58762813 , -0.0131011847, 2.37484364E-05, 923.546753  , 31.5201836  , 774.790039  , 3.45        , 3           , 255         , 0           , 0
-0.117165007, 9.808462    , 0.171933338 , 0.0006192265, 0.000231710685, 2.6204274E-05, -1.58762193 , -0.0131009612, 2.14273823E-05, 923.546753  , 31.5201836  , 774.7901    , 3.46        , 3           , 255         , 0           , 0
-0.116239168, 9.799603    , 0.168958336 , 0.000393760827, -0.0003606997, -9.171822E-05, -1.587618   , -0.013101819, 2.5049605E-05, 923.546753  , 31.5201836  , 774.790161  , 3.47        , 3           , 255         , 0           , 0
-0.112528123, 9.786441    , 0.171560213 , 0.00058157905, -0.00012243024, -0.0005432283, -1.58761227 , -0.0131072272, 2.636475E-05, 923.546753  , 31.5201836  , 774.7902    , 3.48        , 3           , 255         , 0           , 0
-0.122246824, 9.78936     , 0.158119559 , 0.0006065725, -0.00031769005, -0.000452057429, -1.58760619 , -0.0131116947, 2.96167382E-05, 923.546753  , 31.5201836  , 774.7903    , 3.49        , 3           , 255         , 0           , 0
-0.1316511  , 9.791768    , 0.166546658 , 0.000365752843, -0.000276085659, -0.0002374329, -1.5876025  , -0.013114024, 3.24165376E-05, 923.546753  , 31.5201836  , 774.790344  , 3.5         , 3           , 255         , 0           , 0
-0.139496312, 9.800121    , 0.160006046 , 0.000404184946, 0.000237592627, -0.00024931677, -1.58760238 , -0.0131071648, 3.01355321E-05, 923.546753  , 31.5201836  , 774.847046  , 3.51        , 3           , 255         , 0           , 0
-0.1320689  , 9.802629    , 0.172367409 , 0.0008242042, -0.000219564972, -0.000274734746, -1.58759427 , -0.0131098749, 3.237695E-05, 923.546753  , 31.5201836  , 774.8475    , 3.52        , 3           , 255         , 0           , 0
-0.123579286, 9.798461    , 0.169606119 , 0.000826627249, 0.0001420987, -0.0006375189, -1.587586   , -0.0131162731, 3.10632131E-05, 923.5768    , 31.51998    , 774.8479    , 3.53        , 3           , 255         , 0           , 0
-0.117807746, 9.798498    , 0.1809074   , 0.000222945178, 0.00023578183, -0.000168892526, -1.58758378 , -0.0131180007, 2.87347066E-05, 923.5768    , 31.51998    , 774.8483    , 3.54        , 3           , 255         , 0           , 0
-0.118836686, 9.801123    , 0.17868571  , 0.0003858534, 0.0005280731, -5.46159936E-06, -1.58758    , -0.0131181432, 2.34545842E-05, 923.5768    , 31.51998    , 774.848755  , 3.55        , 3           , 255         , 0           , 0
-0.118872061, 9.80597     , 0.180256635 , 0.000127672334, 0.000273935962, -0.0004539405, -1.58757854 , -0.0131227272, 2.07912381E-05, 923.5768    , 31.51998    , 774.8492    , 3.56        , 3           , 255         , 0           , 0
-0.132924467, 9.803096    , 0.179765657 , 0.000159177813, -4.53808752E-05, -0.000836032559, -1.587577   , -0.0131310774, 2.13845451E-05, 923.5768    , 31.51998    , 774.8496    , 3.57        , 3           , 255         , 0           , 0
-0.124770835, 9.804556    , 0.169881865 , 0.000465916441, -0.0008505273, -0.00114971085, -1.58757234 , -0.0131424312, 3.008152E-05, 923.5768    , 31.51998    , 774.850037  , 3.58        , 3           , 255         , 0           , 0
-0.127426878, 9.790281    , 0.168223828 , 0.000193336338, -0.000528612058, 3.959365E-05, -1.58757043 , -0.013141945, 3.536025E-05, 923.5768    , 31.51998    , 774.850464  , 3.59        , 3           , 255         , 0           , 0
-0.125604585, 9.783297    , 0.167294309 , 0.0001439756, 0.0001583735, 0.000637492747, -1.587569   , -0.0131355971, 3.36692865E-05, 923.5768    , 31.51998    , 774.8509    , 3.6         , 3           , 255         , 0           , 0
-0.125526622, 9.798211    , 0.163813278 , -0.0002015442, 0.000330263574, -0.000104502884, -1.58758187 , -0.0131334821, 3.05276626E-05, 923.5768    , 31.51998    , 774.855957  , 3.61        , 3           , 255         , 0           , 0
-0.1215358  , 9.798889    , 0.161667883 , 1.26596424E-05, 0.0001182711, 3.68071051E-05, -1.58758175 , -0.0131331347, 2.93391913E-05, 923.5768    , 31.51998    , 774.856445  , 3.62        , 3           , 255         , 0           , 0
-0.121037222, 9.794138    , 0.1670452   , 0.000342722575, -9.561374E-05, -0.000452108245, -1.5875783  , -0.0131376395, 3.03711877E-05, 923.579163  , 31.5178089  , 774.856934  , 3.63        , 3           , 255         , 0           , 0
-0.124808   , 9.800781    , 0.16169858  , 0.0006064787, 0.000363498781, 0.0001552213, -1.58757222 , -0.0131361485, 2.6709844E-05, 923.579163  , 31.5178089  , 774.8574    , 3.64        , 3           , 255         , 0           , 0
-0.1251937  , 9.801169    , 0.171176538 , 0.000240509515, -0.000114174123, -0.000706742634, -1.58757    , -0.0131431948, 2.79700362E-05, 923.579163  , 31.5178089  , 774.8579    , 3.65        , 3           , 255         , 0           , 0
-0.1282806  , 9.790758    , 0.1537897   , 0.0003145115, -7.227308E-05, -0.0009258022, -1.58756685 , -0.0131524382, 2.88478877E-05, 923.579163  , 31.5178089  , 774.8584    , 3.66        , 3           , 255         , 0           , 0
-0.126658574, 9.792318    , 0.163562357 , 4.129368E-06, -0.000232737337, -0.000394455419, -1.58756685 , -0.0131563442, 3.12415941E-05, 923.579163  , 31.5178089  , 774.8589    , 3.67        , 3           , 255         , 0           , 0
-0.134145409, 9.802768    , 0.167021662 , 0.000752894848, -7.66381854E-05, -8.947853E-05, -1.58755934 , -0.0131572261, 3.202304E-05, 923.579163  , 31.5178089  , 774.8594    , 3.68        , 3           , 255         , 0           , 0
-0.131479472, 9.808004    , 0.17111358  , 0.000240464171, 0.00012227823, 0.0002614264, -1.587557   , -0.0131546324, 3.07568E-05 , 923.579163  , 31.5178089  , 774.859863  , 3.69        , 3           , 255         , 0           , 0
-0.1243016  , 9.805275    , 0.164307922 , 0.000229824043, 3.066266E-05, 0.000448169623, -1.58755457 , -0.0131501583, 3.03749148E-05, 923.579163  , 31.5178089  , 774.860352  , 3.7         , 3           , 255         , 0           , 0
-0.123465464, 9.787833    , 0.176217139 , 0.000144162332, -1.97042536E-05, 0.0004652252, -1.58755338 , -0.0131422859, 3.049553E-05, 923.579163  , 31.5178089  , 774.8607    , 3.71        , 3           , 255         , 0           , 0
-0.124476179, 9.79553     , 0.174730569 , 0.0004246448, 0.000227060315, -0.000263364927, -1.58754909 , -0.0131449569, 2.82694782E-05, 923.579163  , 31.5178089  , 774.8612    , 3.72        , 3           , 255         , 0           , 0
-0.1293427  , 9.797341    , 0.168930739 , 0.000144767051, -0.00026667575, -4.794827E-05, -1.58754754 , -0.0131453918, 3.09435381E-05, 923.6173    , 31.5188255  , 774.8617    , 3.73        , 3           , 255         , 0           , 0
-0.123957895, 9.786875    , 0.172351584 , -7.488893E-05, 1.34421571E-05, 0.000460807933, -1.58754826 , -0.0131407864, 3.073071E-05, 923.6173    , 31.5188255  , 774.8622    , 3.74        , 3           , 255         , 0           , 0
-0.128529742, 9.7938      , 0.173863858 , -8.657359E-05, 0.0005658308, -0.000336319237, -1.58754909 , -0.0131442435, 2.51297188E-05, 923.6173    , 31.5188255  , 774.8627    , 3.75        , 3           , 255         , 0           , 0
-0.128337711, 9.803045    , 0.170426518 , 0.000133464753, -3.41607956E-05, -0.000291358418, -1.58754778 , -0.013147152, 2.55204432E-05, 923.6173    , 31.5188255  , 774.863159  , 3.76        , 3           , 255         , 0           , 0
-0.128131941, 9.787682    , 0.175819755 , 1.60383061E-05, -8.30800564E-05, 0.000405586063, -1.58754754 , -0.0131430831, 2.62837275E-05, 923.6173    , 31.5188255  , 774.863647  , 3.77        , 3           , 255         , 0           , 0
-0.121360287, 9.794165    , 0.17170985  , -0.000619625731, 0.000126493163, -0.000849642, -1.58755374 , -0.0131516  , 2.51613874E-05, 923.6173    , 31.5188255  , 774.864136  , 3.78        , 3           , 255         , 0           , 0
-0.123310961, 9.797597    , 0.1652      , 0.00014306599, 0.0001543599, -0.000637890538, -1.58755231 , -0.013158001, 2.37242366E-05, 923.6173    , 31.5188255  , 774.8646    , 3.79        , 3           , 255         , 0           , 0
-0.1236238  , 9.793379    , 0.173274681 , 0.000490931 , 3.846566E-06, -0.000102576261, -1.5875473  , -0.0131590273, 2.37032818E-05, 923.6173    , 31.5188255  , 774.8651    , 3.8         , 3           , 255         , 0           , 0
-0.117933653, 9.800328    , 0.16786781  , -2.8700917E-05, 0.0003663227, 0.0009570651, -1.58756161 , -0.0131439045, 2.00628911E-05, 923.6173    , 31.5188255  , 774.8109    , 3.81        , 3           , 255         , 0           , 0
-0.13465105 , 9.804412    , 0.180831835 , 0.000402782 , -0.000141076365, -0.000361390878, -1.58755755 , -0.0131474948, 2.15335767E-05, 923.6173    , 31.5188255  , 774.8111    , 3.82        , 3           , 255         , 0           , 0
-0.133262783, 9.799584    , 0.170115814 , 0.0004050906, -0.000431352266, -0.0004383347, -1.5875535  , -0.0131518068, 2.59200169E-05, 923.573853  , 31.5176048  , 774.8113    , 3.83        , 3           , 255         , 0           , 0
-0.135764554, 9.795751    , 0.180054858 , -0.000350574323, -3.52344359E-05, -0.000334711454, -1.58755708 , -0.0131551446, 2.63289076E-05, 923.573853  , 31.5176048  , 774.811462  , 3.84        , 3           , 255         , 0           , 0
-0.1263807  , 9.795909    , 0.171335846 , -0.0003364607, 4.000083E-05, -7.642189E-05, -1.58756042 , -0.0131559158, 2.59419085E-05, 923.573853  , 31.5176048  , 774.811646  , 3.85        , 3           , 255         , 0           , 0
-0.12866509 , 9.795855    , 0.187153712 , -0.0001706254, -0.000226015021, -0.000501953647, -1.58756208 , -0.0131608974, 2.828532E-05, 923.573853  , 31.5176048  , 774.8118    , 3.86        , 3           , 255         , 0           , 0
-0.122483693, 9.782913    , 0.173993364 , 0.000210951024, -0.0003722762, 0.000130535016, -1.58756    , -0.01315953 , 3.19857827E-05, 923.573853  , 31.5176048  , 774.812     , 3.87        , 3           , 255         , 0           , 0
-0.12142285 , 9.795175    , 0.169129342 , -0.000138079049, -4.2660482E-05, 0.000104827675, -1.58756137 , -0.0131584723, 3.239514E-05, 923.573853  , 31.5176048  , 774.8122    , 3.88        , 3           , 255         , 0           , 0
-0.125329167, 9.796808    , 0.16825068  , 3.39874532E-06, -3.40538973E-05, 0.000326617854, -1.58756149 , -0.0131552024, 3.26810732E-05, 923.573853  , 31.5176048  , 774.8124    , 3.89        , 3           , 255         , 0           , 0
-0.127096   , 9.799858    , 0.1759167   , -0.0001289738, 0.000118739015, 0.0004914353, -1.5875628  , -0.0131503092, 3.14120371E-05, 923.573853  , 31.5176048  , 774.812561  , 3.9         , 3           , 255         , 0           , 0
-0.137256578, 9.794153    , 0.170226067 , 0.0001492647, -3.90590867E-06, 0.0004658658, -1.58757567 , -0.0131433746, 3.156152E-05, 923.573853  , 31.5176048  , 774.8272    , 3.91        , 3           , 255         , 0           , 0
-0.136576146, 9.796371    , 0.167646229 , -0.00029946072, 0.0005330972, -0.000167997612, -1.58757865 , -0.0131451441, 2.62595113E-05, 923.573853  , 31.5176048  , 774.827454  , 3.92        , 3           , 255         , 0           , 0
-0.1314543  , 9.792295    , 0.16353716  , -0.000371449743, 1.34736183E-05, -0.000651440758, -1.58758235 , -0.0131516578, 2.62339E-05 , 923.557861  , 31.51998    , 774.827759  , 3.93        , 3           , 255         , 0           , 0
-0.130543917, 9.7933      , 0.163536966 , -0.0005839927, -7.122249E-05, 4.14811875E-05, -1.58758819 , -0.0131512312, 2.69399061E-05, 923.557861  , 31.51998    , 774.828064  , 3.94        , 3           , 255         , 0           , 0
-0.126216859, 9.792195    , 0.169283837 , -0.0002045614, -0.0001457638, -0.000400531542, -1.58759022 , -0.0131552117, 2.84650778E-05, 923.557861  , 31.51998    , 774.828369  , 3.95        , 3           , 255         , 0           , 0
-0.128379285, 9.79121     , 0.159067824 , 0.000527173048, -0.0001745745, 0.0003329713, -1.587585   , -0.0131518533, 3.01537111E-05, 923.557861  , 31.51998    , 774.8287    , 3.96        , 3           , 255         , 0           , 0
-0.128879249, 9.791975    , 0.175031543 , -0.000154443958, -4.55146655E-05, 0.000171029562, -1.5875864  , -0.013150136, 3.05798276E-05, 923.557861  , 31.51998    , 774.829     , 3.97        , 3           , 255         , 0           , 0
-0.131235927, 9.790629    , 0.168884426 , 0.000150973618, -0.0001806611, 0.000407751038, -1.587585   , -0.0131460289, 3.231736E-05, 923.557861  , 31.51998    , 774.8293    , 3.98        , 3           , 255         , 0           , 0
-0.126359254, 9.788513    , 0.178734213 , 7.882016E-06, 9.439071E-06, -0.000415868533, -1.587585   , -0.0131501881, 3.22931446E-05, 923.557861  , 31.51998    , 774.8296    , 3.99        , 3           , 255         , 0           , 0
-0.121178493, 9.800244    , 0.171108812 , 2.9519666E-05, -0.000128943881, 0.000222293165, -1.58758461 , -0.0131479437, 3.3544482E-05, 923.557861  , 31.51998    , 774.8299    , 4           , 3           , 0           , -1          , 400
-0.1277918  , 9.801033    , 0.172855049 , 0.000500043156, -0.0002460588, -0.000178872942, -1.58758688 , -0.01315136 , 3.613146E-05, 923.557861  , 31.51998    , 774.865     , 4.01        , 3           , 1           , 0           , 0
-0.122570559, 9.79052     , 0.162712231 , 0.000824097544, 6.372991E-05, -0.000612323347, -1.58757877 , -0.0131574934, 3.55973E-05 , 923.557861  , 31.51998    , 774.8655    , 4.02        , 3           , 2           , 0           , 0
-0.129351348, 9.788191    , 0.171383053 , 0.0002776818, 0.000120172743, -2.84279649E-05, -1.58757591 , -0.013157798, 3.44004438E-05, 923.5868    , 31.5183525  , 774.865967  , 4.03        , 3           , 3           , 0           , 0
-0.122411564, 9.789565    , 0.166723311 , -5.83317E-05, -0.000219612557, -0.000155398913, -1.58757651 , -0.0131593151, 3.66213753E-05, 923.5868    , 31.5183525  , 774.866455  , 4.04        , 3           , 4           , 0           , 0
-0.126714125, 9.800161    , 0.172534674 , -0.000230343256, -0.000601016334, -0.0004553329, -1.58757889 , -0.0131637659, 4.27071682E-05, 923.5868    , 31.5183525  , 774.866943  , 4.05        , 3           , 5           , 0           , 0
-0.129312873, 9.791814    , 0.172523886 , 0.000465747056, -0.000229521771, -3.65234337E-05, -1.58757424 , -0.01316409 , 4.500774E-05, 923.5868    , 31.5183525  , 774.867432  , 4.06        , 3           , 6           , 0           , 0
-0.123427652, 9.800855    , 0.17120865  , 0.000625309534, 3.212216E-05, -4.29344655E-05, -1.587568   , -0.0131645249, 4.46938539E-05, 923.5868    , 31.5183525  , 774.8679    , 4.07        , 3           , 7           , 0           , 0
-0.126034617, 9.794335    , 0.168191582 , 0.000116819458, 0.000318704173, -0.000209627513, -1.58756685 , -0.0131666735, 4.15429167E-05, 923.5868    , 31.5183525  , 774.8684    , 4.08        , 3           , 8           , 5           , 5
-0.124140166, 9.799429    , 0.168457508 , 0.0004954981, -5.84419467E-05, -0.000312820484, -1.58756185 , -0.0131697934, 4.21795339E-05, 923.5868    , 31.5183525  , 774.868958  , 4.09        , 3           , 9           , 5           , 0.1
-0.116688922, 9.80019951  , 0.1675857   , 0.000475751935, 0.000258216984, -0.0006275972, -1.58755708 , -0.0131761115, 3.97029362E-05, 923.5868    , 31.5183525  , 774.8695    , 4.1         , 3           , 10          , 0.1         , 0.1
-0.1252963  , 9.795677    , 0.166315839 , 0.00019665272, 0.000150222 , -0.0007034613, -1.58756232 , -0.0131771425, 3.841667E-05, 923.5868    , 31.5183525  , 774.8581    , 4.11        , 3           , 11          , 0.00722517632, 0.00722517027
-0.13028501 , 9.797075    , 0.171180844 , 0.000132234883, 0.0001377161, 6.548129E-05, -1.587561   , -0.013176511, 3.70284142E-05, 923.5868    , 31.5183525  , 774.8585    , 4.12        , 3           , 12          , 0.174648076 , 0
-0.127334   , 9.798884    , 0.169690728 , 0.0001273792, 7.439972E-05, -0.000479163282, -1.58755982 , -0.0131813157, 3.636525E-05, 923.569031  , 31.5176735  , 774.858948  , 4.13        , 3           , 13          , 0           , 0
-0.121198736, 9.802069    , 0.178284839 , 0.000293886871, -0.0003290071, 0.000505300064, -1.58755684 , -0.0131762056, 3.957021E-05, 923.569031  , 31.5176735  , 774.859436  , 4.14        , 3           , 14          , -0.000748696, -0.000362302933
-0.12070749 , 9.795183    , 0.165262789 , -3.4600962E-05, 0.000189947212, 0.000749677 , -1.5875572  , -0.0131687457, 3.75448653E-05, 923.569031  , 31.5176735  , 774.8599    , 4.15        , 3           , 15          , 0           , 3.007505E-05
-0.120849036, 9.80311     , 0.169534549 , 0.0009091954, 0.000187618425, 0.00011795343, -1.58754814 , -0.0131675974, 3.56503951E-05, 923.569031  , 31.5176735  , 774.8604    , 4.16        , 3           , 16          , 0           , 1.401298E-45
-0.113880955, 9.80213451  , 0.168400213 , 9.17050638E-05, 0.000379358884, 0.00011080697, -1.5875473  , -0.0131665524, 3.18400234E-05, 923.569031  , 31.5176735  , 774.8609    , 4.17        , 3           , 20          , 0           , 0
-0.103512608, 9.854045    , 0.183439314 , 0.0019662804, 0.00140692317, -0.00097554893, -1.58752728 , -0.0131765408, 1.793464E-05, 923.569031  , 31.5176735  , 774.8614    , 4.18        , 3           , 21          , 0           , 0
-0.128771186, 9.694781    , 0.149262726 , 0.0009326888, 0.0007213979, 0.00116889924, -1.58751786 , -0.0131649729, 1.05262561E-05, 923.569031  , 31.5176735  , 774.8619    , 4.19        , 3           , 22          , 0           , 0
-0.137341514, 9.819429    , 0.162790611 , -0.000879613857, -0.0005981652, 0.00126940617, -1.5875268  , -0.013152184, 1.62948982E-05, 923.569031  , 31.5176735  , 774.862366  , 4.2         , 3           , 40          , 0           , 0
-0.117344916, 9.81793     , 0.16846022  , -0.000192009029, 0.000186766061, -0.00112398481, -1.58753443 , -0.0131548494, 1.46924212E-05, 923.569031  , 31.5176735  , 774.876953  , 4.21        , 3           , 41          , 0           , 0
-0.122406721, 9.78668     , 0.168185189 , 0.000446101243, 0.0003613842, -0.0004517056, -1.5875299  , -0.0131594269, 1.11540194E-05, 923.569031  , 31.5176735  , 774.8775    , 4.22        , 3           , 42          , 0           , 0
-0.136180788, 9.810374    , 0.164571255 , 5.34299761E-06, 4.98703739E-05, 0.0009767918, -1.5875299  , -0.0131496685, 1.04917908E-05, 923.528442  , 31.516655   , 774.878052  , 4.23        , 3           , 255         , 0           , 0
-0.119856618, 9.820887    , 0.175551921 , 0.00131913193, -0.00014847354, -0.000374014431, -1.58751667 , -0.0131533826, 1.20383866E-05, 923.528442  , 31.516655   , 774.8786    , 4.24        , 3           , 255         , 0           , 0
-0.1397192  , 9.75897     , 0.168003947 , 0.0009784022, -8.535132E-05, -0.000189713581, -1.58750689 , -0.0131552648, 1.292322E-05, 923.528442  , 31.516655   , 774.87915   , 4.25        , 3           , 255         , 0           , 0
-0.121903405, 9.798238    , 0.170772031 , -0.0003585866, -0.000731679, -7.22175E-05, -1.58751047 , -0.0131558636, 2.02510346E-05, 923.528442  , 31.516655   , 774.8797    , 4.26        , 3           , 255         , 0           , 0
-0.11254786 , 9.806435    , 0.174556017 , -0.000255481864, 6.852797E-05, -0.000234494713, -1.587513   , -0.0131582208, 1.96041747E-05, 923.528442  , 31.516655   , 774.880249  , 4.27        , 3           , 255         , 0           , 0
-0.13080892 , 9.824671    , 0.174565285 , 0.000141674245, -1.70310959E-05, -0.000167071092, -1.58751166 , -0.0131598879, 1.98030284E-05, 923.528442  , 31.516655   , 774.8808    , 4.28        , 3           , 255         , 0           , 0
-0.127466917, 9.784338    , 0.166037649 , 0.00056972506, -0.0004324243, -2.49857767E-05, -1.58750594 , -0.0131600657, 2.41312628E-05, 923.528442  , 31.516655   , 774.8814    , 4.29        , 3           , 255         , 0           , 0
-0.131032541, 9.801145    , 0.162736878 , 9.366777E-06, 0.000140477 , 2.46871914E-05, -1.5875057  , -0.0131598413, 2.27215842E-05, 923.528442  , 31.516655   , 774.882     , 4.3         , 3           , 255         , 0           , 0
-0.121129081, 9.797908    , 0.168130919 , 0.000478374859, 0.000264280738, -0.0004635057, -1.587507   , -0.0131611992, 2.02356659E-05, 923.528442  , 31.516655   , 774.9513    , 4.31        , 3           , 255         , 0           , 0
-0.13292788 , 9.77203     , 0.165468425 , 8.47402262E-05, 0.000140035 , -0.00080984 , -1.587506   , -0.0131693212, 1.89703551E-05, 923.528442  , 31.516655   , 774.952332  , 4.32        , 3           , 255         , 0           , 0
-0.142370433, 9.800232    , 0.185450554 , -0.000252092257, 0.000464967277, 4.69217266E-05, -1.58750856 , -0.0131689264, 1.43128755E-05, 923.5728    , 31.51964    , 774.953369  , 4.33        , 3           , 255         , 0           , 0
-0.136736423, 9.826578    , 0.175717548 , 0.000530545 , 0.000108646578, -6.3726904E-05, -1.58750331 , -0.013169582, 1.323757E-05, 923.5728    , 31.51964    , 774.9544    , 4.34        , 3           , 255         , 0           , 0
-0.124659337, 9.76457     , 0.162942424 , 0.0003966269, 3.17231752E-06, -0.000101140366, -1.58749926 , -0.0131705943, 1.32226678E-05, 923.5728    , 31.51964    , 774.955444  , 4.35        , 3           , 255         , 0           , 0
-0.109824494, 9.7851305   , 0.1596776   , -0.0002873802, 0.00021859596, 0.0009093425, -1.58750224 , -0.0131615391, 1.08848435E-05, 923.5728    , 31.51964    , 774.9565    , 4.36        , 3           , 255         , 0           , 0
-0.123234496, 9.815135    , 0.169100955 , -0.000471501029, 0.0001878296, 0.000771321531, -1.58750689 , -0.0131538576, 8.87767E-06 , 923.5728    , 31.51964    , 774.9575    , 4.37        , 3           , 255         , 0           , 0
-0.12923263 , 9.788498    , 0.166812509 , -0.000350195216, -6.271005E-05, -0.000314696052, -1.58751047 , -0.0131569942, 9.55806E-06 , 923.5728    , 31.51964    , 774.958557  , 4.38        , 3           , 255         , 0           , 0
-0.136209086, 9.798475    , 0.166107461 , -0.000281271175, 8.582865E-06, 2.31704616E-05, -1.58751333 , -0.0131567614, 9.468646E-06, 923.5728    , 31.51964    , 774.9596    , 4.39        , 3           , 255         , 0           , 0
-0.128723636, 9.80908     , 0.173264265 , 0.000482910546, 0.000420504366, 0.000441351178, -1.58750844 , -0.0131524177, 5.191176E-06, 923.5728    , 31.51964    , 774.960632  , 4.4         , 3           , 255         , 0           , 0
-0.124487855, 9.796005    , 0.170086414 , 0.00090895826, 0.0003897364, -0.000111349647, -1.58750737 , -0.0131528489, 1.41619853E-06, 923.5728    , 31.51964    , 774.9557    , 4.41        , 3           , 255         , 0           , 0
-0.120272018, 9.787131    , 0.1670845   , -0.000169013161, 3.362351E-05, -0.0001408936, -1.587509   , -0.0131542627, 1.10324709E-06, 923.5728    , 31.51964    , 774.956665  , 4.42        , 3           , 255         , 0           , 0
-0.119886123, 9.807201    , 0.168760225 , 0.000130454428, -0.000102489634, -0.0006379123, -1.58750772 , -0.0131606236, 2.234902E-06, 923.6224    , 31.5201836  , 774.957642  , 4.43        , 3           , 255         , 0           , 0
-0.115005478, 9.805227    , 0.1727202   , 0.0008370693, -0.000252390455, 0.000121874327, -1.58749938 , -0.0131593607, 4.737583E-06, 923.6224    , 31.5201836  , 774.9586    , 4.44        , 3           , 255         , 0           , 0
-0.126344636, 9.790968    , 0.170024872 , 0.000939188641, -0.000483757525, 0.000286716153, -1.58749008 , -0.013156414, 9.526859E-06, 923.6224    , 31.5201836  , 774.9596    , 4.45        , 3           , 255         , 0           , 0
-0.127179   , 9.79284     , 0.171201423 , 0.0009335827, 0.000145740429, 0.000290732161, -1.58748066 , -0.0131535307, 8.02031354E-06, 923.6224    , 31.5201836  , 774.9606    , 4.46        , 3           , 255         , 0           , 0
-0.126513213, 9.78894     , 0.161622569 , 0.00040279454, -3.0272844E-05, 0.000267168885, -1.58747661 , -0.0131508568, 8.278311E-06, 923.6224    , 31.5201836  , 774.961548  , 4.47        , 3           , 255         , 0           , 0
-0.133522063, 9.78245449  , 0.1750606   , -0.000210509985, -0.0001781247, 0.000360251433, -1.58747876 , -0.0131472247, 9.998613E-06, 923.6224    , 31.5201836  , 774.9625    , 4.48        , 3           , 255         , 0           , 0
-0.124433473, 9.795914    , 0.169510081 , -0.0003395665, 0.000134321017, 0.000476001384, -1.58748209 , -0.0131424889, 8.576359E-06, 923.6224    , 31.5201836  , 774.963562  , 4.49        , 3           , 255         , 0           , 0
-0.127987668, 9.810743    , 0.178022534 , 0.000626341149, 0.0006828824, 0.000113474292, -1.5874759  , -0.0131414682, 1.72961529E-06, 923.6224    , 31.5201836  , 774.9646    , 4.5         , 3           , 255         , 0           , 0
-0.1297965  , 9.794948    , 0.157871366 , 0.0006244024, -6.388582E-05, -8.499605E-05, -1.58747911 , -0.0131362658, 2.507337E-06, 923.6224    , 31.5201836  , 774.88916   , 4.51        , 3           , 255         , 0           , 0
-0.129516065, 9.7861805   , 0.164541572 , 2.65355338E-05, -0.000343275431, 0.0005168447, -1.58747888 , -0.0131310439, 5.85246926E-06, 923.6224    , 31.5201836  , 774.8897    , 4.52        , 3           , 255         , 0           , 0
-0.133173555, 9.791318    , 0.159656078 , 0.000163480057, -6.751594E-05, -0.000310529431, -1.58747709 , -0.0131341359, 6.578965E-06, 923.5853    , 31.5176048  , 774.890259  , 4.53        , 3           , 255         , 0           , 0
-0.13208878 , 9.784626    , 0.168725476 , 4.30251821E-05, 0.00035897136, 0.00021521491, -1.58747661 , -0.013132045, 2.952547E-06, 923.5853    , 31.5176048  , 774.8908    , 4.54        , 3           , 255         , 0           , 0
-0.131636381, 9.79471     , 0.173018828 , 0.000414476643, 0.0001341818, 0.0003059808, -1.58747244 , -0.013129008, 1.56009969E-06, 923.5853    , 31.5176048  , 774.891357  , 4.55        , 3           , 255         , 0           , 0
-0.124713637, 9.803126    , 0.1777384   , 0.0003423149, -5.576E-05  , 5.70342236E-05, -1.5874691  , -0.0131284287, 2.10776466E-06, 923.5853    , 31.5176048  , 774.8919    , 4.56        , 3           , 255         , 0           , 0
-0.126396686, 9.786173    , 0.178227767 , 0.0006868484, -0.000222590286, 0.000197065121, -1.58746231 , -0.0131264208, 4.301684E-06, 923.5853    , 31.5176048  , 774.892456  , 4.57        , 3           , 255         , 0           , 0
-0.129863963, 9.782183    , 0.173508674 , 1.88929262E-05, -0.000121497578, 0.000559776148, -1.58746207 , -0.013120804, 5.42355838E-06, 923.5853    , 31.5176048  , 774.893     , 4.58        , 3           , 255         , 0           , 0
-0.130232543, 9.799701    , 0.177838057 , -0.0006749582, -0.000626193767, -0.000164819445, -1.58746886 , -0.0131223444, 1.171146E-05, 923.5853    , 31.5176048  , 774.893555  , 4.59        , 3           , 255         , 0           , 0
-0.125862062, 9.800463    , 0.171381146 , 0.000172374828, -0.0005248076, -0.0006060378, -1.58746719 , -0.0131283179, 1.70600415E-05, 923.5853    , 31.5176048  , 774.8941    , 4.6         , 3           , 255         , 0           , 0
-0.131776348, 9.787844    , 0.1678395   , 0.00126597972, -5.69481635E-05, -0.000136068, -1.58746636 , -0.0131308939, 1.78060945E-05, 923.5853    , 31.5176048  , 774.881042  , 4.61        , 3           , 255         , 0           , 0
-0.131307542, 9.793765    , 0.163001    , 0.000439259282, -8.892431E-05, 0.0005780679, -1.587462   , -0.0131250983, 1.85991848E-05, 923.5853    , 31.5176048  , 774.881531  , 4.62        , 3           , 255         , 0           , 0
-0.128432184, 9.78904     , 0.174912855 , 0.000167625665, 6.308043E-05, 0.00023591597, -1.58746028 , -0.0131227486, 1.79295057E-05, 923.5588    , 31.51618    , 774.882     , 4.63        , 3           , 255         , 0           , 0
-0.12444818 , 9.790392    , 0.1701304   , -8.80977E-05, -0.0004063213, 0.000253980979, -1.58746111 , -0.0131201427, 2.19499052E-05, 923.5588    , 31.51618    , 774.8825    , 4.64        , 3           , 255         , 0           , 0
-0.110272981, 9.799425    , 0.176245213 , -1.34652364E-05, -0.000290077, 6.777235E-05, -1.58746135 , -0.0131194182, 2.48386459E-05, 923.5588    , 31.51618    , 774.883     , 4.65        , 3           , 255         , 0           , 0
-0.123316392, 9.802154    , 0.163797319 , 9.931449E-05, 5.23832859E-05, 0.000155171176, -1.58746028 , -0.0131178759, 2.42891183E-05, 923.5588    , 31.51618    , 774.8835    , 4.66        , 3           , 255         , 0           , 0
-0.125339821, 9.790261    , 0.170336753 , 0.0006285253, -0.000253988779, 0.000385069638, -1.587454   , -0.0131139848, 2.67638552E-05, 923.5588    , 31.51618    , 774.884     , 4.67        , 3           , 255         , 0           , 0
-0.128484249, 9.78472     , 0.160596848 , 0.000592497352, -0.000194468477, -0.00015417338, -1.58744812 , -0.0131154936, 2.87342373E-05, 923.5588    , 31.51618    , 774.88446   , 4.68        , 3           , 255         , 0           , 0
-0.123653851, 9.801582    , 0.1700587   , 0.000921638566, 1.78290065E-05, 1.54528771E-05, -1.587439   , -0.0131153427, 2.85526112E-05, 923.5588    , 31.51618    , 774.884949  , 4.69        , 3           , 255         , 0           , 0
-0.125100225, 9.803785    , 0.164325446 , 0.000314580742, 0.000213381514, 9.591625E-05, -1.58743572 , -0.0131144188, 2.64024711E-05, 923.5588    , 31.51618    , 774.885437  , 4.7         , 3           , 255         , 0           , 0
-0.132050246, 9.797556    , 0.17152071  , -6.704766E-05, -6.280982E-05, 0.000313998433, -1.58744359 , -0.0131063918, 2.70726123E-05, 923.5588    , 31.51618    , 774.91095   , 4.71        , 3           , 255         , 0           , 0
-0.127832875, 9.80148     , 0.163825825 , 0.000147313112, -0.0005123097, 0.000468004029, -1.58744216 , -0.0131016262, 3.21166226E-05, 923.5588    , 31.51618    , 774.9116    , 4.72        , 3           , 255         , 0           , 0
-0.132211253, 9.789262    , 0.165093571 , 0.000515315 , -0.000125284074, 1.40704524E-05, -1.587437   , -0.0131014651, 3.33674943E-05, 923.568359  , 31.5160446  , 774.9123    , 4.73        , 3           , 255         , 0           , 0
-0.131691158, 9.773061    , 0.162141487 , -0.000450079737, 0.000310109026, 0.000319399056, -1.58744144 , -0.0130983219, 3.02128374E-05, 923.568359  , 31.5160446  , 774.912964  , 4.74        , 3           , 255         , 0           , 0
-0.130191386, 9.659727    , 0.14767     , -0.004247234, -0.000247191376, 0.00263037323, -1.58748388 , -0.0130719831, 3.22470041E-05, 923.568359  , 31.5160446  , 774.9136    , 4.75        , 3           , 255         , 0           , 0
-0.113230325, 9.865664    , 0.186962381 , -0.007475607, -0.0001901453, 0.00147508911, -1.58755875 , -0.0130572  , 3.39021062E-05, 923.568359  , 31.5160446  , 774.914246  , 4.76        , 3           , 255         , 0           , 0
-0.134084687, 9.963223    , 0.189297885 , 0.000103698287, -6.729868E-05, -0.00278162933, -1.58755767 , -0.0130849993, 3.50412229E-05, 923.568359  , 31.5160446  , 774.9149    , 4.77        , 3           , 255         , 0           , 0
-0.135570854, 9.794676    , 0.15292421  , 0.002676835 , -0.000162786018, 0.000734865 , -1.587531   , -0.0130776241, 3.65463638E-05, 923.568359  , 31.5160446  , 774.9156    , 4.78        , 3           , 255         , 0           , 0
-0.12913689 , 9.804026    , 0.155584514 , 0.00402413635, -0.000405132218, 0.0014991432, -1.5874908  , -0.0130625693, 4.034601E-05, 923.568359  , 31.5160446  , 774.91626   , 4.79        , 3           , 255         , 0           , 0
-0.101450659, 9.750296    , 0.172460884 , 0.00288623781, 7.48920138E-06, -0.0007239396, -1.58746183 , -0.0130698094, 4.03921149E-05, 923.568359  , 31.5160446  , 774.916931  , 4.8         , 3           , 255         , 0           , 0
-0.124601364, 9.658607    , 0.153004929 , -0.0027581437, -0.000234697887, -0.00134682423, -1.58749306 , -0.0130816251, 4.301216E-05, 923.568359  , 31.5160446  , 774.9242    , 4.81        , 3           , 255         , 0           , 0
