Acc X       , Acc Y       , Acc Z       , Gyro X      , Gyro Y      , Gyro Z      , Euler X     , Euler Y     , Euler Z     , Pres X      , Pres Y      , Pres Z      , Time        , Status      , LowRate X   , LowRate Y   , LowRate Z    
-9.787852   , 0.101225875 , -0.190844789, 0           , 0.0307702757, 0           , -0.48767817 , -1.54872882 , 0           , 923.23584   , 27.19356    , 777.9385    , 0           , 2           , 0           , 5.420232    , 0
-9.77222252 , 0.103694633 , -0.720410645, -8.433778E-05, 0.019014325 , 0.0005843254, -0.483906031, -1.54855633 , -0.00377278822, 923.23584   , 27.19356    , 777.9385    , 0.01        , 3           , 1           , 0           , 0
-9.767605   , 0.0986921042, -0.7259696  , -0.0002381748, 0.0153318327, -0.000419769261, -0.4805533  , -1.54842794 , -0.00712944241, 923.23584   , 27.19356    , 777.9385    , 0.02        , 3           , 2           , 0           , 0
-9.762405   , 0.09924006  , -0.727914   , -0.000522781047, 0.0122553837, 0.0004120012, -0.478203416, -1.54831374 , -0.009484681, 923.2242    , 26.78298    , 777.9385    , 0.03        , 3           , 3           , 0           , 0
-9.763008   , 0.0946937054, -0.7317309  , 0.0005096013, 0.009216847 , -0.000186492209, -0.47624585 , -1.54823434 , -0.0114386892, 923.2242    , 26.78298    , 777.9385    , 0.04        , 3           , 4           , 0           , 0
-9.765288   , 0.09466902  , -0.729848564, 0.0007849962, 0.00515672332, -0.0008036959, -0.47487554 , -1.54819465 , -0.0127998488, 923.2242    , 26.78298    , 777.9385    , 0.05        , 3           , 5           , 0           , 0
-9.779471   , 0.10196276  , -0.713279545, 0.000316431047, 0.00581441  , 4.234712E-05, -0.4737161  , -1.54813671 , -0.01395842 , 923.2242    , 26.78298    , 777.9385    , 0.06        , 3           , 6           , 0           , 0
-9.770859   , 0.100772582 , -0.7180231  , 0.000275470549, 0.0106033292, -6.62662351E-05, -0.471561849, -1.5480423  , -0.01611027 , 923.2242    , 26.78298    , 777.9385    , 0.07        , 3           , 7           , 0           , 0
-9.772447   , 0.096356824 , -0.722487748, 0.000451036729, 0.0128137376, -7.232989E-05, -0.4689837  , -1.54793251 , -0.0186841339, 923.2242    , 26.78298    , 777.9385    , 0.08        , 3           , 8           , 5           , 5
-9.772841   , 0.09699187  , -0.7241019  , 0.0007199277, 0.01555674  , 1.79604976E-05, -0.465927571, -1.54778957 , -0.0217338484, 923.2242    , 26.78298    , 777.9385    , 0.09        , 3           , 9           , 5           , 0.1
-9.764375   , 0.0961712152, -0.7278596  , 0.000137187657, 0.01651523  , 0.000121250952, -0.462769657, -1.54764748 , -0.0248916484, 923.2242    , 26.78298    , 777.9385    , 0.1         , 3           , 10          , 0.1         , 0.1
-9.763405   , 0.102839217 , -0.725154042, -0.000126948813, 0.0165490769, 0.000167829858, -0.425525725, -1.54578114 , -0.06212721 , 923.2242    , 26.78298    , 778.041565  , 0.11        , 3           , 11          , 0.0109544508, 0.0109544508
-9.764241   , 0.0964079648, -0.7342513  , -0.000132525922, 0.01680961  , -0.00012826793, -0.422724754, -1.54562426 , -0.0649303049, 923.2242    , 26.78298    , 778.041565  , 0.12        , 3           , 12          , 0.174642488 , 0
-9.760671   , 0.09772634  , -0.7408164  , 0.000138545875, 0.01468169  , -0.000424796424, -0.4201907  , -1.54548728 , -0.06746377 , 923.2438    , 26.819479   , 778.041565  , 0.13        , 3           , 13          , 0           , 0
-9.759639   , 0.0923493952, -0.7379316  , 3.582053E-05, 0.0110309431, -7.106515E-06, -0.418417245, -1.54539323 , -0.0692378953, 923.2438    , 26.819479   , 778.041565  , 0.14        , 3           , 14          , 0.001705617 , -8.877236E-08
-9.759436   , 0.103873923 , -0.7292682  , 0.000212877756, 0.008073097 , -0.0005032867, -0.4169467  , -1.545323   , -0.07070624 , 923.2438    , 26.819479   , 778.041565  , 0.15        , 3           , 15          , 0           , 0.000251822144
-9.761332   , 0.102480508 , -0.7216482  , 0.0001537432, 0.0101040713, 0.000225683878, -0.4154268  , -1.54522955 , -0.0722254962, 923.2438    , 26.819479   , 778.041565  , 0.16        , 3           , 16          , 0           , 4.203895E-45
-9.75844    , 0.1012426   , -0.7326392  , 0.000374836149, 0.0143888984, 0.000545623 , -0.4133585  , -1.54509473 , -0.0742905  , 923.2438    , 26.819479   , 778.041565  , 0.17        , 3           , 20          , 0           , 0
-9.759779   , 0.100811265 , -0.740162   , -3.822567E-05, 0.0130219879, 0.0006211273, -0.411554456, -1.54496515 , -0.07609514 , 923.2438    , 26.819479   , 778.041565  , 0.18        , 3           , 21          , 0           , 0
-9.768849   , 0.102516115 , -0.7329078  , 0.000291248551, 0.0139199756, 0.000364983251, -0.4095366  , -1.54484081 , -0.07811214 , 923.2438    , 26.819479   , 778.041565  , 0.19        , 3           , 22          , 0           , 0
-9.763397   , 0.09643663  , -0.738619745, -4.673307E-05, 0.0167822447, 0.0003594136, -0.4071047  , -1.54468966 , -0.08054402 , 923.2438    , 26.819479   , 778.041565  , 0.2         , 3           , 40          , 0           , 0
-9.764775   , 0.09599163  , -0.7397321  , -0.0001520341, 0.018247202 , 0.000119419507, -0.3650368  , -1.54185462 , -0.122599944, 923.2438    , 26.819479   , 777.9542    , 0.21        , 3           , 41          , 0           , 0
-9.76147652 , 0.0991459861, -0.735720336, 0.000230260543, 0.019540811 , -6.444323E-05, -0.362619549, -1.54166985 , -0.125015765, 923.2438    , 26.819479   , 777.9542    , 0.22        , 3           , 42          , 0           , 0
-9.765196   , 0.101150647 , -0.7360228  , -0.000298384577, 0.0205157734, 7.159368E-05, -0.360163748, -1.541478   , -0.127475679, 923.2555    , 26.8502789  , 777.9542    , 0.23        , 3           , 255         , 0           , 0
-9.771304   , 0.103403375 , -0.7403878  , 0.000711792964, 0.020715775 , 0.0006644282, -0.357894719, -1.54128146 , -0.129738525, 923.2555    , 26.8502789  , 777.9542    , 0.24        , 3           , 255         , 0           , 0
-9.769793   , 0.108621374 , -0.7373522  , 2.526096E-06, 0.021319991 , 0.00104983372, -0.355711639, -1.54107618 , -0.131922871, 923.2555    , 26.8502789  , 777.9542    , 0.25        , 3           , 255         , 0           , 0
-9.767444   , 0.106069364 , -0.742473   , -0.00028301694, 0.0229443759, 0.000153131667, -0.353094369, -1.54085839 , -0.134543777, 923.2555    , 26.8502789  , 777.9542    , 0.26        , 3           , 255         , 0           , 0
-9.759317   , 0.0929322243, -0.758388638, 8.932501E-05, 0.0244305227, 2.15493783E-05, -0.350300848, -1.54063225 , -0.137337625, 923.2555    , 26.8502789  , 777.9542    , 0.27        , 3           , 255         , 0           , 0
-9.749043   , 0.08617946  , -0.7688151  , -0.000283656758, 0.0206980854, -0.000105127343, -0.34793067 , -1.54043519 , -0.139711678, 923.2555    , 26.8502789  , 777.9542    , 0.28        , 3           , 255         , 0           , 0
-9.74552    , 0.097954154 , -0.762723565, -0.00015781133, 0.0157200918, -0.000139055264, -0.3461336  , -1.54029226 , -0.1415114  , 923.2555    , 26.8502789  , 777.9542    , 0.29        , 3           , 255         , 0           , 0
-9.748663   , 0.0998688   , -0.7554095  , -0.000208473532, 0.0127659487, 0.000112232927, -0.344755858, -1.54017329 , -0.142891064, 923.2555    , 26.8502789  , 777.9542    , 0.3         , 3           , 255         , 0           , 0
-9.760263   , 0.09325085  , -0.7425548  , 2.49549048E-05, 0.012281348 , 0.000600559055, -0.315734923, -1.537477   , -0.171897933, 923.2555    , 26.8502789  , 777.8895    , 0.31        , 3           , 255         , 0           , 0
-9.765277   , 0.0974346846, -0.754258037, -0.0002559321, 0.01341245  , 0.000520363 , -0.314641118, -1.53734839 , -0.1729955  , 923.2555    , 26.8502789  , 777.8895    , 0.32        , 3           , 255         , 0           , 0
-9.7745     , 0.0991938859, -0.7551417  , -0.0003135975, 0.0165676568, 0.000197910529, -0.313174754, -1.53718841 , -0.17446585 , 923.195251  , 26.864933   , 777.8895    , 0.33        , 3           , 255         , 0           , 0
-9.77222252 , 0.103497759 , -0.7589475  , -0.0005164631, 0.0221058726, 0.00054448517, -0.311320156, -1.53698146 , -0.176327184, 923.195251  , 26.864933   , 777.8895    , 0.34        , 3           , 255         , 0           , 0
-9.769072   , 0.1044573   , -0.7542897  , 0.0001267686, 0.02543188  , 0.0001739623, -0.309079975, -1.536739   , -0.178566977, 923.195251  , 26.864933   , 777.8895    , 0.35        , 3           , 255         , 0           , 0
-9.760656   , 0.101292349 , -0.756993   , 3.28847673E-05, 0.0309486948, 0.000187784026, -0.306392372, -1.53644276 , -0.181255773, 923.195251  , 26.864933   , 777.8895    , 0.36        , 3           , 255         , 0           , 0
-9.758607   , 0.0944129   , -0.7638501  , -0.00040492462, 0.03334333  , 0.0005502927, -0.3036479  , -1.5361197  , -0.184005216, 923.195251  , 26.864933   , 777.8895    , 0.37        , 3           , 255         , 0           , 0
-9.766516   , 0.09926001  , -0.7740396  , 0.0005313002, 0.03376212  , 0.000734052854, -0.300960839, -1.53579462 , -0.186689556, 923.195251  , 26.864933   , 777.8895    , 0.38        , 3           , 255         , 0           , 0
-9.784859   , 0.101836167 , -0.7871992  , 0.0002687883, 0.0336937048, 0.0009392451, -0.2983848  , -1.53547251 , -0.189264163, 923.195251  , 26.864933   , 777.8895    , 0.39        , 3           , 255         , 0           , 0
-9.744944   , 0.100054935 , -0.815118432, -0.000431187334, 0.0243118424, -0.000110317793, -0.296350271, -1.535242   , -0.191304058, 923.195251  , 26.864933   , 777.8895    , 0.4         , 3           , 255         , 0           , 0
-9.742719   , 0.09941381  , -0.8098484  , 0.000464511453, 0.00662480528, 1.35355513E-05, -0.2844939  , -1.5338248  , -0.20314914 , 923.195251  , 26.864933   , 777.9945    , 0.41        , 3           , 255         , 0           , 0
-9.765781   , 0.09791187  , -0.7778348  , 0.000603407039, -0.0008147227, -0.0002501422, -0.2844846  , -1.533828   , -0.203152373, 923.195251  , 26.864933   , 777.9945    , 0.42        , 3           , 255         , 0           , 0
-9.757319   , 0.105050668 , -0.7747568  , 0.000138444477, 0.00225947564, -0.0005042812, -0.284181   , -1.53381038 , -0.203454033, 923.2551    , 26.8773479  , 777.9945    , 0.43        , 3           , 255         , 0           , 0
-9.76058    , 0.101373233 , -0.786257744, -0.00031432265, 0.00124231575, -3.201193E-05, -0.284082144, -1.53379583 , -0.203556567, 923.2551    , 26.8773479  , 777.9945    , 0.44        , 3           , 255         , 0           , 0
-9.773706   , 0.102582335 , -0.757403553, -0.000457624672, 0.004129253 , 0.000797276734, -0.283980519, -1.53375876 , -0.203663319, 923.2551    , 26.8773479  , 777.9945    , 0.45        , 3           , 255         , 0           , 0
-9.781235   , 0.09468342  , -0.7435212  , 0.000218478264, 0.0184363164, -8.287448E-05, -0.2825694  , -1.53358054 , -0.205072746, 923.2551    , 26.8773479  , 777.9945    , 0.46        , 3           , 255         , 0           , 0
-9.767641   , 0.0920432955, -0.772268   , 0.0004935233, 0.0302039981, 0.000843134942, -0.2805354  , -1.53328693 , -0.207103744, 923.2551    , 26.8773479  , 777.9945    , 0.47        , 3           , 255         , 0           , 0
-9.760244   , 0.106585965 , -0.8074856  , 0.000412241439, 0.0277196411, 0.000222296047, -0.278556615, -1.5330193  , -0.209079936, 923.2551    , 26.8773479  , 777.9945    , 0.48        , 3           , 255         , 0           , 0
-9.753132   , 0.106865525 , -0.7872684  , 0.0002730271, 0.0199958831, 0.000220459944, -0.2771624  , -1.53282881 , -0.210471749, 923.2551    , 26.8773479  , 777.9945    , 0.49        , 3           , 255         , 0           , 0
-9.75118    , 0.0975241661, -0.781495452, -0.000210893108, 0.0181962438, 4.74105182E-05, -0.2758718  , -1.53265333 , -0.211765513, 923.2551    , 26.8773479  , 777.9945    , 0.5         , 3           , 255         , 0           , 0
-9.750741   , 0.0983616   , -0.799258   , -6.132701E-05, 0.017255839 , 1.37089228E-05, -0.26336    , -1.53089631 , -0.224269912, 923.2551    , 26.8773479  , 777.9472    , 0.51        , 3           , 255         , 0           , 0
-9.750387   , 0.09730014  , -0.806916356, 0.0005360516, 0.011813039 , -0.000110700319, -0.262560248, -1.53078294 , -0.225065246, 923.2551    , 26.8773479  , 777.9472    , 0.52        , 3           , 255         , 0           , 0
-9.756615   , 0.10411676  , -0.7985438  , -0.000222069677, 0.006762988 , -0.000958854449, -0.2618936  , -1.5307219  , -0.225734875, 923.248962  , 26.8854885  , 777.9472    , 0.53        , 3           , 255         , 0           , 0
-9.771435   , 0.10089834  , -0.7861572  , -0.000226337579, 0.009175079 , -0.0005154124, -0.26118055 , -1.53063715 , -0.226449922, 923.248962  , 26.8854885  , 777.9472    , 0.54        , 3           , 255         , 0           , 0
-9.766897   , 0.09573476  , -0.785937667, -0.000218168134, 0.0147267571, -0.000307259266, -0.2601663  , -1.53049636 , -0.2274677  , 923.248962  , 26.8854885  , 777.9472    , 0.55        , 3           , 255         , 0           , 0
-9.763718   , 0.0943227559, -0.7936038  , 0.000323506771, 0.0176934078, -0.0002738955, -0.258973658, -1.5303266  , -0.2286584  , 923.248962  , 26.8854885  , 777.9472    , 0.56        , 3           , 255         , 0           , 0
-9.756478   , 0.09651133  , -0.7969806  , 0.00029179547, 0.0183236375, -0.000142776844, -0.2577831  , -1.53014874 , -0.229846865, 923.248962  , 26.8854885  , 777.9472    , 0.57        , 3           , 255         , 0           , 0
-9.760067   , 0.107320175 , -0.8030437  , 0.000114803435, 0.0177209061, -0.000133687572, -0.256643623, -1.52997446 , -0.230985641, 923.248962  , 26.8854885  , 777.9472    , 0.58        , 3           , 255         , 0           , 0
-9.761541   , 0.106058538 , -0.8135036  , -4.87326179E-05, 0.015682146 , 0.000490882667, -0.255788684, -1.5298214  , -0.23184222 , 923.248962  , 26.8854885  , 777.9472    , 0.59        , 3           , 255         , 0           , 0
-9.762415   , 0.103291951 , -0.80652076 , -4.023523E-05, 0.01222092  , 0.0008113914, -0.255227983, -1.529698   , -0.2324036  , 923.248962  , 26.8854885  , 777.9472    , 0.6         , 3           , 255         , 0           , 0
-9.761897   , 0.09483772  , -0.8164617  , -0.000415072776, 0.007562429 , 0.000448576175, -0.24585481 , -1.52816558 , -0.241773754, 923.248962  , 26.8854885  , 777.925     , 0.61        , 3           , 255         , 0           , 0
-9.754619   , 0.100276969 , -0.8188284  , 5.032157E-05, 0.00196740427, -0.000122613914, -0.24571389 , -1.52814734 , -0.24191384 , 923.248962  , 26.8854885  , 777.925     , 0.62        , 3           , 255         , 0           , 0
-9.761676   , 0.102979623 , -0.8079168  , -0.000267717638, -0.00295596058, -0.0001320005, -0.245854512, -1.52817249 , -0.2417752  , 923.240845  , 26.891798   , 777.925     , 0.63        , 3           , 255         , 0           , 0
-9.766074   , 0.09684442  , -0.7916975  , -0.0005010576, -0.00386389578, 5.610127E-05, -0.246093482, -1.52821171 , -0.241541654, 923.240845  , 26.891798   , 777.925     , 0.64        , 3           , 255         , 0           , 0
-9.765341   , 0.09419586  , -0.7958112  , -0.00042237225, -0.000439343741, -0.0006293558, -0.245979518, -1.52821732 , -0.241660222, 923.240845  , 26.891798   , 777.925     , 0.65        , 3           , 255         , 0           , 0
-9.759803   , 0.09524266  , -0.7961945  , 0.000401046826, 0.00285964459, 0.000133020891, -0.245842591, -1.52819073 , -0.241793066, 923.240845  , 26.891798   , 777.925     , 0.66        , 3           , 255         , 0           , 0
-9.754133   , 0.09476189  , -0.8036606  , 0.00057016057, 0.00472361734, 5.70058764E-05, -0.245580286, -1.52814317 , -0.242049769, 923.240845  , 26.891798   , 777.925     , 0.67        , 3           , 255         , 0           , 0
-9.751086   , 0.103274032 , -0.8106741  , -5.27714146E-05, 0.00393250445, -7.76175E-05, -0.245339736, -1.5281055  , -0.242290676, 923.240845  , 26.891798   , 777.925     , 0.68        , 3           , 255         , 0           , 0
-9.749788   , 0.09855993  , -0.8047042  , 0.00039280788, 0.004259666 , -0.00028280745, -0.245029762, -1.5280664  , -0.242597446, 923.240845  , 26.891798   , 777.925     , 0.69        , 3           , 255         , 0           , 0
-9.75741    , 0.0945213661, -0.8056038  , 0.000251756981, 0.00238373  , 0.000912818 , -0.245099247, -1.52803981 , -0.2425253  , 923.240845  , 26.891798   , 777.925     , 0.7         , 3           , 255         , 0           , 0
-9.753674   , 0.09216312  , -0.813830733, -0.000233867788, 0.000670708658, 0.0003070748, -0.236254767, -1.52652168 , -0.251363635, 923.240845  , 26.891798   , 777.9202    , 0.71        , 3           , 255         , 0           , 0
-9.755852   , 0.09991436  , -0.80617255 , 0.0007481782, -0.00117663783, -0.000210783764, -0.236263052, -1.5265311  , -0.2513477  , 923.240845  , 26.891798   , 777.9202    , 0.72        , 3           , 255         , 0           , 0
-9.75425148 , 0.101810172 , -0.805429459, 0.000606226269, -0.0038858084, -1.77610345E-05, -0.236458674, -1.52656889 , -0.25114584 , 923.261     , 26.8971577  , 777.9202    , 0.73        , 3           , 255         , 0           , 0
-9.75063    , 0.100146674 , -0.799533367, -0.00021364796, -0.008656828, -0.0008463027, -0.236734122, -1.52665663 , -0.250872344, 923.261     , 26.8971577  , 777.9202    , 0.74        , 3           , 255         , 0           , 0
-9.75677    , 0.09955149  , -0.802009   , -7.91255152E-05, -0.0105509022, -0.000285190617, -0.237233669, -1.52675939 , -0.2503729  , 923.261     , 26.8971577  , 777.9202    , 0.75        , 3           , 255         , 0           , 0
-9.757713   , 0.10274227  , -0.799473   , 0.0002151007, -0.009304457, -0.000240612819, -0.237675533, -1.52685022 , -0.24992846 , 923.261     , 26.8971577  , 777.9202    , 0.76        , 3           , 255         , 0           , 0
-9.758095   , 0.101393878 , -0.8036369  , 0.00011743838, -0.00794788 , -0.0002652019, -0.238041669, -1.5269289  , -0.24956128 , 923.261     , 26.8971577  , 777.9202    , 0.77        , 3           , 255         , 0           , 0
-9.759821   , 0.106238827 , -0.801392853, -8.23880546E-05, -0.008354558, -0.000188589853, -0.23845017 , -1.52701056 , -0.249152854, 923.261     , 26.8971577  , 777.9202    , 0.78        , 3           , 255         , 0           , 0
-9.768098   , 0.103879251 , -0.796713233, -0.0001983128, -0.008077713, -0.000463471864, -0.238786355, -1.52708828 , -0.248819   , 923.261     , 26.8971577  , 777.9202    , 0.79        , 3           , 255         , 0           , 0
-9.761953   , 0.100714885 , -0.8006743  , -0.000107477535, -0.004529098, 0.000209727441, -0.239078417, -1.5271306  , -0.248527408, 923.261     , 26.8971577  , 777.9202    , 0.8         , 3           , 255         , 0           , 0
-9.760732   , 0.107427463 , -0.801332355, -0.000273733982, -0.00481584854, 0.000111303496, -0.2313426  , -1.52569973 , -0.256257862, 923.261     , 26.8971577  , 777.8913    , 0.81        , 3           , 255         , 0           , 0
-9.761023   , 0.103018954 , -0.79991    , 0.000225176685, -0.007846769, 0.0003308894, -0.231810927, -1.52577925 , -0.2557864  , 923.261     , 26.8971577  , 777.8913    , 0.82        , 3           , 255         , 0           , 0
-9.762541   , 0.1023797   , -0.797139049, -0.0004490685, -0.0106063094, 0.000395043084, -0.232443556, -1.52588129 , -0.255158216, 923.26886   , 26.9016361  , 777.8913    , 0.83        , 3           , 255         , 0           , 0
-9.757116   , 0.104601204 , -0.790570438, 0.000188535661, -0.0117902812, -0.0008246228, -0.232869178, -1.52599561 , -0.254729569, 923.26886   , 26.9016361  , 777.8913    , 0.84        , 3           , 255         , 0           , 0
-9.763316   , 0.105389215 , -0.779219031, -0.000473767868, -0.007816472, 0.0002631691, -0.233334452, -1.52607024 , -0.254268885, 923.26886   , 26.9016361  , 777.8913    , 0.85        , 3           , 255         , 0           , 0
-9.774435   , 0.101166569 , -0.773737133, -0.000172068947, -0.000508452242, -0.0001231631, -0.23333551 , -1.52607548 , -0.2542695  , 923.26886   , 26.9016361  , 777.8913    , 0.86        , 3           , 255         , 0           , 0
-9.763318   , 0.10338483  , -0.780653834, 0.0003977007, 0.006474321 , -0.000219593639, -0.232949525, -1.52601159 , -0.254651666, 923.26886   , 26.9016361  , 777.8913    , 0.87        , 3           , 255         , 0           , 0
-9.760969   , 0.09860101  , -0.7938992  , 7.827266E-05, 0.00767658837, -0.00043379172, -0.232460037, -1.52594244 , -0.255141139, 923.26886   , 26.9016361  , 777.8913    , 0.88        , 3           , 255         , 0           , 0
-9.747769   , 0.09047033  , -0.801901639, -0.000253569218, 0.00531830546, 0.0006790953, -0.232337236, -1.52588391 , -0.2552669  , 923.26886   , 26.9016361  , 777.8913    , 0.89        , 3           , 255         , 0           , 0
-9.75299549 , 0.09176802  , -0.8025548  , 0.000140306889, 0.00345674367, -0.000465880439, -0.23205772 , -1.52585745 , -0.255544722, 923.26886   , 26.9016361  , 777.8913    , 0.9         , 3           , 255         , 0           , 0
-9.748494   , 0.09192145  , -0.794093   , 0.000281296438, 0.000419275573, -0.000146942024, -0.225999281, -1.52468264 , -0.261594385, 923.26886   , 26.9016361  , 777.8594    , 0.91        , 3           , 255         , 0           , 0
-9.761242   , 0.09207354  , -0.7924627  , 0.000631790143, -0.00159906363, -0.000360317645, -0.225994423, -1.52469683 , -0.26159355 , 923.26886   , 26.9016361  , 777.8593    , 0.92        , 3           , 255         , 0           , 0
-9.756521   , 0.0987487   , -0.7914945  , -1.63130462E-05, -0.00190385908, -0.000361600716, -0.22601065 , -1.52471888 , -0.261576831, 923.2577    , 26.907198   , 777.859253  , 0.93        , 3           , 255         , 0           , 0
-9.752437   , 0.110627532 , -0.7991726  , 0.00023765536, -0.00294888578, 0.000241625967, -0.226202384, -1.52474213 , -0.2613827  , 923.2577    , 26.907198   , 777.8592    , 0.94        , 3           , 255         , 0           , 0
-9.753401   , 0.110366821 , -0.790623546, -0.0001347342, -0.00574937975, 0.000546678551, -0.2266     , -1.52480042 , -0.26098606 , 923.2577    , 26.907198   , 777.859131  , 0.95        , 3           , 255         , 0           , 0
-9.758541   , 0.101359151 , -0.7962407  , 7.429521E-05, -0.00823567 , 0.000488857157, -0.2271051  , -1.52487957 , -0.2604791  , 923.2577    , 26.907198   , 777.8591    , 0.96        , 3           , 255         , 0           , 0
-9.761587   , 0.09512988  , -0.7963761  , -0.00021158997, -0.0115621081, 0.000289791176, -0.22773698 , -1.52499008 , -0.259848684, 923.2577    , 26.907198   , 777.859     , 0.97        , 3           , 255         , 0           , 0
-9.768087   , 0.102609351 , -0.785158634, 0.0004314948, -0.0134650944, 0.000402358564, -0.228483647, -1.5251205  , -0.259097338, 923.2577    , 26.907198   , 777.858948  , 0.98        , 3           , 255         , 0           , 0
-9.750921   , 0.0971704   , -0.7898396  , 0.000312831718, -0.014659917, -0.00010264678, -0.22918725 , -1.525263   , -0.25838998 , 923.2577    , 26.907198   , 777.8589    , 0.99        , 3           , 255         , 0           , 0
-9.755685   , 0.102024749 , -0.7758449  , 0.000324565219, -0.0143757584, 0.0006553194, -0.2300432  , -1.52540326 , -0.257529676, 923.2577    , 26.907198   , 777.8588    , 1           , 3           , 0           , 6.42023659  , 100
-9.766405   , 0.102862515 , -0.7811117  , -0.0003307677, -0.0117332544, 0.0004888837, -0.222958237, -1.52397811 , -0.2646093  , 923.2577    , 26.907198   , 777.84436   , 1.01        , 3           , 1           , 0           , 0
-9.777441   , 0.101841807 , -0.7866418  , -0.0002814011, -0.01245794 , 0.00058780855, -0.223672837, -1.524098   , -0.263896316, 923.2577    , 26.907198   , 777.8443    , 1.02        , 3           , 2           , 0           , 0
-9.742046   , 0.101535782 , -0.7934946  , 0.0009593355, -0.0192427412, -0.000368150359, -0.2245033  , -1.52428734 , -0.263055742, 923.2262    , 26.9056377  , 777.844238  , 1.03        , 3           , 3           , 0           , 0
-9.748089   , 0.09801893  , -0.794304252, 0.00033208786, -0.0270006657, -0.00111024873, -0.225565076, -1.52455223 , -0.261989176, 923.2262    , 26.9056377  , 777.8442    , 1.04        , 3           , 4           , 0           , 0
-9.744684   , 0.10775093  , -0.80664885 , -0.000454502529, -0.03799539 , 0.000193089829, -0.227461636, -1.524925   , -0.260095417, 923.2262    , 26.9056377  , 777.8441    , 1.05        , 3           , 5           , 0           , 0
-9.741554   , 0.107911885 , -0.8110601  , 0.000211775419, -0.05564799 , -7.33639E-05, -0.230210528, -1.525469   , -0.257341534, 923.2262    , 26.9056377  , 777.844055  , 1.06        , 3           , 6           , 0           , 0
-9.753713   , 0.0958717838, -0.783480644, 0.000620218343, -0.0704407  , 0.000471422652, -0.233904436, -1.526153   , -0.25363794 , 923.2262    , 26.9056377  , 777.844     , 1.07        , 3           , 7           , 0           , 0
-9.753321   , 0.1022104   , -0.774717   , -0.000417300151, -0.08027275 , 0.0007693225, -0.238317147, -1.52692759 , -0.24922502 , 923.2262    , 26.9056377  , 777.843933  , 1.08        , 3           , 8           , 5           , 5
-9.7575     , 0.105349317 , -0.7579401  , -0.000192361185, -0.08725937 , 0.00095974037, -0.243320435, -1.52777433 , -0.244218871, 923.2262    , 26.9056377  , 777.8439    , 1.09        , 3           , 9           , 5           , 0.1
-9.759452   , 0.103212714 , -0.750488758, -0.000723787467, -0.09313722 , 0.0004216331, -0.248748422, -1.5286777  , -0.2387928  , 923.2262    , 26.9056377  , 777.8438    , 1.1         , 3           , 10          , 0.1         , 0.1
-9.768643   , 0.101377688 , -0.7393954  , -0.000260653323, -0.09614725 , -0.000286290131, -0.24226658 , -1.52754211 , -0.24526152 , 923.2262    , 26.9056377  , 777.8647    , 1.11        , 3           , 11          , 0.008923531 , 0.008923541
-9.739362   , 0.100447282 , -0.7524587  , 0.0001434097, -0.105427042, -9.670615E-05, -0.2482293  , -1.52856743 , -0.239292517, 923.2262    , 26.9056377  , 777.8647    , 1.12        , 3           , 12          , 0.174642846 , 0
-9.721281   , 0.103375837 , -0.784456849, 2.82261753E-05, -0.134404838, 0.000106030493, -0.2563171  , -1.529868   , -0.2311971  , 923.2645    , 26.9082165  , 777.8647    , 1.13        , 3           , 13          , 0           , 0
-9.754837   , 0.1066739   , -0.732859969, -0.000228988938, -0.1639442  , 0.000452536333, -0.266988456, -1.53144693 , -0.22051914 , 923.2645    , 26.9082165  , 777.8647    , 1.14        , 3           , 14          , 0.00170549261, -1.20713348E-05
-9.788042   , 0.106104434 , -0.645504   , -0.000391594018, -0.162003055, -0.000760270865, -0.2781042  , -1.53300977 , -0.209398672, 923.2645    , 26.9082165  , 777.8647    , 1.15        , 3           , 15          , 0           , 0.000251833524
-9.780689   , 0.0986378342, -0.6274403  , -9.77675663E-05, -0.144755661, -0.0005607805, -0.28887102 , -1.53440177 , -0.198625624, 923.2645    , 26.9082165  , 777.8647    , 1.16        , 3           , 16          , 0           , 4.203895E-45
-9.783923   , 0.102648318 , -0.6267735  , -0.000439277268, -0.132662073, -0.000504023745, -0.2994923  , -1.53567219 , -0.188002259, 923.2645    , 26.9082165  , 777.8647    , 1.17        , 3           , 20          , 0           , 0
-9.776647   , 0.0981846452, -0.631093144, -0.000370533555, -0.12511456 , -0.00101054227, -0.3100884  , -1.536874   , -0.177404031, 923.2645    , 26.9082165  , 777.8647    , 1.18        , 3           , 21          , 0           , 0
-9.750186   , 0.10672152  , -0.6483477  , -8.70449E-06, -0.130756542, -0.0007425028, -0.322077483, -1.53811288 , -0.165407643, 923.2645    , 26.9082165  , 777.8647    , 1.19        , 3           , 22          , 0           , 0
-9.741842   , 0.10778705  , -0.656318843, -0.000475435518, -0.148920238, -7.116502E-05, -0.33713004 , -1.539526   , -0.150352463, 923.2645    , 26.9082165  , 777.8647    , 1.2         , 3           , 40          , 0           , 0
-9.765207   , 0.100068174 , -0.6203225  , 0.000263229944, -0.168513447, -0.0004610129, -0.330244839, -1.53887129 , -0.1572141  , 923.2645    , 26.9082165  , 777.843445  , 1.21        , 3           , 41          , 0           , 0
-9.804007   , 0.10721986  , -0.5388638  , 0.000323507469, -0.165857613, -0.000218893285, -0.3478844  , -1.54043519 , -0.139562815, 923.2645    , 26.9082165  , 777.8434    , 1.22        , 3           , 42          , 0           , 0
-9.817724   , 0.09819803  , -0.4803372  , -6.32656738E-05, -0.128740773, 0.000387013657, -0.363060147, -1.54164732 , -0.124379978, 923.242065  , 26.9125576  , 777.8433    , 1.23        , 3           , 255         , 0           , 0
-9.794836   , 0.09494955  , -0.5161693  , 0.000432554167, -0.0985178947, 3.141421E-05, -0.3754547  , -1.54256785 , -0.111976959, 923.242065  , 26.9125576  , 777.843262  , 1.24        , 3           , 255         , 0           , 0
-9.776869   , 0.09622981  , -0.53354764 , 0.000266773161, -0.09023419 , 0.0002881743, -0.387623459, -1.54340386 , -0.09980169 , 923.242065  , 26.9125576  , 777.8432    , 1.25        , 3           , 255         , 0           , 0
-9.775202   , 0.08899565  , -0.52236253 , -0.000219647074, -0.0898087546, -0.000180598727, -0.4003356  , -1.54423463 , -0.08708683 , 923.242065  , 26.9125576  , 777.84314   , 1.26        , 3           , 255         , 0           , 0
-9.776621   , 0.09516997  , -0.5157872  , -2.19943468E-05, -0.08761717 , -0.000280981738, -0.41348663 , -1.54503441 , -0.0739315152, 923.242065  , 26.9125576  , 777.8431    , 1.27        , 3           , 255         , 0           , 0
-9.773877   , 0.09481017  , -0.511484   , 0.000224029645, -0.09055251 , 0.0002698172, -0.428171247, -1.54585981 , -0.0592399351, 923.242065  , 26.9125576  , 777.843     , 1.28        , 3           , 255         , 0           , 0
-9.812951   , 0.1019534   , -0.443644375, -0.000232294668, -0.07777331 , 0.000345979875, -0.441625744, -1.54656053 , -0.0457829461, 923.242065  , 26.9125576  , 777.842957  , 1.29        , 3           , 255         , 0           , 0
-9.810751   , 0.08851276  , -0.4505155  , 0.000104104169, -0.04829306 , -0.0005159803, -0.450101256, -1.54699492 , -0.03730451 , 923.242065  , 26.9125576  , 777.8429    , 1.3         , 3           , 255         , 0           , 0
-9.7979     , 0.09140495  , -0.485157669, -0.000419065822, -0.0334870331, -0.000213876338, -0.449190617, -1.5469749  , -0.0382154547, 923.242065  , 26.9125576  , 777.847351  , 1.31        , 3           , 255         , 0           , 0
-9.780722   , 0.09869632  , -0.4976162  , -0.000376004027, -0.03177405 , -0.0002441954, -0.45496273 , -1.547267   , -0.0324453823, 923.242065  , 26.9125576  , 777.8473    , 1.32        , 3           , 255         , 0           , 0
-9.769754   , 0.09695716  , -0.5053955  , -0.000193601125, -0.0374719426, 0.000347829715, -0.4621945  , -1.54759085 , -0.0252133962, 923.221863  , 26.9143219  , 777.8472    , 1.33        , 3           , 255         , 0           , 0
-9.759304   , 0.105303347 , -0.5098266  , -4.69316728E-05, -0.0488406457, 1.78021437E-05, -0.4717691  , -1.548037   , -0.0156367812, 923.221863  , 26.9143219  , 777.847168  , 1.34        , 3           , 255         , 0           , 0
-9.769549   , 0.107662424 , -0.496064842, -0.00039582327, -0.057056766, -0.000107165222, -0.483380377, -1.5485456  , -0.00402707374, 923.221863  , 26.9143219  , 777.8471    , 1.35        , 3           , 255         , 0           , 0
-9.775574   , 0.103208646 , -0.46709156 , -0.00037286873, -0.05857998 , -0.0004052861, -0.495742261, -1.54905784 , 0.008334911 , 923.221863  , 26.9143219  , 777.847046  , 1.36        , 3           , 255         , 0           , 0
-9.803354   , 0.105861828 , -0.433143616, 5.36235748E-05, -0.0483263955, -5.04174241E-05, -0.5065068  , -1.54948425 , 0.01910221  , 923.221863  , 26.9143219  , 777.847     , 1.37        , 3           , 255         , 0           , 0
-9.815402   , 0.107661307 , -0.419229835, 0.000103587168, -0.027134886, 0.000203397038, -0.512832463, -1.54972613 , 0.0254307   , 923.221863  , 26.9143219  , 777.847     , 1.38        , 3           , 255         , 0           , 0
-9.795992   , 0.101925552 , -0.440695465, -0.000379626756, -0.008808657, 8.720343E-05, -0.51492995 , -1.54980266 , 0.0275242925, 923.221863  , 26.9143219  , 777.847     , 1.39        , 3           , 255         , 0           , 0
-9.786467   , 0.09857855  , -0.4534541  , -0.000395021751, 0.00295004877, 0.000162661454, -0.514311254, -1.54976583 , 0.0269011576, 923.221863  , 26.9143219  , 777.847     , 1.4         , 3           , 255         , 0           , 0
-9.779027   , 0.09159102  , -0.459600359, 1.2617209E-05, 0.009887755 , 0.000728679239, -0.499926716, -1.54920089 , 0.0125190327, 923.221863  , 26.9143219  , 777.8717    , 1.41        , 3           , 255         , 0           , 0
-9.772909   , 0.103276648 , -0.4716875  , 0.000152027234, 0.008553455 , 0.000312289485, -0.4981609  , -1.54912364 , 0.0107548917, 923.221863  , 26.9143219  , 777.871765  , 1.42        , 3           , 255         , 0           , 0
-9.789897   , 0.09993638  , -0.464126676, 0.000411144341, 0.009155352 , 0.0005045525, -0.496350318, -1.54904139 , 0.0089485785, 923.2508    , 26.9158134  , 777.8718    , 1.43        , 3           , 255         , 0           , 0
-9.789489   , 0.0986346751, -0.4724174  , 0.000415342278, 0.0108272787, 0.000422126235, -0.494156718, -1.54894292 , 0.00675842352, 923.2508    , 26.9158134  , 777.8719    , 1.44        , 3           , 255         , 0           , 0
-9.783798   , 0.09748261  , -0.478862941, 0.0003126572, 0.008354772 , -6.750738E-05, -0.492320061, -1.54887211 , 0.004922366 , 923.2508    , 26.9158134  , 777.871948  , 1.45        , 3           , 255         , 0           , 0
-9.772375   , 0.08806425  , -0.476477057, 8.15527746E-05, 0.00163174444, -0.000208409678, -0.491884321, -1.54885578 , 0.00448868563, 923.2508    , 26.9158134  , 777.872     , 1.46        , 3           , 255         , 0           , 0
-9.776502   , 0.09831695  , -0.474717468, -0.0001758124, -0.00461283838, -0.000418005628, -0.492713451, -1.54889393 , 0.0053168973, 923.2508    , 26.9158134  , 777.8721    , 1.47        , 3           , 255         , 0           , 0
-9.77969    , 0.0959277   , -0.471369833, 0.00027907535, -0.007033708, 0.0001704465, -0.494303346, -1.54895926 , 0.00690908963, 923.2508    , 26.9158134  , 777.872131  , 1.48        , 3           , 255         , 0           , 0
-9.788666   , 0.09445225  , -0.463193476, -0.0003314399, -0.00685654348, 0.000507388264, -0.4960059  , -1.54902494 , 0.008608903 , 923.2508    , 26.9158134  , 777.8722    , 1.49        , 3           , 255         , 0           , 0
-9.788628   , 0.0947705   , -0.4555005  , -0.0006671733, -0.00240847282, 0.000326217647, -0.496670067, -1.54903591 , 0.009266021 , 923.2508    , 26.9158134  , 777.8723    , 1.5         , 3           , 255         , 0           , 0
-9.78778    , 0.09572776  , -0.45076257 , -0.000445870683, 0.00275351666, -0.000263187365, -0.4809568  , -1.54842    , -0.00644736877, 923.2508    , 26.9158134  , 777.8645    , 1.51        , 3           , 255         , 0           , 0
-9.784913   , 0.103135787 , -0.463092   , -0.0003279975, 0.00543722231, -0.000228994177, -0.47974807 , -1.54837739 , -0.00765999127, 923.2508    , 26.9158134  , 777.864563  , 1.52        , 3           , 255         , 0           , 0
-9.783206   , 0.106223688 , -0.4634801  , -4.4817687E-05, 0.005849225 , -0.0003156489, -0.478421181, -1.54831636 , -0.008986884, 923.2633    , 26.9180527  , 777.8646    , 1.53        , 3           , 255         , 0           , 0
-9.790514   , 0.111369155 , -0.456371844, 0.0006600657, 0.004031558 , 0.0005745831, -0.477817416, -1.54827666 , -0.0095852  , 923.2633    , 26.9180527  , 777.8647    , 1.54        , 3           , 255         , 0           , 0
-9.774362   , 0.09974727  , -0.4733635  , 0.000362097868, 0.0001461263, 0.0010596459, -0.478202462, -1.54828453 , -0.00919608 , 923.2633    , 26.9180527  , 777.864746  , 1.55        , 3           , 255         , 0           , 0
-9.771281   , 0.107967913 , -0.4743947  , 0.000643586856, -0.006562443, 0.0004432758, -0.479716063, -1.548335   , -0.007676581, 923.2633    , 26.9180527  , 777.8648    , 1.56        , 3           , 255         , 0           , 0
-9.779533   , 0.111160412 , -0.458350748, 0.000365892542, -0.005616709, 0.0004267595, -0.4810386  , -1.548388   , -0.006349311, 923.2633    , 26.9180527  , 777.864868  , 1.57        , 3           , 255         , 0           , 0
-9.7843     , 0.118391313 , -0.460609257, 0.0002011517, -0.00228990987, 0.000760422554, -0.481808633, -1.54839873 , -0.00557624176, 923.2633    , 26.9180527  , 777.8649    , 1.58        , 3           , 255         , 0           , 0
-9.781046   , 0.106426045 , -0.4615527  , 0.0001733246, -0.000150913183, 0.000415469316, -0.482003957, -1.54839873 , -0.00537981931, 923.2633    , 26.9180527  , 777.865     , 1.59        , 3           , 255         , 0           , 0
-9.778971   , 0.10437455  , -0.457418621, 0.000400273246, 0.000879636034, 4.59379226E-05, -0.481834918, -1.54839075 , -0.005544163, 923.2633    , 26.9180527  , 777.865051  , 1.6         , 3           , 255         , 0           , 0
-9.782566   , 0.112126231 , -0.459325939, -3.55596421E-05, 0.00206946419, 1.12186535E-06, -0.468437165, -1.54776883 , -0.0189399533, 923.2633    , 26.9180527  , 777.8443    , 1.61        , 3           , 255         , 0           , 0
-9.790836   , 0.10284283  , -0.4677415  , -0.000242833165, 0.00343451672, -0.000178521441, -0.4676985  , -1.54774034 , -0.0196809918, 923.2633    , 26.9180527  , 777.844238  , 1.62        , 3           , 255         , 0           , 0
-9.786316   , 0.09533767  , -0.467731237, -5.1894458E-05, 0.00602069171, -6.367403E-05, -0.466500372, -1.54769135 , -0.0208796151, 923.227     , 26.9194775  , 777.8442    , 1.63        , 3           , 255         , 0           , 0
-9.774132   , 0.09216361  , -0.464516729, 0.000475352281, 0.008370974 , 0.000174762332, -0.464940578, -1.547614   , -0.0224355944, 923.227     , 26.9194775  , 777.8441    , 1.64        , 3           , 255         , 0           , 0
-9.770805   , 0.0988383   , -0.463935226, 0.0005739365, 0.008520838 , 0.00018062786, -0.463361084, -1.547537   , -0.0240094848, 923.227     , 26.9194775  , 777.844055  , 1.65        , 3           , 255         , 0           , 0
-9.783625   , 0.0980373248, -0.46868    , -0.000155062531, 0.0110194087, 0.000588044059, -0.4614802  , -1.54743218 , -0.0258929711, 923.227     , 26.9194775  , 777.844     , 1.66        , 3           , 255         , 0           , 0
-9.78005    , 0.0935762152, -0.467063129, 0.0001591501, 0.0108049549, 0.00056879  , -0.4596453  , -1.54733038 , -0.027726369, 923.227     , 26.9194775  , 777.844     , 1.67        , 3           , 255         , 0           , 0
-9.787474   , 0.09242384  , -0.470298529, -0.0005843929, 0.0097362   , -0.000186646226, -0.4577468  , -1.5472492  , -0.0296321623, 923.227     , 26.9194775  , 777.844     , 1.68        , 3           , 255         , 0           , 0
-9.781897   , 0.0946581438, -0.4696761  , 0.000139396521, 0.0106171705, 0.000145281141, -0.4558163  , -1.54715574 , -0.0315606371, 923.227     , 26.9194775  , 777.844     , 1.69        , 3           , 255         , 0           , 0
-9.777575   , 0.09489312  , -0.473421246, 0.000289719668, 0.0103855683, 9.75001E-05 , -0.453926235, -1.54706264 , -0.0334491171, 923.227     , 26.9194775  , 777.844     , 1.7         , 3           , 255         , 0           , 0
-9.779734   , 0.104429923 , -0.457565248, -2.35993648E-05, 0.011819791 , 0.0002535464, -0.439968765, -1.54637432 , -0.04740361 , 923.227     , 26.9194775  , 777.865234  , 1.71        , 3           , 255         , 0           , 0
-9.79472351 , 0.09418559  , -0.462788641, -5.30399848E-05, 0.01788756  , 0.000558184751, -0.437076062, -1.54620886 , -0.05029741 , 923.227     , 26.9194775  , 777.865356  , 1.72        , 3           , 255         , 0           , 0
-9.780804   , 0.103469253 , -0.469530582, 0.000276027131, 0.0195121784, 0.000760546362, -0.434017837, -1.54602778 , -0.0533543639, 923.25885   , 26.921648   , 777.8655    , 1.73        , 3           , 255         , 0           , 0
-9.78465    , 0.107865289 , -0.4756249  , 0.0008099725, 0.0196598843, 0.000163942575, -0.430756271, -1.54584789 , -0.0566085055, 923.25885   , 26.921648   , 777.8656    , 1.74        , 3           , 255         , 0           , 0
-9.776899   , 0.110044554 , -0.483146369, 0.0006785017, 0.0185157713, 0.000416160969, -0.42782253 , -1.54568124 , -0.0595361479, 923.25885   , 26.921648   , 777.8657    , 1.75        , 3           , 255         , 0           , 0
-9.774378   , 0.110776305 , -0.485269457, 0.000162531156, 0.0138227139, -0.0005004927, -0.425368   , -1.54555809 , -0.0619892776, 923.25885   , 26.921648   , 777.865845  , 1.76        , 3           , 255         , 0           , 0
-9.780729   , 0.102497242 , -0.484415919, 0.0003446614, 0.0106067481, -0.000198720925, -0.423566759, -1.54546618 , -0.06378788 , 923.25885   , 26.921648   , 777.865967  , 1.77        , 3           , 255         , 0           , 0
-9.774365   , 0.105414353 , -0.481137037, -2.53212638E-05, 0.0102237016, 0.000168550527, -0.421976119, -1.54536045 , -0.06537986 , 923.25885   , 26.921648   , 777.8661    , 1.78        , 3           , 255         , 0           , 0
-9.77859    , 0.105731726 , -0.483615637, 0.0002959891, 0.0124603324, -1.80152128E-05, -0.419969052, -1.54525757 , -0.0673846155, 923.25885   , 26.921648   , 777.8662    , 1.79        , 3           , 255         , 0           , 0
-9.771505   , 0.09770861  , -0.483668625, 0.0003648532, 0.0133286035, -5.10917744E-06, -0.41784665 , -1.54512715 , -0.0695032552, 923.25885   , 26.921648   , 777.866333  , 1.8         , 3           , 255         , 0           , 0
-9.769496   , 0.106640972 , -0.496438682, -3.025867E-05, 0.009397264 , -0.000107894244, -0.406192034, -1.54442608 , -0.08115583 , 923.25885   , 26.921648   , 777.8497    , 1.81        , 3           , 255         , 0           , 0
-9.767152   , 0.106495216 , -0.488064945, -0.000322122243, 0.004490762 , -0.000212747807, -0.40544948 , -1.54438543 , -0.08190141 , 923.25885   , 26.921648   , 777.8497    , 1.82        , 3           , 255         , 0           , 0
-9.778921   , 0.0978100151, -0.490859121, 6.108009E-05, 0.00390380761, 0.000741466938, -0.405124038, -1.54434264 , -0.08222599 , 923.2501    , 26.9225979  , 777.8497    , 1.83        , 3           , 255         , 0           , 0
-9.779226   , 0.09649742  , -0.4943357  , 0.0006372845, 0.004633227 , 0.000259465422, -0.404518843, -1.54429984 , -0.08282582 , 923.2501    , 26.9225979  , 777.8497    , 1.84        , 3           , 255         , 0           , 0
-9.783518   , 0.0800505057, -0.488821983, 0.000106621068, 0.004171704 , 0.000225721888, -0.403976828, -1.54426157 , -0.0833669  , 923.2501    , 26.9225979  , 777.8497    , 1.85        , 3           , 255         , 0           , 0
-9.774821   , 0.09725036  , -0.479387671, -0.0004912885, 0.00359671074, -0.00018808576, -0.403385371, -1.544228   , -0.08396408 , 923.2501    , 26.9225979  , 777.8497    , 1.86        , 3           , 255         , 0           , 0
-9.775003   , 0.09683313  , -0.493044943, -0.000355658238, -0.000234088817, 0.000174154062, -0.403482676, -1.54423022 , -0.08386955 , 923.2501    , 26.9225979  , 777.8497    , 1.87        , 3           , 255         , 0           , 0
-9.777376   , 0.09008067  , -0.4916037  , 0.000232709222, -0.00472460967, -6.544168E-05, -0.404157221, -1.5442729  , -0.08319266 , 923.2501    , 26.9225979  , 777.8497    , 1.88        , 3           , 255         , 0           , 0
-9.784613   , 0.09720139  , -0.478081137, 0.000258861575, -0.0043580886, 0.00013743306, -0.4048496  , -1.54431558 , -0.08249795 , 923.2501    , 26.9225979  , 777.8497    , 1.89        , 3           , 255         , 0           , 0
-9.795884   , 0.100561641 , -0.472304434, 0.0006622111, -0.000239510948, -0.000189452636, -0.404812783, -1.54431784 , -0.08252769 , 923.2501    , 26.9225979  , 777.8497    , 1.9         , 3           , 255         , 0           , 0
-9.797533   , 0.09981553  , -0.463048637, 0.0007822332, 0.008732374 , -9.471332E-05, -0.393204659, -1.543618   , -0.0941252559, 923.2501    , 26.9225979  , 777.8444    , 1.91        , 3           , 255         , 0           , 0
-9.787107   , 0.0998272747, -0.4640595  , 0.00040912  , 0.0174234379, -7.810755E-06, -0.3907557  , -1.54346263 , -0.09657064 , 923.2501    , 26.9225979  , 777.8444    , 1.92        , 3           , 255         , 0           , 0
-9.772974   , 0.09131277  , -0.492206722, -0.000566784758, 0.01979373  , -0.000443475117, -0.38787213 , -1.54328    , -0.09946033 , 923.202759  , 26.9254475  , 777.8444    , 1.93        , 3           , 255         , 0           , 0
-9.77519    , 0.103108086 , -0.507041335, -0.000222924165, 0.0151960868, -0.0005651821, -0.385608   , -1.54314172 , -0.101727575, 923.202759  , 26.9254475  , 777.8444    , 1.94        , 3           , 255         , 0           , 0
-9.776325   , 0.115337491 , -0.498280227, -5.09953825E-05, 0.0126731759, 2.87717266E-05, -0.3839046  , -1.54302347 , -0.103432521, 923.202759  , 26.9254475  , 777.8444    , 1.95        , 3           , 255         , 0           , 0
-9.766161   , 0.108645476 , -0.493618637, 7.592351E-05, 0.0120079648, -7.67133E-05, -0.382264942, -1.542912   , -0.105071619, 923.202759  , 26.9254475  , 777.8444    , 1.96        , 3           , 255         , 0           , 0
-9.781132   , 0.100719213 , -0.505061865, -1.94766326E-05, 0.009207324 , -7.17888761E-05, -0.38101542 , -1.54282665 , -0.106322765, 923.202759  , 26.9254475  , 777.8444    , 1.97        , 3           , 255         , 0           , 0
-9.783919   , 0.09696915  , -0.490941226, -3.854453E-05, 0.00604512775, 0.0003245272, -0.380321264, -1.54276276 , -0.107017152, 923.202759  , 26.9254475  , 777.8444    , 1.98        , 3           , 255         , 0           , 0
-9.790924   , 0.108253337 , -0.494746536, -0.0001666469, 0.00605783937, 0.000289542775, -0.379618317, -1.54271388 , -0.107722215, 923.202759  , 26.9254475  , 777.8444    , 1.99        , 3           , 255         , 0           , 0
-9.782137   , 0.101207331 , -0.490286648, -0.000219918089, 0.00334343128, -0.0004492122, -0.379030555, -1.54268    , -0.108312637, 923.202759  , 26.9254475  , 777.8444    , 2           , 3           , 0           , 7.42023659  , 200
-9.78533    , 0.09767148  , -0.48967275 , -0.000245081959, 0.00163885427, -7.69171747E-05, -0.37234962 , -1.54219234 , -0.11499352 , 923.202759  , 26.9254475  , 777.896545  , 2.01        , 3           , 1           , 0           , 0
-9.784612   , 0.095078826 , -0.485127628, 0.0004049217, 0.00606055  , 0.000375586562, -0.371697664, -1.54214442 , -0.115640819, 923.202759  , 26.9254475  , 777.896851  , 2.02        , 3           , 2           , 0           , 0
-9.784894   , 0.100857414 , -0.4930118  , 0.000652393 , 0.01069262  , -0.00042036688, -0.370206   , -1.54204476 , -0.117126912, 923.250366  , 26.9256516  , 777.897156  , 2.03        , 3           , 3           , 0           , 0
-9.789219   , 0.110638157 , -0.496659666, -0.000198307913, 0.0140298661, -0.0001322016, -0.368408024, -1.54190826 , -0.118927367, 923.250366  , 26.9256516  , 777.897461  , 2.04        , 3           , 4           , 0           , 0
-9.788832   , 0.100066677 , -0.507459342, 0.0002474212, 0.0149376485, 0.0003124869, -0.366653681, -1.54176819 , -0.1206808  , 923.250366  , 26.9256516  , 777.897766  , 2.05        , 3           , 5           , 0           , 0
-9.771282   , 0.102304354 , -0.5207283  , -0.0004976605, 0.01106216  , -0.000240788882, -0.365219742, -1.54166782 , -0.122119866, 923.250366  , 26.9256516  , 777.8981    , 2.06        , 3           , 6           , 0           , 0
-9.783136   , 0.09865008  , -0.5118803  , -0.000219563721, 0.006739222 , -6.99967059E-05, -0.364374638, -1.54160845 , -0.1229674  , 923.250366  , 26.9256516  , 777.8984    , 2.07        , 3           , 7           , 0           , 0
-9.775747   , 0.09965449  , -0.5002651  , -0.000186352758, 0.00371571537, -0.000573682948, -0.363739848, -1.54157174 , -0.1236039  , 923.250366  , 26.9256516  , 777.8987    , 2.08        , 3           , 8           , 5           , 5
-9.775024   , 0.09809329  , -0.508761644, -0.0005704494, 0.00022910205, -0.00016375196, -0.363665938, -1.54156971 , -0.123684406, 923.250366  , 26.9256516  , 777.899     , 2.09        , 3           , 9           , 5           , 0.1
-9.780957   , 0.100546405 , -0.502387047, 0.000119757722, -0.000161618125, 0.000324734137, -0.363787264, -1.54156768 , -0.123561561, 923.250366  , 26.9256516  , 777.8993    , 2.1         , 3           , 10          , 0.1         , 0.1
-9.785044   , 0.107342467 , -0.49216184 , -8.39771237E-05, 0.002217835 , -0.000110612309, -0.357966453, -1.54112637 , -0.129381627, 923.250366  , 26.9256516  , 777.887268  , 2.11        , 3           , 11          , 0.007631398 , 0.007631655
-9.782064   , 0.109255336 , -0.490102857, -0.0004979215, 0.008271583 , 0.00046790982, -0.357144266, -1.54105008 , -0.130208686, 923.250366  , 26.9256516  , 777.8875    , 2.12        , 3           , 12          , 0.174643889 , 0
-9.776015   , 0.104993783 , -0.5025946  , -0.000223976444, 0.0119071426, -4.89456579E-05, -0.355736583, -1.54093814 , -0.131619111, 923.2298    , 26.9293156  , 777.887756  , 2.13        , 3           , 13          , 0           , 0
-9.773741   , 0.09956385  , -0.500474751, 0.00015309453, 0.0110244937, 0.000271432771, -0.354539275, -1.54083443 , -0.132815659, 923.2298    , 26.9293156  , 777.888     , 2.14        , 3           , 14          , 0.0017053237, -2.82737747E-05
-9.778885   , 0.114271805 , -0.49647364 , 0.0006431743, 0.009037265 , 0.0009351439, -0.35378173 , -1.54074311 , -0.133567631, 923.2298    , 26.9293156  , 777.888245  , 2.15        , 3           , 15          , 0           , 0.000251868129
-9.784781   , 0.111559585 , -0.491001755, 0.00014537375, 0.009453555 , 0.00107773335, -0.353028864, -1.54065788 , -0.134319112, 923.2298    , 26.9293156  , 777.8885    , 2.16        , 3           , 16          , 0           , 4.203895E-45
-9.787802   , 0.105599739 , -0.4954659  , -0.00016562012, 0.0141278245, 0.000272473524, -0.351502448, -1.54051971 , -0.135847256, 923.2298    , 26.9293156  , 777.888733  , 2.17        , 3           , 20          , 0           , 0
-9.782057   , 0.100302555 , -0.510560334, 0.0005303632, 0.0150123928, -0.000648731133, -0.349598229, -1.54037642 , -0.13774766 , 923.2298    , 26.9293156  , 777.889     , 2.18        , 3           , 21          , 0           , 0
-9.768325   , 0.0978089944, -0.5207636  , 0.000300339074, 0.0102102356, -0.000189646089, -0.348389983, -1.5402863  , -0.1389526  , 923.2298    , 26.9293156  , 777.8892    , 2.19        , 3           , 22          , 0           , 0
-9.767275   , 0.101924717 , -0.524027944, 3.17732338E-05, 0.00282421079, -0.000422382029, -0.3479446  , -1.540259   , -0.13939856 , 923.2298    , 26.9293156  , 777.889465  , 2.2         , 3           , 40          , 0           , 0
-9.775166   , 0.104456939 , -0.5119997  , 0.0001348008, -0.001931529, 0.0007865423, -0.342705339, -1.5397613  , -0.144633546, 923.2298    , 26.9293156  , 777.9044    , 2.21        , 3           , 41          , 0           , 0
-9.778826   , 0.102073863 , -0.5117539  , 7.25092832E-06, -0.000931024668, 0.000944995671, -0.34309265 , -1.53976524 , -0.144245937, 923.2298    , 26.9293156  , 777.9048    , 2.22        , 3           , 42          , 0           , 0
-9.775674   , 0.106081247 , -0.506866753, -0.000255548162, 0.000172223576, 0.0005789889, -0.343252629, -1.53976715 , -0.144088626, 923.2478    , 26.9272785  , 777.905151  , 2.23        , 3           , 255         , 0           , 0
-9.774037   , 0.096478    , -0.5004433  , 0.0004381223, -9.35997159E-05, 0.0008356755, -0.343511015, -1.53976524 , -0.14382495 , 923.2478    , 26.9272785  , 777.9055    , 2.24        , 3           , 255         , 0           , 0
-9.775529   , 0.09451206  , -0.50311923 , 0.000510493061, -0.00123314245, 0.000420684344, -0.343767375, -1.539771   , -0.143563986, 923.2478    , 26.9272785  , 777.9059    , 2.25        , 3           , 255         , 0           , 0
-9.78784752 , 0.0906711   , -0.4940846  , 0.000197340385, -0.00127180235, 0.00104348257, -0.344219953, -1.53978062 , -0.1431093  , 923.2478    , 26.9272785  , 777.90625   , 2.26        , 3           , 255         , 0           , 0
-9.796833   , 0.0983665362, -0.4806122  , 0.0002997853, 0.010563571 , 0.0010608976, -0.3433925  , -1.53968084 , -0.143933788, 923.2478    , 26.9272785  , 777.9066    , 2.27        , 3           , 255         , 0           , 0
-9.792281   , 0.09823783  , -0.496789157, 0.000147252344, 0.02261656  , -0.000101201484, -0.3409307  , -1.53946888 , -0.146394983, 923.2478    , 26.9272785  , 777.907     , 2.28        , 3           , 255         , 0           , 0
-9.777445   , 0.102049157 , -0.517015755, -0.000395765877, 0.02516877  , 0.000488171179, -0.338416636, -1.53923    , -0.148913935, 923.2478    , 26.9272785  , 777.907349  , 2.29        , 3           , 255         , 0           , 0
-9.764516   , 0.107600331 , -0.534614146, 0.00019557483, 0.0191717036, 0.00018121273, -0.336464942, -1.53904545 , -0.150865346, 923.2478    , 26.9272785  , 777.9077    , 2.3         , 3           , 255         , 0           , 0
-9.765349   , 0.09431182  , -0.5356615  , 4.633807E-05, 0.007822589 , 0.000331693678, -0.330908567, -1.53854251 , -0.156418443, 923.2478    , 26.9272785  , 777.897461  , 2.31        , 3           , 255         , 0           , 0
-9.777478   , 0.09602946  , -0.509521544, 7.370394E-05, 0.002997358 , 0.000865432667, -0.33085987 , -1.53850925 , -0.156466767, 923.2478    , 26.9272785  , 777.897766  , 2.32        , 3           , 255         , 0           , 0
-9.785412   , 0.100793876 , -0.507057667, -0.000459297327, 0.007099975 , 0.000154832436, -0.330196977, -1.53843915 , -0.157134965, 923.229065  , 26.9301968  , 777.8981    , 2.33        , 3           , 255         , 0           , 0
-9.777262   , 0.0932793245, -0.527291   , 9.208114E-05, 0.00716188457, -0.0002983883, -0.3293923  , -1.53837287 , -0.157939225, 923.229065  , 26.9301968  , 777.8984    , 2.34        , 3           , 255         , 0           , 0
-9.77596    , 0.0967202   , -0.5190187  , -0.00014150131, 0.00429138169, -0.000384718936, -0.328854531, -1.53833067 , -0.158478752, 923.229065  , 26.9301968  , 777.8987    , 2.35        , 3           , 255         , 0           , 0
-9.774061   , 0.0937808   , -0.52571857 , -0.0005791965, 0.000358994323, -0.000368012057, -0.3287176  , -1.53832877 , -0.158621252, 923.229065  , 26.9301968  , 777.899     , 2.36        , 3           , 255         , 0           , 0
-9.770449   , 0.0934104249, -0.516066432, -0.0004280199, -0.00218045316, -0.00032567553, -0.3288431  , -1.53835082 , -0.158499688, 923.229065  , 26.9301968  , 777.8993    , 2.37        , 3           , 255         , 0           , 0
-9.781068   , 0.09642628  , -0.487902254, -0.000221404829, 0.00358997216, 0.000152389141, -0.328533143, -1.5383178  , -0.1588121  , 923.229065  , 26.9301968  , 777.8996    , 2.38        , 3           , 255         , 0           , 0
-9.794767   , 0.100703217 , -0.4946968  , 0.00014651625, 0.01658227  , 0.0006728611, -0.32708773 , -1.53816211 , -0.160256833, 923.229065  , 26.9301968  , 777.8999    , 2.39        , 3           , 255         , 0           , 0
-9.789125   , 0.09859111  , -0.512961566, -0.000189723331, 0.023104595 , 0.0007252204, -0.325039417, -1.53794    , -0.162307754, 923.229065  , 26.9301968  , 777.9002    , 2.4         , 3           , 255         , 0           , 0
-9.786067   , 0.09662992  , -0.5246421  , 0.000389459776, 0.0225345921, 0.000213446066, -0.318290919, -1.53730035 , -0.169051483, 923.229065  , 26.9301968  , 777.9155    , 2.41        , 3           , 255         , 0           , 0
-9.772854   , 0.103792846 , -0.5395993  , -6.88642E-05, 0.0166104715, 0.0004839234, -0.3168833  , -1.53714049 , -0.170461014, 923.229065  , 26.9301968  , 777.915955  , 2.42        , 3           , 255         , 0           , 0
-9.767176   , 0.0969158262, -0.537286639, -0.00018807454, 0.0101466514, 0.000293912453, -0.316031   , -1.53704858 , -0.171314836, 923.2481    , 26.9316216  , 777.9164    , 2.43        , 3           , 255         , 0           , 0
-9.767302   , 0.09245612  , -0.529194355, -0.000283552567, 0.005830897 , -5.01985778E-05, -0.315484226, -1.536985   , -0.17186515 , 923.2481    , 26.9316216  , 777.9168    , 2.44        , 3           , 255         , 0           , 0
-9.772272   , 0.0967321843, -0.523059964, 0.0005882436, 0.003624859 , 0.000349988841, -0.315245   , -1.53694975 , -0.172099054, 923.2481    , 26.9316216  , 777.917236  , 2.45        , 3           , 255         , 0           , 0
-9.779257   , 0.0985444263, -0.521700859, 9.34219E-05 , 0.003784829 , -1.24065555E-05, -0.3148942  , -1.5369128  , -0.17244871 , 923.2481    , 26.9316216  , 777.917664  , 2.46        , 3           , 255         , 0           , 0
-9.77654648 , 0.0910053551, -0.524008751, -0.000452457927, 0.00475526461, -0.000193744709, -0.3144107  , -1.53687763 , -0.17293708 , 923.2481    , 26.9316216  , 777.9181    , 2.47        , 3           , 255         , 0           , 0
-9.77034    , 0.0933548659, -0.5248555  , -0.000408240245, 0.00479112333, 0.000353177165, -0.3140779  , -1.536825   , -0.173274353, 923.2481    , 26.9316216  , 777.9185    , 2.48        , 3           , 255         , 0           , 0
-9.781545   , 0.104616776 , -0.5287432  , 8.23539449E-05, 0.006088476 , 0.000272262172, -0.31360054 , -1.53677058 , -0.173750982, 923.2481    , 26.9316216  , 777.918945  , 2.49        , 3           , 255         , 0           , 0
-9.779791   , 0.104426488 , -0.5259052  , 3.668724E-05, 0.00591615  , 5.55078441E-05, -0.313080281, -1.53670931 , -0.174270868, 923.2481    , 26.9316216  , 777.9194    , 2.5         , 3           , 255         , 0           , 0
-9.789466   , 0.105935574 , -0.514264762, -0.0003250183, 0.005500883 , -0.0005089848, -0.3070046  , -1.5361197  , -0.180347443, 923.2481    , 26.9316216  , 777.906738  , 2.51        , 3           , 255         , 0           , 0
-9.793183   , 0.09498841  , -0.516247749, -0.00021763274, 0.00844269153, -0.000387909, -0.306166351, -1.53603733 , -0.18118833 , 923.2481    , 26.9316216  , 777.9071    , 2.52        , 3           , 255         , 0           , 0
-9.784182   , 0.08984573  , -0.5151847  , 0.0002269767, 0.01147323  , -0.000646598055, -0.304995835, -1.53593111 , -0.182356909, 923.2335    , 26.9325027  , 777.9075    , 2.53        , 3           , 255         , 0           , 0
-9.767737   , 0.0908669   , -0.5250159  , 5.281833E-05, 0.0113550192, -0.000108340872, -0.3039918  , -1.53582358 , -0.183361486, 923.2335    , 26.9325027  , 777.907837  , 2.54        , 3           , 255         , 0           , 0
-9.775611   , 0.0914086   , -0.5296774  , 0.00017143297, 0.009656301 , -0.0004640934, -0.303040057, -1.53573167 , -0.184311688, 923.2335    , 26.9325027  , 777.9082    , 2.55        , 3           , 255         , 0           , 0
-9.779085   , 0.101340674 , -0.5342003  , -0.000411473447, 0.0072481283, -0.000197148765, -0.302374721, -1.53566706 , -0.1849819  , 923.2335    , 26.9325027  , 777.908569  , 2.56        , 3           , 255         , 0           , 0
-9.77344    , 0.105645955 , -0.528464139, -0.000568036, 0.004602768 , 3.693177E-05, -0.30200097 , -1.53561962 , -0.185361281, 923.2335    , 26.9325027  , 777.908936  , 2.57        , 3           , 255         , 0           , 0
-9.787157   , 0.106024995 , -0.520346344, -0.0004598822, 0.00579638639, -0.0003709892, -0.301416278, -1.5355705  , -0.18595092 , 923.2335    , 26.9325027  , 777.9093    , 2.58        , 3           , 255         , 0           , 0
-9.778147   , 0.10765411  , -0.5220936  , 7.416657E-05, 0.00966159  , -0.000380242476, -0.3005005  , -1.535469   , -0.186866373, 923.2335    , 26.9325027  , 777.909668  , 2.59        , 3           , 255         , 0           , 0
-9.77514    , 0.0990762   , -0.525240362, -0.000132555142, 0.0123544345, -0.0002953236, -0.299391121, -1.53535962 , -0.187978253, 923.2335    , 26.9325027  , 777.910034  , 2.6         , 3           , 255         , 0           , 0
-9.774982   , 0.105758682 , -0.520953357, -4.66798665E-05, 0.0154924206, 0.000180188392, -0.295161068, -1.53488    , -0.192207411, 923.2335    , 26.9325027  , 777.918457  , 2.61        , 3           , 255         , 0           , 0
-9.77909851 , 0.10447643  , -0.5316111  , 0.000285434537, 0.01666092  , 9.7004E-05  , -0.293840855, -1.53471768 , -0.193525359, 923.2335    , 26.9325027  , 777.9189    , 2.62        , 3           , 255         , 0           , 0
-9.781796   , 0.104665279 , -0.5254351  , 0.000610505464, 0.0181126818, 0.000542839756, -0.292532116, -1.53454125 , -0.194828913, 923.2361    , 26.9350815  , 777.9193    , 2.63        , 3           , 255         , 0           , 0
-9.775139   , 0.101820126 , -0.539430439, 0.00012712914, 0.0180598572, 0.00118748122, -0.291413844, -1.53436255 , -0.195947155, 923.2361    , 26.9350815  , 777.919739  , 2.64        , 3           , 255         , 0           , 0
-9.769197   , 0.08925472  , -0.5367028  , -0.0004874377, 0.0162962321, 0.0009062698, -0.2903761  , -1.53420413 , -0.1969899  , 923.2361    , 26.9350815  , 777.920166  , 2.65        , 3           , 255         , 0           , 0
-9.777903   , 0.09659094  , -0.5377435  , -4.06878535E-05, 0.0171313155, 0.00033782667, -0.289131582, -1.53404319 , -0.198236421, 923.2361    , 26.9350815  , 777.9206    , 2.66        , 3           , 255         , 0           , 0
-9.780943   , 0.0961519852, -0.542419136, 0.0004363812, 0.0187206585, 0.0003104455, -0.28776294 , -1.533862   , -0.199601382, 923.2361    , 26.9350815  , 777.921     , 2.67        , 3           , 255         , 0           , 0
-9.774981   , 0.0998032242, -0.5436529  , 0.000381784048, 0.0178363826, 0.000129446445, -0.28642866 , -1.53369284 , -0.200932518, 923.2361    , 26.9350815  , 777.921448  , 2.68        , 3           , 255         , 0           , 0
-9.769098   , 0.09823607  , -0.555859864, 0.000221418682, 0.01432158  , 0.000303701032, -0.285419017, -1.53355491 , -0.2019407  , 923.2361    , 26.9350815  , 777.9219    , 2.69        , 3           , 255         , 0           , 0
-9.762469   , 0.10250245  , -0.5576328  , 0.000208335114, 0.008502043 , -0.000281193119, -0.284703881, -1.53347492 , -0.202653944, 923.2361    , 26.9350815  , 777.9223    , 2.7         , 3           , 255         , 0           , 0
-9.770904   , 0.107323848 , -0.547215044, -0.000106955064, 0.00430155732, -0.000458108727, -0.280286252, -1.53293729 , -0.207070708, 923.2361    , 26.9350815  , 777.9254    , 2.71        , 3           , 255         , 0           , 0
-9.780043   , 0.101921953 , -0.5457354  , 0.000342032872, 0.00587078324, 0.0002541272, -0.2799186  , -1.53288543 , -0.207434475, 923.2361    , 26.9350815  , 777.925842  , 2.72        , 3           , 255         , 0           , 0
-9.789238   , 0.102484941 , -0.543500066, 0.000222360832, 0.0120763481, -3.65727756E-05, -0.2790309  , -1.53276765 , -0.2083209  , 923.266052  , 26.935421   , 777.9263    , 2.73        , 3           , 255         , 0           , 0
-9.774912   , 0.112588525 , -0.5510403  , -0.000373893534, 0.01589024  , -3.993658E-05, -0.2778787  , -1.5326159  , -0.2094777  , 923.266052  , 26.935421   , 777.9267    , 2.74        , 3           , 255         , 0           , 0
-9.789356   , 0.103994682 , -0.5455034  , -4.05011233E-05, 0.01853614  , 0.000462462427, -0.2766707  , -1.53243828 , -0.210687608, 923.266052  , 26.935421   , 777.9271    , 2.75        , 3           , 255         , 0           , 0
-9.779673   , 0.101291992 , -0.546518   , -7.893192E-05, 0.0234954469, 0.000461729534, -0.2751247  , -1.53220427 , -0.212235555, 923.266052  , 26.935421   , 777.927551  , 2.76        , 3           , 255         , 0           , 0
-9.776116   , 0.101416685 , -0.5511719  , 6.80168159E-05, 0.0239488762, 0.0003828702, -0.27354306 , -1.53197324 , -0.213816971, 923.266052  , 26.935421   , 777.928     , 2.77        , 3           , 255         , 0           , 0
-9.773748   , 0.09693225  , -0.5565941  , 0.0004117277, 0.02272216  , 0.000674905838, -0.272133917, -1.53175426 , -0.215223089, 923.266052  , 26.935421   , 777.9284    , 2.78        , 3           , 255         , 0           , 0
-9.774922   , 0.101521336 , -0.5649058  , -0.000165735139, 0.0192642622, 0.00125313713, -0.271124154, -1.53156686 , -0.216234967, 923.266052  , 26.935421   , 777.928833  , 2.79        , 3           , 255         , 0           , 0
-9.774003   , 0.103704751 , -0.568601251, 0.000116260839, 0.0115259858, 0.000154598558, -0.270376921, -1.53145158 , -0.216982067, 923.266052  , 26.935421   , 777.92926   , 2.8         , 3           , 255         , 0           , 0
-9.772047   , 0.106864095 , -0.5587703  , -0.0001609564, 0.008171537 , 0.000121229037, -0.2676365  , -1.531052   , -0.21972315 , 923.266052  , 26.935421   , 777.8898    , 2.81        , 3           , 255         , 0           , 0
-9.779098   , 0.0997280255, -0.5625208  , -0.000378574128, 0.009558963 , 0.0005043681, -0.2671281  , -1.53095758 , -0.220235676, 923.266052  , 26.935421   , 777.889954  , 2.82        , 3           , 255         , 0           , 0
-9.772835   , 0.09562538  , -0.570980668, -6.874197E-05, 0.007903277 , -0.0006274698, -0.266454935, -1.53088284 , -0.220909059, 923.2885    , 26.9365063  , 777.890137  , 2.83        , 3           , 255         , 0           , 0
-9.777029   , 0.09810655  , -0.568307936, 0.0006301595, 0.004343391 , -0.000615235, -0.266014129, -1.53083956 , -0.221344873, 923.2885    , 26.9365063  , 777.8903    , 2.84        , 3           , 255         , 0           , 0
-9.779382   , 0.105696976 , -0.5637712  , 6.737502E-05, 0.00367566245, -0.0003885175, -0.265677929, -1.53080523 , -0.221680433, 923.2885    , 26.9365063  , 777.8905    , 2.85        , 3           , 255         , 0           , 0
-9.785865   , 0.0973464847, -0.5555967  , -0.000247512362, 0.00706211058, 2.73407786E-05, -0.265224427, -1.53073823 , -0.222136229, 923.2885    , 26.9365063  , 777.8907    , 2.86        , 3           , 255         , 0           , 0
-9.789813   , 0.111361541 , -0.5486457  , 0.00031420507, 0.0134442747, 0.00010612316, -0.264370471, -1.53061187 , -0.222988009, 923.2885    , 26.9365063  , 777.890869  , 2.87        , 3           , 255         , 0           , 0
-9.772291   , 0.104045346 , -0.5532013  , 0.000169359613, 0.01857371  , 8.807369E-05, -0.263188273, -1.53043282 , -0.224169627, 923.2885    , 26.9365063  , 777.891052  , 2.88        , 3           , 255         , 0           , 0
-9.773421   , 0.0953393951, -0.5678582  , 0.000171334948, 0.0167015046, 1.45678932E-05, -0.262118578, -1.53026617 , -0.2252383  , 923.2885    , 26.9365063  , 777.891235  , 2.89        , 3           , 255         , 0           , 0
-9.763739   , 0.08834139  , -0.5768529  , -0.0005695487, 0.0117274011, -3.1870688E-05, -0.2613698  , -1.53015459 , -0.225993827, 923.2885    , 26.9365063  , 777.8914    , 2.9         , 3           , 255         , 0           , 0
-9.775164   , 0.102220319 , -0.5790438  , -0.0003654476, 0.006620208 , -3.73172079E-05, -0.258648962, -1.52975452 , -0.228717029, 923.2885    , 26.9365063  , 777.825745  , 2.91        , 3           , 255         , 0           , 0
-9.777453   , 0.09988165  , -0.581607   , 0.000164994155, 0.00341455638, 0.000309169554, -0.25850746 , -1.529727   , -0.228856966, 923.2885    , 26.9365063  , 777.8255    , 2.92        , 3           , 255         , 0           , 0
-9.777571   , 0.0966746062, -0.576949656, 0.000198770082, -0.0006242478, 5.180188E-05, -0.2585566  , -1.52973139 , -0.2288057  , 923.233032  , 26.9360313  , 777.825256  , 2.93        , 3           , 255         , 0           , 0
-9.784309   , 0.104277894 , -0.5716214  , 7.232814E-05, -0.00138109259, 0.00028323874, -0.258708537, -1.529743   , -0.228652269, 923.233032  , 26.9360313  , 777.8251    , 2.94        , 3           , 255         , 0           , 0
-9.775218   , 0.1050127   , -0.5635972  , 0.000141333439, -0.000715533, 7.580244E-05, -0.25876978 , -1.5297488  , -0.228589877, 923.233032  , 26.9360313  , 777.8249    , 2.95        , 3           , 255         , 0           , 0
-9.770572   , 0.10215579  , -0.5641908  , -0.000167479157, -0.00288064219, 0.0008122809, -0.25914225 , -1.5297749  , -0.228218764, 923.233032  , 26.9360313  , 777.8247    , 2.96        , 3           , 255         , 0           , 0
-9.772326   , 0.101104379 , -0.5600079  , -0.000200730632, -0.00169383723, 0.000211850886, -0.259300441, -1.52978659 , -0.228062913, 923.233032  , 26.9360313  , 777.8245    , 2.97        , 3           , 255         , 0           , 0
-9.782656   , 0.105044022 , -0.5640616  , -0.0004283688, 0.00391741935, 6.134328E-05, -0.259074718, -1.52975166 , -0.228293017, 923.233032  , 26.9360313  , 777.824341  , 2.98        , 3           , 255         , 0           , 0
-9.784491   , 0.102846935 , -0.5630768  , -0.000434728456, 0.009441936 , 8.971445E-05, -0.2585122  , -1.52966166 , -0.228860766, 923.233032  , 26.9360313  , 777.824158  , 2.99        , 3           , 255         , 0           , 0
-9.777957   , 0.09525897  , -0.5757066  , 0.000886503258, 0.0100889141, 0.000479358336, -0.257990062, -1.52956176 , -0.229373679, 923.233032  , 26.9360313  , 777.824     , 3           , 3           , 0           , 8.420237    , 300
-9.76433    , 0.104707219 , -0.5725625  , 0.000118278316, 0.008259232 , 0.000485777 , -0.25571847 , -1.52919614 , -0.23164238 , 923.233032  , 26.9360313  , 777.8451    , 3.01        , 3           , 1           , 0           , 0
-9.7758255  , 0.104537979 , -0.57662183 , -0.00028148503, 0.00471153436, 0.0007235132, -0.255603522, -1.52914321 , -0.231760651, 923.233032  , 26.9360313  , 777.845032  , 3.02        , 3           , 2           , 0           , 0
-9.774617   , 0.09160812  , -0.570631444, -0.000274979742, 0.00155566  , 0.0010161564, -0.255748242, -1.52912748 , -0.231618747, 923.2569    , 26.94078    , 777.845     , 3.03        , 3           , 3           , 0           , 0
-9.781324   , 0.09810387  , -0.56891036 , -0.000717271, 0.00162569806, 0.0007426421, -0.255829215, -1.52910888 , -0.2315451  , 923.2569    , 26.94078    , 777.8449    , 3.04        , 3           , 4           , 0           , 0
-9.778351   , 0.100147888 , -0.5760857  , -0.000271729543, 0.00150226755, 0.000896064448, -0.255948454, -1.52909315 , -0.231428146, 923.2569    , 26.94078    , 777.844849  , 3.05        , 3           , 5           , 0           , 0
-9.779782   , 0.100578263 , -0.5605663  , -0.000255929772, 0.003236103 , -0.000166605721, -0.255715966, -1.52906024 , -0.231663749, 923.2569    , 26.94078    , 777.8448    , 3.06        , 3           , 6           , 0           , 0
-9.776493   , 0.0988385454, -0.5539263  , 4.8636226E-05, 0.009249914 , -0.0010862638, -0.254905134, -1.52897751 , -0.232474238, 923.2569    , 26.94078    , 777.8447    , 3.07        , 3           , 7           , 0           , 0
-9.779394   , 0.105391167 , -0.568565667, 6.649119E-05, 0.0132492846, -0.000151454908, -0.25407353 , -1.52885222 , -0.233306319, 923.2569    , 26.94078    , 777.844666  , 3.08        , 3           , 8           , 5           , 5
-9.775838   , 0.1017472   , -0.566631138, 0.000245365431, 0.0143787   , -0.000938382, -0.252996773, -1.52871311 , -0.234380826, 923.2569    , 26.94078    , 777.8446    , 3.09        , 3           , 9           , 5           , 0.1
-9.777349   , 0.106802478 , -0.57579577 , 9.661308E-06, 0.0155959092, -7.63435237E-05, -0.252056032, -1.52856183 , -0.235322908, 923.2569    , 26.94078    , 777.844543  , 3.1         , 3           , 10          , 0.1         , 0.1
-9.769564   , 0.103371181 , -0.5846297  , -0.000107515021, 0.01402699  , -0.0003087809, -0.249254376, -1.52812219 , -0.238124445, 923.2569    , 26.94078    , 777.829346  , 3.11        , 3           , 11          , 0.006913948 , 0.006914148
-9.768627   , 0.11037147  , -0.580864131, -0.000206967117, 0.0111395447, 0.0008719471, -0.2488124  , -1.52801478 , -0.238568977, 923.2569    , 26.94078    , 777.8292    , 3.12        , 3           , 12          , 0.174645647 , 0
-9.768486   , 0.110545337 , -0.5838928  , -0.000136844348, 0.008000189 , 0.0007797998, -0.24853088 , -1.52793539 , -0.238852277, 923.2389    , 26.9382019  , 777.8291    , 3.13        , 3           , 13          , 0           , 0
-9.768862   , 0.103543423 , -0.586656332, -0.0003192569, 0.00300582126, 0.000515475462, -0.248477787, -1.527902   , -0.238908529, 923.2389    , 26.9382019  , 777.829     , 3.14        , 3           , 14          , 0.00170513033, -4.632767E-05
-9.768311   , 0.0998194963, -0.574643731, -6.276567E-05, 0.0003889947, -7.83172145E-05, -0.248438552, -1.52789927 , -0.238948315, 923.2389    , 26.9382019  , 777.828857  , 3.15        , 3           , 15          , 0           , 0.000252058322
-9.773676   , 0.09780298  , -0.572702   , 3.083609E-05, 0.00152063614, -0.000448207633, -0.248249918, -1.527884   , -0.239136934, 923.2389    , 26.9382019  , 777.828735  , 3.16        , 3           , 16          , 0           , 4.203895E-45
-9.78449249 , 0.09940787  , -0.5716311  , -0.000144224148, 0.00749958027, -0.000863170659, -0.24762851 , -1.5278132  , -0.239760563, 923.2389    , 26.9382019  , 777.8286    , 3.17        , 3           , 20          , 0           , 0
-9.773572   , 0.105446219 , -0.574451566, -0.0003405934, 0.01181362  , -0.0002903588, -0.2468952  , -1.52769959 , -0.240497813, 923.2389    , 26.9382019  , 777.8285    , 3.18        , 3           , 21          , 0           , 0
-9.77409649 , 0.1039629   , -0.5764044  , -0.000150637468, 0.0125784855, -0.000247216958, -0.246130064, -1.52757943 , -0.241264775, 923.2389    , 26.9382019  , 777.828369  , 3.19        , 3           , 22          , 0           , 0
-9.785906   , 0.09543042  , -0.5723604  , 0.0003074454, 0.0146382358, 0.000214176951, -0.245353028, -1.52743757 , -0.242039561, 923.2389    , 26.9382019  , 777.828247  , 3.2         , 3           , 40          , 0           , 0
-9.790342   , 0.08932413  , -0.5784936  , 0.000916746 , 0.0146162035, 0.000587091665, -0.242639929, -1.52693987 , -0.244742066, 923.2389    , 26.9382019  , 777.8407    , 3.21        , 3           , 41          , 0           , 0
-9.788542   , 0.09455299  , -0.5717053  , -0.000367795, 0.0156488921, 0.0001952179, -0.24183324 , -1.52678788 , -0.245553568, 923.2389    , 26.9382019  , 777.840637  , 3.22        , 3           , 42          , 0           , 0
-9.778723   , 0.09851583  , -0.5692133  , -0.0004504408, 0.0186035186, 0.000406108535, -0.2409192  , -1.52660668 , -0.24647291 , 923.229065  , 26.9419327  , 777.8406    , 3.23        , 3           , 255         , 0           , 0
-9.77149    , 0.09102906  , -0.5766793  , -4.62332973E-05, 0.0214102268, -8.812013E-05, -0.239750728, -1.52640069 , -0.2476431  , 923.229065  , 26.9419327  , 777.8405    , 3.24        , 3           , 255         , 0           , 0
-9.773035   , 0.09769785  , -0.5841682  , 0.0002010481, 0.0210172646, 0.0003270676, -0.238702163, -1.52619565 , -0.248690635, 923.229065  , 26.9419327  , 777.840454  , 3.25        , 3           , 255         , 0           , 0
-9.77170849 , 0.103726722 , -0.595419   , 0.000252896221, 0.0165872164, 0.000169507752, -0.2378606  , -1.52603149 , -0.249530777, 923.229065  , 26.9419327  , 777.8404    , 3.26        , 3           , 255         , 0           , 0
-9.771565   , 0.0937167853, -0.599435   , 0.000233469065, 0.0126365749, 0.000257181615, -0.237250969, -1.52590919 , -0.2501386  , 923.229065  , 26.9419327  , 777.840332  , 3.27        , 3           , 255         , 0           , 0
-9.771711   , 0.0986561   , -0.5971761  , 0.000342854531, 0.009676282 , 0.000170987943, -0.236778632, -1.52581632 , -0.250607461, 923.229065  , 26.9419327  , 777.8403    , 3.28        , 3           , 255         , 0           , 0
-9.776361   , 0.10430602  , -0.5901478  , 9.492366E-05, 0.008842115 , 0.00041011037, -0.2364068  , -1.525729   , -0.2509796  , 923.229065  , 26.9419327  , 777.8402    , 3.29        , 3           , 255         , 0           , 0
-9.772627   , 0.103435859 , -0.598891854, -0.000553312944, 0.009898721 , 0.0008754458, -0.236087784, -1.52562976 , -0.251304179, 923.229065  , 26.9419327  , 777.840149  , 3.3         , 3           , 255         , 0           , 0
-9.771622   , 0.109916031 , -0.603990734, -0.0006416043, 0.00678097969, 0.000128743559, -0.234253034, -1.5253154  , -0.2531438  , 923.229065  , 26.9419327  , 777.8651    , 3.31        , 3           , 255         , 0           , 0
-9.777612   , 0.104924634 , -0.584401846, -0.0008727636, 0.0059961   , -0.000426761166, -0.233865589, -1.52525508 , -0.253540635, 923.229065  , 26.9419327  , 777.865234  , 3.32        , 3           , 255         , 0           , 0
-9.77443    , 0.09989002  , -0.5842344  , -0.000423977734, 0.010052247 , -0.000209731661, -0.233314842, -1.52516091 , -0.254096   , 923.2711    , 26.9434929  , 777.865356  , 3.33        , 3           , 255         , 0           , 0
-9.774414   , 0.103936695 , -0.5991837  , 0.000338174053, 0.0112768058, -0.0006646105, -0.232600525, -1.52505255 , -0.254807621, 923.2711    , 26.9434929  , 777.8655    , 3.34        , 3           , 255         , 0           , 0
-9.781891   , 0.101776436 , -0.6092216  , 0.000350205344, 0.008563721 , -0.0008851881, -0.231978789, -1.52497315 , -0.255426764, 923.2711    , 26.9434929  , 777.8656    , 3.35        , 3           , 255         , 0           , 0
-9.767469   , 0.111212038 , -0.6085321  , 0.000296814251, 0.00236098212, -0.0009989388, -0.231645554, -1.52494848 , -0.255757332, 923.2711    , 26.9434929  , 777.8657    , 3.36        , 3           , 255         , 0           , 0
-9.770265   , 0.105309963 , -0.605099857, -0.000291891047, -0.00112996332, 0.0007088847, -0.231855348, -1.52495885 , -0.255550176, 923.2711    , 26.9434929  , 777.865845  , 3.37        , 3           , 255         , 0           , 0
-9.769716   , 0.100248814 , -0.6023246  , -0.000654074247, -0.003346084, 5.51879639E-05, -0.232041225, -1.5249927  , -0.255370557, 923.2711    , 26.9434929  , 777.865967  , 3.38        , 3           , 255         , 0           , 0
-9.780904   , 0.103654325 , -0.60032    , -0.000483347918, -0.004607385, -3.38331E-05, -0.232270315, -1.52503824 , -0.2551461  , 923.2711    , 26.9434929  , 777.8661    , 3.39        , 3           , 255         , 0           , 0
-9.774936   , 0.10113547  , -0.5932423  , -0.000217857421, -0.00371382013, -4.86465869E-05, -0.232448772, -1.52507341 , -0.254969925, 923.2711    , 26.9434929  , 777.8662    , 3.4         , 3           , 255         , 0           , 0
-9.787728   , 0.09891804  , -0.5874362  , 0.0003228814, -0.0009056523, -0.000429409061, -0.231023312, -1.52480686 , -0.256389827, 923.2711    , 26.9434929  , 777.8279    , 3.41        , 3           , 255         , 0           , 0
-9.771242   , 0.0987689644, -0.5801198  , -0.000130746746, 0.00261693751, -5.01828472E-05, -0.2308842  , -1.524781   , -0.256531   , 923.2711    , 26.9434929  , 777.827759  , 3.42        , 3           , 255         , 0           , 0
-9.769418   , 0.100955687 , -0.593721032, 0.000226952019, 0.00682715  , -6.365456E-05, -0.230530486, -1.524715   , -0.256882817, 923.2286    , 26.9433575  , 777.827637  , 3.43        , 3           , 255         , 0           , 0
-9.772954   , 0.101289034 , -0.6034106  , -0.000262641115, 0.009083267 , -8.63352E-06, -0.230081931, -1.52462709 , -0.2573345  , 923.2286    , 26.9433575  , 777.8275    , 3.44        , 3           , 255         , 0           , 0
-9.779322   , 0.09663313  , -0.593166351, -0.000136222225, 0.008582543 , -4.48885839E-05, -0.229650989, -1.52454448 , -0.2577675  , 923.2286    , 26.9433575  , 777.8274    , 3.45        , 3           , 255         , 0           , 0
-9.774141   , 0.102085292 , -0.602514148, -0.000265526, 0.00683324132, 7.749273E-06, -0.22932    , -1.5244801  , -0.258101523, 923.2286    , 26.9433575  , 777.8273    , 3.46        , 3           , 255         , 0           , 0
-9.77372551 , 0.1024858   , -0.6071223  , -0.00023872219, 0.002670437 , 0.000222278235, -0.229237989, -1.52444911 , -0.258185744, 923.2286    , 26.9433575  , 777.827148  , 3.47        , 3           , 255         , 0           , 0
-9.77222    , 0.108543813 , -0.6057758  , -0.000203456031, -0.000707208, 0.000463768432, -0.229372263, -1.52445555 , -0.258054   , 923.2286    , 26.9433575  , 777.827     , 3.48        , 3           , 255         , 0           , 0
-9.775766   , 0.101494849 , -0.6052612  , -0.000255768071, -0.00340793235, 0.000344578817, -0.229614183, -1.52448654 , -0.257813573, 923.2286    , 26.9433575  , 777.8269    , 3.49        , 3           , 255         , 0           , 0
-9.767843   , 0.09573951  , -0.6050143  , 0.00024658232, -0.00720078964, 0.0008393738, -0.230142877, -1.52455735 , -0.257282138, 923.2286    , 26.9433575  , 777.8268    , 3.5         , 3           , 255         , 0           , 0
-9.771176   , 0.102766678 , -0.5982466  , -0.000222175266, -0.009585339, 0.00119636557, -0.229460984, -1.52439    , -0.257963926, 923.2286    , 26.9433575  , 777.8542    , 3.51        , 3           , 255         , 0           , 0
-9.775775   , 0.106731907 , -0.585629   , 8.867064E-05, -0.0100686532, 0.000480634917, -0.230055287, -1.52448523 , -0.257368058, 923.2286    , 26.9433575  , 777.854248  , 3.52        , 3           , 255         , 0           , 0
-9.773971   , 0.10392721  , -0.5857881  , 0.0003947277, -0.008194295, -0.000244943571, -0.2304037  , -1.52456641 , -0.2570153  , 923.2306    , 26.9431553  , 777.8543    , 3.53        , 3           , 255         , 0           , 0
-9.787223   , 0.100681111 , -0.585928738, 0.000546848052, -0.003303129, -0.000139948243, -0.23053211 , -1.5245961  , -0.256881356, 923.2306    , 26.9431553  , 777.8544    , 3.54        , 3           , 255         , 0           , 0
-9.773554   , 0.109396115 , -0.5963316  , 0.000671914429, -0.001554455, 0.000224944728, -0.2306503  , -1.52461159 , -0.256756872, 923.2306    , 26.9431553  , 777.854431  , 3.55        , 3           , 255         , 0           , 0
-9.773247   , 0.1058231   , -0.5854701  , 0.000159894465, -0.000156899448, 5.4446602E-05, -0.230667442, -1.52461159 , -0.256737322, 923.2306    , 26.9431553  , 777.8545    , 3.56        , 3           , 255         , 0           , 0
-9.768464   , 0.104410633 , -0.5834782  , 6.873242E-05, 0.00116456463, -0.000429280917, -0.230518922, -1.52460253 , -0.25688526 , 923.2306    , 26.9431553  , 777.854553  , 3.57        , 3           , 255         , 0           , 0
-9.777895   , 0.102029406 , -0.5865997  , 0.000148581224, 0.00149615842, -0.000129284686, -0.230416328, -1.524587   , -0.256986648, 923.2306    , 26.9431553  , 777.8546    , 3.58        , 3           , 255         , 0           , 0
-9.780973   , 0.107536219 , -0.590259552, -0.000130323344, 0.00108658639, 2.35390326E-05, -0.230368644, -1.52457547 , -0.257035375, 923.2306    , 26.9431553  , 777.8547    , 3.59        , 3           , 255         , 0           , 0
-9.775523   , 0.107055709 , -0.589196563, -0.000339594553, 0.00197547115, -0.000116071664, -0.2302503  , -1.52456379 , -0.257157415, 923.2306    , 26.9431553  , 777.854736  , 3.6         , 3           , 255         , 0           , 0
-9.764341   , 0.0935450941, -0.5942322  , -0.00064135564, 0.00252283784, 0.000482598552, -0.229137629, -1.52430272 , -0.2582759  , 923.2306    , 26.9431553  , 777.875732  , 3.61        , 3           , 255         , 0           , 0
-9.774862   , 0.09227264  , -0.594784439, 0.0004615459, 0.002298042 , 0.0009654904, -0.229222342, -1.52427971 , -0.2581857  , 923.2306    , 26.9431553  , 777.876     , 3.62        , 3           , 255         , 0           , 0
-9.776957   , 0.09739032  , -0.5985777  , 0.000100258738, 0.0008036297, 0.000586418435, -0.229305312, -1.52427578 , -0.2581023  , 923.22644   , 26.9493961  , 777.8762    , 3.63        , 3           , 255         , 0           , 0
-9.784296   , 0.09305753  , -0.583369136, 0.000197371468, 0.00309660356, 0.0006894263, -0.2292961  , -1.52423739 , -0.2581092  , 923.22644   , 26.9493961  , 777.876465  , 3.64        , 3           , 255         , 0           , 0
-9.779146   , 0.0947844   , -0.5977972  , -5.35348663E-05, 0.005176853 , -0.0005829043, -0.228922859, -1.52419257 , -0.258483261, 923.22644   , 26.9493961  , 777.8767    , 3.65        , 3           , 255         , 0           , 0
-9.762446   , 0.0966465   , -0.609634   , -4.83784825E-05, -0.003456213, -0.000806969765, -0.22892274 , -1.52422452 , -0.258484423, 923.22644   , 26.9493961  , 777.876953  , 3.66        , 3           , 255         , 0           , 0
-9.775556   , 0.09692441  , -0.588660061, -0.000280091423, -0.00755083 , -0.000170476444, -0.22925809 , -1.52430022 , -0.258150935, 923.22644   , 26.9493961  , 777.8772    , 3.67        , 3           , 255         , 0           , 0
-9.78153    , 0.101725176 , -0.576223135, 0.000114170252, 0.000848271942, -0.000178929651, -0.229177848, -1.52429    , -0.2582302  , 923.22644   , 26.9493961  , 777.877441  , 3.68        , 3           , 255         , 0           , 0
-9.784266   , 0.0931971744, -0.579095364, 3.53461364E-05, 0.0100786174, 6.32555457E-05, -0.228700116, -1.52419519 , -0.258708477, 923.22644   , 26.9493961  , 777.8777    , 3.69        , 3           , 255         , 0           , 0
-9.786989   , 0.104891971 , -0.5730999  , 0.000650297734, 0.01765745  , 0.000313329569, -0.227903411, -1.52401888 , -0.259499252, 923.22644   , 26.9493961  , 777.8779    , 3.7         , 3           , 255         , 0           , 0
-9.780524   , 0.109246291 , -0.581338346, 0.000230174628, 0.023213299 , 0.000189269282, -0.2256226  , -1.52359259 , -0.2617775  , 923.22644   , 26.9493961  , 777.9014    , 3.71        , 3           , 255         , 0           , 0
-9.773197   , 0.103301957 , -0.588615537, -5.32985432E-05, 0.0263461452, -0.0009703478, -0.22418277 , -1.52333677 , -0.263219237, 923.22644   , 26.9493961  , 777.9018    , 3.72        , 3           , 255         , 0           , 0
-9.772505   , 0.105538264 , -0.6085313  , 0.000224342453, 0.0271124169, 8.694286E-05, -0.222936675, -1.52307618 , -0.264464974, 923.224731  , 26.9464111  , 777.902161  , 3.73        , 3           , 255         , 0           , 0
-9.773221   , 0.105968855 , -0.627778232, 7.67898746E-06, 0.0216986369, -0.000108574459, -0.221914932, -1.52286172 , -0.2654877  , 923.224731  , 26.9464111  , 777.9025    , 3.74        , 3           , 255         , 0           , 0
-9.765108   , 0.104591832 , -0.6322794  , 0.000249834033, 0.0106886281, -0.0004536498, -0.221331343, -1.52275991 , -0.266069353, 923.224731  , 26.9464111  , 777.9029    , 3.75        , 3           , 255         , 0           , 0
-9.762373   , 0.104612112 , -0.6231445  , 0.0002148737, -0.000658626435, 8.262941E-05, -0.221375823, -1.52276611 , -0.266022742, 923.224731  , 26.9464111  , 777.903259  , 3.76        , 3           , 255         , 0           , 0
-9.777119   , 0.107433006 , -0.6099836  , -0.0006137865, -0.005570311, 0.00040408803, -0.221719623, -1.522822   , -0.265685022, 923.224731  , 26.9464111  , 777.9036    , 3.77        , 3           , 255         , 0           , 0
-9.777604   , 0.1044672   , -0.596554637, 0.0002492573, -0.004414156, 0.0003613005, -0.2219926  , -1.52286172 , -0.2654092  , 923.224731  , 26.9464111  , 777.904     , 3.78        , 3           , 255         , 0           , 0
-9.775057   , 0.09456526  , -0.5978637  , 0.0004081633, -0.0015063209, 0.000414364127, -0.222141445, -1.52287543 , -0.265255839, 923.224731  , 26.9464111  , 777.904358  , 3.79        , 3           , 255         , 0           , 0
-9.782305   , 0.09713981  , -0.5967253  , 0.000113741262, 0.00232685427, 0.000186987163, -0.222071767, -1.52285182 , -0.265324175, 923.224731  , 26.9464111  , 777.9047    , 3.8         , 3           , 255         , 0           , 0
-9.777097   , 0.0980675742, -0.6024593  , 0.0002814508, 0.00598874828, 0.000623031345, -0.220832169, -1.522553   , -0.2665601  , 923.224731  , 26.9464111  , 777.9265    , 3.81        , 3           , 255         , 0           , 0
-9.777125   , 0.09209955  , -0.593032539, 0.000339753227, 0.0109196361, -0.000147297644, -0.220305026, -1.52244687 , -0.267084777, 923.224731  , 26.9464111  , 777.927063  , 3.82        , 3           , 255         , 0           , 0
-9.767817   , 0.09240002  , -0.616671443, 0.000143024372, 0.0130606536, -0.000174087167, -0.2196805  , -1.52232242 , -0.2677085  , 923.279541  , 26.9507523  , 777.9276    , 3.83        , 3           , 255         , 0           , 0
