Acc X       , Acc Y       , Acc Z       , Gyro X      , Gyro Y      , Gyro Z      , Euler X     , Euler Y     , Euler Z     , Pres X      , Pres Y      , Pres Z      , Time        , Status      , LowRate X   , LowRate Y   , LowRate Z    
-0.177958772, 0.091979064 , -9.78381252 , 0           , 0           , 0           , -0.009400871, -0.0181862935, 0           , 923.6429    , 30.1244011  , 774.2842    , 0           , 2           , 0           , 6.80023146  , 0
-0.1720285  , 0.08756255  , -9.783269   , -0.000150594016, 9.365207E-05, 6.147353E-05, -0.009402359, -0.018185176, 6.059765E-07, 923.6429    , 30.1244011  , 774.2842    , 0.01        , 3           , 1           , 0           , 0
-0.166732743, 0.07827613  , -9.793131   , -0.000212876941, -0.0002663484, -0.000498567, -0.009404397, -0.0181878861, -4.355133E-06, 923.6429    , 30.1244011  , 774.2842    , 0.02        , 3           , 2           , 0           , 0
-0.170764834, 0.08551757  , -9.791285   , -0.000221131224, -0.000254641025, -4.1201798E-05, -0.009406601, -0.0181904379, -4.743239E-06, 923.6476    , 29.6938763  , 774.2842    , 0.03        , 3           , 3           , 0           , 0
-0.161002249, 0.0915220752, -9.79616451 , 0.000178441464, -0.000550832832, 9.070944E-06, -0.00940481853, -0.0181959439, -4.600702E-06, 923.6476    , 29.6938763  , 774.2842    , 0.04        , 3           , 4           , 0           , 0
-0.178073615, 0.092871964 , -9.791529   , 0.0005198451, -0.000115907693, -3.60528065E-05, -0.009399615, -0.0181971043, -4.95037739E-06, 923.6476    , 29.6938763  , 774.2842    , 0.05        , 3           , 5           , 0           , 0
-0.178405091, 0.100858629 , -9.788893   , 0.0003703134, 6.489095E-05, 8.25438838E-05, -0.009395926, -0.0181964487, -4.13095449E-06, 923.6476    , 29.6938763  , 774.2842    , 0.06        , 3           , 6           , 0           , 0
-0.182787269, 0.108354613 , -9.793269   , -0.0002831753, -0.0002952209, 0.0007318152, -0.009398891, -0.0181993321, 3.21564016E-06, 923.6476    , 29.6938763  , 774.2842    , 0.07        , 3           , 7           , 0           , 0
-0.183795273, 0.1048828   , -9.795597   , 0.000264640985, -0.000122454629, 5.206186E-05, -0.009396253, -0.0182005484, 3.747819E-06, 923.6476    , 29.6938763  , 774.2842    , 0.08        , 3           , 8           , 5           , 5
-0.183722883, 0.10083399  , -9.79709148 , -0.000194614317, -3.542719E-05, -0.0001921408, -0.009398164, -0.0182009228, 1.82955159E-06, 923.6476    , 29.6938763  , 774.2842    , 0.09        , 3           , 9           , 5           , 0.1
-0.1785176  , 0.09857136  , -9.797202   , -0.000443403464, 0.000320580439, 0.000656935852, -0.00940271653, -0.0181976557, 8.369399E-06, 923.6476    , 29.6938763  , 774.2842    , 0.1         , 3           , 10          , 0.1         , 0.1
-0.184061438, 0.098702915 , -9.79154    , -3.43122883E-06, -9.679978E-05, 0.000167153325, -0.00941416 , -0.01818808 , 1.02571512E-05, 923.6476    , 29.6938763  , 774.242065  , 0.11        , 3           , 11          , 0.0109544508, 0.0109544508
-0.178644136, 0.100428805 , -9.787908   , -0.000186048259, 0.000123071339, 0.000213203952, -0.00941606052, -0.01818683 , 1.23778182E-05, 923.6476    , 29.6938763  , 774.242065  , 0.12        , 3           , 12          , 0.174642488 , 0
-0.179917932, 0.08969912  , -9.786218   , -2.07384437E-06, -0.0002866131, -3.38556565E-05, -0.009416075, -0.0181897  , 1.20662107E-05, 923.6255    , 29.7316647  , 774.242065  , 0.13        , 3           , 13          , 0           , 0
-0.17930752 , 0.08479698  , -9.788273   , 6.519176E-05, 2.11840961E-06, 0.0001566151, -0.009415451, -0.0181896631, 1.36323215E-05, 923.6255    , 29.7316647  , 774.242065  , 0.14        , 3           , 14          , -5.69466065E-05, -0.000271829747
-0.1711351  , 0.08471699  , -9.79082    , 0.000417483679, -0.000263259426, 9.160271E-05, -0.009411294, -0.0181922875, 1.45732156E-05, 923.6255    , 29.7316647  , 774.242065  , 0.15        , 3           , 15          , 0           , -9.6918E-05
-0.177805528, 0.0888892   , -9.78903    , -0.00075989 , -0.0001104277, 0.000102389742, -0.009418912, -0.0181933828, 1.56076057E-05, 923.6255    , 29.7316647  , 774.242065  , 0.16        , 3           , 16          , 0           , 1.401298E-45
-0.179660335, 0.08254811  , -9.788518   , -0.000557324151, -0.00023607249, 6.985997E-05, -0.009424497, -0.0181957353, 1.63285276E-05, 923.6255    , 29.7316647  , 774.242065  , 0.17        , 3           , 20          , 0           , 0
-0.1783254  , 0.09284587  , -9.788111   , 0.0004959918, -0.000169957144, -0.00019300764, -0.009419504, -0.01819745 , 1.44142841E-05, 923.6255    , 29.7316647  , 774.242065  , 0.18        , 3           , 21          , 0           , 0
-0.181834251, 0.0870790258, -9.78739    , 0.0002874222, 0.000210787621, 0.0003087885, -0.00941668451, -0.0181953143, 1.74826127E-05, 923.6255    , 29.7316647  , 774.242065  , 0.19        , 3           , 22          , 0           , 0
-0.174260288, 0.08880648  , -9.783558   , -0.000242937691, -0.000210783532, 0.000404491846, -0.009419188, -0.0181973837, 2.15477667E-05, 923.6255    , 29.7316647  , 774.242065  , 0.2         , 3           , 40          , 0           , 0
-0.175609455, 0.08823858  , -9.788053   , -0.0003704921, 6.786338E-05, 0.000174714572, -0.009410266, -0.0181989558, 2.30583246E-05, 923.6255    , 29.7316647  , 774.3414    , 0.21        , 3           , 41          , 0           , 0
-0.174606889, 0.0989615   , -9.786676   , 4.913124E-05, 0.000124079525, 0.00126993819, -0.009410006, -0.0181975979, 3.57472454E-05, 923.6255    , 29.7316647  , 774.341431  , 0.22        , 3           , 42          , 0           , 0
-0.174944788, 0.09006396  , -9.789555   , 0.000538197 , 0.000300873973, 0.0005785408, -0.009404729, -0.0181945339, 4.150491E-05, 923.684448  , 29.757988   , 774.3415    , 0.23        , 3           , 255         , 0           , 0
-0.180474311, 0.099524036 , -9.791529   , -7.594972E-05, -0.000252902537, 0.00118721032, -0.009405705, -0.0181969516, 5.340193E-05, 923.684448  , 29.757988   , 774.341553  , 0.24        , 3           , 255         , 0           , 0
-0.173441365, 0.09220399  , -9.790075   , 0.000341362436, 0.00045506825, -0.0003756347, -0.009402222, -0.0181924384, 4.96024259E-05, 923.684448  , 29.757988   , 774.3416    , 0.25        , 3           , 255         , 0           , 0
-0.18380782 , 0.08884517  , -9.788402   , 0.0001623936, 0.0002352476, -0.000137860756, -0.009400574, -0.0181900989, 4.820158E-05, 923.684448  , 29.757988   , 774.3417    , 0.26        , 3           , 255         , 0           , 0
-0.178451091, 0.0934365243, -9.786213   , -0.000246663869, 5.85459638E-05, -0.000323181855, -0.00940298 , -0.018189542, 4.49639338E-05, 923.684448  , 29.757988   , 774.341736  , 0.27        , 3           , 255         , 0           , 0
-0.1698316  , 0.09280128  , -9.78094    , 0.0004105281, 0.000238849883, -0.000235925036, -0.00939883 , -0.0181871764, 4.258201E-05, 923.684448  , 29.757988   , 774.3418    , 0.28        , 3           , 255         , 0           , 0
-0.182856411, 0.09302373  , -9.786296   , -0.000478301285, 5.35669678E-05, 0.0004992397, -0.009403705, -0.0181865953, 4.756985E-05, 923.684448  , 29.757988   , 774.341858  , 0.29        , 3           , 255         , 0           , 0
-0.18480289 , 0.09115678  , -9.792018   , -0.0003683157, -8.788664E-05, 7.328208E-05, -0.0094074  , -0.018187467, 4.8311E-05  , 923.684448  , 29.757988   , 774.3419    , 0.3         , 3           , 255         , 0           , 0
-0.18017596 , 0.0880778953, -9.793132   , -0.000289449934, 0.000206939876, 0.000442350167, -0.009414531, -0.0181841385, 5.279104E-05, 923.684448  , 29.757988   , 774.1977    , 0.31        , 3           , 255         , 0           , 0
-0.180814892, 0.0985813   , -9.79413    , -0.000226975855, -0.000363728061, 0.000649130845, -0.009416919, -0.018187711, 5.931721E-05, 923.684448  , 29.757988   , 774.197754  , 0.32        , 3           , 255         , 0           , 0
-0.172671765, 0.09463229  , -9.786615   , 0.0002299295, 2.67336727E-05, 0.000524789968, -0.009414714, -0.0181873925, 6.45631E-05 , 923.6357    , 29.77515    , 774.1978    , 0.33        , 3           , 255         , 0           , 0
-0.1865645  , 0.0863020048, -9.791151   , -0.000435455149, 0.000100383477, 3.368427E-05, -0.009419074, -0.0181863848, 6.489051E-05, 923.6357    , 29.77515    , 774.1979    , 0.34        , 3           , 255         , 0           , 0
-0.176860422, 0.08523221  , -9.790842   , 3.71722E-05 , -0.00018686711, -0.000285624585, -0.009418652, -0.018188281, 6.205159E-05, 923.6357    , 29.77515    , 774.197937  , 0.35        , 3           , 255         , 0           , 0
-0.176203519, 0.08873906  , -9.78766    , 0.000173565757, -0.000241361413, 2.878769E-06, -0.009416916, -0.0181906968, 6.2103114E-05, 923.6357    , 29.77515    , 774.198     , 0.36        , 3           , 255         , 0           , 0
-0.175412253, 0.08915547  , -9.790838   , 0.00010825682, 0.00037411027, -0.000388324755, -0.0094157625, -0.0181869883, 5.81842578E-05, 923.6357    , 29.77515    , 774.198059  , 0.37        , 3           , 255         , 0           , 0
-0.177653149, 0.08736258  , -9.787807   , 0.0004342322, 0.000109963643, 5.7914167E-05, -0.009411431, -0.0181858838, 5.87531067E-05, 923.6357    , 29.77515    , 774.1981    , 0.38        , 3           , 255         , 0           , 0
-0.178572446, 0.09316618  , -9.790245   , -0.000129148117, -0.000216907269, 0.00011859306, -0.009412746, -0.01818804 , 5.9959566E-05, 923.6357    , 29.77515    , 774.1982    , 0.39        , 3           , 255         , 0           , 0
-0.17429854 , 0.08770855  , -9.791717   , -0.000465929246, 0.000281548535, 0.000798057357, -0.009417548, -0.01818515 , 6.7914385E-05, 923.6357    , 29.77515    , 774.198242  , 0.4         , 3           , 255         , 0           , 0
-0.171939582, 0.0865467638, -9.777548   , -3.31790361E-05, -0.000322024862, 0.000197459187, -0.009408411, -0.0181876626, 6.974661E-05, 923.6357    , 29.77515    , 774.2363    , 0.41        , 3           , 255         , 0           , 0
-0.1704664  , 0.09389677  , -9.78941    , -0.000208142359, -0.000333566742, 0.000437149749, -0.009410571, -0.0181909576, 7.41499243E-05, 923.6357    , 29.77515    , 774.2364    , 0.42        , 3           , 255         , 0           , 0
-0.172161549, 0.09871073  , -9.790064   , 0.000337492151, 5.96541649E-05, 0.0005727159, -0.0094073005, -0.0181903057, 7.98720139E-05, 923.6469    , 29.7856674  , 774.23645   , 0.43        , 3           , 255         , 0           , 0
-0.165343672, 0.09918485  , -9.791548   , 0.00033368732, -8.478979E-05, -0.00027240222, -0.009403913, -0.01819118 , 7.715569E-05, 923.6469    , 29.7856674  , 774.2365    , 0.44        , 3           , 255         , 0           , 0
-0.170627549, 0.1064332   , -9.784757   , 0.0002638624, -0.0004408742, 0.000375643664, -0.009401346, -0.0181955528, 8.095395E-05, 923.6469    , 29.7856674  , 774.2366    , 0.45        , 3           , 255         , 0           , 0
-0.170224756, 0.101164557 , -9.780625   , -0.000132162735, 0.000124494763, -7.67221063E-05, -0.009402653, -0.018194316, 8.01749557E-05, 923.6469    , 29.7856674  , 774.236633  , 0.46        , 3           , 255         , 0           , 0
-0.177195117, 0.0968634039, -9.788866   , 9.677808E-05, 0.000304013258, -0.000298771949, -0.009401631, -0.0181913041, 7.71583655E-05, 923.6469    , 29.7856674  , 774.2367    , 0.47        , 3           , 255         , 0           , 0
-0.175213769, 0.0985254   , -9.79163551 , 4.86354038E-05, 0.000207138175, -8.212644E-05, -0.00940113 , -0.0181892384, 7.631755E-05, 923.6469    , 29.7856674  , 774.236755  , 0.48        , 3           , 255         , 0           , 0
-0.180291116, 0.08613254  , -9.787413   , 8.18977351E-05, 0.000119615477, 0.000519170251, -0.009400406, -0.0181879941, 8.14985E-05 , 923.6469    , 29.7856674  , 774.2368    , 0.49        , 3           , 255         , 0           , 0
-0.182250276, 0.09347646  , -9.789159   , 0.0007770409, 4.983449E-07, 0.000223172523, -0.009392675, -0.0181879718, 8.37304E-05 , 923.6469    , 29.7856674  , 774.2369    , 0.5         , 3           , 255         , 0           , 0
-0.18971689 , 0.08528924  , -9.788265   , -0.000509642938, -1.32996356E-05, -6.763068E-05, -0.00941954553, -0.0181639027, 8.3451E-05  , 923.6469    , 29.7856674  , 774.2392    , 0.51        , 3           , 255         , 0           , 0
-0.164323881, 0.095771715 , -9.785631   , 0.000304078858, 0.000413045229, -0.000731080538, -0.009416371, -0.0181598421, 7.6100594E-05, 923.6469    , 29.7856674  , 774.239258  , 0.52        , 3           , 255         , 0           , 0
-0.173027784, 0.08922748  , -9.788707   , -2.553339E-05, 0.0005803786, 0.0003960924, -0.009416698, -0.018153999, 8.000724E-05, 923.6945    , 29.7929249  , 774.2393    , 0.53        , 3           , 255         , 0           , 0
-0.175276533, 0.08565763  , -9.789173   , 0.0004715527, 0.0006532462, 0.000305421068, -0.009412037, -0.01814744 , 8.300023E-05, 923.6945    , 29.7929249  , 774.2394    , 0.54        , 3           , 255         , 0           , 0
-0.18336834 , 0.0891114   , -9.79104    , 0.0006026   , 0.000247568678, 2.7386639E-05, -0.009406016, -0.0181449614, 8.325083E-05, 923.6945    , 29.7929249  , 774.239441  , 0.55        , 3           , 255         , 0           , 0
-0.181345984, 0.08136838  , -9.793886   , 0.000182534321, 0.000257083884, 0.0008769644, -0.009404349, -0.0181423072, 9.19971353E-05, 923.6945    , 29.7929249  , 774.2395    , 0.56        , 3           , 255         , 0           , 0
-0.181569517, 0.0904358849, -9.79251    , 0.000349397975, -9.536659E-05, -0.0003274732, -0.009400797, -0.01814329 , 8.873105E-05, 923.6945    , 29.7929249  , 774.239563  , 0.57        , 3           , 255         , 0           , 0
-0.18696411 , 0.0992602259, -9.792645   , 0.0001932477, -0.000147843821, -8.72500241E-05, -0.009398848, -0.0181447789, 8.787237E-05, 923.6945    , 29.7929249  , 774.2396    , 0.58        , 3           , 255         , 0           , 0
-0.1866105  , 0.105856262 , -9.791333   , 0.0003174995, -7.473404E-05, -0.0006331004, -0.009395557, -0.0181455854, 8.154778E-05, 923.6945    , 29.7929249  , 774.2397    , 0.59        , 3           , 255         , 0           , 0
-0.1842514  , 0.103723004 , -9.792328   , 0.000493682 , -5.26054937E-05, -0.000384400773, -0.009390553, -0.018146148, 7.77083551E-05, 923.6945    , 29.7929249  , 774.239746  , 0.6         , 3           , 255         , 0           , 0
-0.180929944, 0.09934604  , -9.795429   , -0.000406766078, -2.89760646E-06, 0.000216275977, -0.009396328, -0.018157037, 7.99018962E-05, 923.6945    , 29.7929249  , 774.167053  , 0.61        , 3           , 255         , 0           , 0
-0.176591784, 0.109284423 , -9.790792   , -0.0004512561, -9.27078363E-05, 1.77386828E-05, -0.009400845, -0.01815796 , 8.008801E-05, 923.6945    , 29.7929249  , 774.1671    , 0.62        , 3           , 255         , 0           , 0
-0.181779176, 0.09530826  , -9.793764   , -0.0005630251, 1.12521229E-05, -4.12009758E-05, -0.009406466, -0.0181578528, 7.96748936E-05, 923.663147  , 29.800457   , 774.1672    , 0.63        , 3           , 255         , 0           , 0
-0.177945256, 0.09056959  , -9.792631   , 0.0001817272, -0.000128460844, -0.000462000637, -0.009404564, -0.01815918 , 7.50665349E-05, 923.663147  , 29.800457   , 774.167236  , 0.64        , 3           , 255         , 0           , 0
-0.164394766, 0.08118294  , -9.78675652 , 0.0001322907, 8.40085E-06 , -9.761679E-06, -0.00940324 , -0.0181590971, 7.496812E-05, 923.663147  , 29.800457   , 774.1673    , 0.65        , 3           , 255         , 0           , 0
-0.170062214, 0.07656817  , -9.786808   , 0.000228931342, -1.28336251E-06, 0.000124224665, -0.009400975, -0.0181590989, 7.621061E-05, 923.663147  , 29.800457   , 774.167358  , 0.66        , 3           , 255         , 0           , 0
-0.180735245, 0.07762053  , -9.78808    , 0.000411881949, 0.000278442341, -0.000386392145, -0.009396785, -0.0181563515, 7.23201447E-05, 923.663147  , 29.800457   , 774.1674    , 0.67        , 3           , 255         , 0           , 0
-0.163928524, 0.07828348  , -9.78663349 , 0.000317964616, -0.000198836613, -0.0002390958, -0.009393562, -0.0181583613, 6.99476441E-05, 923.663147  , 29.800457   , 774.1675    , 0.68        , 3           , 255         , 0           , 0
-0.184308946, 0.0864286   , -9.788517   , 0.000405805447, -0.000243942981, -0.000343463471, -0.009389443, -0.0181608312, 6.65355838E-05, 923.663147  , 29.800457   , 774.167542  , 0.69        , 3           , 255         , 0           , 0
-0.180797458, 0.09052093  , -9.788462   , 0.0001635237, -0.0001237671, 7.081864E-06, -0.00938781 , -0.018162068, 6.66180349E-05, 923.663147  , 29.800457   , 774.1676    , 0.7         , 3           , 255         , 0           , 0
-0.181987077, 0.1039324   , -9.793671   , 0.000334941229, -0.000479714945, 0.00014539744, -0.009370938, -0.0181605481, 6.787114E-05, 923.663147  , 29.800457   , 774.1577    , 0.71        , 3           , 255         , 0           , 0
-0.183927879, 0.101524316 , -9.789657   , 0.0003980301, -5.11884573E-05, -0.000129562191, -0.009366935, -0.0181610715, 6.658019E-05, 923.663147  , 29.800457   , 774.1578    , 0.72        , 3           , 255         , 0           , 0
-0.16823101 , 0.09556691  , -9.787164   , -0.0004013125, 8.580962E-05, -0.00040438713, -0.009370875, -0.0181602538, 6.25279E-05 , 923.683167  , 29.802763   , 774.157837  , 0.73        , 3           , 255         , 0           , 0
-0.1749363  , 0.09176605  , -9.785816   , -0.000113348637, -0.000210810424, -0.0006052104, -0.009371899, -0.0181624182, 5.649498E-05, 923.683167  , 29.802763   , 774.1579    , 0.74        , 3           , 255         , 0           , 0
-0.179922774, 0.101369284 , -9.793681   , 0.000553900667, 7.86948658E-05, -0.000230938836, -0.009366318, -0.0181616526, 5.417799E-05, 923.683167  , 29.802763   , 774.157959  , 0.75        , 3           , 255         , 0           , 0
-0.179393291, 0.0992784053, -9.797923   , 5.94730773E-05, -0.000326371, 0.000381815131, -0.009365791, -0.0181648787, 5.802707E-05, 923.683167  , 29.802763   , 774.158     , 0.76        , 3           , 255         , 0           , 0
-0.183807522, 0.09283715  , -9.79512    , 0.0005517007, -0.000112281385, 2.24741452E-05, -0.009360279, -0.0181659982, 5.826235E-05, 923.683167  , 29.802763   , 774.1581    , 0.77        , 3           , 255         , 0           , 0
-0.17290397 , 0.09283765  , -9.790632   , 0.000371603 , 0.000352849864, -0.0002802972, -0.009356513, -0.0181624964, 5.54260951E-05, 923.683167  , 29.802763   , 774.158142  , 0.78        , 3           , 255         , 0           , 0
-0.178907946, 0.09238885  , -9.783222   , -0.0003621463, 1.00123E-05 , 0.000212137733, -0.009360172, -0.0181623772, 5.75467457E-05, 923.683167  , 29.802763   , 774.1582    , 0.79        , 3           , 255         , 0           , 0
-0.178463966, 0.104264066 , -9.782028   , -4.15301365E-05, -0.000232832565, 0.000398982345, -0.00936066 , -0.0181646682, 6.155874E-05, 923.683167  , 29.802763   , 774.158264  , 0.8         , 3           , 255         , 0           , 0
-0.1887265  , 0.0996669754, -9.783648   , 0.000128325279, 0.0002498604, -0.00013195537, -0.00938049 , -0.0181636848, 6.0599592E-05, 923.683167  , 29.802763   , 774.125732  , 0.81        , 3           , 255         , 0           , 0
-0.184240475, 0.09654411  , -9.781622   , 0.000201460134, -6.850244E-05, 0.0006324954, -0.009378591, -0.01816431 , 6.693158E-05, 923.683167  , 29.802763   , 774.1258    , 0.82        , 3           , 255         , 0           , 0
-0.177336186, 0.09419967  , -9.786233   , -0.000473713153, 0.000139528478, 1.26763262E-05, -0.009383328, -0.0181629155, 6.70452646E-05, 923.6588    , 29.8066978  , 774.125854  , 0.83        , 3           , 255         , 0           , 0
-0.168224663, 0.09922182  , -9.78396    , 0.000208248879, 0.0006523308, 0.000681074744, -0.009381368, -0.018156331, 7.379545E-05, 923.6588    , 29.8066978  , 774.1259    , 0.84        , 3           , 255         , 0           , 0
-0.179361388, 0.0942688137, -9.793401   , -4.35770235E-05, -8.56642146E-06, 0.000105780367, -0.009381822, -0.0181564055, 7.485415E-05, 923.6588    , 29.8066978  , 774.126     , 0.85        , 3           , 255         , 0           , 0
-0.178267628, 0.09929165  , -9.786183   , 0.0004475599, -0.000104559411, 0.000183047348, -0.009377382, -0.0181574337, 7.669462E-05, 923.6588    , 29.8066978  , 774.126038  , 0.86        , 3           , 255         , 0           , 0
-0.176238209, 0.0926388055, -9.78598    , 0.0006636186, -1.98640046E-05, -0.0005128065, -0.009370652, -0.0181576815, 7.156793E-05, 923.6588    , 29.8066978  , 774.1261    , 0.87        , 3           , 255         , 0           , 0
-0.178574368, 0.0951213762, -9.783163   , 0.000229358149, 0.00022305001, -0.000123303937, -0.009368336, -0.0181554612, 7.031388E-05, 923.6588    , 29.8066978  , 774.12616   , 0.88        , 3           , 255         , 0           , 0
-0.177500337, 0.08429341  , -9.78668    , 0.000398386 , -8.302886E-06, -0.000439306255, -0.00936427247, -0.018155586, 6.59211655E-05, 923.6588    , 29.8066978  , 774.1262    , 0.89        , 3           , 255         , 0           , 0
-0.182881951, 0.08742094  , -9.782555   , 0.000267251628, 6.20117353E-05, -0.000266356947, -0.009361551, -0.0181549955, 6.325154E-05, 923.6588    , 29.8066978  , 774.1263    , 0.9         , 3           , 255         , 0           , 0
-0.177746266, 0.0975050554, -9.793657   , -0.000223339564, 0.000269811979, 0.0006057075, -0.009377694, -0.01816031 , 6.95345E-05 , 923.6588    , 29.8066978  , 774.128357  , 0.91        , 3           , 255         , 0           , 0
-0.172060758, 0.094709225 , -9.787565   , 0.0003635647, -8.39858E-06, -3.579539E-05, -0.009374051, -0.0181604028, 6.91773E-05 , 923.6588    , 29.8066978  , 774.1284    , 0.92        , 3           , 255         , 0           , 0
-0.180529088, 0.09454358  , -9.792003   , -0.000348520174, 0.0006862463, -0.000286853232, -0.009377483, -0.018153565, 6.624414E-05, 923.641663  , 29.8092766  , 774.1285    , 0.93        , 3           , 255         , 0           , 0
-0.180884629, 0.09742527  , -9.79246    , -0.000204902492, 0.00037054735, -0.000216403743, -0.009379494, -0.0181498788, 6.404514E-05, 923.641663  , 29.8092766  , 774.12854   , 0.94        , 3           , 255         , 0           , 0
-0.173170537, 0.08808623  , -9.79402351 , -8.341207E-05, 0.000145938378, 0.000181487529, -0.00938036 , -0.0181484036, 6.58465E-05 , 923.641663  , 29.8092766  , 774.1286    , 0.95        , 3           , 255         , 0           , 0
-0.170091778, 0.0834152251, -9.790064   , -0.000211688428, 8.97834252E-05, -0.000171527034, -0.009382445, -0.01814752 , 6.41226361E-05, 923.641663  , 29.8092766  , 774.128662  , 0.96        , 3           , 255         , 0           , 0
-0.165123537, 0.08319485  , -9.780434   , -0.0005623651, 0.000281658547, 5.38776148E-05, -0.009388079, -0.0181447  , 6.463504E-05, 923.641663  , 29.8092766  , 774.1287    , 0.97        , 3           , 255         , 0           , 0
-0.178560451, 0.08540778  , -9.786731   , -0.0001657843, 0.000102445469, -0.000361884857, -0.009389671, -0.0181437079, 6.100622E-05, 923.641663  , 29.8092766  , 774.1288    , 0.98        , 3           , 255         , 0           , 0
-0.170511022, 0.08786706  , -9.785948   , 4.848436E-05, -0.000296746963, 0.000234282052, -0.009389228, -0.0181466546, 6.337712E-05, 923.641663  , 29.8092766  , 774.128845  , 0.99        , 3           , 255         , 0           , 0
-0.178219974, 0.0803677   , -9.785219   , -0.000495417451, 0.00028085857, 0.000290967728, -0.009394234, -0.0181438178, 6.626069E-05, 923.641663  , 29.8092766  , 774.1289    , 1           , 3           , 0           , 7.800236    , 100
-0.1768966  , 0.0811993256, -9.791128   , 0.000416783 , 0.00028096512, 0.000636632962, -0.009380736, -0.0181299485, 7.242998E-05, 923.641663  , 29.8092766  , 774.149231  , 1.01        , 3           , 1           , 0           , 0
-0.169577762, 0.08858923  , -9.784257   , 2.48875E-05 , 0.0003314044, 0.000552193669, -0.009380586, -0.018126579, 7.792136E-05, 923.641663  , 29.8092766  , 774.149353  , 1.02        , 3           , 2           , 0           , 0
-0.177920759, 0.09429922  , -9.789595   , -1.3354671E-05, 4.717594E-05, -0.00023970785, -0.009380677, -0.01812613 , 7.551963E-05, 923.6381    , 29.8142281  , 774.1495    , 1.03        , 3           , 3           , 0           , 0
-0.182287768, 0.0912842   , -9.789663   , 0.000762296 , -0.000212840852, -7.21169563E-05, -0.009373041, -0.0181282647, 7.481835E-05, 923.6381    , 29.8142281  , 774.1496    , 1.04        , 3           , 4           , 0           , 0
-0.173172385, 0.09845578  , -9.792979   , -0.000128243031, 0.0002519976, -0.000116445626, -0.009374303, -0.0181257557, 7.363017E-05, 923.6381    , 29.8142281  , 774.1497    , 1.05        , 3           , 5           , 0           , 0
-0.176407486, 0.101354636 , -9.785273   , 0.0004831594, 0.000121306774, 0.00108089775, -0.009369668, -0.0181244425, 8.442881E-05, 923.6381    , 29.8142281  , 774.149841  , 1.06        , 3           , 6           , 0           , 0
-0.18339923 , 0.08722933  , -9.7888155  , 0.000308873685, -0.000124572951, 0.00107328338, -0.009366772, -0.0181255881, 9.517432E-05, 923.6381    , 29.8142281  , 774.149963  , 1.07        , 3           , 7           , 0           , 0
-0.184646711, 0.09115048  , -9.78899    , -0.000122481171, -7.545785E-05, 5.092901E-06, -0.009367998, -0.01812634 , 9.523232E-05, 923.6381    , 29.8142281  , 774.1501    , 1.08        , 3           , 8           , 5           , 5
-0.179497331, 0.08678834  , -9.789532   , -3.841053E-05, 0.000174549088, 9.830642E-05, -0.0093684  , -0.018124586, 9.619912E-05, 923.6381    , 29.8142281  , 774.1502    , 1.09        , 3           , 9           , 5           , 0.1
-0.179658443, 0.08919574  , -9.794134   , 0.000626991154, -1.90856517E-05, 0.0001026911, -0.009362147, -0.0181247666, 9.72279158E-05, 923.6381    , 29.8142281  , 774.1503    , 1.1         , 3           , 10          , 0.1         , 0.1
-0.1846838  , 0.08680252  , -9.789705   , 0.00105160347, 0.000491308165, 3.07503069E-06, -0.009348925, -0.0181227457, 9.71636546E-05, 923.6381    , 29.8142281  , 774.1712    , 1.11        , 3           , 11          , 0.008765397 , 0.008765396
-0.1801242  , 0.08368294  , -9.780451   , 0.000166846366, -0.000483199023, -0.0006133462, -0.009347146, -0.0181276333, 9.107476E-05, 923.6381    , 29.8142281  , 774.1714    , 1.12        , 3           , 12          , 0.174642846 , 0
-0.174549341, 0.09102612  , -9.787325   , 3.59418227E-05, -0.000198275782, -6.9548616E-05, -0.009346774, -0.0181296226, 9.039774E-05, 923.624451  , 29.8147717  , 774.1716    , 1.13        , 3           , 13          , 0           , 0
-0.178158388, 0.0914130062, -9.796011   , 0.000233111918, 4.792247E-05, 0.000165835969, -0.00934447348, -0.018129129, 9.205178E-05, 923.624451  , 29.8147717  , 774.171753  , 1.14        , 3           , 14          , -5.69308E-05, -0.0002718396
-0.1800947  , 0.09979378  , -9.795839   , 0.000451025757, -0.0001034154, 0.000160206284, -0.009339994, -0.018130146, 9.366367E-05, 923.624451  , 29.8147717  , 774.171936  , 1.15        , 3           , 15          , 0           , -9.691837E-05
-0.183451176, 0.09690646  , -9.785599   , 0.000333788 , 0.0004443286, 0.000355183583, -0.009336719, -0.0181256719, 9.717436E-05, 923.624451  , 29.8147717  , 774.1721    , 1.16        , 3           , 16          , 0           , 1.401298E-45
-0.174947247, 0.08850789  , -9.783297   , 0.000739811454, -0.000457232643, 0.000509207253, -0.009329414, -0.0181301981, 0.0001023096, 923.624451  , 29.8147717  , 774.1723    , 1.17        , 3           , 20          , 0           , 0
-0.183471069, 0.0947522148, -9.786495   , 0.00111725437, -0.000405520725, -0.00046500616, -0.009318158, -0.0181342941, 9.7696895E-05, 923.624451  , 29.8147717  , 774.1725    , 1.18        , 3           , 21          , 0           , 0
-0.177903563, 0.105302706 , -9.780727   , 0.0005582607, 0.000214939471, 0.000607145368, -0.009312685, -0.0181320868, 0.000103748913, 923.624451  , 29.8147717  , 774.172668  , 1.19        , 3           , 22          , 0           , 0
-0.1798747  , 0.09190504  , -9.783388   , 0.000297466526, -5.54168364E-05, 0.0002839731, -0.009309762, -0.018132614, 0.000106594074, 923.624451  , 29.8147717  , 774.172852  , 1.2         , 3           , 40          , 0           , 0
-0.187353879, 0.09435411  , -9.793268   , -2.43487884E-05, -0.0005379596, -0.000295202539, -0.009316472, -0.0181473643, 0.00010381014, 923.624451  , 29.8147717  , 774.205139  , 1.21        , 3           , 41          , 0           , 0
-0.1904749  , 0.09005246  , -9.808358   , 0.00012090987, 0.000356158038, -0.000253080856, -0.009315216, -0.0181438234, 0.000101245911, 923.624451  , 29.8147717  , 774.205444  , 1.22        , 3           , 42          , 0           , 0
-0.176548138, 0.08851101  , -9.776714   , -2.48734E-05, 2.35821644E-05, 8.17759137E-05, -0.00931548 , -0.01814358 , 0.000102061545, 923.6448    , 29.8163986  , 774.20575   , 1.23        , 3           , 255         , 0           , 0
-0.18380098 , 0.08887388  , -9.793159   , -0.000237753076, 0.0005179966, -0.000174674482, -0.009317824, -0.0181384217, 0.000100266363, 923.6448    , 29.8163986  , 774.206055  , 1.24        , 3           , 255         , 0           , 0
-0.183602422, 0.09622104  , -9.786753   , -8.84358451E-06, 0.0004751528, 1.24288345E-05, -0.009317913, -0.0181336664, 0.000100346384, 923.6448    , 29.8163986  , 774.20636   , 1.25        , 3           , 255         , 0           , 0
-0.179441854, 0.0971008241, -9.787857   , -0.000209569713, 9.84355E-05 , -0.000263460563, -0.009319961, -0.0181327052, 9.770235E-05, 923.6448    , 29.8163986  , 774.206665  , 1.26        , 3           , 255         , 0           , 0
-0.174395949, 0.0848323256, -9.794026   , 9.78824537E-05, 6.024033E-05, -0.0005999588, -0.009318873, -0.01813216 , 9.169658E-05, 923.6448    , 29.8163986  , 774.207     , 1.27        , 3           , 255         , 0           , 0
-0.174058363, 0.08312322  , -9.785577   , 0.000107034895, 0.000469259336, 0.000794061 , -0.009317946, -0.018127393, 9.95942246E-05, 923.6448    , 29.8163986  , 774.2073    , 1.28        , 3           , 255         , 0           , 0
-0.177185968, 0.08907286  , -9.778978   , -0.0006035956, 0.000223027979, -1.112395E-05, -0.009323982, -0.0181251653, 9.946218E-05, 923.6448    , 29.8163986  , 774.2076    , 1.29        , 3           , 255         , 0           , 0
-0.184574336, 0.09502216  , -9.774061   , 0.000138090356, 2.12137238E-05, -0.0004969698, -0.009322509, -0.018125   , 9.449004E-05, 923.6448    , 29.8163986  , 774.2079    , 1.3         , 3           , 255         , 0           , 0
-0.176043481, 0.09688631  , -9.78166    , -4.55966656E-05, 0.000199287984, -0.000185092649, -0.009321188, -0.0181359146, 9.25887362E-05, 923.6448    , 29.8163986  , 774.2154    , 1.31        , 3           , 255         , 0           , 0
-0.1641765  , 0.09718511  , -9.785925   , -0.000173383392, -0.0001374759, 6.65869156E-05, -0.009322934, -0.018137278, 9.32674739E-05, 923.6448    , 29.8163986  , 774.2157    , 1.32        , 3           , 255         , 0           , 0
-0.177152067, 0.08782824  , -9.78805    , -8.310725E-05, 0.000354953285, -0.000124612736, -0.009323742, -0.01813374 , 9.198813E-05, 923.656738  , 29.8170776  , 774.216     , 1.33        , 3           , 255         , 0           , 0
-0.178214788, 0.102415755 , -9.786827   , -0.0004638793, -0.000155511108, -0.000105856721, -0.00932836 , -0.0181353055, 9.0943955E-05, 923.656738  , 29.8170776  , 774.2163    , 1.34        , 3           , 255         , 0           , 0
-0.187456578, 0.09410487  , -9.789739   , -0.000337971229, -0.0004504581, 0.0006339596, -0.009331857, -0.018139746, 9.732618E-05, 923.656738  , 29.8170776  , 774.2166    , 1.35        , 3           , 255         , 0           , 0
-0.191007525, 0.09971349  , -9.78903    , -0.0004138811, -0.0001273035, 0.000402989332, -0.009336067, -0.018140981, 0.000101368343, 923.656738  , 29.8170776  , 774.2169    , 1.36        , 3           , 255         , 0           , 0
-0.176030472, 0.09813602  , -9.783701   , 0.0006549825, 0.000348053145, 0.000806244556, -0.009329664, -0.018137427, 0.00010939908, 923.656738  , 29.8170776  , 774.2172    , 1.37        , 3           , 255         , 0           , 0
-0.176741615, 0.102487363 , -9.784899   , 0.0007373853, 0.000218536647, -0.000313598983, -0.009322233, -0.018135272, 0.000106242405, 923.656738  , 29.8170776  , 774.2175    , 1.38        , 3           , 255         , 0           , 0
-0.178891867, 0.09878274  , -9.783134   , 0.000359543366, -0.000263531751, -5.70737247E-05, -0.009318627, -0.0181379113, 0.00010569617, 923.656738  , 29.8170776  , 774.217834  , 1.39        , 3           , 255         , 0           , 0
-0.18136543 , 0.08750325  , -9.785643   , 0.000159095915, -0.000756835856, -1.21512348E-05, -0.009317039, -0.01814548 , 0.00010564518, 923.656738  , 29.8170776  , 774.21814   , 1.4         , 3           , 255         , 0           , 0
-0.17186898 , 0.0830543339, -9.787199   , 0.000304925285, -0.000142994366, 0.000449618645, -0.009336511, -0.018151978, 0.000110562447, 923.656738  , 29.8170776  , 774.212158  , 1.41        , 3           , 255         , 0           , 0
-0.170912638, 0.08762967  , -9.805605   , 0.000386847 , 0.00019110486, 0.0008743456, -0.009332799, -0.0181499869, 0.0001192889, 923.656738  , 29.8170776  , 774.212463  , 1.42        , 3           , 255         , 0           , 0
-0.17402336 , 0.0877914056, -9.778116   , -0.000119223056, -0.000120650715, 0.000376319076, -0.00933406 , -0.0181511547, 0.000123063714, 923.6782    , 29.8180275  , 774.212769  , 1.43        , 3           , 255         , 0           , 0
-0.179109782, 0.089525    , -9.782652   , -0.000330863171, 0.000129493827, 0.00032873085, -0.009337428, -0.01814983 , 0.000126339233, 923.6782    , 29.8180275  , 774.2131    , 1.44        , 3           , 255         , 0           , 0
-0.176655769, 0.08840948  , -9.790205   , 0.000344320171, -0.0001611009, -1.34440052E-06, -0.009333985, -0.0181514416, 0.000126340849, 923.6782    , 29.8180275  , 774.2134    , 1.45        , 3           , 255         , 0           , 0
-0.18220371 , 0.09043978  , -9.785876   , 0.000252499769, -8.611355E-05, -0.0003068628, -0.009331403, -0.01815233 , 0.000123279955, 923.6782    , 29.8180275  , 774.2137    , 1.46        , 3           , 255         , 0           , 0
-0.180026   , 0.09138428  , -9.792048   , 0.000400658464, -0.000261693116, 0.000433023117, -0.009327476, -0.0181549061, 0.000127635009, 923.6782    , 29.8180275  , 774.214     , 1.47        , 3           , 255         , 0           , 0
-0.18383868 , 0.08536513  , -9.78644    , -0.000276825129, -0.00028008662, 0.000249293633, -0.009330289, -0.0181576852, 0.000130154323, 923.6782    , 29.8180275  , 774.2143    , 1.48        , 3           , 255         , 0           , 0
-0.177392527, 0.08648662  , -9.795336   , -0.000444373174, -0.0006071854, -0.000132585265, -0.009334709, -0.0181637667, 0.000128884989, 923.6782    , 29.8180275  , 774.2146    , 1.49        , 3           , 255         , 0           , 0
-0.17662096 , 0.0988166556, -9.789366   , -0.000149058018, -0.000239748711, -0.000306541566, -0.009336144, -0.0181661919, 0.000125841645, 923.6782    , 29.8180275  , 774.2149    , 1.5         , 3           , 255         , 0           , 0
-0.175805762, 0.0943603739, -9.791216   , -2.875962E-05, -0.0001431579, -0.0007908822, -0.009328982, -0.0181663949, 0.000117812684, 923.6782    , 29.8180275  , 774.186646  , 1.51        , 3           , 255         , 0           , 0
-0.179564685, 0.08888185  , -9.786331   , -0.0002709112, 0.000439362455, -0.000759705552, -0.009331553, -0.0181620717, 0.000110173911, 923.6782    , 29.8180275  , 774.1868    , 1.52        , 3           , 255         , 0           , 0
-0.182099774, 0.0994951352, -9.787381   , 3.364929E-05, -0.000174280925, -2.85355345E-05, -0.009331211, -0.018163817, 0.000109904788, 923.679932  , 29.8189087  , 774.187     , 1.53        , 3           , 255         , 0           , 0
-0.182617411, 0.09436401  , -9.78713    , 0.000201781 , -0.000308931456, -0.0002132882, -0.009329155, -0.0181669258, 0.000107800523, 923.679932  , 29.8189087  , 774.1872    , 1.54        , 3           , 255         , 0           , 0
-0.185770929, 0.0941697657, -9.784558   , -0.0006385959, 0.0001168748, -0.000165765014, -0.00933551 , -0.0181657746, 0.0001061318, 923.679932  , 29.8189087  , 774.1874    , 1.55        , 3           , 255         , 0           , 0
-0.176757976, 0.08667338  , -9.786734   , -0.0005117103, 7.050582E-05, 7.942143E-05, -0.009340641, -0.0181650631, 0.000106919513, 923.679932  , 29.8189087  , 774.187561  , 1.56        , 3           , 255         , 0           , 0
-0.173342735, 0.0982936   , -9.786717   , -0.000211353356, 3.871598E-05, -0.0002752173, -0.009342705, -0.0181647018, 0.00010416346, 923.679932  , 29.8189087  , 774.187744  , 1.57        , 3           , 255         , 0           , 0
-0.1784648  , 0.08966049  , -9.784903   , 0.000155327929, -2.81125249E-05, -0.000180222574, -0.009341118, -0.0181649979, 0.00010236368, 923.679932  , 29.8189087  , 774.1879    , 1.58        , 3           , 255         , 0           , 0
-0.173469335, 0.08288978  , -9.780432   , 8.7739194E-05, -0.000444250763, 0.000176149042, -0.009340273, -0.0181694254, 0.000104166837, 923.679932  , 29.8189087  , 774.1881    , 1.59        , 3           , 255         , 0           , 0
-0.164459109, 0.09650065  , -9.78758049 , 0.0002266762, 0.000109655986, 0.000435849652, -0.00933808647, -0.0181682874, 0.000108515509, 923.679932  , 29.8189087  , 774.1883    , 1.6         , 3           , 255         , 0           , 0
-0.17453599 , 0.09742233  , -9.788333   , -7.048766E-05, 6.955712E-05, -5.4580014E-05, -0.009343372, -0.0181653909, 0.000108046552, 923.679932  , 29.8189087  , 774.1604    , 1.61        , 3           , 255         , 0           , 0
-0.1806067  , 0.09082761  , -9.801486   , -3.5008663E-05, -0.000281371176, 0.000438757823, -0.009343802, -0.0181681644, 0.000112460839, 923.679932  , 29.8189087  , 774.160461  , 1.62        , 3           , 255         , 0           , 0
-0.182165548, 0.0903672352, -9.777961   , -0.000363725849, -6.89888839E-06, -0.000162066033, -0.00934741 , -0.0181682482, 0.000110840658, 923.639832  , 29.8201981  , 774.1605    , 1.63        , 3           , 255         , 0           , 0
-0.180665553, 0.09250505  , -9.794924   , -0.000239487417, -1.39395415E-05, -0.000261758978, -0.009349756, -0.01816841 , 0.000108224107, 923.639832  , 29.8201981  , 774.1606    , 1.64        , 3           , 255         , 0           , 0
-0.186712623, 0.0978372842, -9.79644    , 1.78667942E-05, -5.927027E-05, -0.000205861448, -0.00934954 , -0.0181690212, 0.000106170832, 923.639832  , 29.8201981  , 774.160645  , 1.65        , 3           , 255         , 0           , 0
-0.172059983, 0.09376095  , -9.787418   , 0.000113494381, -0.000194688211, -3.39097169E-05, -0.009348399, -0.0181709714, 0.000105849904, 923.639832  , 29.8201981  , 774.1607    , 1.66        , 3           , 255         , 0           , 0
-0.182532266, 0.09282602  , -9.798077   , -0.000336885423, 0.000252334867, 0.000761000847, -0.009351905, -0.0181683768, 0.00011343704, 923.639832  , 29.8201981  , 774.160767  , 1.67        , 3           , 255         , 0           , 0
-0.17876333 , 0.08516211  , -9.793661   , -0.000295918551, -0.000171103573, 0.000383501058, -0.009354934, -0.0181700513, 0.000117288422, 923.639832  , 29.8201981  , 774.1608    , 1.68        , 3           , 255         , 0           , 0
-0.176702514, 0.09529506  , -9.785359   , -1.23462087E-05, -0.000253999548, -0.000118728567, -0.009355037, -0.0181726031, 0.000116124786, 923.639832  , 29.8201981  , 774.1609    , 1.69        , 3           , 255         , 0           , 0
-0.177119374, 0.08354001  , -9.790604   , -0.0001513421, 0.000306860951, -0.000167908627, -0.009356519, -0.01816955 , 0.000114416835, 923.639832  , 29.8201981  , 774.16095   , 1.7         , 3           , 255         , 0           , 0
-0.177263036, 0.08293839  , -9.796197   , 0.000215704 , 0.0004798123, -0.000578676234, -0.009355186, -0.018167695, 0.000108601496, 923.639832  , 29.8201981  , 774.179443  , 1.71        , 3           , 255         , 0           , 0
-0.181356   , 0.0802115947, -9.7830925  , 0.000263107038, -0.000281205052, 0.000368744135, -0.009352623, -0.01817047 , 0.0001123156, 923.639832  , 29.8201981  , 774.1796    , 1.72        , 3           , 255         , 0           , 0
-0.187710091, 0.08587025  , -9.78091049 , 9.07078938E-05, -0.000360265141, -2.23033057E-05, -0.009351712, -0.0181740765, 0.000112126232, 923.6571    , 29.8223686  , 774.1798    , 1.73        , 3           , 255         , 0           , 0
-0.182357162, 0.09135676  , -9.780114   , 0.000361324463, -0.000331391173, -4.77590875E-05, -0.009348091, -0.018177392, 0.0001116796, 923.6571    , 29.8223686  , 774.18      , 1.74        , 3           , 255         , 0           , 0
-0.18020466 , 0.08889071  , -9.782038   , -9.698067E-05, 0.000126812156, -0.0005376186, -0.009348963, -0.0181761738, 0.000106291045, 923.6571    , 29.8223686  , 774.1802    , 1.75        , 3           , 255         , 0           , 0
-0.180441   , 0.08840025  , -9.7875     , -0.00042398693, -7.383406E-05, 0.0001465542, -0.009353229, -0.0181769  , 0.000107763626, 923.6571    , 29.8223686  , 774.180359  , 1.76        , 3           , 255         , 0           , 0
-0.183834672, 0.100133225 , -9.782267   , 0.000229620462, -7.614633E-05, 0.000171012784, -0.009350965, -0.0181776453, 0.000109481036, 923.6571    , 29.8223686  , 774.180542  , 1.77        , 3           , 255         , 0           , 0
-0.172650233, 0.09949788  , -9.784581   , 0.0006671498, 0.000164823752, 0.000718248659, -0.009344423, -0.01817593 , 0.000116648815, 923.6571    , 29.8223686  , 774.1807    , 1.78        , 3           , 255         , 0           , 0
-0.176187068, 0.101224467 , -9.793895   , 0.000300964428, 4.191634E-05, -0.0008578568, -0.009341257, -0.0181755889, 0.000108065491, 923.6571    , 29.8223686  , 774.1809    , 1.79        , 3           , 255         , 0           , 0
-0.174263284, 0.100493647 , -9.790278   , 0.000323929446, -0.000104856823, 7.367808E-05, -0.009338032, -0.0181766283, 0.000108812128, 923.6571    , 29.8223686  , 774.1811    , 1.8         , 3           , 255         , 0           , 0
-0.178018287, 0.09525327  , -9.783758   , -0.0001998638, -0.000341459, 0.0002526739, -0.00934161 , -0.0181864146, 0.0001113989, 923.6571    , 29.8223686  , 774.1785    , 1.81        , 3           , 255         , 0           , 0
-0.183051124, 0.09804789  , -9.788998   , -0.000262419722, 4.75766137E-06, 0.0002003125, -0.00934427 , -0.0181863476, 0.000113401766, 923.6571    , 29.8223686  , 774.1787    , 1.82        , 3           , 255         , 0           , 0
-0.181004673, 0.09723068  , -9.78841    , 0.00030220527, -0.00015460304, 0.0005339376, -0.009341345, -0.0181878433, 0.0001187561, 923.678345  , 29.8231831  , 774.1789    , 1.83        , 3           , 255         , 0           , 0
-0.180750459, 0.09195922  , -9.791766   , 0.000205574848, -0.0002739636, 0.000142774865, -0.009339316, -0.01819057 , 0.000120209588, 923.678345  , 29.8231831  , 774.1791    , 1.84        , 3           , 255         , 0           , 0
-0.1837115  , 0.08646403  , -9.78744    , 0.00022336148, -0.000104151753, 0.0002465388, -0.009337128, -0.0181915872, 0.000122684942, 923.678345  , 29.8231831  , 774.17926   , 1.85        , 3           , 255         , 0           , 0
-0.179845691, 0.0882728845, -9.779791   , -0.000411793037, -8.943194E-05, -0.000143924874, -0.00934121851, -0.0181924962, 0.000121253892, 923.678345  , 29.8231831  , 774.179443  , 1.86        , 3           , 255         , 0           , 0
-0.181885839, 0.07945736  , -9.787014   , -0.000381185062, 1.30434637E-05, -9.293139E-05, -0.009345015, -0.0181923732, 0.000120323275, 923.678345  , 29.8231831  , 774.1796    , 1.87        , 3           , 255         , 0           , 0
-0.178148359, 0.08112935  , -9.793727   , -0.000247164135, -0.000105558574, -6.155062E-05, -0.009347475, -0.0181934349, 0.000119717573, 923.678345  , 29.8231831  , 774.1798    , 1.88        , 3           , 255         , 0           , 0
-0.176727608, 0.0807495   , -9.798043   , -0.000288683135, 0.00017742248, -0.0001678594, -0.009350331, -0.0181916766, 0.000118022224, 923.678345  , 29.8231831  , 774.18      , 1.89        , 3           , 255         , 0           , 0
-0.1843811  , 0.08945784  , -9.779573   , 1.96791589E-05, 0.000249442324, 0.000115869479, -0.009350155, -0.0181891713, 0.00011915771, 923.678345  , 29.8231831  , 774.1802    , 1.9         , 3           , 255         , 0           , 0
-0.178490371, 0.101449095 , -9.77815151 , 0.00064472435, 0.000243669288, 0.000214726315, -0.009336083, -0.0181945954, 0.000121142955, 923.678345  , 29.8231831  , 774.1529    , 1.91        , 3           , 255         , 0           , 0
-0.18167749 , 0.0990752652, -9.782049   , 0.0005804093, 0.000185544 , 0.0005467817, -0.009330375, -0.0181926861, 0.000126593979, 923.678345  , 29.8231831  , 774.1529    , 1.92        , 3           , 255         , 0           , 0
-0.183348328, 0.0939623   , -9.782094   , 4.11208457E-05, 4.47957864E-05, 0.0006532569, -0.009330084, -0.0181921758, 0.000133123 , 923.6175    , 29.821352   , 774.1529    , 1.93        , 3           , 255         , 0           , 0
-0.182723135, 0.104113713 , -9.783096   , 8.478544E-05, -0.0003036099, -0.000505951233, -0.009329146, -0.01819526 , 0.000128091342, 923.6175    , 29.821352   , 774.1529    , 1.94        , 3           , 255         , 0           , 0
-0.1828148  , 0.09331466  , -9.791982   , 0.000211358711, -0.000165192032, 0.000121772347, -0.009327056, -0.0181969013, 0.0001293246, 923.6175    , 29.821352   , 774.1529    , 1.95        , 3           , 255         , 0           , 0
-0.177579746, 0.0952973738, -9.786825   , 0.0007272557, -7.095156E-05, -0.000190256251, -0.009319748, -0.0181976277, 0.000127428473, 923.6175    , 29.821352   , 774.1529    , 1.96        , 3           , 255         , 0           , 0
-0.169344991, 0.0935023353, -9.786998   , 0.0005990995, -0.000397068885, 0.000150442036, -0.009313786, -0.0182015877, 0.000128970045, 923.6175    , 29.821352   , 774.1529    , 1.97        , 3           , 255         , 0           , 0
-0.182200208, 0.08398932  , -9.785573   , 0.000240441761, -0.000230516918, 0.0007002532, -0.009311509, -0.0182038266, 0.00013599472, 923.6175    , 29.821352   , 774.1529    , 1.98        , 3           , 255         , 0           , 0
-0.17458795 , 0.08017887  , -9.782255   , 0.000232194929, 1.89766E-05 , -0.000428561267, -0.009309108, -0.0182036776, 0.000131706911, 923.6175    , 29.821352   , 774.1529    , 1.99        , 3           , 255         , 0           , 0
-0.172391161, 0.0802311152, -9.788393   , 0.000309466122, -7.5267104E-05, -7.50235049E-05, -0.00930600148, -0.0182044357, 0.000130963614, 923.6175    , 29.821352   , 774.1529    , 2           , 3           , 0           , 8.800237    , 200
-0.1819951  , 0.0870335847, -9.792314   , -0.000513702, 4.60423325E-05, -0.0002473559, -0.00931628048, -0.018205855, 0.000128579952, 923.6175    , 29.821352   , 774.200867  , 2.01        , 3           , 1           , 0           , 0
-0.1742321  , 0.0933850557, -9.786409   , 0.0002235841, 0.0001510505, -8.177739E-05, -0.009314029, -0.0182043519, 0.000127748033, 923.6175    , 29.821352   , 774.2012    , 2.02        , 3           , 2           , 0           , 0
-0.16924724 , 0.0919586644, -9.777784   , 0.0001035586, -0.00040684393, 0.000174404151, -0.00931302551, -0.0182084031, 0.000129530134, 923.6324    , 29.8227081  , 774.2015    , 2.03        , 3           , 3           , 0           , 0
-0.17225346 , 0.09157741  , -9.783353   , 9.66561056E-05, -0.000200536073, -0.000427413645, -0.009311981, -0.0182104483, 0.000125274251, 923.6324    , 29.8227081  , 774.2018    , 2.04        , 3           , 4           , 0           , 0
-0.178894937, 0.09441895  , -9.785131   , -0.000311412645, 0.000185988276, 0.0006022247, -0.009315205, -0.0182085335, 0.000131279769, 923.6324    , 29.8227081  , 774.2021    , 2.05        , 3           , 5           , 0           , 0
-0.182238773, 0.08828261  , -9.785398   , -0.000643918, 0.000205508579, 0.0005446329, -0.009321742, -0.0182064269, 0.000136707473, 923.6324    , 29.8227081  , 774.2024    , 2.06        , 3           , 6           , 0           , 0
-0.180416584, 0.09647523  , -9.791274   , -0.000277223357, 3.82546568E-05, -0.0005468597, -0.009324415, -0.0182060953, 0.000131234759, 923.6324    , 29.8227081  , 774.2027    , 2.07        , 3           , 7           , 0           , 0
-0.184405372, 0.09729853  , -9.795573   , -0.0003513685, -0.0005740094, -0.000738749, -0.009327795, -0.0182119  , 0.0001239001, 923.6324    , 29.8227081  , 774.203     , 2.08        , 3           , 8           , 5           , 5
-0.177182719, 0.09504787  , -9.791695   , 0.000410357054, -0.000275031867, 0.000549534045, -0.009323792, -0.018214602, 0.000129421634, 923.6324    , 29.8227081  , 774.2033    , 2.09        , 3           , 9           , 5           , 0.1
-0.181682736, 0.09900028  , -9.799237   , 3.27232265E-05, 6.325281E-06, -0.000121501427, -0.009323442, -0.01821455 , 0.000128205909, 923.6324    , 29.8227081  , 774.2036    , 2.1         , 3           , 10          , 0.1         , 0.1
-0.184922248, 0.101215467 , -9.793447   , -7.377888E-05, 0.000168867 , 0.00076884334, -0.009330024, -0.0182127375, 0.000135983209, 923.6324    , 29.8227081  , 774.2285    , 2.11        , 3           , 11          , 0.00737011526, 0.0073701134
-0.18513836 , 0.09710043  , -9.79888    , 0.0003673026, 0.000375271979, 0.000383786566, -0.009326421, -0.0182089489, 0.000139786454, 923.6324    , 29.8227081  , 774.229     , 2.12        , 3           , 12          , 0.174643889 , 0
-0.185879737, 0.09587932  , -9.775636   , 0.000348631525, -0.000168329512, 0.000317206781, -0.00932299253, -0.0182106029, 0.000142974546, 923.619     , 29.8238621  , 774.2295    , 2.13        , 3           , 13          , 0           , 0
-0.185602352, 0.09450327  , -9.783982   , 3.44672662E-05, -0.000157191971, 0.0005471135, -0.009322747, -0.0182121228, 0.000148460851, 923.619     , 29.8238621  , 774.23      , 2.14        , 3           , 14          , -5.68674259E-05, -0.000271749654
-0.181727856, 0.0904120356, -9.781362   , 0.000192903273, -0.00024580615, -0.0002161565, -0.00932078 , -0.018214602, 0.000146322011, 923.619     , 29.8238621  , 774.230469  , 2.15        , 3           , 15          , 0           , -9.69186949E-05
-0.176252872, 0.09750095  , -9.791079   , 0.000380632147, -0.000134792674, 0.000440757722, -0.009317054, -0.01821591 , 0.000150742577, 923.619     , 29.8238621  , 774.230957  , 2.16        , 3           , 16          , 0           , 1.401298E-45
-0.18130067 , 0.09486945  , -9.788247   , -0.000197932124, -0.0002369463, 0.0001133834, -0.009319053, -0.0182182677, 0.000151898581, 923.619     , 29.8238621  , 774.231445  , 2.17        , 3           , 20          , 0           , 0
-0.178223833, 0.08828632  , -9.785407   , -0.000265793758, -0.0003407613, -4.180544E-05, -0.00932170451, -0.0182216745, 0.000151512257, 923.619     , 29.8238621  , 774.231934  , 2.18        , 3           , 21          , 0           , 0
-0.173974708, 0.09247729  , -9.787713   , -3.628278E-05, -0.000173233653, -3.89982E-05, -0.009322061, -0.0182234123, 0.000151138374, 923.619     , 29.8238621  , 774.2324    , 2.19        , 3           , 22          , 0           , 0
-0.176943436, 0.090017356 , -9.785982   , -0.0005060212, 4.31577355E-05, -0.00022160029, -0.00932708 , -0.018223   , 0.000148918116, 923.619     , 29.8238621  , 774.2329    , 2.2         , 3           , 40          , 0           , 0
-0.177849859, 0.08908371  , -9.784366   , 0.000290203636, -0.000120868266, -1.29647378E-05, -0.00933277048, -0.0182319917, 0.00014895646, 923.619     , 29.8238621  , 774.2714    , 2.21        , 3           , 41          , 0           , 0
-0.177800864, 0.08340394  , -9.788094   , 0.0003376469, 0.000372738577, 0.0002772399, -0.009329445, -0.0182282384, 0.00015169433, 923.619     , 29.8238621  , 774.272156  , 2.22        , 3           , 42          , 0           , 0
-0.178495914, 0.0845615938, -9.790858   , 6.917719E-05, -1.75547029E-05, 0.000848765136, -0.009328907, -0.0182283353, 0.000160184456, 923.6734    , 29.8235912  , 774.2729    , 2.23        , 3           , 255         , 0           , 0
-0.176571459, 0.0999183357, -9.791704   , -0.000189013139, -0.0004396765, -0.000106968291, -0.009330779, -0.01823274 , 0.0001591557, 923.6734    , 29.8235912  , 774.2736    , 2.24        , 3           , 255         , 0           , 0
-0.1724927  , 0.0955115855, -9.789216   , 0.00101634476, -0.000429875683, 0.000304553483, -0.009320672, -0.0182370134, 0.000162241617, 923.6734    , 29.8235912  , 774.274353  , 2.25        , 3           , 255         , 0           , 0
-0.173474491, 0.0943904147, -9.79558849 , 0.000582127133, -0.000537471846, 0.000637562945, -0.009314968, -0.0182423238, 0.000168667946, 923.6734    , 29.8235912  , 774.2751    , 2.26        , 3           , 255         , 0           , 0
-0.186459854, 0.08732994  , -9.79375    , 0.000447286118, -0.000370756374, -0.000179057126, -0.00931046251, -0.0182460491, 0.000166911719, 923.6734    , 29.8235912  , 774.2758    , 2.27        , 3           , 255         , 0           , 0
-0.18062304 , 0.08440195  , -9.786635   , 0.000336936471, -0.0001004432, 0.0003629496, -0.00930716 , -0.01824702 , 0.000170550949, 923.6734    , 29.8235912  , 774.27655   , 2.28        , 3           , 255         , 0           , 0
-0.1786209  , 0.09284399  , -9.787348   , -3.16648075E-05, -0.000425166916, 0.0005908947, -0.009307585, -0.018251216, 0.000176500034, 923.6734    , 29.8235912  , 774.2773    , 2.29        , 3           , 255         , 0           , 0
-0.181905419, 0.09291051  , -9.78509    , -0.000121670673, -0.0002275653, 9.808167E-05, -0.009308821, -0.0182534829, 0.000177502137, 923.6734    , 29.8235912  , 774.278     , 2.3         , 3           , 255         , 0           , 0
-0.175135165, 0.0946967751, -9.783042   , 0.000280707 , -0.000411468325, 0.000116817871, -0.009304086, -0.0182573348, 0.000178673115, 923.6734    , 29.8235912  , 774.24115   , 2.31        , 3           , 255         , 0           , 0
-0.177299649, 0.09966295  , -9.785553   , 0.000240348338, -0.000151594984, 0.000234185427, -0.009301724, -0.0182588287, 0.000181029289, 923.6734    , 29.8235912  , 774.241638  , 2.32        , 3           , 255         , 0           , 0
-0.1823022  , 0.100029454 , -9.793993   , -0.000221095543, -0.000319631363, 3.24747816E-07, -0.009303936, -0.018262025, 0.000181062293, 923.644653  , 29.8244038  , 774.2421    , 2.33        , 3           , 255         , 0           , 0
-0.185231268, 0.0953749046, -9.791636   , 0.000477139547, 0.000213550913, 0.000137589857, -0.009299189, -0.0182598773, 0.000182418458, 923.644653  , 29.8244038  , 774.2426    , 2.34        , 3           , 255         , 0           , 0
-0.184256941, 0.09651853  , -9.795816   , 0.00024796772, -0.000287974719, -0.000268367876, -0.00929666 , -0.0182627812, 0.000179761308, 923.644653  , 29.8244038  , 774.2431    , 2.35        , 3           , 255         , 0           , 0
-0.17599903 , 0.0987913   , -9.785911   , 0.0002676316, -0.0003992446, 0.0005249991, -0.00929408148, -0.0182667244, 0.000185048935, 923.644653  , 29.8244038  , 774.2436    , 2.36        , 3           , 255         , 0           , 0
-0.177879617, 0.09343858  , -9.795671   , 0.000456096954, 0.000332377473, 0.000200950541, -0.009289557, -0.0182633828, 0.000187027734, 923.644653  , 29.8244038  , 774.2441    , 2.37        , 3           , 255         , 0           , 0
-0.184408367, 0.09059612  , -9.790422   , -6.370465E-05, -0.000341074658, 0.0009417655, -0.009290366, -0.01826671 , 0.000196478009, 923.644653  , 29.8244038  , 774.2446    , 2.38        , 3           , 255         , 0           , 0
-0.176266253, 0.08636929  , -9.783372   , 0.000177917565, -0.0004753623, 9.11146562E-05, -0.009288603, -0.0182714518, 0.0001974334, 923.644653  , 29.8244038  , 774.2452    , 2.39        , 3           , 255         , 0           , 0
-0.1703175  , 0.08514788  , -9.783316   , -0.000145900412, -0.000363436178, 4.892143E-06, -0.009290064, -0.0182750858, 0.000197516085, 923.644653  , 29.8244038  , 774.2457    , 2.4         , 3           , 255         , 0           , 0
-0.173606709, 0.08847006  , -9.782408   , -0.0003510361, 0.000148890686, -0.000426644, -0.009300559, -0.0182739124, 0.000193364453, 923.644653  , 29.8244038  , 774.2503    , 2.41        , 3           , 255         , 0           , 0
-0.185517848, 0.08566627  , -9.788924   , 0.000349782931, -0.0004630016, 3.237641E-05, -0.009297067, -0.018278541, 0.0001937313, 923.644653  , 29.8244038  , 774.250854  , 2.42        , 3           , 255         , 0           , 0
-0.184644356, 0.0788321346, -9.782642   , 0.000118521049, -2.75236089E-05, -0.0005420763, -0.009295782, -0.0182788651, 0.000188312551, 923.6633    , 29.8247433  , 774.2514    , 2.43        , 3           , 255         , 0           , 0
-0.18417415 , 0.0859973356, -9.786697   , 0.000113867893, -0.000167338148, -8.542009E-05, -0.00929463 , -0.0182805471, 0.000187473837, 923.6633    , 29.8247433  , 774.251953  , 2.44        , 3           , 255         , 0           , 0
-0.178316638, 0.09386028  , -9.784391   , 0.000195268251, -0.000288765819, 0.0005040851, -0.009292769, -0.01828339 , 0.000192542022, 923.6633    , 29.8247433  , 774.2525    , 2.45        , 3           , 255         , 0           , 0
-0.170382768, 0.0977881849, -9.792505   , 4.19209537E-05, -1.04243809E-05, 5.825276E-05, -0.009292361, -0.0182834882, 0.000193125568, 923.6633    , 29.8247433  , 774.253052  , 2.46        , 3           , 255         , 0           , 0
-0.167536974, 0.09173195  , -9.792803   , 0.000315622165, 0.000340109633, 0.0003937715, -0.009289277, -0.01828005 , 0.0001970321, 923.6633    , 29.8247433  , 774.2536    , 2.47        , 3           , 255         , 0           , 0
-0.176757663, 0.0892929658, -9.786151   , 0.0002618755, -0.000120065321, 0.000172699933, -0.00928669 , -0.0182812344, 0.000198770416, 923.6633    , 29.8247433  , 774.25415   , 2.48        , 3           , 255         , 0           , 0
-0.1808475  , 0.0957370847, -9.785236   , 0.000428362342, 0.000219323629, -0.0003343381, -0.009282344, -0.0182790719, 0.000195406348, 923.6633    , 29.8247433  , 774.2547    , 2.49        , 3           , 255         , 0           , 0
-0.181645349, 0.08634938  , -9.793819   , 0.000337936421, -9.472773E-05, -0.0006337232, -0.00927885 , -0.0182800777, 0.000189077284, 923.6633    , 29.8247433  , 774.255249  , 2.5         , 3           , 255         , 0           , 0
-0.180194736, 0.09283724  , -9.784854   , 0.000116278308, -0.0001296037, -0.0007623369, -0.009273417, -0.0182798281, 0.000181389682, 923.6633    , 29.8247433  , 774.233337  , 2.51        , 3           , 255         , 0           , 0
-0.179107279, 0.100350127 , -9.794818   , -0.000102419071, -0.000121128192, -0.0003966802, -0.009274369, -0.0182810742, 0.000177433729, 923.6633    , 29.8247433  , 774.233765  , 2.52        , 3           , 255         , 0           , 0
-0.190185949, 0.0958969146, -9.803255   , -0.000270313816, -0.000115960283, 8.954968E-05, -0.009277088, -0.0182822254, 0.000178340051, 923.6595    , 29.8265762  , 774.2342    , 2.53        , 3           , 255         , 0           , 0
-0.180292919, 0.100847304 , -9.793124   , -9.628483E-05, -0.000168108119, -0.0005360948, -0.009277952, -0.0182839558, 0.000172994172, 923.6595    , 29.8265762  , 774.2346    , 2.54        , 3           , 255         , 0           , 0
-0.180798441, 0.09479789  , -9.780593   , -0.000162911689, 0.000246621727, -9.00594E-05, -0.009279565, -0.0182814989, 0.000172070591, 923.6595    , 29.8265762  , 774.235046  , 2.55        , 3           , 255         , 0           , 0
-0.185353041, 0.08745231  , -9.789627   , 0.0001283237, 0.000172554312, -0.00011034873, -0.00927826 , -0.0182797834, 0.000170950982, 923.6595    , 29.8265762  , 774.2355    , 2.56        , 3           , 255         , 0           , 0
-0.1768851  , 0.0923166052, -9.792072   , 0.0009202175, -0.0005179489, 0.000121885496, -0.009269082, -0.01828495 , 0.000172217959, 923.6595    , 29.8265762  , 774.2359    , 2.57        , 3           , 255         , 0           , 0
-0.178284973, 0.08505788  , -9.788144   , 0.000149603075, -0.00021299746, -0.000135270966, -0.009267563, -0.0182870924, 0.000170884872, 923.6595    , 29.8265762  , 774.2363    , 2.58        , 3           , 255         , 0           , 0
-0.1813147  , 0.0895355   , -9.779804   , 0.000264156843, -0.000320573425, -0.0006057118, -0.00926481 , -0.0182903521, 0.000164856858, 923.6595    , 29.8265762  , 774.236755  , 2.59        , 3           , 255         , 0           , 0
-0.17556116 , 0.09385897  , -9.782577   , 0.0003583634, -0.000189243612, -7.823284E-06, -0.009261225, -0.0182922464, 0.000164796147, 923.6595    , 29.8265762  , 774.2372    , 2.6         , 3           , 255         , 0           , 0
-0.1811532  , 0.09423634  , -9.796387   , 0.000149471016, 3.44663E-05 , -0.000126291547, -0.009265141, -0.0182958953, 0.0001636293, 923.6595    , 29.8265762  , 774.222961  , 2.61        , 3           , 255         , 0           , 0
-0.171732157, 0.0966816545, -9.797186   , 6.82624159E-05, 5.3085314E-05, 0.000744001358, -0.009264594, -0.0182952955, 0.000171065156, 923.6595    , 29.8265762  , 774.2233    , 2.62        , 3           , 255         , 0           , 0
-0.180377319, 0.09090185  , -9.78385448 , 0.000606125337, -0.0004429352, 0.001340321 , -0.009258779, -0.0182995964, 0.0001845107, 923.6739    , 29.8255577  , 774.2237    , 2.63        , 3           , 255         , 0           , 0
-0.189636335, 0.09492728  , -9.784082   , 0.000326815527, -0.0005163172, -2.77574145E-06, -0.009255511, -0.0183047615, 0.000184530727, 923.6739    , 29.8255577  , 774.22406   , 2.64        , 3           , 255         , 0           , 0
-0.178879738, 0.09492354  , -9.786413   , 0.00020877042, 0.00014277632, -0.0001063614, -0.009253405, -0.018303344, 0.000183453827, 923.6739    , 29.8255577  , 774.2244    , 2.65        , 3           , 255         , 0           , 0
-0.190314978, 0.09118412  , -9.781041   , 2.405708E-05, -0.000300834421, -9.889493E-05, -0.009253146, -0.01830636 , 0.0001824926, 923.6739    , 29.8255577  , 774.2248    , 2.66        , 3           , 255         , 0           , 0
-0.183706924, 0.100153938 , -9.783213   , -0.00102371234, 0.0001299945, -9.564427E-05, -0.009263365, -0.01830507 , 0.00018152401, 923.6739    , 29.8255577  , 774.225159  , 2.67        , 3           , 255         , 0           , 0
-0.176745713, 0.09641504  , -9.787605   , -6.214955E-05, 0.0002536341, 0.0002957401, -0.009264039, -0.0183025058, 0.000184458186, 923.6739    , 29.8255577  , 774.2255    , 2.68        , 3           , 255         , 0           , 0
-0.1847853  , 0.087683104 , -9.793028   , 8.51255E-06 , -0.000234002538, -0.000429684267, -0.009263877, -0.0183048844, 0.000180182615, 923.6739    , 29.8255577  , 774.2259    , 2.69        , 3           , 255         , 0           , 0
-0.181544453, 0.100798264 , -9.788085   , 4.8686943E-05, -0.000480791263, -0.000383661361, -0.00926332 , -0.0183097273, 0.000176390153, 923.6739    , 29.8255577  , 774.226257  , 2.7         , 3           , 255         , 0           , 0
-0.182597026, 0.08702574  , -9.780141   , 5.81493E-05 , 0.000173188717, -0.000435273279, -0.009272439, -0.0183143131, 0.000172200089, 923.6739    , 29.8255577  , 774.193542  , 2.71        , 3           , 255         , 0           , 0
-0.185719177, 0.08609074  , -9.787584   , 4.44886246E-05, 0.000635428936, 6.81291E-05 , -0.009272005, -0.01830795 , 0.0001728225, 923.6739    , 29.8255577  , 774.193665  , 2.72        , 3           , 255         , 0           , 0
-0.17817916 , 0.08955939  , -9.789679   , -0.000139224125, 0.000157230039, 0.000467327831, -0.009273483, -0.0183063354, 0.000177481663, 923.681     , 29.8254223  , 774.1938    , 2.73        , 3           , 255         , 0           , 0
-0.1709198  , 0.09198885  , -9.792701   , -0.000410345383, 0.00018864547, 7.003473E-05, -0.009277598, -0.018304443, 0.000178164584, 923.681     , 29.8254223  , 774.1939    , 2.74        , 3           , 255         , 0           , 0
-0.173737288, 0.0894685239, -9.797475   , 0.0007973354, 0.000167141145, 0.0006987837, -0.00926975347, -0.018302707, 0.000185137615, 923.681     , 29.8254223  , 774.194031  , 2.75        , 3           , 255         , 0           , 0
-0.1734076  , 0.0840898454, -9.785335   , 0.000158454888, 0.0003783775, 0.0002686587, -0.009268217, -0.0182988979, 0.00018778941, 923.681     , 29.8254223  , 774.194153  , 2.76        , 3           , 255         , 0           , 0
-0.182146981, 0.09151668  , -9.785296   , -2.593729E-05, 0.00041652238, 3.69977643E-05, -0.009268482, -0.01829473 , 0.000188120815, 923.681     , 29.8254223  , 774.1943    , 2.77        , 3           , 255         , 0           , 0
-0.178251088, 0.096763894 , -9.794977   , -5.13491032E-05, -0.0005600273, -0.000935240067, -0.009268825, -0.0183004159, 0.000178819391, 923.681     , 29.8254223  , 774.1944    , 2.78        , 3           , 255         , 0           , 0
-0.181784436, 0.10127715  , -9.794867   , 0.0003890109, -8.64515E-05, 0.000321327185, -0.009264994, -0.01830125 , 0.000182041 , 923.681     , 29.8254223  , 774.1945    , 2.79        , 3           , 255         , 0           , 0
-0.186359182, 0.0974843353, -9.796385   , -0.000484043, 0.000133193913, 0.00111008261, -0.009270037, -0.0182998143, 0.000193130574, 923.681     , 29.8254223  , 774.194641  , 2.8         , 3           , 255         , 0           , 0
-0.178170457, 0.09571807  , -9.79262    , 0.000132829853, -0.000108136621, 1.94272E-05 , -0.009270084, -0.01830105 , 0.00019336  , 923.681     , 29.8254223  , 774.1558    , 2.81        , 3           , 255         , 0           , 0
-0.179784581, 0.09186782  , -9.792067   , -0.000278857624, -0.00022501935, -0.000499630871, -0.009272782, -0.0183033459, 0.000188384045, 923.681     , 29.8254223  , 774.1557    , 2.82        , 3           , 255         , 0           , 0
-0.174980968, 0.09466846  , -9.795881   , -0.0002687364, -0.000162015174, -0.000196841633, -0.009275434, -0.018304985, 0.00018643048, 923.6909    , 29.8263035  , 774.1556    , 2.83        , 3           , 255         , 0           , 0
-0.171744913, 0.0895788446, -9.796049   , 0.000237059838, -0.000343387423, 0.0007909364, -0.00927321 , -0.0183083471, 0.000194372464, 923.6909    , 29.8263035  , 774.155457  , 2.84        , 3           , 255         , 0           , 0
-0.1748724  , 0.09756968  , -9.796582   , 0.000273823272, -7.72389758E-05, 0.000286911556, -0.009270524, -0.0183090921, 0.000197249057, 923.6909    , 29.8263035  , 774.155334  , 2.85        , 3           , 255         , 0           , 0
-0.167575985, 0.09091598  , -9.793695   , 0.000474335364, -0.000228508958, -0.000101675709, -0.009265761, -0.0183113869, 0.000196253372, 923.6909    , 29.8263035  , 774.1552    , 2.86        , 3           , 255         , 0           , 0
-0.175393283, 0.08596189  , -9.78371    , 0.0004967388, -8.359185E-05, 0.0001988223, -0.009260832, -0.0183122046, 0.000198249531, 923.6909    , 29.8263035  , 774.155151  , 2.87        , 3           , 255         , 0           , 0
-0.173856974, 0.0931012   , -9.792617   , 1.68179758E-05, -0.000268423231, 0.000554659229, -0.009260766, -0.0183148365, 0.000203821532, 923.6909    , 29.8263035  , 774.1551    , 2.88        , 3           , 255         , 0           , 0
-0.173719764, 0.09461627  , -9.797018   , -0.000327234069, 0.000354805146, 0.000468276441, -0.009264123, -0.0183112472, 0.000208471916, 923.6909    , 29.8263035  , 774.155     , 2.89        , 3           , 255         , 0           , 0
-0.183086351, 0.0949458   , -9.781219   , -0.000347579364, 0.000250366371, -0.000642064842, -0.00926748 , -0.0183088034, 0.000202027426, 923.6909    , 29.8263035  , 774.154968  , 2.9         , 3           , 255         , 0           , 0
-0.184308782, 0.09007025  , -9.787821   , -0.000405793748, -3.72950162E-05, -0.0004940722, -0.009274839, -0.0183027871, 0.000197151719, 923.6909    , 29.8263035  , 774.1079    , 2.91        , 3           , 255         , 0           , 0
-0.176788121, 0.0851597041, -9.791678   , -0.000212491112, 0.000305277354, -0.0003757256, -0.009276895, -0.0182997677, 0.000193365791, 923.6909    , 29.8263035  , 774.107544  , 2.92        , 3           , 255         , 0           , 0
-0.1737282  , 0.09955253  , -9.784521   , 0.000438864023, 0.000141806158, -0.000112470334, -0.009272485, -0.0182983615, 0.0001922278, 923.7047    , 29.8279324  , 774.1072    , 2.93        , 3           , 255         , 0           , 0
-0.174717873, 0.09632248  , -9.786905   , 8.786291E-05, 6.228752E-05, 0.000160739219, -0.009271637, -0.0182977244, 0.0001938296, 923.7047    , 29.8279324  , 774.1068    , 2.94        , 3           , 255         , 0           , 0
-0.1759034  , 0.087324895 , -9.786809   , -0.000412688241, 6.842043E-05, -0.00017717632, -0.009275731, -0.0182970557, 0.000192051317, 923.7047    , 29.8279324  , 774.106445  , 2.95        , 3           , 255         , 0           , 0
-0.18483834 , 0.09507574  , -9.790634   , -0.000233956147, -0.000122076628, -0.000127162522, -0.009278048, -0.0182982888, 0.0001907909, 923.7047    , 29.8279324  , 774.1061    , 2.96        , 3           , 255         , 0           , 0
-0.175989434, 0.107383274 , -9.788068   , 0.000379876554, 0.000207212623, 0.000730897766, -0.009274382, -0.0182961486, 0.000198081383, 923.7047    , 29.8279324  , 774.1057    , 2.97        , 3           , 255         , 0           , 0
-0.1799614  , 0.100274242 , -9.794464   , 0.000436848262, 0.000170653017, 2.63397451E-05, -0.009270019, -0.01829444 , 0.000198329 , 923.7047    , 29.8279324  , 774.105347  , 2.98        , 3           , 255         , 0           , 0
-0.181555957, 0.09255841  , -9.794179   , 0.000251397461, -0.000138470292, -0.000466181955, -0.00926742051, -0.0182958674, 0.000193679531, 923.7047    , 29.8279324  , 774.105     , 2.99        , 3           , 255         , 0           , 0
-0.1818195  , 0.0813967   , -9.78992748 , -0.0001807478, -8.23256E-05, 0.0002593005, -0.009269275, -0.0182966664, 0.000196280424, 923.7047    , 29.8279324  , 774.1046    , 3           , 3           , 0           , 9.800237    , 300
-0.174196914, 0.08385499  , -9.788864   , 0.000206619719, -0.00043345365, 0.0003599048, -0.009272571, -0.0183005985, 0.000200016919, 923.7047    , 29.8279324  , 774.045044  , 3.01        , 3           , 1           , 0           , 0
-0.174936816, 0.08162154  , -9.787788   , 0.000105714978, -0.000309740426, 0.000188535225, -0.009271548, -0.0183036812, 0.00020193118, 923.7047    , 29.8279324  , 774.0443    , 3.02        , 3           , 2           , 0           , 0
-0.182129383, 0.09136632  , -9.79325    , -0.0006994085, -0.000144610851, -4.40986259E-05, -0.009278535, -0.01830513 , 0.000201503542, 923.676941  , 29.8271179  , 774.0436    , 3.03        , 3           , 3           , 0           , 0
-0.177722335, 0.0920192152, -9.792443   , -3.61796228E-05, -0.000457199756, 0.0007079949, -0.009279027, -0.0183096323, 0.000208626618, 923.676941  , 29.8271179  , 774.042847  , 3.04        , 3           , 4           , 0           , 0
-0.1713362  , 0.08826278  , -9.788844   , 0.0003973043, -0.0003900883, -0.00016027622, -0.009275025, -0.01831355 , 0.000207059886, 923.676941  , 29.8271179  , 774.0421    , 3.05        , 3           , 5           , 0           , 0
-0.181461647, 0.100138165 , -9.792306   , 0.000256247673, -0.000321785279, 0.0002703427, -0.009272514, -0.018316742, 0.000209793434, 923.676941  , 29.8271179  , 774.0414    , 3.06        , 3           , 6           , 0           , 0
-0.17946282 , 0.09730724  , -9.788786   , 0.000522032438, -5.68734831E-05, 6.742601E-06, -0.009267295, -0.01831731 , 0.000209866121, 923.676941  , 29.8271179  , 774.040649  , 3.07        , 3           , 7           , 0           , 0
-0.175706029, 0.08967233  , -9.789275   , -0.0001758414, 0.0004798716, 0.0002380719, -0.009269096, -0.0183124878, 0.00021220262, 923.676941  , 29.8271179  , 774.0399    , 3.08        , 3           , 8           , 5           , 5
-0.174394533, 0.096112065 , -9.783971   , 9.086543E-05, -0.0002767644, 0.000361912622, -0.009268254, -0.018315224, 0.000215847758, 923.676941  , 29.8271179  , 774.0392    , 3.09        , 3           , 9           , 5           , 0.1
-0.168450445, 0.08653344  , -9.787256   , -3.55941847E-05, -0.0004490359, 0.00024069869, -0.009268655, -0.0183196925, 0.000218296627, 923.676941  , 29.8271179  , 774.038452  , 3.1         , 3           , 10          , 0.1         , 0.1
-0.178288236, 0.08318663  , -9.782259   , -5.03261654E-05, 5.656977E-05, 0.000325438916, -0.009268972, -0.0183125958, 0.000221541588, 923.676941  , 29.8271179  , 774.027039  , 3.11        , 3           , 11          , 0.00662191026, 0.00662190747
-0.183938578, 0.0907196552, -9.795866   , 0.000292028359, 2.76254723E-05, 0.000327966962, -0.009266111, -0.01831229 , 0.000224819029, 923.676941  , 29.8271179  , 774.026245  , 3.12        , 3           , 12          , 0.174645633 , 0
-0.18923673 , 0.08895532  , -9.781364   , -0.000472814223, -1.03664352E-05, 0.00042715887, -0.009270919, -0.0183123536, 0.000229092009, 923.6866    , 29.8270512  , 774.025452  , 3.13        , 3           , 13          , 0           , 0
-0.183081359, 0.0860946   , -9.78826    , -0.000151420812, -1.76126778E-05, 3.679529E-05, -0.009272439, -0.0183125269, 0.000229461642, 923.6866    , 29.8270512  , 774.024658  , 3.14        , 3           , 14          , -5.671089E-05, -0.000271754136
-0.174164921, 0.08826564  , -9.782666   , -6.73614E-05, 0.000269005628, 0.0008356752, -0.009273265, -0.01830976 , 0.000237794258, 923.6866    , 29.8270512  , 774.023865  , 3.15        , 3           , 15          , 0           , -9.692158E-05
-0.172229588, 0.09026967  , -9.788967   , -9.016272E-05, 5.94902667E-06, 0.000117558011, -0.009274187, -0.01830969 , 0.000238969384, 923.6866    , 29.8270512  , 774.0231    , 3.16        , 3           , 16          , 0           , 1.401298E-45
-0.187146217, 0.07176019  , -9.788355   , -0.000158648691, -0.000205840275, 0.000159043469, -0.009275803, -0.0183117334, 0.000240579087, 923.6866    , 29.8270512  , 774.0223    , 3.17        , 3           , 20          , 0           , 0
-0.187858537, 0.07646556  , -9.78996    , -0.000530262245, -0.000152262539, 0.0006701308, -0.009281229, -0.0183131956, 0.0002472952, 923.6866    , 29.8270512  , 774.0215    , 3.18        , 3           , 21          , 0           , 0
-0.1690578  , 0.115545347 , -9.794849   , 0.000522356248, 0.000350629154, 0.000220804592, -0.00927604549, -0.0183096658, 0.0002494709, 923.6866    , 29.8270512  , 774.0207    , 3.19        , 3           , 22          , 0           , 0
-0.142908767, 0.14203158  , -9.791906   , 7.759882E-05, 0.000620490639, 0.000644889951, -0.009275387, -0.0183034018, 0.00025586292, 923.6866    , 29.8270512  , 774.0199    , 3.2         , 3           , 40          , 0           , 0
-0.143024892, 0.130255371 , -9.795813   , 0.000348685047, 0.0003199146, 0.0009845837, -0.009277396, -0.0182949826, 0.0002657773, 923.6866    , 29.8270512  , 773.998     , 3.21        , 3           , 41          , 0           , 0
-0.193702236, 0.08558935  , -9.791265   , 0.0004902044, 0.000291590462, -0.000189705243, -0.009272459, -0.0182920843, 0.000263853 , 923.6866    , 29.8270512  , 773.9971    , 3.22        , 3           , 42          , 0           , 0
-0.231768638, 0.06623184  , -9.78647    , 0.0005333758, 0.000237393979, 0.0003893543, -0.009267196, -0.0182896722, 0.000267724943, 923.649658  , 29.8265762  , 773.996155  , 3.23        , 3           , 255         , 0           , 0
-0.214200824, 0.08573702  , -9.782164   , 0.000194534441, -6.457753E-05, 0.0005475992, -0.009265351, -0.0182902664, 0.000273207464, 923.649658  , 29.8265762  , 773.995239  , 3.24        , 3           , 255         , 0           , 0
-0.173913568, 0.0902988   , -9.785915   , -0.000737246068, -1.41666387E-05, 0.000361276267, -0.00927279 , -0.0182903744, 0.000276821869, 923.649658  , 29.8265762  , 773.9943    , 3.25        , 3           , 255         , 0           , 0
-0.153174251, 0.0839488357, -9.788936   , -0.000570604, 4.38529241E-05, 0.000325417321, -0.009278554, -0.018289905, 0.000280072272, 923.649658  , 29.8265762  , 773.9934    , 3.26        , 3           , 255         , 0           , 0
-0.171412528, 0.107920036 , -9.793764   , 0.000183946948, 0.00012352971, 0.000345730165, -0.009276778, -0.0182886366, 0.000283518457, 923.649658  , 29.8265762  , 773.9925    , 3.27        , 3           , 255         , 0           , 0
-0.177280083, 0.100426495 , -9.777487   , -0.0001925772, 0.000150600623, -0.000170325322, -0.009278672, -0.0182871483, 0.00028180104, 923.649658  , 29.8265762  , 773.9916    , 3.28        , 3           , 255         , 0           , 0
-0.180969387, 0.0784314051, -9.784902   , 0.0002151747, -4.548009E-05, 0.0008210627, -0.009276672, -0.0182875264, 0.000290016731, 923.649658  , 29.8265762  , 773.990662  , 3.29        , 3           , 255         , 0           , 0
-0.1819212  , 0.08502992  , -9.785312   , 0.000211113627, 8.738189E-05, 0.000868604868, -0.009274718, -0.0182865728, 0.000298695551, 923.649658  , 29.8265762  , 773.989746  , 3.3         , 3           , 255         , 0           , 0
-0.166097879, 0.10774298  , -9.786865   , -7.895592E-05, -0.000287497038, -0.000141516473, -0.009276996, -0.0182965733, 0.0002973346, 923.649658  , 29.8265762  , 774.0243    , 3.31        , 3           , 255         , 0           , 0
-0.170495957, 0.101094268 , -9.800135   , 9.851425E-05, -0.000195362576, 0.0004012038, -0.009276084, -0.01829849 , 0.000301365159, 923.649658  , 29.8265762  , 774.0236    , 3.32        , 3           , 255         , 0           , 0
-0.176040754, 0.09687881  , -9.795614   , 0.000407107873, -0.0001504473, 0.0005373421, -0.009272112, -0.0182999447, 0.0003067531, 923.7075    , 29.8302383  , 774.022949  , 3.33        , 3           , 255         , 0           , 0
-0.188981816, 0.08953097  , -9.798476   , -0.000309906085, 0.000288034556, -9.396104E-05, -0.009275192, -0.0182970725, 0.000305786671, 923.7075    , 29.8302383  , 774.0223    , 3.34        , 3           , 255         , 0           , 0
-0.189400032, 0.07780083  , -9.789209   , 0.000604114553, -2.9566494E-05, 0.0006812758, -0.009269277, -0.0182973053, 0.000312602846, 923.7075    , 29.8302383  , 774.0216    , 3.35        , 3           , 255         , 0           , 0
-0.169885129, 0.08780112  , -9.780896   , -1.65059973E-05, 1.57701143E-05, -0.000463421457, -0.009269356, -0.0182971917, 0.0003079667, 923.7075    , 29.8302383  , 774.020935  , 3.36        , 3           , 255         , 0           , 0
-0.176889643, 0.09992252  , -9.78507    , -7.52382766E-06, 0.000129732492, 0.000332477182, -0.009269493, -0.0182958636, 0.000311279757, 923.7075    , 29.8302383  , 774.020264  , 3.37        , 3           , 255         , 0           , 0
-0.189622313, 0.0951913446, -9.785884   , 0.00053080247, 0.000203849922, -0.000171666, -0.009264153, -0.0182938445, 0.000309544062, 923.7075    , 29.8302383  , 774.0196    , 3.38        , 3           , 255         , 0           , 0
-0.184152171, 0.101936534 , -9.782558   , -0.0003703234, 0.000128869273, 0.000366254826, -0.009267922, -0.01829252 , 0.000313195022, 923.7075    , 29.8302383  , 774.0189    , 3.39        , 3           , 255         , 0           , 0
-0.174508363, 0.0972262   , -9.792235   , 0.000230485428, -0.000143268349, -0.000114806469, -0.009265596, -0.0182939637, 0.000312060118, 923.7075    , 29.8302383  , 774.01825   , 3.4         , 3           , 255         , 0           , 0
-0.158754155, 0.107745841 , -9.79377651 , 0.0004984609, 0.0002500631, -0.000158124371, -0.009268991, -0.0182905123, 0.00031060935, 923.7075    , 29.8302383  , 773.967163  , 3.41        , 3           , 255         , 0           , 0
-0.178821862, 0.097021386 , -9.7852     , -0.000110738845, 3.463615E-05, 0.000152740351, -0.009270127, -0.018290149, 0.000312133663, 923.7075    , 29.8302383  , 773.9662    , 3.42        , 3           , 255         , 0           , 0
-0.18659015 , 0.07820951  , -9.787878   , -7.239279E-05, -2.96366343E-05, -0.0002578521, -0.009270803, -0.0182904731, 0.000309557683, 923.6391    , 29.8291531  , 773.9652    , 3.43        , 3           , 255         , 0           , 0
-0.1825181  , 0.0712444261, -9.788553   , -0.000514215266, 3.83628067E-05, 0.0005917958, -0.009276054, -0.0182900317, 0.000315472629, 923.6391    , 29.8291531  , 773.964233  , 3.44        , 3           , 255         , 0           , 0
-0.163476974, 0.08048771  , -9.791574   , -0.00015869565, -3.25749E-05, 0.000683871564, -0.009277765, -0.0182902943, 0.000322315056, 923.6391    , 29.8291531  , 773.963257  , 3.45        , 3           , 255         , 0           , 0
-0.155336678, 0.08655606  , -9.78348    , 0.000249910372, -9.15225246E-06, 0.000422851765, -0.009275344, -0.0182903465, 0.000326544861, 923.6391    , 29.8291531  , 773.9623    , 3.46        , 3           , 255         , 0           , 0
-0.17354688 , 0.09307201  , -9.78749    , -0.000301055872, -2.467286E-05, 0.000113668662, -0.009278375, -0.0182905849, 0.000327683956, 923.6391    , 29.8291531  , 773.9613    , 3.47        , 3           , 255         , 0           , 0
-0.177995592, 0.0935960859, -9.782386   , 5.97179933E-05, 2.34515173E-05, -1.55209636E-05, -0.009277774, -0.01829035 , 0.000327526534, 923.6391    , 29.8291531  , 773.9603    , 3.48        , 3           , 255         , 0           , 0
-0.17569235 , 0.09887391  , -9.789665   , -0.0004048717, 0.000165734629, -0.000502108946, -0.009281731, -0.018288739, 0.000322489563, 923.6391    , 29.8291531  , 773.959351  , 3.49        , 3           , 255         , 0           , 0
-0.1770904  , 0.09982365  , -9.791108   , -0.000308218121, 0.000142904682, -0.000131554145, -0.009284789, -0.0182873216, 0.000321160653, 923.6391    , 29.8291531  , 773.9584    , 3.5         , 3           , 255         , 0           , 0
-0.185192376, 0.0962467343, -9.790779   , -2.86728209E-05, 0.000153237255, 0.000354773249, -0.009284845, -0.0182733163, 0.000324689056, 923.6391    , 29.8291531  , 774.0128    , 3.51        , 3           , 255         , 0           , 0
-0.181462318, 0.09047688  , -9.794256   , -2.80116619E-05, -0.000136702816, 8.927101E-05, -0.009285141, -0.0182746761, 0.000325594563, 923.6391    , 29.8291531  , 774.0122    , 3.52        , 3           , 255         , 0           , 0
-0.167134   , 0.09506854  , -9.779586   , 0.0002685106, -1.55869639E-05, 0.0003449432, -0.00928252 , -0.0182748  , 0.000329045783, 923.7061    , 29.8290863  , 774.0116    , 3.53        , 3           , 255         , 0           , 0
-0.172955722, 0.108922325 , -9.793758   , 0.00019393189, 5.8942067E-05, 0.000124316226, -0.009280602, -0.0182742  , 0.000330283568, 923.7061    , 29.8290863  , 774.011     , 3.54        , 3           , 255         , 0           , 0
-0.182779029, 0.110149838 , -9.789623   , 0.000256906 , 0.0001822146, -0.0004946261, -0.009277943, -0.0182724223, 0.000325319939, 923.7061    , 29.8290863  , 774.0104    , 3.55        , 3           , 255         , 0           , 0
-0.192836657, 0.09700811  , -9.785017   , 0.0002836052, -0.00013211777, 0.000251725753, -0.009275153, -0.01827372 , 0.0003278497, 923.7061    , 29.8290863  , 774.009766  , 3.56        , 3           , 255         , 0           , 0
-0.189047679, 0.0901047438, -9.779877   , 0.000352062256, 2.02732335E-05, 0.000420420838, -0.009271709, -0.01827348 , 0.00033205247, 923.7061    , 29.8290863  , 774.009155  , 3.57        , 3           , 255         , 0           , 0
-0.175341576, 0.09411969  , -9.79146    , 0.000325824367, -3.761612E-05, 1.40035918E-05, -0.009268454, -0.0182738546, 0.000332195981, 923.7061    , 29.8290863  , 774.008545  , 3.58        , 3           , 255         , 0           , 0
-0.169681981, 0.08982772  , -9.781077   , -0.000828231743, 0.000349811366, 6.21091749E-06, -0.009276736, -0.0182703584, 0.0003322257, 923.7061    , 29.8290863  , 774.007935  , 3.59        , 3           , 255         , 0           , 0
-0.163405269, 0.072487    , -9.778974   , -0.00067728787, -0.000191927131, -9.334738E-05, -0.009283492, -0.0182722863, 0.000331309915, 923.7061    , 29.8290863  , 774.0073    , 3.6         , 3           , 255         , 0           , 0
-0.17137593 , 0.0859077945, -9.782754   , -0.0006380293, 0.000293852732, 0.0004685757, -0.009298607, -0.0182672217, 0.0003361268, 923.7061    , 29.8290863  , 773.9597    , 3.61        , 3           , 255         , 0           , 0
-0.1776871  , 0.0835321844, -9.787165   , -0.0001927927, 0.00021911251, 0.000276537845, -0.009300585, -0.0182650052, 0.0003388721, 923.7061    , 29.8290863  , 773.9588    , 3.62        , 3           , 255         , 0           , 0
-0.185249418, 0.08982149  , -9.784884   , -0.0002864292, 0.000398541568, 0.0002053403, -0.009303486, -0.018261   , 0.000340888568, 923.6906    , 29.8282719  , 773.9579    , 3.63        , 3           , 255         , 0           , 0
-0.194534957, 0.0922000557, -9.78861    , 0.000597883947, -4.07387561E-05, 0.00011383876, -0.009297527, -0.0182614  , 0.000342030922, 923.6906    , 29.8282719  , 773.957     , 3.64        , 3           , 255         , 0           , 0
-0.177113414, 0.09988578  , -9.785367   , 0.0003127817, 0.000201114832, 3.93877926E-05, -0.009294407, -0.0182593837, 0.000342406129, 923.6906    , 29.8282719  , 773.956055  , 3.65        , 3           , 255         , 0           , 0
-0.176521331, 0.09494625  , -9.78733    , -0.000174498346, -9.04209737E-05, -0.000220307818, -0.009296111, -0.0182603076, 0.000340211263, 923.6906    , 29.8282719  , 773.955139  , 3.66        , 3           , 255         , 0           , 0
-0.182119682, 0.08970173  , -9.797137   , -0.000627027533, 0.000319502 , -5.61061461E-05, -0.009302371, -0.0182571169, 0.0003396204, 923.6906    , 29.8282719  , 773.9542    , 3.67        , 3           , 255         , 0           , 0
-0.177287042, 0.08066021  , -9.79126    , -6.179069E-05, 0.000438122515, 0.000345665932, -0.009303052, -0.0182527024, 0.000343036634, 923.6906    , 29.8282719  , 773.9533    , 3.68        , 3           , 255         , 0           , 0
-0.1709472  , 0.08322895  , -9.790248   , 0.0004406725, 0.000129773718, -2.22964518E-05, -0.00929864 , -0.018251406, 0.000342801621, 923.6906    , 29.8282719  , 773.9524    , 3.69        , 3           , 255         , 0           , 0
-0.164823636, 0.0902856   , -9.793259   , 0.000286434166, 0.000173320412, -0.000170246814, -0.009295744, -0.0182496961, 0.000341082865, 923.6906    , 29.8282719  , 773.9515    , 3.7         , 3           , 255         , 0           , 0
-0.184580132, 0.09741888  , -9.791058   , 0.0004239601, 0.0005120848, 0.000641498 , -0.009288004, -0.0182426739, 0.000347384863, 923.6906    , 29.8282719  , 773.9341    , 3.71        , 3           , 255         , 0           , 0
-0.195494682, 0.09665002  , -9.792593   , -0.000128450454, 7.393907E-05, 0.0006042834, -0.009289397, -0.0182418767, 0.000353421376, 923.6906    , 29.8282719  , 773.9331    , 3.72        , 3           , 255         , 0           , 0
-0.184652835, 0.09060089  , -9.78403    , -0.000384788873, -1.71341817E-05, 0.0009248124, -0.009293414, -0.0182419587, 0.00036267197, 923.6623    , 29.8318672  , 773.9321    , 3.73        , 3           , 255         , 0           , 0
-0.173080474, 0.0986797   , -9.793351   , -0.000137342082, 0.000308522634, 0.000151815955, -0.009294814, -0.0182388648, 0.000364161649, 923.6623    , 29.8318672  , 773.931152  , 3.74        , 3           , 255         , 0           , 0
-0.169314042, 0.08988452  , -9.790146   , -4.93988773E-05, -0.0001470311, 0.000236270716, -0.00929535 , -0.0182403084, 0.000366538239, 923.6623    , 29.8318672  , 773.9302    , 3.75        , 3           , 255         , 0           , 0
-0.167164534, 0.09015497  , -9.785282   , 0.0002670113, -0.000323552726, -0.000303546665, -0.009292625, -0.0182435717, 0.0003635325, 923.6623    , 29.8318672  , 773.9292    , 3.76        , 3           , 255         , 0           , 0
-0.17699939 , 0.08940431  , -9.786169   , 0.000575529062, 2.158535E-05, 0.000801982067, -0.009287016, -0.0182432812, 0.0003715511, 923.6623    , 29.8318672  , 773.9282    , 3.77        , 3           , 255         , 0           , 0
-0.169542313, 0.102098785 , -9.782613   , 0.000374887371, -0.00022720822, 0.0008207459, -0.009283418, -0.0182454754, 0.000379780482, 923.6623    , 29.8318672  , 773.927246  , 3.78        , 3           , 255         , 0           , 0
-0.176437289, 0.105473123 , -9.781567   , -6.443826E-05, 6.674265E-06, 0.000125146064, -0.009284086, -0.0182453971, 0.000381031452, 923.6623    , 29.8318672  , 773.9263    , 3.79        , 3           , 255         , 0           , 0
-0.187849522, 0.09958801  , -9.789837   , -0.00045048687, -0.000229890546, 0.000672912865, -0.009288713, -0.0182476342, 0.00038778258, 923.6623    , 29.8318672  , 773.9253    , 3.8         , 3           , 255         , 0           , 0
-0.183195919, 0.09009191  , -9.788792   , -0.000131545457, 0.000283673318, 0.000381928752, -0.009300112, -0.0182446726, 0.0003917586, 923.6623    , 29.8318672  , 773.9519    , 3.81        , 3           , 255         , 0           , 0
-0.1824394  , 0.08679007  , -9.791624   , -0.000574030564, 0.000164034733, 0.0004596199, -0.009305936, -0.0182429887, 0.00039634  , 923.6623    , 29.8318672  , 773.9511    , 3.82        , 3           , 255         , 0           , 0
-0.178657964, 0.0876412839, -9.788195   , -0.000801791262, 5.878345E-05, -0.000237065891, -0.009313911, -0.0182424244, 0.0003939636, 923.6742    , 29.8303738  , 773.9503    , 3.83        , 3           , 255         , 0           , 0
-0.180940047, 0.08574034  , -9.786818   , -9.563811E-05, -0.00014759475, -0.000609857, -0.009314757, -0.0182439573, 0.0003878782, 923.6742    , 29.8303738  , 773.9495    , 3.84        , 3           , 255         , 0           , 0
-0.186500058, 0.0885242447, -9.787245   , 0.0003649882, -3.201174E-05, 0.0002236088, -0.009311147, -0.0182442572, 0.0003901175, 923.6742    , 29.8303738  , 773.9487    , 3.85        , 3           , 255         , 0           , 0
-0.174427629, 0.09857973  , -9.781882   , -0.000383242441, -0.0001445552, -0.000327282731, -0.009314922, -0.0182457324, 0.000386857777, 923.6742    , 29.8303738  , 773.947937  , 3.86        , 3           , 255         , 0           , 0
-0.179198384, 0.09574053  , -9.794885   , 7.012099E-05, -0.000239540852, -0.0007951591, -0.009314076, -0.0182482023, 0.000378927682, 923.6742    , 29.8303738  , 773.947144  , 3.87        , 3           , 255         , 0           , 0
-0.181570813, 0.09829657  , -9.791677   , -0.000185801269, 8.59850261E-05, 1.29100808E-05, -0.009315936, -0.0182473417, 0.000379048841, 923.6742    , 29.8303738  , 773.94635   , 3.88        , 3           , 255         , 0           , 0
-0.177154124, 0.0861763358, -9.789167   , -1.53461333E-05, -0.0003628705, 0.000688726548, -0.009316214, -0.0182509031, 0.000385970576, 923.6742    , 29.8303738  , 773.945557  , 3.89        , 3           , 255         , 0           , 0
-0.177418008, 0.0765916854, -9.792308   , 0.000293699384, 3.80407437E-06, 0.00037011347, -0.009313343, -0.01825083 , 0.000389671739, 923.6742    , 29.8303738  , 773.944763  , 3.9         , 3           , 255         , 0           , 0
-0.1771725  , 0.091673404 , -9.795659   , 0.000375748845, -0.000268911739, 0.0007088648, -0.009306764, -0.0182560273, 0.000396732241, 923.6742    , 29.8303738  , 773.9521    , 3.91        , 3           , 255         , 0           , 0
-0.169367731, 0.09714768  , -9.78805    , -7.945824E-05, -0.000122530386, 0.00021817052, -0.009307599, -0.0182572342, 0.000398925622, 923.6742    , 29.8303738  , 773.951355  , 3.92        , 3           , 255         , 0           , 0
-0.17275098 , 0.100969791 , -9.795019   , 0.000114102113, 9.98764E-05 , -0.0002884039, -0.009306406, -0.01825626 , 0.000396031974, 923.681335  , 29.8315277  , 773.9506    , 3.93        , 3           , 255         , 0           , 0
-0.1780002  , 0.09896725  , -9.79085    , 0.000475711335, 0.0004934252, 0.000222143644, -0.009301689, -0.0182513073, 0.000398207747, 923.681335  , 29.8315277  , 773.9499    , 3.94        , 3           , 255         , 0           , 0
-0.178049043, 0.0935543   , -9.788982   , 0.000361216749, 7.392373E-09, 0.000121744662, -0.009298098, -0.0182512961, 0.000399425335, 923.681335  , 29.8315277  , 773.949158  , 3.95        , 3           , 255         , 0           , 0
-0.181596547, 0.0967073441, -9.787313   , 0.000181755517, 0.0003943847, 0.0002920748, -0.009296334, -0.0182473324, 0.0004023097, 923.681335  , 29.8315277  , 773.9484    , 3.96        , 3           , 255         , 0           , 0
-0.178726748, 0.0919842944, -9.785193   , -0.000195879053, 0.0004223516, -0.000432449277, -0.009298215, -0.0182431471, 0.000397945551, 923.681335  , 29.8315277  , 773.9477    , 3.97        , 3           , 255         , 0           , 0
-0.173298508, 0.09583236  , -9.791814   , 0.000157684728, 0.000518733636, 0.000553958642, -0.009296738, -0.0182379074, 0.000403437472, 923.681335  , 29.8315277  , 773.94696   , 3.98        , 3           , 255         , 0           , 0
-0.179660946, 0.09414032  , -9.7942915  , 5.40679357E-05, -2.01870862E-05, 9.864347E-05, -0.009296215, -0.0182381012, 0.0004044259, 923.681335  , 29.8315277  , 773.9462    , 3.99        , 3           , 255         , 0           , 0
-0.169259489, 0.09252404  , -9.790177   , -9.249357E-05, 0.000337304082, -0.000668623543, -0.009297019, -0.01823479 , 0.000397707627, 923.681335  , 29.8315277  , 773.9455    , 4           , 3           , 0           , -1          , 400
-0.184316248, 0.0974345654, -9.789572   , 0.000652623945, 0.000526783639, 8.31910947E-05, -0.009296833, -0.0182251949, 0.000398605975, 923.681335  , 29.8315277  , 773.942444  , 4.01        , 3           , 1           , 0           , 0
-0.177540183, 0.0947539359, -9.793478   , 0.000209940612, -4.29457E-05, 0.00045566578, -0.009294818, -0.018225586, 0.000403167 , 923.681335  , 29.8315277  , 773.9417    , 4.02        , 3           , 2           , 0           , 0
-0.173318848, 0.0844465643, -9.786969   , -6.270452E-05, -0.000330339273, 8.623147E-05, -0.00929546 , -0.01822888 , 0.0004040601, 923.6609    , 29.8311214  , 773.941     , 4.03        , 3           , 3           , 0           , 0
-0.169381291, 0.08786907  , -9.795148   , -0.0005429678, -0.000316411752, -0.000121113488, -0.009300867, -0.01823205 , 0.000402878242, 923.6609    , 29.8311214  , 773.940247  , 4.04        , 3           , 4           , 0           , 0
-0.166526526, 0.09529458  , -9.789473   , 0.0007698519, -1.68975384E-05, -0.000583183952, -0.009293062, -0.0182322729, 0.000397047377, 923.6609    , 29.8311214  , 773.9395    , 4.05        , 3           , 5           , 0           , 0
-0.179213449, 0.09979058  , -9.785214   , 0.0002004892, -0.000112650217, -4.97440851E-05, -0.009291047, -0.0182334054, 0.000396560354, 923.6609    , 29.8311214  , 773.9388    , 4.06        , 3           , 6           , 0           , 0
-0.179977611, 0.0882505849, -9.795586   , 3.742732E-05, -0.00042196436, 0.000190284161, -0.009290708, -0.0182376038, 0.000398502569, 923.6609    , 29.8311214  , 773.938049  , 4.07        , 3           , 7           , 0           , 0
-0.175057456, 0.0910842046, -9.797375   , 0.0001396816, -0.0001736788, 0.000743751065, -0.009289448, -0.01823927 , 0.000405956933, 923.6609    , 29.8311214  , 773.9373    , 4.08        , 3           , 8           , 5           , 5
-0.167869329, 0.09343915  , -9.791609   , 0.000443991972, -0.000157839124, 0.0005706789, -0.009285111, -0.0182407964, 0.00041167895, 923.6609    , 29.8311214  , 773.9366    , 4.09        , 3           , 9           , 5           , 0.1
-0.174412727, 0.097818546 , -9.791045   , 0.000165692152, -0.000352969771, 7.307899E-05, -0.009283468, -0.01824432 , 0.0004124426, 923.6609    , 29.8311214  , 773.935852  , 4.1         , 3           , 10          , 0.1         , 0.1
-0.176420063, 0.09803955  , -9.790948   , -0.000325830653, -9.0646965E-05, -0.000347797759, -0.009289391, -0.0182400718, 0.000409022381, 923.6609    , 29.8311214  , 773.9635    , 4.11        , 3           , 11          , 0.00605650339, 0.006056499
-0.176952034, 0.09507606  , -9.796117   , -0.000303201959, -0.0001849567, -7.668394E-06, -0.009292421, -0.0182419214, 0.000408962835, 923.6609    , 29.8311214  , 773.962952  , 4.12        , 3           , 12          , 0.174648076 , 0
-0.176339716, 0.09407164  , -9.804258   , -0.000100960082, -0.0001676484, 0.0005630741, -0.009293534, -0.0182435457, 0.000414609764, 923.6983    , 29.8326817  , 773.9624    , 4.13        , 3           , 13          , 0           , 0
-0.180508777, 0.09487654  , -9.791241   , 0.000150940614, 0.000197399961, -6.466971E-05, -0.009292012, -0.0182415769, 0.0004139446, 923.6983    , 29.8326817  , 773.961853  , 4.14        , 3           , 14          , -5.64486945E-05, -0.000271922821
-0.178407878, 0.09513821  , -9.791002   , 0.00011957754, -4.64739569E-05, 2.184017E-05, -0.009290821, -0.01824204 , 0.000414167356, 923.6983    , 29.8326817  , 773.9613    , 4.15        , 3           , 15          , 0           , -9.692794E-05
-0.1801419  , 0.09566147  , -9.793078   , 0.000447334256, 0.000160445328, 0.000106552936, -0.00928636547, -0.0182404257, 0.000415218121, 923.6983    , 29.8326817  , 773.960754  , 4.16        , 3           , 16          , 0           , 1.401298E-45
-0.181723058, 0.09181489  , -9.794235   , 0.000506969 , -0.000359876052, -0.000105906984, -0.009281278, -0.0182440355, 0.000414192356, 923.6983    , 29.8326817  , 773.9602    , 4.17        , 3           , 20          , 0           , 0
-0.169449255, 0.0920441151, -9.791831   , -1.27972926E-05, 7.38246163E-05, -5.521725E-05, -0.009281395, -0.0182433035, 0.0004136333, 923.6983    , 29.8326817  , 773.959656  , 4.18        , 3           , 21          , 0           , 0
-0.179912284, 0.09487823  , -9.78303    , -0.000139382915, -0.000132147543, 3.909954E-07, -0.009282788, -0.0182446241, 0.000413649424, 923.6983    , 29.8326817  , 773.9591    , 4.19        , 3           , 22          , 0           , 0
-0.180779129, 0.101223551 , -9.786711   , -0.000165344885, 0.000216540633, 2.35325715E-05, -0.009284446, -0.018242456, 0.000413864647, 923.6983    , 29.8326817  , 773.958557  , 4.2         , 3           , 40          , 0           , 0
-0.1751457  , 0.101373695 , -9.793694   , 1.34774418E-05, -0.000139765, 0.000328734284, -0.009289868, -0.0182430632, 0.000417265575, 923.6983    , 29.8326817  , 773.9302    , 4.21        , 3           , 41          , 0           , 0
-0.18210113 , 0.09054307  , -9.781955   , 0.0007857507, -0.000247307762, -0.000116079529, -0.00928199 , -0.018245548, 0.000416127645, 923.6983    , 29.8326817  , 773.929443  , 4.22        , 3           , 42          , 0           , 0
-0.176814437, 0.09092887  , -9.786278   , 0.0005669251, -0.000564211863, 0.00106680638, -0.009276517, -0.0182510857, 0.0004268491, 923.6484    , 29.833971   , 773.9287    , 4.23        , 3           , 255         , 0           , 0
-0.175423086, 0.101411939 , -9.785573   , 0.000199331422, 1.56343449E-05, 0.000481491385, -0.00927461 , -0.0182508845, 0.0004316631, 923.6484    , 29.833971   , 773.928     , 4.24        , 3           , 255         , 0           , 0
-0.18151094 , 0.09365054  , -9.783288   , 0.000295256556, -2.42691312E-05, 0.0003238302, -0.009271718, -0.0182510987, 0.000434903952, 923.6484    , 29.833971   , 773.927246  , 4.25        , 3           , 255         , 0           , 0
-0.168638617, 0.0925021842, -9.779625   , 8.197165E-05, -0.0005038044, 0.000169676612, -0.00927093 , -0.0182561185, 0.000436647621, 923.6484    , 29.833971   , 773.9265    , 4.26        , 3           , 255         , 0           , 0
-0.179442137, 0.09028201  , -9.789153   , 0.000109481349, -0.0004339096, -8.50308643E-05, -0.00926982053, -0.0182604678, 0.0004358374, 923.6484    , 29.833971   , 773.9258    , 4.27        , 3           , 255         , 0           , 0
-0.179851085, 0.07924481  , -9.791071   , -0.000515576161, -0.00014232297, -0.000371637783, -0.00927491 , -0.0182619225, 0.000432133878, 923.6484    , 29.833971   , 773.925049  , 4.28        , 3           , 255         , 0           , 0
-0.177823424, 0.0914155543, -9.78832    , -6.270538E-05, -0.00025712786, -0.00033767728, -0.009275476, -0.0182645265, 0.0004287806, 923.6484    , 29.833971   , 773.9243    , 4.29        , 3           , 255         , 0           , 0
-0.179322585, 0.09322693  , -9.79292    , 9.898041E-05, -0.000392891, 0.0004192072, -0.009274562, -0.0182684176, 0.000433009554, 923.6484    , 29.833971   , 773.9236    , 4.3         , 3           , 255         , 0           , 0
-0.1772779  , 0.0841243342, -9.794485   , 0.000469688035, -2.809902E-05, 0.0012863481, -0.009273462, -0.0182665046, 0.000445938262, 923.6484    , 29.833971   , 773.970642  , 4.31        , 3           , 255         , 0           , 0
-0.176326632, 0.0864929557, -9.81533051 , 0.000484928576, 0.0006421713, 0.000245678064, -0.009268657, -0.0182600673, 0.000448335748, 923.6484    , 29.833971   , 773.9702    , 4.32        , 3           , 255         , 0           , 0
-0.179396331, 0.09313859  , -9.777628   , 4.25515827E-06, 0.0003343049, -0.000426879618, -0.009268536, -0.0182567611, 0.00044403557, 923.6625    , 29.8332233  , 773.9698    , 4.33        , 3           , 255         , 0           , 0
-0.173190683, 0.100018844 , -9.78506    , 0.000206199213, -0.000127818232, -7.552594E-05, -0.00926646 , -0.0182580482, 0.000443292054, 923.6625    , 29.8332233  , 773.96936   , 4.34        , 3           , 255         , 0           , 0
-0.189061046, 0.09535595  , -9.78438    , 0.000185738376, -0.000236635417, -6.212064E-05, -0.009264592, -0.01826042 , 0.000442692719, 923.6625    , 29.8332233  , 773.968933  , 4.35        , 3           , 255         , 0           , 0
-0.1727994  , 0.09334798  , -9.785837   , 0.000386903761, 0.00010051846, 0.000380630634, -0.009260793, -0.01825938 , 0.000446490129, 923.6625    , 29.8332233  , 773.9685    , 4.36        , 3           , 255         , 0           , 0
-0.174000561, 0.0952360258, -9.782653   , 0.000259003922, 6.593473E-05, 0.000416465336, -0.009258279, -0.0182586834, 0.000450649066, 923.6625    , 29.8332233  , 773.9681    , 4.37        , 3           , 255         , 0           , 0
-0.18454209 , 0.09433378  , -9.791231   , 1.2198816E-05, 0.000238501438, -0.0003233142, -0.009258097, -0.01825633 , 0.000447393541, 923.6625    , 29.8332233  , 773.967651  , 4.38        , 3           , 255         , 0           , 0
-0.1760734  , 0.09464523  , -9.794169   , -0.000270469551, 0.000618229853, -0.000100764344, -0.009260781, -0.0182501562, 0.000446328544, 923.6625    , 29.8332233  , 773.9672    , 4.39        , 3           , 255         , 0           , 0
-0.178932145, 0.089604    , -9.793504   , -0.000243208837, -9.056594E-05, 8.427938E-05, -0.009263229, -0.018251054, 0.000447179773, 923.6625    , 29.8332233  , 773.9668    , 4.4         , 3           , 255         , 0           , 0
-0.183074519, 0.08848302  , -9.792604   , -0.000180563424, -9.646427E-05, -0.000448096369, -0.00926769152, -0.018251149, 0.000442757242, 923.6625    , 29.8332233  , 773.988342  , 4.41        , 3           , 255         , 0           , 0
-0.181058377, 0.09791634  , -9.787461   , 0.0004568529, 0.000363394618, 0.000475627137, -0.00926321 , -0.0182474721, 0.000447480328, 923.6625    , 29.8332233  , 773.9881    , 4.42        , 3           , 255         , 0           , 0
-0.1796004  , 0.09231538  , -9.792679   , 7.391464E-05, 0.000114577837, 0.000153777626, -0.00926249847, -0.0182463117, 0.000449007668, 923.6436    , 29.8336315  , 773.987854  , 4.43        , 3           , 255         , 0           , 0
-0.185878664, 0.0926030651, -9.790823   , 0.000184056058, 0.000138844669, 0.000293046178, -0.00926071 , -0.0182448942, 0.0004519256, 923.6436    , 29.8336315  , 773.9876    , 4.44        , 3           , 255         , 0           , 0
-0.180821255, 0.09415118  , -9.782415   , -1.34061556E-05, -9.315513E-05, 0.000178304879, -0.009260877, -0.0182458125, 0.0004537174, 923.6436    , 29.8336315  , 773.987366  , 4.45        , 3           , 255         , 0           , 0
-0.1668637  , 0.091877684 , -9.791114   , -1.91238287E-05, -7.43817945E-05, -0.000224560863, -0.009261027, -0.0182465762, 0.000451478438, 923.6436    , 29.8336315  , 773.9871    , 4.46        , 3           , 255         , 0           , 0
-0.164857075, 0.0934807956, -9.783664   , 2.183042E-05, 0.000117520962, -0.000243779228, -0.009260764, -0.0182454214, 0.000449029554, 923.6436    , 29.8336315  , 773.9869    , 4.47        , 3           , 255         , 0           , 0
-0.18483521 , 0.09364234  , -9.789617   , 0.000285414164, -0.000132492976, -0.00102486007, -0.009257724, -0.0182468444, 0.000438792165, 923.6436    , 29.8336315  , 773.986633  , 4.48        , 3           , 255         , 0           , 0
-0.195514709, 0.09410572  , -9.79362    , -5.32320773E-05, -5.48205862E-05, -6.66787673E-06, -0.009258255, -0.018247392, 0.000438730523, 923.6436    , 29.8336315  , 773.9864    , 4.49        , 3           , 255         , 0           , 0
-0.184483   , 0.0986602455, -9.789141   , 0.0005605726, 0.000212394923, 0.000358861173, -0.009252714, -0.0182452332, 0.000442299817, 923.6436    , 29.8336315  , 773.986145  , 4.5         , 3           , 255         , 0           , 0
-0.182478368, 0.0919781253, -9.783921   , 9.978413E-05, 0.0003168105, 0.000462515716, -0.009256536, -0.0182452071, 0.000446982565, 923.6436    , 29.8336315  , 774.031555  , 4.51        , 3           , 255         , 0           , 0
-0.178400472, 0.09117418  , -9.78869    , 0.0006123208, 0.000245800824, -5.34253049E-05, -0.009250404, -0.0182427522, 0.0004464255, 923.6436    , 29.8336315  , 774.0316    , 4.52        , 3           , 255         , 0           , 0
-0.168796778, 0.08929317  , -9.791542   , 0.000214847518, -0.000169734034, -0.000352552161, -0.00924819149, -0.0182444826, 0.000442915334, 923.6667    , 29.8320026  , 774.0317    , 4.53        , 3           , 255         , 0           , 0
-0.18130435 , 0.08853667  , -9.790842   , 0.00021567  , 9.181211E-06, 1.299697E-05, -0.009246036, -0.01824439 , 0.000443044468, 923.6667    , 29.8320026  , 774.031738  , 4.54        , 3           , 255         , 0           , 0
-0.1793958  , 0.09959645  , -9.798889   , 0.000474212982, 0.000143207362, -0.000121868259, -0.009241273, -0.01824297 , 0.000441812444, 923.6667    , 29.8320026  , 774.0318    , 4.55        , 3           , 255         , 0           , 0
-0.180345088, 0.08993738  , -9.793555   , -0.000261579873, -0.000130169588, -0.000195643224, -0.009243852, -0.0182442889, 0.000439867843, 923.6667    , 29.8320026  , 774.03186   , 4.56        , 3           , 255         , 0           , 0
-0.187483   , 0.08937614  , -9.786199   , 7.288167E-05, -0.0002885846, -0.000323795481, -0.009243063, -0.0182472058, 0.0004366562, 923.6667    , 29.8320026  , 774.0319    , 4.57        , 3           , 255         , 0           , 0
-0.1828639  , 0.09607737  , -9.788797   , 9.804176E-05, -0.0004940126, -0.000402454374, -0.009242009, -0.0182521828, 0.000432676956, 923.6667    , 29.8320026  , 774.032     , 4.58        , 3           , 255         , 0           , 0
-0.183758721, 0.0922326   , -9.790513   , 0.0004981337, -0.0004195035, -6.729257E-05, -0.009237017, -0.0182563849, 0.000432042725, 923.6667    , 29.8320026  , 774.032043  , 4.59        , 3           , 255         , 0           , 0
-0.179669067, 0.09173183  , -9.797994   , 0.00045628706, 6.02383225E-05, -2.88048177E-05, -0.009232448, -0.0182557851, 0.000431749068, 923.6667    , 29.8320026  , 774.0321    , 4.6         , 3           , 255         , 0           , 0
-0.186673626, 0.09445667  , -9.788755   , -3.30311341E-05, 4.67887876E-05, -0.0005664348, -0.00923464 , -0.0182577427, 0.000426115759, 923.6667    , 29.8320026  , 774.0382    , 4.61        , 3           , 255         , 0           , 0
-0.17574504 , 0.09352005  , -9.78936    , -0.000119114164, 0.000247863936, -0.000196673238, -0.009235795, -0.01825528 , 0.00042412593, 923.6667    , 29.8320026  , 774.038269  , 4.62        , 3           , 255         , 0           , 0
-0.169915855, 0.09795652  , -9.784052   , -0.000230299847, 8.235332E-05, -7.956293E-05, -0.009238083, -0.0182544645, 0.000423322577, 923.652954  , 29.8325462  , 774.0383    , 4.63        , 3           , 255         , 0           , 0
-0.172628865, 0.09739333  , -9.791348   , 0.000175002177, -8.47553E-06, 0.000425284321, -0.00923641 , -0.01825451 , 0.000427576684, 923.652954  , 29.8325462  , 774.0384    , 4.64        , 3           , 255         , 0           , 0
-0.171746254, 0.107066855 , -9.786036   , 0.000174296918, -0.000235843647, 0.00103294966, -0.009234857, -0.0182567686, 0.000437928975, 923.652954  , 29.8325462  , 774.038452  , 4.65        , 3           , 255         , 0           , 0
-0.171183765, 0.102545559 , -9.792382   , 2.714567E-05, -0.00018117929, 0.000435266149, -0.009234666, -0.0182585418, 0.0004422988, 923.652954  , 29.8325462  , 774.0385    , 4.66        , 3           , 255         , 0           , 0
-0.172875792, 0.09947866  , -9.793127   , -6.306304E-05, -0.000503309537, 0.000220785121, -0.009235338, -0.0182635523, 0.000444553385, 923.652954  , 29.8325462  , 774.0386    , 4.67        , 3           , 255         , 0           , 0
-0.178747147, 0.09937827  , -9.792165   , -0.0003108327, 0.000152488181, 0.000368558452, -0.009238514, -0.0182619933, 0.0004482252, 923.652954  , 29.8325462  , 774.0387    , 4.68        , 3           , 255         , 0           , 0
-0.172755629, 0.09174443  , -9.783443   , -0.000234355233, 0.000335154822, -0.0004728766, -0.00924077 , -0.0182586871, 0.000443465 , 923.652954  , 29.8325462  , 774.0388    , 4.69        , 3           , 255         , 0           , 0
-0.185562536, 0.09139808  , -9.783449   , 7.293231E-05, 0.000298072526, -0.0004064869, -0.009239967, -0.0182557423, 0.0004393722, 923.652954  , 29.8325462  , 774.03894   , 4.7         , 3           , 255         , 0           , 0
-0.1760048  , 0.08332125  , -9.783398   , -0.0004713632, 5.31392143E-05, 7.293599E-05, -0.009256388, -0.0182503555, 0.000440310076, 923.652954  , 29.8325462  , 774.0636    , 4.71        , 3           , 255         , 0           , 0
-0.177232757, 0.08774073  , -9.790632   , -0.000367953151, -0.000318306236, 0.000488884747, -0.009260156, -0.0182534922, 0.000445228885, 923.652954  , 29.8325462  , 774.063843  , 4.72        , 3           , 255         , 0           , 0
-0.178529814, 0.086605154 , -9.781637   , 0.0002364092, -6.67028944E-05, -0.0003384378, -0.00925773 , -0.0182541888, 0.000441850338, 923.7187    , 29.8322067  , 774.0641    , 4.73        , 3           , 255         , 0           , 0
-0.177312568, 0.0972028449, -9.791206   , 0.000101169324, -4.23418242E-05, -0.000407369371, -0.009256645, -0.0182546489, 0.000437780167, 923.7187    , 29.8322067  , 774.064331  , 4.74        , 3           , 255         , 0           , 0
-0.175294831, 0.09916282  , -9.794236   , -0.000174754256, -9.508221E-06, -0.0006119965, -0.00925828 , -0.0182548  , 0.000431660475, 923.7187    , 29.8322067  , 774.0646    , 4.75        , 3           , 255         , 0           , 0
-0.170590714, 0.106614187 , -9.799917   , -0.0004963234, -2.32551247E-06, 0.000176569418, -0.009263275, -0.0182548054, 0.000433426525, 923.7187    , 29.8322067  , 774.0648    , 4.76        , 3           , 255         , 0           , 0
-0.176190376, 0.0957858   , -9.788649   , 2.48200813E-05, -0.0003408103, 0.0004609115, -0.009263112, -0.0182581712, 0.000438067655, 923.7187    , 29.8322067  , 774.065063  , 4.77        , 3           , 255         , 0           , 0
-0.171591848, 0.09544927  , -9.785743   , -0.00034326798, 0.0002820535, -0.000780816947, -0.009266403, -0.0182554219, 0.0004302326, 923.7187    , 29.8322067  , 774.0653    , 4.78        , 3           , 255         , 0           , 0
-0.179132134, 0.08930266  , -9.79173851 , -0.000113241986, -0.000194978347, 0.000228698715, -0.009267577, -0.0182573516, 0.0004325379, 923.7187    , 29.8322067  , 774.065552  , 4.79        , 3           , 255         , 0           , 0
-0.178559959, 0.09369169  , -9.792623   , -0.0002965084, -0.000151312735, -0.000255349, -0.009270495, -0.0182588864, 0.000429998152, 923.7187    , 29.8322067  , 774.0658    , 4.8         , 3           , 255         , 0           , 0
-0.168604672, 0.0937844738, -9.788244   , 0.000185764133, -0.000288519659, 4.26642655E-05, -0.009272685, -0.01825795 , 0.000430525339, 923.7187    , 29.8322067  , 773.994     , 4.81        , 3           , 255         , 0           , 0
-0.179262489, 0.0861838   , -9.784851   , -0.000246733543, -0.000286425871, 0.000147963248, -0.009275178, -0.0182608  , 0.000432031666, 923.7187    , 29.8322067  , 773.993835  , 4.82        , 3           , 255         , 0           , 0
-0.185351044, 0.0937865451, -9.787718   , -0.0007767157, 5.6188117E-05, 0.0007888686, -0.00928309 , -0.01826016 , 0.000439915864, 923.6509    , 29.8318672  , 773.993652  , 4.83        , 3           , 255         , 0           , 0
-0.184184134, 0.0902980343, -9.789996   , -4.429461E-06, -5.430242E-05, -0.000119735989, -0.009283112, -0.0182607137, 0.000438723451, 923.6509    , 29.8318672  , 773.993469  , 4.84        , 3           , 255         , 0           , 0
