Acc X       , Acc Y       , Acc Z       , Gyro X      , Gyro Y      , Gyro Z      , Euler X     , Euler Y     , Euler Z     , Pres X      , Pres Y      , Pres Z      , Time        , Status      , LowRate X   , LowRate Y   , LowRate Z    
9.786266    , 0.04676842  , -0.128913924, 0           , 0           , 0           , -0.348021477, 1.55678415  , 0           , 921.4728    , 29.124342   , 793.77655   , 0           , 2           , 0           , 5.4772315   , 0
9.794973    , 0.03901721  , -0.113383435, 0.00034052413, 0.008689243 , -0.000183917029, -0.348021477, 1.55686951  , -4.02331352E-06, 921.4728    , 29.124342   , 793.77655   , 0.01        , 3           , 1           , 0           , 0
9.806353    , 0.0454010665, -0.103662416, 0.000168894767, 0.008409615 , 0.000392273534, -0.348021477, 1.55695534  , -5.87105751E-06, 921.4728    , 29.124342   , 793.77655   , 0.02        , 3           , 2           , 0           , 0
9.781156    , 0.040465802 , -0.10130544 , 9.435229E-05, 0.007053942 , -0.0001140784, -0.348021477, 1.55699849  , -6.97374344E-06, 921.383667  , 28.73839    , 793.77655   , 0.03        , 3           , 3           , 0           , 0
9.790225    , 0.04040405  , -0.09456491 , -0.0002848748, 0.00655716145, 0.0005236568, -0.348021477, 1.55707645  , -4.29153442E-06, 921.383667  , 28.73839    , 793.77655   , 0.04        , 3           , 4           , 0           , 0
9.782215    , 0.0413957462, -0.101120368, 2.27518613E-05, 0.00486501539, 0.000143691956, -0.348021477, 1.55711126  , -4.61936E-06, 921.383667  , 28.73839    , 793.77655   , 0.05        , 3           , 5           , 0           , 0
9.785873    , 0.03952769  , -0.0951504  , -0.0003972082, 0.00423463155, 0.000198703259, -0.348021477, 1.55715048  , -7.4505806E-07, 921.383667  , 28.73839    , 793.77655   , 0.06        , 3           , 6           , 0           , 0
9.789401    , 0.0462425873, -0.0959071442, -6.03969675E-05, 0.0016392133, 0.000261872483, -0.348021477, 1.55718553  , -1.1920929E-07, 921.383667  , 28.73839    , 793.77655   , 0.07        , 3           , 7           , 0           , 0
9.789039    , 0.0469559953, -0.09939794 , -0.0002800671, 0.000155486166, -0.000541900867, -0.348021477, 1.55718112  , 2.62260437E-06, 921.383667  , 28.73839    , 793.77655   , 0.08        , 3           , 8           , 5           , 5
9.787703    , 0.0334389545, -0.115569293, 0.000341221923, 7.35465437E-05, -0.000543235568, -0.348021477, 1.55717242  , -8.34465E-07, 921.383667  , 28.73839    , 793.77655   , 0.09        , 3           , 9           , 5           , 0.1
9.790043    , 0.04284844  , -0.107826069, -0.000175624038, -0.0002625411, 4.207471E-05, -0.348021477, 1.557168    , 9.23872E-07 , 921.383667  , 28.73839    , 793.77655   , 0.1         , 3           , 10          , 0.1         , 0.1
9.789054    , 0.0497070625, -0.108199552, -0.000455249625, 0.0007451668, 0.000439038267, -0.348021477, 1.55730426  , 5.632639E-06, 921.383667  , 28.73839    , 794.5799    , 0.11        , 3           , 11          , 0.0109544508, 0.0109544508
9.803289    , 0.0395212732, -0.110820532, 9.88146057E-05, 0.00183984789, 0.0005710488, -0.348021477, 1.55732191  , 4.67896461E-06, 921.383667  , 28.73839    , 794.5799    , 0.12        , 3           , 12          , 0.174642488 , 0
9.796473    , 0.0424508825, -0.09290407 , -0.0002995539, -0.000156184891, -0.000416807219, -0.348021477, 1.55732191  , 7.62939453E-06, 921.3983    , 28.7820129  , 794.5799    , 0.13        , 3           , 13          , 0           , 0
9.794656    , 0.04428034  , -0.106143817, -0.0005032071, -0.00190072483, 0.000194570515, -0.348021477, 1.55730426  , 1.2755394E-05, 921.3983    , 28.7820129  , 794.5799    , 0.14        , 3           , 14          , 0.00121122913, 0.001049619
9.795886    , 0.0553152971, -0.102816656, 0.000290974858, -0.00324932486, 3.04237183E-05, -0.348021477, 1.5572778   , 9.924173E-06, 921.3983    , 28.7820129  , 794.5799    , 0.15        , 3           , 15          , 0           , 0.0003833169
9.794124    , 0.0429141447, -0.110734761, -8.6654094E-05, -0.0033784085, 0.0004459223, -0.348021477, 1.55723822  , 1.090765E-05, 921.3983    , 28.7820129  , 794.5799    , 0.16        , 3           , 16          , 0           , 1.401298E-45
9.791811    , 0.0475469157, -0.113859512, 0.000693885842, -0.002125925, 0.00030492217, -0.348021477, 1.55722058  , 4.082918E-06, 921.3983    , 28.7820129  , 794.5799    , 0.17        , 3           , 20          , 0           , 0
9.789105    , 0.0420367271, -0.111114189, 0.0005663842, -0.001924216, -0.000153296423, -0.348021477, 1.55720747  , -1.54972076E-06, 921.3983    , 28.7820129  , 794.5799    , 0.18        , 3           , 21          , 0           , 0
9.789309    , 0.05511998  , -0.101221204, -0.0003704136, -0.00224644 , -0.000311213662, -0.348021477, 1.55718553  , 2.20537186E-06, 921.3983    , 28.7820129  , 794.5799    , 0.19        , 3           , 22          , 0           , 0
9.797806    , 0.0390921831, -0.1037098  , -0.000336586731, -0.00402694568, -7.43188139E-05, -0.348021477, 1.55715048  , 5.60283661E-06, 921.3983    , 28.7820129  , 794.5799    , 0.2         , 3           , 40          , 0           , 0
9.79546     , 0.0417295843, -0.112524316, 0.0001917294, -0.00343990372, -0.000247772725, -0.348021477, 1.55718553  , 3.874302E-06, 921.3983    , 28.7820129  , 794.513855  , 0.21        , 3           , 41          , 0           , 0
9.797706    , 0.0433157161, -0.105726108, -9.212922E-05, -0.00350933662, -0.0003599483, -0.348021477, 1.55714619  , 4.85777855E-06, 921.3983    , 28.7820129  , 794.5139    , 0.22        , 3           , 42          , 0           , 0
9.779206    , 0.0564897656, -0.12040554 , 0.000127846026, -0.00325790141, -0.000161476986, -0.348021477, 1.55711567  , 3.63588333E-06, 921.465454  , 28.8058243  , 794.514     , 0.23        , 3           , 255         , 0           , 0
9.792124    , 0.0496318527, -0.106460832, 6.697839E-06, -0.00248974422, -7.465607E-05, -0.348021477, 1.55708957  , 3.66568565E-06, 921.465454  , 28.8058243  , 794.514038  , 0.24        , 3           , 255         , 0           , 0
9.793036    , 0.0474183373, -0.11404866 , 0.000209718826, -0.00310000032, -0.000261578825, -0.348021477, 1.55706346  , 1.57952309E-06, 921.465454  , 28.8058243  , 794.5141    , 0.25        , 3           , 255         , 0           , 0
9.790242    , 0.04158124  , -0.132430136, 0.000219019479, -0.000817498541, -5.424724E-05, -0.348021477, 1.557046    , -5.662441E-07, 921.465454  , 28.8058243  , 794.51416   , 0.26        , 3           , 255         , 0           , 0
9.791954    , 0.0361021981, -0.124939144, 9.82387E-05 , 0.00251718471, 1.52719731E-05, -0.348021477, 1.55707216  , -1.54972076E-06, 921.465454  , 28.8058243  , 794.5142    , 0.27        , 3           , 255         , 0           , 0
9.801859    , 0.04057788  , -0.110090092, 1.35265291E-05, 0.00165213679, 0.000239550427, -0.348021477, 1.55708957  , -1.66893E-06, 921.465454  , 28.8058243  , 794.5143    , 0.28        , 3           , 255         , 0           , 0
9.784021    , 0.05452683  , -0.113026537, -0.000167811289, 0.0004848711, 0.000270452 , -0.348021477, 1.55710256  , 0           , 921.465454  , 28.8058243  , 794.514343  , 0.29        , 3           , 255         , 0           , 0
9.79217148  , 0.04457002  , -0.10359142 , -0.000288411684, 0.00064560317, 0.0006823824, -0.348021477, 1.55711567  , 2.92062759E-06, 921.465454  , 28.8058243  , 794.5144    , 0.3         , 3           , 255         , 0           , 0
9.796685    , 0.04152725  , -0.112992331, 0.000128576765, 0.000754848 , 0.0002697538, -0.348021477, 1.557168    , 1.78813934E-06, 921.465454  , 28.8058243  , 794.2892    , 0.31        , 3           , 255         , 0           , 0
9.794367    , 0.0368934348, -0.111379586, 5.55377919E-05, 0.00141969719, -0.0003837473, -0.348021477, 1.55717671  , 1.13248825E-06, 921.465454  , 28.8058243  , 794.289246  , 0.32        , 3           , 255         , 0           , 0
9.787207    , 0.037651293 , -0.112493493, 0.000344935223, 0.000357192126, -0.0006419783, -0.348021477, 1.55717671  , -2.38418579E-06, 921.4728    , 28.821497   , 794.2893    , 0.33        , 3           , 255         , 0           , 0
9.778041    , 0.04312705  , -0.112923682, 5.025987E-05, 0.00180182885, -0.0003008719, -0.348021477, 1.55719864  , -2.92062759E-06, 921.4728    , 28.821497   , 794.289368  , 0.34        , 3           , 255         , 0           , 0
9.786704    , 0.0413898155, -0.1051265  , 0.000446408871, 0.001567103 , -0.0006663167, -0.348021477, 1.557203    , -7.4505806E-06, 921.4728    , 28.821497   , 794.2894    , 0.35        , 3           , 255         , 0           , 0
9.79861     , 0.0427121148, -0.101195909, 9.907549E-05, 0.000216089073, 0.00033436215, -0.348021477, 1.55720747  , -8.434057E-06, 921.4728    , 28.821497   , 794.2895    , 0.36        , 3           , 255         , 0           , 0
9.790134    , 0.0569522977, -0.105920412, 5.04127238E-05, -3.17599624E-05, 7.773141E-05, -0.348021477, 1.55720747  , -8.970499E-06, 921.4728    , 28.821497   , 794.289551  , 0.37        , 3           , 255         , 0           , 0
9.788103    , 0.0520514026, -0.100964405, -0.000328318682, -0.000459927949, -0.000945802662, -0.348021477, 1.55719423  , -5.78165054E-06, 921.4728    , 28.821497   , 794.2896    , 0.38        , 3           , 255         , 0           , 0
9.78261852  , 0.0449792333, -0.125343278, 0.000125925522, -0.000892974553, -0.000899211562, -0.348021477, 1.55718553  , -7.033348E-06, 921.4728    , 28.821497   , 794.2897    , 0.39        , 3           , 255         , 0           , 0
9.789861    , 0.0443100557, -0.113452554, 0.000122774392, 0.00100793387, -0.000351938419, -0.348021477, 1.55719423  , -8.285046E-06, 921.4728    , 28.821497   , 794.289734  , 0.4         , 3           , 255         , 0           , 0
9.798247    , 0.04098915  , -0.11275582 , -0.000128380023, 0.000249746139, 0.000256760133, -0.348021477, 1.557269    , -6.88433647E-06, 921.4728    , 28.821497   , 794.159668  , 0.41        , 3           , 255         , 0           , 0
9.803134    , 0.05058434  , -0.103829421, 0.000140762073, 0.000702450634, 0.000434840185, -0.348021477, 1.55728662  , -8.255243E-06, 921.4728    , 28.821497   , 794.1597    , 0.42        , 3           , 255         , 0           , 0
9.78878     , 0.0436502   , -0.09206474 , -2.68392032E-05, -0.00129449 , 0.000383675535, -0.348021477, 1.557269    , -7.95722E-06, 921.4658    , 28.8373718  , 794.1598    , 0.43        , 3           , 255         , 0           , 0
9.78877449  , 0.0418122821, -0.101860605, -0.000401679368, -0.00409183558, 0.0004146764, -0.348021477, 1.55723381  , -3.784895E-06, 921.4658    , 28.8373718  , 794.159851  , 0.44        , 3           , 255         , 0           , 0
9.786616    , 0.0466965549, -0.109556079, -0.000417383679, -0.00533531234, 0.000213441235, -0.348021477, 1.55717671  , 5.364418E-07, 921.4658    , 28.8373718  , 794.1599    , 0.45        , 3           , 255         , 0           , 0
9.791862    , 0.0478290543, -0.115401253, -2.546038E-05, -0.00366088585, 0.00043685417, -0.348021477, 1.55714619  , 8.64267349E-07, 921.4658    , 28.8373718  , 794.16      , 0.46        , 3           , 255         , 0           , 0
9.793739    , 0.0432042554, -0.116214529, 0.000545699149, -0.001619058, 9.174994E-05, -0.348021477, 1.55713749  , -4.55975533E-06, 921.4658    , 28.8373718  , 794.160034  , 0.47        , 3           , 255         , 0           , 0
9.79278851  , 0.0308518074, -0.111722611, 0.000478340662, -9.024789E-05, -0.00022260446, -0.348021477, 1.55714619  , -9.298325E-06, 921.4658    , 28.8373718  , 794.1601    , 0.48        , 3           , 255         , 0           , 0
9.791721    , 0.04423569  , -0.112639822, -0.000219702953, 0.00054881745, -3.745596E-05, -0.348021477, 1.55713749  , -7.122755E-06, 921.4658    , 28.8373718  , 794.160156  , 0.49        , 3           , 255         , 0           , 0
9.794933    , 0.0368290469, -0.115821958, 0.000338344718, 0.00208670739, -9.71744E-05, -0.348021477, 1.55715489  , -1.052022E-05, 921.4658    , 28.8373718  , 794.1602    , 0.5         , 3           , 255         , 0           , 0
9.787092    , 0.0381185152, -0.113737151, 0.00011979288, 0.00216431124, -0.000127316453, -0.348021477, 1.5572294   , -1.168251E-05, 921.4658    , 28.8373718  , 794.094543  , 0.51        , 3           , 255         , 0           , 0
9.785015    , 0.0512839071, -0.117235005, -0.000455587346, 0.00223378045, 0.000148600084, -0.348021477, 1.55726457  , -7.15255737E-06, 921.4658    , 28.8373718  , 794.0946    , 0.52        , 3           , 255         , 0           , 0
9.784428    , 0.04891823  , -0.11510165 , 0.000241643633, 0.00336275226, 1.05223735E-05, -0.348021477, 1.55729544  , -9.62615E-06, 921.402     , 28.8432732  , 794.094666  , 0.53        , 3           , 255         , 0           , 0
9.796076    , 0.0503489748, -0.109832369, -0.0003689204, 0.00346205966, 0.0003116817, -0.348021477, 1.55732644  , -6.020069E-06, 921.402     , 28.8432732  , 794.0947    , 0.54        , 3           , 255         , 0           , 0
9.799728    , 0.0422423668, -0.107071221, -0.000671734742, 0.00229703612, -9.64747451E-05, -0.348021477, 1.55734408  , 6.2584877E-07, 921.402     , 28.8432732  , 794.0948    , 0.55        , 3           , 255         , 0           , 0
9.796118    , 0.0517561547, -0.107246831, -0.0006543988, 0.00115435291, 0.000254545826, -0.348021477, 1.55735743  , 7.1823597E-06, 921.402     , 28.8432732  , 794.094849  , 0.56        , 3           , 255         , 0           , 0
9.78793049  , 0.0529668443, -0.103228927, -0.000150136068, 0.0005411381, -0.000162262935, -0.348021477, 1.55735743  , 8.702278E-06, 921.402     , 28.8432732  , 794.0949    , 0.57        , 3           , 255         , 0           , 0
9.791609    , 0.0480666831, -0.10488341 , 0.001024865 , 0.000226163887, -0.000684982, -0.348021477, 1.55735743  , -1.57952309E-06, 921.402     , 28.8432732  , 794.095     , 0.58        , 3           , 255         , 0           , 0
9.797223    , 0.04401801  , -0.112784132, 0.000100885169, 0.0009999999, -0.000184430246, -0.348021477, 1.55736625  , -2.592802E-06, 921.402     , 28.8432732  , 794.095032  , 0.59        , 3           , 255         , 0           , 0
9.785444    , 0.0510623381, -0.109005257, -0.0006952416, 0.0014716005, -4.322501E-05, -0.348021477, 1.557384    , 4.351139E-06, 921.402     , 28.8432732  , 794.0951    , 0.6         , 3           , 255         , 0           , 0
9.78785     , 0.05477357  , -0.105027318, 0.000196979381, 0.000844042748, -0.0005330902, -0.348021477, 1.55743742  , 2.503395E-06, 921.402     , 28.8432732  , 794.1508    , 0.61        , 3           , 255         , 0           , 0
9.787546    , 0.0527912453, -0.108226553, -6.841682E-05, 0.00106708135, -0.000246267824, -0.348021477, 1.557442    , 3.15904617E-06, 921.402     , 28.8432732  , 794.1509    , 0.62        , 3           , 255         , 0           , 0
9.793139    , 0.03655863  , -0.111804567, 0.000183205586, 0.00103084615, -0.0008350929, -0.348021477, 1.55745089  , 1.28149986E-06, 921.4395    , 28.8491764  , 794.15094   , 0.63        , 3           , 255         , 0           , 0
9.79560852  , 0.0451152548, -0.09627809 , 0.0005083111, -0.00208012015, -0.0008648407, -0.348021477, 1.557433    , -3.81469727E-06, 921.4395    , 28.8491764  , 794.151     , 0.64        , 3           , 255         , 0           , 0
9.792707    , 0.05467843  , -0.110632516, 0.000221532187, -0.003978842, -0.000886517169, -0.348021477, 1.55738842  , -5.96046448E-06, 921.4395    , 28.8491764  , 794.151062  , 0.65        , 3           , 255         , 0           , 0
9.79482651  , 0.044572264 , -0.112238131, -0.000325308065, -0.00364200585, -0.000178840375, -0.348021477, 1.55736184  , -2.62260437E-06, 921.4395    , 28.8491764  , 794.1512    , 0.66        , 3           , 255         , 0           , 0
9.799063    , 0.05319978  , -0.111803517, -4.92802355E-05, -0.00310717337, -0.000281786954, -0.348021477, 1.5573175   , -2.08616257E-06, 921.4395    , 28.8491764  , 794.1513    , 0.67        , 3           , 255         , 0           , 0
9.788257    , 0.05304578  , -0.113987848, -0.000259460474, -0.00150304171, -0.000165514968, -0.348021477, 1.55730426  , 5.96046448E-07, 921.4395    , 28.8491764  , 794.1514    , 0.68        , 3           , 255         , 0           , 0
9.788375    , 0.0511081927, -0.111818209, 7.50504E-05 , -0.00117075839, -0.000405128434, -0.348021477, 1.55729544  , -1.49011612E-07, 921.4395    , 28.8491764  , 794.15155   , 0.69        , 3           , 255         , 0           , 0
9.782566    , 0.05636871  , -0.114468373, -0.0002920233, -0.0005139224, 0.0001696733, -0.348021477, 1.557291    , 2.74181366E-06, 921.4395    , 28.8491764  , 794.1517    , 0.7         , 3           , 255         , 0           , 0
9.78956     , 0.047972817 , -0.114075944, 2.83252448E-05, -0.000133078313, -8.74646648E-05, -0.348021477, 1.55733967  , 2.74181366E-06, 921.4395    , 28.8491764  , 794.1406    , 0.71        , 3           , 255         , 0           , 0
9.79757     , 0.04774201  , -0.106961511, 0.0004250101, -0.000160671538, -0.000429908716, -0.348021477, 1.55733967  , -1.49011612E-06, 921.4395    , 28.8491764  , 794.140747  , 0.72        , 3           , 255         , 0           , 0
9.79725552  , 0.0445285477, -0.09936784 , 0.000385495019, -0.0008225966, 0.0002986743, -0.348021477, 1.55732191  , -5.30481339E-06, 921.4558    , 28.85847    , 794.140869  , 0.73        , 3           , 255         , 0           , 0
9.788637    , 0.0507533364, -0.110909149, -0.0003605694, -0.00208218861, -9.735656E-05, -0.348021477, 1.55730426  , -1.66893E-06, 921.4558    , 28.85847    , 794.141     , 0.74        , 3           , 255         , 0           , 0
9.789767    , 0.0480791   , -0.120263651, 4.68108337E-05, -0.0004805777, -0.0009842993, -0.348021477, 1.55729544  , -2.14576721E-06, 921.4558    , 28.85847    , 794.1411    , 0.75        , 3           , 255         , 0           , 0
9.790597    , 0.05817773  , -0.113834426, -0.000145187252, 0.000538670341, -0.000764858734, -0.348021477, 1.55729985  , -7.748604E-07, 921.4558    , 28.85847    , 794.141235  , 0.76        , 3           , 255         , 0           , 0
9.785996    , 0.0575133339, -0.118060686, -0.0001401176, 0.00241353083, -0.000457122136, -0.348021477, 1.55732644  , 5.96046448E-07, 921.4558    , 28.85847    , 794.141357  , 0.77        , 3           , 255         , 0           , 0
9.794998    , 0.0504587479, -0.1094764  , -3.26199224E-05, 0.003720697 , 6.789417E-05, -0.348021477, 1.55735743  , 7.748604E-07, 921.4558    , 28.85847    , 794.1415    , 0.78        , 3           , 255         , 0           , 0
9.790319    , 0.048424013 , -0.107406422, -4.554086E-05, 0.004068012 , 0.000373860967, -0.348021477, 1.55739737  , 1.13248825E-06, 921.4558    , 28.85847    , 794.1416    , 0.79        , 3           , 255         , 0           , 0
9.796034    , 0.0470881127, -0.09731558 , 0.0005045135, 0.003522716 , -3.24041466E-05, -0.348021477, 1.5574286   , -3.993511E-06, 921.4558    , 28.85847    , 794.1417    , 0.8         , 3           , 255         , 0           , 0
9.794423    , 0.04434379  , -0.10985925 , -0.0004064872, 0.00208487548, -0.000205878532, -0.348021477, 1.55749118  , 2.08616257E-07, 921.4558    , 28.85847    , 794.1126    , 0.81        , 3           , 255         , 0           , 0
9.79314     , 0.03904767  , -0.11101903 , -0.000317951315, 0.00180867349, -0.0003156994, -0.348021477, 1.55750906  , 3.30805779E-06, 921.4558    , 28.85847    , 794.1127    , 0.82        , 3           , 255         , 0           , 0
9.804924    , 0.0491855741, -0.109578252, -5.86523674E-06, 0.000766866957, -0.000419928547, -0.348021477, 1.55750906  , 3.36766243E-06, 921.4251    , 28.8611832  , 794.112732  , 0.83        , 3           , 255         , 0           , 0
9.789279    , 0.0614259653, -0.11226362 , -0.0001282976, 0.000150670181, -0.0009016356, -0.348021477, 1.55751359  , 4.55975533E-06, 921.4251    , 28.8611832  , 794.1128    , 0.84        , 3           , 255         , 0           , 0
9.788911    , 0.0465987846, -0.106291816, -0.000434230431, -0.000453134766, 0.000608465634, -0.348021477, 1.55750453  , 8.970499E-06, 921.4251    , 28.8611832  , 794.112854  , 0.85        , 3           , 255         , 0           , 0
9.789717    , 0.0343489274, -0.105576   , -0.000306003843, -0.0009553114, 0.000356124336, -0.348021477, 1.55750012  , 1.20997429E-05, 921.4251    , 28.8611832  , 794.1129    , 0.86        , 3           , 255         , 0           , 0
9.791047    , 0.0463994071, -0.09901394 , 0.000253458158, -0.00271225488, -0.0005336335, -0.348021477, 1.55746877  , 9.62615E-06 , 921.4251    , 28.8611832  , 794.113     , 0.87        , 3           , 255         , 0           , 0
9.798967    , 0.0457899049, -0.106151506, 0.000126542174, -0.00248033786, 0.000184624136, -0.348021477, 1.557442    , 8.434057E-06, 921.4251    , 28.8611832  , 794.113037  , 0.88        , 3           , 255         , 0           , 0
9.791927    , 0.04748895  , -0.104030691, -0.0003483977, -0.00178404723, 0.000135920913, -0.348021477, 1.55742407  , 1.20103359E-05, 921.4251    , 28.8611832  , 794.113159  , 0.89        , 3           , 255         , 0           , 0
9.780638    , 0.0450846739, -0.114598393, 0.000267280033, 8.191797E-06, -7.064387E-05, -0.348021477, 1.557433    , 9.298325E-06, 921.4251    , 28.8611832  , 794.1133    , 0.9         , 3           , 255         , 0           , 0
9.782403    , 0.0510140769, -0.113847315, 0.0003142798, 0.00229518069, -0.0005174511, -0.348021477, 1.55750012  , 6.16908073E-06, 921.4251    , 28.8611832  , 794.125244  , 0.91        , 3           , 255         , 0           , 0
9.805046    , 0.0462781265, -0.105849862, -9.970425E-05, 0.003325921 , -0.000306540751, -0.348021477, 1.55752707  , 7.06315041E-06, 921.4251    , 28.8611832  , 794.125366  , 0.92        , 3           , 255         , 0           , 0
9.780893    , 0.0517254472, -0.108137749, -0.000506955257, 0.00161756529, 0.0003753607, -0.348021477, 1.557545    , 1.21295452E-05, 921.444946  , 28.8668137  , 794.1255    , 0.93        , 3           , 255         , 0           , 0
9.797971    , 0.0491993427, -0.11032261 , 0.000145432889, 0.00145691843, 0.000114512892, -0.348021477, 1.55755854  , 1.07288361E-05, 921.444946  , 28.8668137  , 794.1256    , 0.94        , 3           , 255         , 0           , 0
9.795881    , 0.04038349  , -0.0999304056, 0.000239747926, -0.00122236274, 0.000634058844, -0.348021477, 1.55754948  , 8.374453E-06, 921.444946  , 28.8668137  , 794.125732  , 0.95        , 3           , 255         , 0           , 0
9.785085    , 0.0342154577, -0.114743568, -0.0001864474, -0.00114432687, -0.000243797273, -0.348021477, 1.55753148  , 1.03414059E-05, 921.444946  , 28.8668137  , 794.125854  , 0.96        , 3           , 255         , 0           , 0
9.784139    , 0.0382292159, -0.105888426, 0.0003064006, -0.000471090432, 0.000208852609, -0.348021477, 1.55753148  , 7.301569E-06, 921.444946  , 28.8668137  , 794.126     , 0.97        , 3           , 255         , 0           , 0
9.778295    , 0.0512524173, -0.114078067, -0.000258136773, 0.0006893084, 0.000354444754, -0.348021477, 1.55753148  , 9.864569E-06, 921.444946  , 28.8668137  , 794.1261    , 0.98        , 3           , 255         , 0           , 0
9.795824    , 0.0488568358, -0.098779276, 0.000248754979, 0.0009730689, 0.000471813924, -0.348021477, 1.55754948  , 7.42077827E-06, 921.444946  , 28.8668137  , 794.1262    , 0.99        , 3           , 255         , 0           , 0
9.791938    , 0.0491331927, -0.0993078  , 0.0004261732, -0.00142750866, -0.000231812359, -0.348021477, 1.55753148  , 3.24845314E-06, 921.444946  , 28.8668137  , 794.126343  , 1           , 3           , 0           , 6.47723627  , 100
9.784782    , 0.0486931   , -0.113969579, -0.000209440128, -0.00214966945, -2.32050661E-05, -0.348021477, 1.55756748  , 5.48362732E-06, 921.444946  , 28.8668137  , 794.1146    , 1.01        , 3           , 1           , 0           , 0
9.786147    , 0.0522551052, -0.110193714, 1.564715E-05, -0.00263767224, 0.0006536916, -0.348021477, 1.55754054  , 5.48362732E-06, 921.444946  , 28.8668137  , 794.114746  , 1.02        , 3           , 2           , 0           , 0
9.789235    , 0.05318288  , -0.116851449, -6.616744E-05, -0.00237601437, -7.155983E-05, -0.348021477, 1.557518    , 6.198883E-06, 921.4618    , 28.8704777  , 794.114868  , 1.03        , 3           , 3           , 0           , 0
9.788349    , 0.03949805  , -0.123845376, -0.0003193305, -0.000230982783, -0.000122878817, -0.348021477, 1.55751359  , 9.387732E-06, 921.4618    , 28.8704777  , 794.115     , 1.04        , 3           , 4           , 0           , 0
9.795613    , 0.0313198939, -0.11210034 , 0.000241956091, 0.00284086727, 0.000260144385, -0.348021477, 1.55754054  , 6.943941E-06, 921.4618    , 28.8704777  , 794.1151    , 1.05        , 3           , 5           , 0           , 0
9.791253    , 0.04000456  , -0.107296154, 0.0005246283, 0.00320372614, -0.0002733548, -0.348021477, 1.557572    , 1.60932541E-06, 921.4618    , 28.8704777  , 794.115234  , 1.06        , 3           , 6           , 0           , 0
9.787714    , 0.046957083 , -0.109223843, -4.510628E-06, 0.004616741 , -0.0002423784, -0.348021477, 1.55761266  , 1.54972076E-06, 921.4618    , 28.8704777  , 794.115356  , 1.07        , 3           , 7           , 0           , 0
9.788084    , 0.04144215  , -0.102918744, 0.0005863267, 0.00384280854, -0.0005903095, -0.348021477, 1.55764437  , -4.440546E-06, 921.4618    , 28.8704777  , 794.1155    , 1.08        , 3           , 8           , 5           , 5
9.798691    , 0.0428918973, -0.09829714 , 0.000300507643, 0.00254998868, 0.000132191664, -0.348021477, 1.55767155  , -7.4505806E-06, 921.4618    , 28.8704777  , 794.1156    , 1.09        , 3           , 9           , 5           , 0.1
9.792163    , 0.0447816253, -0.106954075, 0.000327577582, 0.00328471488, -0.000392534479, -0.348021477, 1.55771708  , -1.090765E-05, 921.4618    , 28.8704777  , 794.1157    , 1.1         , 3           , 10          , 0.1         , 0.1
9.799019    , 0.0499397144, -0.09965833 , 0.0003918584, 0.001195598 , 0.000450185151, -0.348021477, 1.55775356  , -1.47223473E-05, 921.4618    , 28.8704777  , 794.088     , 1.11        , 3           , 11          , 0.008933145 , 0.008933145
9.789574    , 0.039475508 , -0.09523411 , 0.00061789446, -0.00129422685, -8.550027E-05, -0.348021477, 1.55773985  , -2.08616257E-05, 921.4618    , 28.8704777  , 794.0881    , 1.12        , 3           , 12          , 0.174642846 , 0
9.792856    , 0.0400046781, -0.09791688 , 0.000980469 , -0.00312567316, 0.000343066175, -0.348021477, 1.55771244  , -3.05175781E-05, 921.4942    , 28.8737335  , 794.088135  , 1.13        , 3           , 13          , 0           , 0
9.795126    , 0.046801    , -0.11128664 , 0.0007289209, -0.00375830662, 0.00035279966, -0.348021477, 1.55768061  , -3.772974E-05, 921.4942    , 28.8737335  , 794.0882    , 1.14        , 3           , 14          , 0.00121123053, 0.00104926212
9.790517    , 0.0442132577, -0.111354753, 0.0004665266, -0.00288427249, -0.0003682564, -0.348021477, 1.55765343  , -4.23491E-05, 921.4942    , 28.8737335  , 794.088257  , 1.15        , 3           , 15          , 0           , 0.000383303384
9.782066    , 0.04707626  , -0.115266763, 0.0002208465, -0.000664686, -0.000229793339, -0.348021477, 1.5576489   , -4.4554472E-05, 921.4942    , 28.8737335  , 794.0883    , 1.16        , 3           , 16          , 0           , 1.401298E-45
9.784945    , 0.0460805222, -0.109032914, 0.000608836766, 0.00113885093, -0.000142717108, -0.348021477, 1.5576489   , -5.06341457E-05, 921.4942    , 28.8737335  , 794.0884    , 1.17        , 3           , 20          , 0           , 0
9.790787    , 0.0538637564, -0.112951972, 5.35495346E-05, 0.00202059979, -0.000581775035, -0.348021477, 1.55767608  , -5.12599945E-05, 921.4942    , 28.8737335  , 794.08844   , 1.18        , 3           , 21          , 0           , 0
9.802575    , 0.0435090363, -0.09837993 , 0.0001929095, 0.002661644 , 9.903402E-05, -0.348021477, 1.55769432  , -5.325675E-05, 921.4942    , 28.8737335  , 794.0885    , 1.19        , 3           , 22          , 0           , 0
9.79802     , 0.0473517962, -0.09808183 , 0.000485511962, 0.000730880653, 0.000234217965, -0.348021477, 1.55770338  , -5.80847263E-05, 921.4942    , 28.8737335  , 794.088562  , 1.2         , 3           , 40          , 0           , 0
9.793854    , 0.04372435  , -0.1072578  , 7.546076E-05, 0.000445211423, 0.000332243624, -0.348021477, 1.55775809  , -5.87999821E-05, 921.4942    , 28.8737335  , 794.0307    , 1.21        , 3           , 41          , 0           , 0
9.798982    , 0.0466488   , -0.10797067 , 0.000103611615, 0.00182655978, 0.00037429278, -0.348021477, 1.5577718   , -5.98430634E-05, 921.4942    , 28.8737335  , 794.0306    , 1.22        , 3           , 42          , 0           , 0
9.786799    , 0.0433029532, -0.09570233 , 0.000313306 , 2.696528E-06, -0.000450131833, -0.348021477, 1.5577718   , -6.297231E-05, 921.4767    , 28.87482    , 794.030457  , 1.23        , 3           , 255         , 0           , 0
9.783757    , 0.044574894 , -0.100783184, 0.000375467585, -0.00183915207, -0.00016646921, -0.348021477, 1.557749    , -6.66976E-05, 921.4767    , 28.87482    , 794.030334  , 1.24        , 3           , 255         , 0           , 0
9.783835    , 0.0489330254, -0.113576509, -0.0002703854, -0.00191019755, 7.603556E-05, -0.348021477, 1.55772161  , -6.392598E-05, 921.4767    , 28.87482    , 794.0302    , 1.25        , 3           , 255         , 0           , 0
9.794178    , 0.0444373079, -0.1189816  , -3.631448E-05, -0.00133981614, 0.0003426714, -0.348021477, 1.55772614  , -6.347895E-05, 921.4767    , 28.87482    , 794.0301    , 1.26        , 3           , 255         , 0           , 0
9.796956    , 0.04987914  , -0.107029855, 0.000416227151, -3.04832356E-05, -0.000392297865, -0.348021477, 1.55772161  , -6.76810741E-05, 921.4767    , 28.87482    , 794.029968  , 1.27        , 3           , 255         , 0           , 0
9.793181    , 0.04738868  , -0.100039184, 0.000134625938, -0.002810005, -0.00110977143, -0.348021477, 1.55770791  , -6.89923763E-05, 921.4767    , 28.87482    , 794.029846  , 1.28        , 3           , 255         , 0           , 0
9.802735    , 0.0496736541, -0.130270749, -5.88538824E-05, -0.0023491676, -0.00066180306, -0.348021477, 1.55766249  , -6.839633E-05, 921.4767    , 28.87482    , 794.0297    , 1.29        , 3           , 255         , 0           , 0
9.787405    , 0.04833793  , -0.120628811, 9.20047751E-05, 0.001051793 , -0.0002019415, -0.348021477, 1.55767608  , -6.93500042E-05, 921.4767    , 28.87482    , 794.0296    , 1.3         , 3           , 255         , 0           , 0
9.77836     , 0.04763183  , -0.133391157, -0.000243946328, 0.00510567566, -0.000318420236, -0.348021477, 1.55775356  , -6.696582E-05, 921.4767    , 28.87482    , 793.9965    , 1.31        , 3           , 255         , 0           , 0
9.800501    , 0.0487058423, -0.08693679 , -2.78868247E-05, 0.00615770137, -0.000810896861, -0.348021477, 1.55780387  , -6.687641E-05, 921.4767    , 28.87482    , 793.9963    , 1.32        , 3           , 255         , 0           , 0
9.790618    , 0.0441363938, -0.09264435 , 0.0004444212, -0.000166399113, 0.000753568 , -0.348021477, 1.55779934  , -7.12871552E-05, 921.4482    , 28.8786869  , 793.996033  , 1.33        , 3           , 255         , 0           , 0
9.799637    , 0.0460694842, -0.106226921, -0.0002801721, -0.000222357456, 0.000508373836, -0.348021477, 1.55779469  , -6.84559345E-05, 921.4482    , 28.8786869  , 793.9958    , 1.34        , 3           , 255         , 0           , 0
9.784117    , 0.0422266535, -0.106437519, 0.000446035876, -8.017215E-05, 0.000478991918, -0.348021477, 1.55780387  , -7.289648E-05, 921.4482    , 28.8786869  , 793.995544  , 1.35        , 3           , 255         , 0           , 0
9.782756    , 0.0394436419, -0.10067983 , -3.97491967E-05, 0.000327770133, 0.0004939027, -0.348021477, 1.55780852  , -7.24494457E-05, 921.4482    , 28.8786869  , 793.9953    , 1.36        , 3           , 255         , 0           , 0
9.77839851  , 0.0472241938, -0.12523514 , -5.352078E-06, 0.002061579 , 0.000290860276, -0.348021477, 1.55782688  , -7.241964E-05, 921.4482    , 28.8786869  , 793.995056  , 1.37        , 3           , 255         , 0           , 0
9.789357    , 0.05196625  , -0.112822257, 0.00022533  , 0.008503798 , 0.0004385688, -0.348021477, 1.5579052   , -7.483363E-05, 921.4482    , 28.8786869  , 793.9948    , 1.38        , 3           , 255         , 0           , 0
9.803238    , 0.0479953326, -0.09251936 , -0.000152935158, 0.00581562659, 0.000297495775, -0.348021477, 1.55796552  , -7.340312E-05, 921.4482    , 28.8786869  , 793.994568  , 1.39        , 3           , 255         , 0           , 0
9.811824    , 0.04526002  , -0.0786667243, 0.0001077092, 5.22838673E-05, -3.05825961E-06, -0.348021477, 1.55796552  , -7.453561E-05, 921.4482    , 28.8786869  , 793.9944    , 1.4         , 3           , 255         , 0           , 0
9.800466    , 0.046920877 , -0.0866802558, -2.4491339E-05, -0.006282767, -0.000194704218, -0.348021477, 1.557933    , -7.405877E-05, 921.4482    , 28.8786869  , 793.994446  , 1.41        , 3           , 255         , 0           , 0
9.778085    , 0.0499615781, -0.101519607, 0.000740438 , -0.008562355, -4.33333626E-05, -0.348021477, 1.55787289  , -8.124113E-05, 921.4482    , 28.8786869  , 793.994263  , 1.42        , 3           , 255         , 0           , 0
9.786311    , 0.04408242  , -0.112830959, 7.81586859E-05, -0.00642053224, -3.271713E-05, -0.348021477, 1.55779934  , -8.186698E-05, 921.430237  , 28.8803825  , 793.9941    , 1.43        , 3           , 255         , 0           , 0
9.806331    , 0.0463549   , -0.09769596 , -0.0003677805, -0.007161309, 0.000176246249, -0.348021477, 1.557749    , -7.799268E-05, 921.430237  , 28.8803825  , 793.9939    , 1.44        , 3           , 255         , 0           , 0
9.807846    , 0.0554119162, -0.09937184 , 0.000130341621, -0.009276504, 0.000507817371, -0.348021477, 1.55765343  , -7.900596E-05, 921.430237  , 28.8803825  , 793.9937    , 1.45        , 3           , 255         , 0           , 0
9.800539    , 0.04474268  , -0.1024972  , -8.712977E-05, -0.0108904708, 0.0003193953, -0.348021477, 1.557554    , -7.787347E-05, 921.430237  , 28.8803825  , 793.9935    , 1.46        , 3           , 255         , 0           , 0
9.782722    , 0.0334504619, -0.123137735, 6.37063058E-05, -0.0104345344, -8.212711E-05, -0.348021477, 1.55745983  , -7.82907E-05, 921.430237  , 28.8803825  , 793.993347  , 1.47        , 3           , 255         , 0           , 0
9.776359    , 0.0416524634, -0.154450536, 0.000273936661, -0.004392027, -0.000914991135, -0.348021477, 1.55741513  , -8.100271E-05, 921.430237  , 28.8803825  , 793.993164  , 1.48        , 3           , 255         , 0           , 0
9.790114    , 0.0508909635, -0.122544125, 0.000271683442, 0.00367054343, 0.0005811115, -0.348021477, 1.5574553   , -8.377433E-05, 921.430237  , 28.8803825  , 793.993     , 1.49        , 3           , 255         , 0           , 0
9.799877    , 0.0491546467, -0.105961   , -0.000133284135, 0.00358013716, 0.0001715724, -0.348021477, 1.55748665  , -8.252263E-05, 921.430237  , 28.8803825  , 793.9928    , 1.5         , 3           , 255         , 0           , 0
9.793314    , 0.0482793339, -0.0992572755, -0.000325976522, 0.0028797898, 0.0002215972, -0.348021477, 1.557536    , -7.927418E-05, 921.430237  , 28.8803825  , 794.011841  , 1.51        , 3           , 255         , 0           , 0
9.790216    , 0.05975107  , -0.102161489, 0.00019372534, 0.00101204682, 7.842487E-05, -0.348021477, 1.557545    , -8.11815262E-05, 921.430237  , 28.8803825  , 794.0117    , 1.52        , 3           , 255         , 0           , 0
9.774968    , 0.05011978  , -0.0985942855, 7.814262E-06, 0.000217276742, -0.000465425721, -0.348021477, 1.55754054  , -8.133054E-05, 921.4816    , 28.8828926  , 794.0116    , 1.53        , 3           , 255         , 0           , 0
9.777165    , 0.0406454727, -0.09137293 , 0.0007734597, -0.002814777, 4.783229E-05, -0.348021477, 1.55751359  , -8.895993E-05, 921.4816    , 28.8828926  , 794.0115    , 1.54        , 3           , 255         , 0           , 0
9.789415    , 0.04458766  , -0.113079235, 0.000461180927, -0.005631269, -0.000734637259, -0.348021477, 1.55747318  , -9.34898853E-05, 921.4816    , 28.8828926  , 794.011353  , 1.55        , 3           , 255         , 0           , 0
9.807101    , 0.04340992  , -0.102256283, -0.000151705113, -0.00570633728, -0.000459378876, -0.348021477, 1.55740631  , -9.188056E-05, 921.4816    , 28.8828926  , 794.0112    , 1.56        , 3           , 255         , 0           , 0
9.799776    , 0.0449811034, -0.11005716 , -0.000182017218, -0.007640877, -0.000308616727, -0.348021477, 1.55733967  , -8.98838043E-05, 921.4816    , 28.8828926  , 794.0111    , 1.57        , 3           , 255         , 0           , 0
9.78496     , 0.0392228924, -0.127033338, -0.0005002677, -0.00644092 , -5.37590822E-05, -0.348021477, 1.557269    , -8.4728E-05 , 921.4816    , 28.8828926  , 794.011     , 1.58        , 3           , 255         , 0           , 0
9.77913952  , 0.0473944135, -0.12629573 , 0.000107934815, -0.00303987227, 0.000608798931, -0.348021477, 1.55724692  , -8.571148E-05, 921.4816    , 28.8828926  , 794.010864  , 1.59        , 3           , 255         , 0           , 0
9.777628    , 0.0491634719, -0.128480822, 0.0005760909, -0.000304528, 7.755129E-05, -0.348021477, 1.55724692  , -9.146333E-05, 921.4816    , 28.8828926  , 794.010742  , 1.6         , 3           , 255         , 0           , 0
9.785642    , 0.0502119549, -0.1198401  , -0.0007294429, 0.00218487717, 4.99174348E-05, -0.348021477, 1.55730426  , -8.407235E-05, 921.4816    , 28.8828926  , 793.9731    , 1.61        , 3           , 255         , 0           , 0
9.798296    , 0.0505291224, -0.106177151, -0.000341999519, 0.00231828587, -0.000197523827, -0.348021477, 1.55734849  , -8.070469E-05, 921.4816    , 28.8828926  , 793.9728    , 1.62        , 3           , 255         , 0           , 0
9.788305    , 0.0418897569, -0.103531539, -0.00032417418, 0.00170632428, 0.000225942291, -0.348021477, 1.55735743  , -7.74562359E-05, 921.5016    , 28.8873024  , 793.9725    , 1.63        , 3           , 255         , 0           , 0
9.787276    , 0.04781928  , -0.112788476, -0.000258897431, 0.002383199 , 0.000173115113, -0.348021477, 1.5573796   , -7.492304E-05, 921.5016    , 28.8873024  , 793.972168  , 1.64        , 3           , 255         , 0           , 0
9.780861    , 0.0428904966, -0.122834787, -6.448524E-05, 0.00444501545, 0.000158129784, -0.348021477, 1.55741513  , -7.43567944E-05, 921.5016    , 28.8873024  , 793.971863  , 1.65        , 3           , 255         , 0           , 0
9.802278    , 0.04603643  , -0.09828103 , -0.0004019508, 0.004365775 , -0.0002590876, -0.348021477, 1.55745983  , -7.048249E-05, 921.5016    , 28.8873024  , 793.971558  , 1.66        , 3           , 255         , 0           , 0
9.804088    , 0.04563895  , -0.102875851, -0.000194274937, 0.001953739 , 9.540736E-05, -0.348021477, 1.55746877  , -6.85751438E-05, 921.5016    , 28.8873024  , 793.971252  , 1.67        , 3           , 255         , 0           , 0
9.80096     , 0.04213082  , -0.09778415 , 0.0005189866, -0.00136818388, -0.000906430359, -0.348021477, 1.55746877  , -7.376075E-05, 921.5016    , 28.8873024  , 793.971     , 1.68        , 3           , 255         , 0           , 0
9.792451    , 0.0407075025, -0.09644653 , 0.000457872869, -0.004093156, -0.00032584765, -0.348021477, 1.55742407  , -7.82907E-05, 921.5016    , 28.8873024  , 793.970764  , 1.69        , 3           , 255         , 0           , 0
9.793576    , 0.0437205955, -0.114354968, 0.000216156477, -0.005040695, -0.0004422754, -0.348021477, 1.55736184  , -8.04066658E-05, 921.5016    , 28.8873024  , 793.9705    , 1.7         , 3           , 255         , 0           , 0
9.795153    , 0.0418888032, -0.1088628  , 0.000598053564, -0.004434813, -0.0009288349, -0.348021477, 1.55736184  , -8.61883163E-05, 921.5016    , 28.8873024  , 793.9144    , 1.71        , 3           , 255         , 0           , 0
9.804285    , 0.051755242 , -0.112023994, 0.0003015151, -0.005107385, 0.000332325522, -0.348021477, 1.55732644  , -8.907914E-05, 921.5016    , 28.8873024  , 793.9139    , 1.72        , 3           , 255         , 0           , 0
9.797214    , 0.04720903  , -0.10122025 , -6.293261E-05, -0.00545761 , -0.000598639366, -0.348021477, 1.55725574  , -8.833408E-05, 921.4486    , 28.8873711  , 793.9133    , 1.73        , 3           , 255         , 0           , 0
9.803186    , 0.05496983  , -0.112014577, -0.0002312311, -0.007669932, -0.00027051 , -0.348021477, 1.55719     , -8.583069E-05, 921.4486    , 28.8873711  , 793.9128    , 1.74        , 3           , 255         , 0           , 0
9.784929    , 0.05318572  , -0.128788084, 8.546596E-05, -0.00764435343, 0.0002831308, -0.348021477, 1.55712     , -8.651614E-05, 921.4486    , 28.8873711  , 793.912231  , 1.75        , 3           , 255         , 0           , 0
9.774117    , 0.0449031   , -0.128183559, -0.000176376547, -0.004340354, -0.000644481042, -0.348021477, 1.55707645  , -8.46684E-05, 921.4486    , 28.8873711  , 793.9117    , 1.76        , 3           , 255         , 0           , 0
9.781425    , 0.04453543  , -0.126939148, 0.000194957247, 0.00100142928, -0.000134728209, -0.348021477, 1.55708516  , -8.663535E-05, 921.4486    , 28.8873711  , 793.911133  , 1.77        , 3           , 255         , 0           , 0
9.792096    , 0.0370037779, -0.120552562, 9.44403E-05 , 0.00486234948, -0.000303737848, -0.348021477, 1.55712     , -8.773804E-05, 921.4486    , 28.8873711  , 793.9106    , 1.78        , 3           , 255         , 0           , 0
9.795485    , 0.05021579  , -0.108641982, 0.000226213131, 0.00551862642, 0.00039875845, -0.348021477, 1.55719     , -9.006262E-05, 921.4486    , 28.8873711  , 793.910034  , 1.79        , 3           , 255         , 0           , 0
9.797738    , 0.0529096127, -0.0982925743, -0.00053893443, 0.00141105056, -9.451469E-06, -0.348021477, 1.55719864  , -8.46982E-05, 921.4486    , 28.8873711  , 793.9095    , 1.8         , 3           , 255         , 0           , 0
9.795706    , 0.0322529227, -0.105037943, 0.0003257969, -0.002002255, -0.000806575059, -0.348021477, 1.55718553  , -8.785725E-05, 921.4486    , 28.8873711  , 793.9192    , 1.81        , 3           , 255         , 0           , 0
9.797567    , 0.0357205942, -0.117874742, -9.61470651E-05, -0.004267124, 0.000221574155, -0.348021477, 1.55715048  , -8.68141651E-05, 921.4486    , 28.8873711  , 793.9187    , 1.82        , 3           , 255         , 0           , 0
9.786992    , 0.0542351827, -0.114446737, 0.000165357254, -0.004556457, 0.000242139271, -0.348021477, 1.55711126  , -8.830428E-05, 921.4751    , 28.889677   , 793.9182    , 1.83        , 3           , 255         , 0           , 0
9.799662    , 0.0473590121, -0.118246064, 9.056926E-05, -0.00418854738, 0.000233727857, -0.348021477, 1.55707645  , -8.91089439E-05, 921.4751    , 28.889677   , 793.9177    , 1.84        , 3           , 255         , 0           , 0
9.807737    , 0.03630639  , -0.1092404  , 6.80089E-05 , -0.005173275, 0.000162705488, -0.348021477, 1.55704176  , -8.967519E-05, 921.4751    , 28.889677   , 793.917236  , 1.85        , 3           , 255         , 0           , 0
9.792439    , 0.03461813  , -0.117362477, 0.000162316021, -0.00693444442, -6.482497E-05, -0.348021477, 1.55695534  , -9.11355E-05, 921.4751    , 28.889677   , 793.916748  , 1.86        , 3           , 255         , 0           , 0
9.784906    , 0.04384936  , -0.1174731  , 3.57329845E-05, -0.00615962641, 0.000197684567, -0.348021477, 1.55691671  , -9.134412E-05, 921.4751    , 28.889677   , 793.91626   , 1.87        , 3           , 255         , 0           , 0
9.787497    , 0.0427637771, -0.130302578, -0.0001957633, -0.00412437366, -0.000602716231, -0.348021477, 1.5568738   , -8.928776E-05, 921.4751    , 28.889677   , 793.9158    , 1.88        , 3           , 255         , 0           , 0
9.795095    , 0.0487066   , -0.115853488, 0.0002979614, -0.00258929841, -8.79008148E-05, -0.348021477, 1.55684817  , -9.214878E-05, 921.4751    , 28.889677   , 793.9153    , 1.89        , 3           , 255         , 0           , 0
9.788388    , 0.0462791622, -0.122289218, 6.68002758E-05, -0.000376498967, 0.000219191308, -0.348021477, 1.55683959  , -9.28342342E-05, 921.4751    , 28.889677   , 793.9148    , 1.9         , 3           , 255         , 0           , 0
9.793634    , 0.04758011  , -0.119939938, -1.91102736E-05, 0.000779704656, -7.84235E-05, -0.348021477, 1.55686522  , -9.27150249E-05, 921.4751    , 28.889677   , 793.893     , 1.91        , 3           , 255         , 0           , 0
9.792477    , 0.0500418432, -0.106813893, -2.99506355E-05, 0.00100343337, 0.0005629874, -0.348021477, 1.55688238  , -9.2417E-05 , 921.4751    , 28.889677   , 793.8924    , 1.92        , 3           , 255         , 0           , 0
9.790662    , 0.042748116 , -0.112826049, 8.874189E-05, -0.00131903356, 0.0005756656, -0.348021477, 1.5568738   , -9.319186E-05, 921.4619    , 28.8925953  , 793.8918    , 1.93        , 3           , 255         , 0           , 0
9.797062    , 0.0432879   , -0.1104069  , 3.24483262E-05, -0.00338007556, 0.000642031431, -0.348021477, 1.55683959  , -9.3370676E-05, 921.4619    , 28.8925953  , 793.8912    , 1.94        , 3           , 255         , 0           , 0
9.790994    , 0.0427673534, -0.121727034, -0.000129212742, -0.0038756975, 0.000230733742, -0.348021477, 1.55680549  , -9.199977E-05, 921.4619    , 28.8925953  , 793.890564  , 1.95        , 3           , 255         , 0           , 0
9.79081     , 0.0514979139, -0.119218662, -0.000261636334, -0.00408870773, -0.000169832827, -0.348021477, 1.55676711  , -8.928776E-05, 921.4619    , 28.8925953  , 793.889954  , 1.96        , 3           , 255         , 0           , 0
9.788045    , 0.04392711  , -0.126455337, 6.436219E-05, -0.0039218883, -0.000326413283, -0.348021477, 1.5567205   , -8.98838043E-05, 921.4619    , 28.8925953  , 793.889343  , 1.97        , 3           , 255         , 0           , 0
9.786901    , 0.0365597531, -0.123773515, 3.330398E-05, -0.001871356, 0.00012907057, -0.348021477, 1.55670357  , -9.01520252E-05, 921.4619    , 28.8925953  , 793.888733  , 1.98        , 3           , 255         , 0           , 0
9.793526    , 0.050458122 , -0.11855872 , -0.000259873632, -0.000760389, 0.0007632937, -0.348021477, 1.5567162   , -8.74400139E-05, 921.4619    , 28.8925953  , 793.8881    , 1.99        , 3           , 255         , 0           , 0
9.78813     , 0.05419575  , -0.112888888, 0.00019399263, -0.000909228052, 0.0007187569, -0.348021477, 1.55670357  , -8.931756E-05, 921.4619    , 28.8925953  , 793.8875    , 2           , 3           , 0           , 7.47723627  , 200
9.778891    , 0.0532555655, -0.120541528, 0.000221952447, -0.00113197416, -0.0005884839, -0.348021477, 1.5567162   , -9.14335251E-05, 921.4619    , 28.8925953  , 793.8844    , 2.01        , 3           , 1           , 0           , 0
9.784826    , 0.05263741  , -0.1332112  , -9.164354E-05, 0.0007386287, 0.000258344517, -0.348021477, 1.5567162   , -9.05394554E-05, 921.4619    , 28.8925953  , 793.8838    , 2.02        , 3           , 2           , 0           , 0
9.796208    , 0.0517532   , -0.123300865, 0.00054302474, 0.00134045049, 0.0005842942, -0.348021477, 1.55673742  , -9.590387E-05, 921.4157    , 28.8949013  , 793.8832    , 2.03        , 3           , 3           , 0           , 0
9.794864    , 0.0566094629, -0.11747165 , 0.000511719962, 0.00164549216, 0.0003409632, -0.348021477, 1.55675018  , -0.000101059675, 921.4157    , 28.8949013  , 793.882568  , 2.04        , 3           , 4           , 0           , 0
9.796047    , 0.0543354973, -0.105253175, 0.000211919658, -0.000514627842, -0.000479066162, -0.348021477, 1.55674589  , -0.00010317564, 921.4157    , 28.8949013  , 793.881958  , 2.05        , 3           , 5           , 0           , 0
9.793634    , 0.052172184 , -0.111661956, 0.000105454586, -0.002559714, 0.000189355575, -0.348021477, 1.5567162   , -0.000104188919, 921.4157    , 28.8949013  , 793.881348  , 2.06        , 3           , 6           , 0           , 0
9.797966    , 0.04301605  , -0.113289751, 0.000209023943, -0.00362838 , -0.0001799379, -0.348021477, 1.55668247  , -0.000106155872, 921.4157    , 28.8949013  , 793.880737  , 2.07        , 3           , 7           , 0           , 0
9.787154    , 0.04840203  , -0.124660075, 0.00036177272, -0.00482111052, -0.000164649842, -0.348021477, 1.55664444  , -0.000109732151, 921.4157    , 28.8949013  , 793.8801    , 2.08        , 3           , 8           , 5           , 5
9.793315    , 0.046580527 , -0.122022234, 0.000441481126, -0.00256259716, -0.000452825043, -0.348021477, 1.55661917  , -0.00011408329, 921.4157    , 28.8949013  , 793.8795    , 2.09        , 3           , 9           , 5           , 0.1
9.790698    , 0.0466483831, -0.120101728, -7.865718E-06, -0.0016065836, -0.000544099836, -0.348021477, 1.55660665  , -0.000114053488, 921.4157    , 28.8949013  , 793.8789    , 2.1         , 3           , 10          , 0.1         , 0.1
9.792346    , 0.0429950133, -0.123309314, -0.000131294248, -0.0007089573, 6.57303E-05 , -0.348021477, 1.556615    , -0.000112563372, 921.4157    , 28.8949013  , 793.934265  , 2.11        , 3           , 11          , 0.007763812 , 0.00776381325
9.797353    , 0.0387422219, -0.114151791, 0.000241230009, 0.00140230358, 0.0006063139, -0.348021477, 1.55662763  , -0.000114947557, 921.4157    , 28.8949013  , 793.934     , 2.12        , 3           , 12          , 0.174643889 , 0
9.792987    , 0.04386286  , -0.111584663, 0.0003571784, 0.00129687786, -9.93907452E-06, -0.348021477, 1.55664444  , -0.000118523836, 921.4423    , 28.8959866  , 793.9338    , 2.13        , 3           , 13          , 0           , 0
9.791799    , 0.0506408922, -0.117847934, -1.1339318E-05, 0.000473889639, -8.74798861E-05, -0.348021477, 1.5566529   , -0.000118434429, 921.4423    , 28.8959866  , 793.933533  , 2.14        , 3           , 14          , 0.00121123344, 0.00104855979
9.791673    , 0.0503747277, -0.123849764, -0.000243527174, 0.00135193323, -1.621258E-06, -0.348021477, 1.55665708  , -0.000116050243, 921.4423    , 28.8959866  , 793.9333    , 2.15        , 3           , 15          , 0           , 0.000383270264
9.790777    , 0.0509894565, -0.124868192, -1.813937E-05, 0.00136203319, -3.699705E-05, -0.348021477, 1.55666971  , -0.000115841627, 921.4423    , 28.8959866  , 793.933044  , 2.16        , 3           , 16          , 0           , 1.401298E-45
9.787852    , 0.0467052832, -0.11312668 , -0.000170216779, 0.0003974978, -0.000237276457, -0.348021477, 1.55666971  , -0.0001142025, 921.4423    , 28.8959866  , 793.9328    , 2.17        , 3           , 20          , 0           , 0
9.791669    , 0.05056881  , -0.110229634, 0.000341444975, -0.00131039938, -0.000274907536, -0.348021477, 1.55666137  , -0.000117570162, 921.4423    , 28.8959866  , 793.932556  , 2.18        , 3           , 21          , 0           , 0
9.794132    , 0.0344319269, -0.116475247, 0.000272409059, -0.00222616014, -0.000366320048, -0.348021477, 1.55664027  , -0.000120282173, 921.4423    , 28.8959866  , 793.9323    , 2.19        , 3           , 22          , 0           , 0
9.787659    , 0.0388712659, -0.117843352, -0.0002275341, -0.00282711443, -0.000120880228, -0.348021477, 1.55661082  , -0.000117897987, 921.4423    , 28.8959866  , 793.932068  , 2.2         , 3           , 40          , 0           , 0
9.784067    , 0.04620852  , -0.125901788, 0.0005650077, -0.002208401, 0.000410468638, -0.348021477, 1.55662346  , -0.000123411417, 921.4423    , 28.8959866  , 793.9483    , 2.21        , 3           , 41          , 0           , 0
9.792675    , 0.0445451476, -0.117899932, 0.0005824793, -0.000887116534, 0.000162029028, -0.348021477, 1.55661082  , -0.000129193068, 921.4423    , 28.8959866  , 793.9482    , 2.22        , 3           , 42          , 0           , 0
9.780754    , 0.0479208753, -0.119683959, 0.000441118143, 0.0001840241, 0.000213390013, -0.348021477, 1.55661917  , -0.0001335144, 921.4753    , 28.8995152  , 793.948059  , 2.23        , 3           , 255         , 0           , 0
9.791052    , 0.04820855  , -0.119393311, -0.000119941542, 0.001500621 , -9.473189E-05, -0.348021477, 1.5566318   , -0.000132411718, 921.4753    , 28.8995152  , 793.947937  , 2.24        , 3           , 255         , 0           , 0
9.79661     , 0.0572252944, -0.117864944, 0.000400229124, 0.00194461923, -3.40534025E-05, -0.348021477, 1.55664873  , -0.000136375427, 921.4753    , 28.8995152  , 793.9478    , 2.25        , 3           , 255         , 0           , 0
9.788538    , 0.056758076 , -0.120168254, -0.000265278271, 0.00146700675, 0.000246801617, -0.348021477, 1.55666137  , -0.000133723021, 921.4753    , 28.8995152  , 793.9477    , 2.26        , 3           , 255         , 0           , 0
9.784541    , 0.05281509  , -0.1207424  , 0.00015480211, 0.001527138 , -0.0005822257, -0.348021477, 1.55667818  , -0.000135332346, 921.4753    , 28.8995152  , 793.9476    , 2.27        , 3           , 255         , 0           , 0
9.786257    , 0.06067065  , -0.116754152, 2.91388715E-05, 0.000959997531, -0.000234693027, -0.348021477, 1.55667818  , -0.000135660172, 921.4753    , 28.8995152  , 793.947449  , 2.28        , 3           , 255         , 0           , 0
9.786438    , 0.0496927   , -0.128799111, 7.511501E-05, 0.0005110062, -2.48703291E-05, -0.348021477, 1.5566951   , -0.00013640523, 921.4753    , 28.8995152  , 793.9473    , 2.29        , 3           , 255         , 0           , 0
9.793744    , 0.04633528  , -0.128880128, 0.000346036744, 0.00469749328, -0.000226825534, -0.348021477, 1.556729    , -0.0001399517, 921.4753    , 28.8995152  , 793.9472    , 2.3         , 3           , 255         , 0           , 0
9.786822    , 0.03829644  , -0.110112861, 9.823998E-05, 0.00137902866, -0.000689487555, -0.348021477, 1.55676293  , -0.00014090538, 921.4753    , 28.8995152  , 793.9193    , 2.31        , 3           , 255         , 0           , 0
9.790293    , 0.0474820249, -0.118965544, -0.000178986927, 0.00312382751, 0.000116210256, -0.348021477, 1.55679262  , -0.000139206648, 921.4753    , 28.8995152  , 793.919     , 2.32        , 3           , 255         , 0           , 0
9.794584    , 0.0576689541, -0.117598809, -7.30963657E-05, 0.002323169 , -0.000207784033, -0.348021477, 1.556814    , -0.0001385212, 921.4164    , 28.9016171  , 793.9187    , 2.33        , 3           , 255         , 0           , 0
9.786942    , 0.0397903845, -0.122076072, 0.000257143169, 0.00494554359, 0.000203247764, -0.348021477, 1.55685234  , -0.0001411736, 921.4164    , 28.9016171  , 793.9184    , 2.34        , 3           , 255         , 0           , 0
9.788664    , 0.0457584038, -0.130763844, 0.000265276874, 0.00620891433, -3.46865854E-05, -0.348021477, 1.5569253   , -0.000144004822, 921.4164    , 28.9016171  , 793.9181    , 2.35        , 3           , 255         , 0           , 0
9.796771    , 0.0461225435, -0.114934005, 0.0003306031, 0.008627915 , -0.000170465661, -0.348021477, 1.55700278  , -0.0001475513, 921.4164    , 28.9016171  , 793.9178    , 2.36        , 3           , 255         , 0           , 0
9.799258    , 0.0425467379, -0.101811051, 0.0004752538, 0.007437302 , 0.000128259242, -0.348021477, 1.55708086  , -0.000152498484, 921.4164    , 28.9016171  , 793.9175    , 2.37        , 3           , 255         , 0           , 0
9.794699    , 0.04039522  , -0.0972146243, 0.000210863887, 0.005736187 , 0.0008808657, -0.348021477, 1.55712438  , -0.000154644251, 921.4164    , 28.9016171  , 793.9172    , 2.38        , 3           , 255         , 0           , 0
9.800859    , 0.04407271  , -0.09322758 , -9.667815E-05, 0.00354086352, -0.000458016875, -0.348021477, 1.5571636   , -0.000153839588, 921.4164    , 28.9016171  , 793.9169    , 2.39        , 3           , 255         , 0           , 0
9.790649    , 0.04720485  , -0.102095686, 9.175856E-06, 0.0008743596, -1.75283349E-05, -0.348021477, 1.557168    , -0.000153929, 921.4164    , 28.9016171  , 793.916565  , 2.4         , 3           , 255         , 0           , 0
9.786219    , 0.0362201668, -0.12171004 , -0.000593132165, 8.490996E-05, 0.000111361005, -0.348021477, 1.55719864  , -0.000147968531, 921.4164    , 28.9016171  , 793.9698    , 2.41        , 3           , 255         , 0           , 0
9.785128    , 0.033969678 , -0.112774625, 0.000209890073, 0.00114238192, 0.000699243741, -0.348021477, 1.55720747  , -0.000150024891, 921.4164    , 28.9016171  , 793.969849  , 2.42        , 3           , 255         , 0           , 0
9.794729    , 0.0431820378, -0.114080265, 0.000218468369, 0.00102612283, 0.0008174322, -0.348021477, 1.55722058  , -0.000152140856, 921.449036  , 28.9024315  , 793.9699    , 2.43        , 3           , 255         , 0           , 0
9.795027    , 0.0521425381, -0.09711678 , -3.770378E-05, 0.00137483981, 0.0001258202, -0.348021477, 1.55723822  , -0.000151783228, 921.449036  , 28.9024315  , 793.97      , 2.44        , 3           , 255         , 0           , 0
9.7952795   , 0.0467960462, -0.108890131, 7.90505437E-05, 0.000190791674, 0.0005411138, -0.348021477, 1.55724251  , -0.000152558088, 921.449036  , 28.9024315  , 793.970032  , 2.45        , 3           , 255         , 0           , 0
9.790377    , 0.0450213142, -0.115551993, -2.77524814E-05, 0.00147871906, 0.000369497138, -0.348021477, 1.55725574  , -0.000152260065, 921.449036  , 28.9024315  , 793.9701    , 2.46        , 3           , 255         , 0           , 0
9.799158    , 0.0527908131, -0.102997318, 0.0005440441, 0.002446489 , 0.000521298149, -0.348021477, 1.557291    , -0.000157743692, 921.449036  , 28.9024315  , 793.970154  , 2.47        , 3           , 255         , 0           , 0
9.787767    , 0.0435398   , -0.110513136, 0.000450433232, 0.00341357687, 0.000157340284, -0.348021477, 1.55732191  , -0.000162303448, 921.449036  , 28.9024315  , 793.9702    , 2.48        , 3           , 255         , 0           , 0
9.799739    , 0.0500907227, -0.109173194, 0.0004129347, 0.00417991541, 0.000584881869, -0.348021477, 1.55735743  , -0.000166445971, 921.449036  , 28.9024315  , 793.9703    , 2.49        , 3           , 255         , 0           , 0
9.785513    , 0.0402541943, -0.113542959, 6.372004E-05, 0.002783106 , 0.000123305043, -0.348021477, 1.5573796   , -0.000167161226, 921.449036  , 28.9024315  , 793.970337  , 2.5         , 3           , 255         , 0           , 0
9.798137    , 0.03375954  , -0.113216475, 0.000112112379, 0.00112235674, 0.0005740415, -0.348021477, 1.55741966  , -0.0001681745, 921.449036  , 28.9024315  , 793.9736    , 2.51        , 3           , 255         , 0           , 0
9.799055    , 0.04187101  , -0.116286375, 0.000320199644, -0.0003260097, 0.00012410761, -0.348021477, 1.5574286   , -0.000171393156, 921.449036  , 28.9024315  , 793.9737    , 2.52        , 3           , 255         , 0           , 0
9.794444    , 0.04010249  , -0.117003106, -1.80245843E-06, -0.00017515244, -0.000166457641, -0.348021477, 1.5574286   , -0.000171393156, 921.42395   , 28.9072475  , 793.9738    , 2.53        , 3           , 255         , 0           , 0
9.801353    , 0.0480296   , -0.118193187, -1.27659878E-05, 0.000784382 , 0.00034611774, -0.348021477, 1.55743742  , -0.000171214342, 921.42395   , 28.9072475  , 793.973938  , 2.54        , 3           , 255         , 0           , 0
9.800795    , 0.04281156  , -0.112052359, 0.000113608432, 0.00141568074, 0.0002955297, -0.348021477, 1.55744636  , -0.000172406435, 921.42395   , 28.9072475  , 793.97406   , 2.55        , 3           , 255         , 0           , 0
9.794222    , 0.0504728258, -0.10769067 , 0.0005758838, 0.000123696285, -0.0010844802, -0.348021477, 1.55744636  , -0.000178188086, 921.42395   , 28.9072475  , 793.9742    , 2.56        , 3           , 255         , 0           , 0
9.789082    , 0.04672359  , -0.112460814, 0.000229932833, -0.000608712435, -0.0008076917, -0.348021477, 1.5574286   , -0.000180453062, 921.42395   , 28.9072475  , 793.9743    , 2.57        , 3           , 255         , 0           , 0
9.79597     , 0.04851968  , -0.114982769, -3.4651137E-05, 0.000235337182, -0.0003007839, -0.348021477, 1.55743742  , -0.000180155039, 921.42395   , 28.9072475  , 793.9744    , 2.58        , 3           , 255         , 0           , 0
9.798372    , 0.05104018  , -0.127952963, 1.9258121E-05, 0.00179016346, -0.000487592421, -0.348021477, 1.55744636  , -0.00018042326, 921.42395   , 28.9072475  , 793.974548  , 2.59        , 3           , 255         , 0           , 0
9.79333     , 0.0500945672, -0.122498095, -0.000147993909, 0.00356727745, -0.000543980859, -0.348021477, 1.55747318  , -0.000179022551, 921.42395   , 28.9072475  , 793.9747    , 2.6         , 3           , 255         , 0           , 0
9.791023    , 0.0522700921, -0.115129814, 0.000563981361, 0.00353271584, -0.000198113645, -0.348021477, 1.557518    , -0.0001848042, 921.42395   , 28.9072475  , 794.0117    , 2.61        , 3           , 255         , 0           , 0
9.792879    , 0.0449204147, -0.110727474, -0.000194259919, 0.0026688138, 1.87094556E-05, -0.348021477, 1.557545    , -0.000182896852, 921.42395   , 28.9072475  , 794.0121    , 2.62        , 3           , 255         , 0           , 0
9.790622    , 0.0444043651, -0.113770142, 0.000200474635, 0.00147371157, 0.000292560435, -0.348021477, 1.55755854  , -0.000184893608, 921.4877    , 28.90467    , 794.012451  , 2.63        , 3           , 255         , 0           , 0
9.78934     , 0.0433462076, -0.106206737, 0.000625042245, 0.000589872361, 0.000118060911, -0.348021477, 1.557572    , -0.000191092491, 921.4877    , 28.90467    , 794.0128    , 2.64        , 3           , 255         , 0           , 0
9.794123    , 0.04159563  , -0.1112949  , -0.000187876984, -0.00038468733, 0.000752383668, -0.348021477, 1.55756748  , -0.00018915534, 921.4877    , 28.90467    , 794.0132    , 2.65        , 3           , 255         , 0           , 0
9.789846    , 0.04159408  , -0.112417623, 0.000459035276, -0.0009796828, -0.000144167192, -0.348021477, 1.557563    , -0.0001937151, 921.4877    , 28.90467    , 794.01355   , 2.66        , 3           , 255         , 0           , 0
9.7935915   , 0.04660632  , -0.10780859 , 0.000191830681, -0.002369749, 1.95825123E-05, -0.348021477, 1.557536    , -0.00019556284, 921.4877    , 28.90467    , 794.0139    , 2.67        , 3           , 255         , 0           , 0
9.795698    , 0.04275381  , -0.113321766, -2.40308E-05, -0.001887008, 0.000678991259, -0.348021477, 1.55752254  , -0.000195235014, 921.4877    , 28.90467    , 794.0143    , 2.68        , 3           , 255         , 0           , 0
9.789381    , 0.0374314822, -0.1130754  , 0.000393766677, -0.000428226544, 0.000169630861, -0.348021477, 1.55752254  , -0.000199168921, 921.4877    , 28.90467    , 794.014648  , 2.69        , 3           , 255         , 0           , 0
9.801152    , 0.04979388  , -0.108824328, 0.0003552494, -0.000421392615, 0.0004999523, -0.348021477, 1.557518    , -0.000202655792, 921.4877    , 28.90467    , 794.015     , 2.7         , 3           , 255         , 0           , 0
9.794581    , 0.0499021336, -0.127611354, -0.000271810684, 0.00202536886, -0.000367010623, -0.348021477, 1.557545    , -0.000200003386, 921.4877    , 28.90467    , 793.9593    , 2.71        , 3           , 255         , 0           , 0
9.799001    , 0.0421674438, -0.115858257, 0.00067372655, 0.005101162 , -0.0003609429, -0.348021477, 1.55760813  , -0.000206828117, 921.4877    , 28.90467    , 793.9593    , 2.72        , 3           , 255         , 0           , 0
9.792298    , 0.0408561565, -0.105234541, 0.0004000537, 0.004570402 , -0.00072295533, -0.348021477, 1.55764437  , -0.000211030245, 921.4988    , 28.9070454  , 793.9593    , 2.73        , 3           , 255         , 0           , 0
9.790403    , 0.04252858  , -0.09710653 , 1.48619292E-05, 0.003717433 , -0.000899466337, -0.348021477, 1.55767155  , -0.000211268663, 921.4988    , 28.9070454  , 793.9593    , 2.74        , 3           , 255         , 0           , 0
9.79598     , 0.0482345335, -0.103258923, -0.000182059361, 0.00217228639, -0.000371678441, -0.348021477, 1.55768514  , -0.000209510326, 921.4988    , 28.9070454  , 793.9593    , 2.75        , 3           , 255         , 0           , 0
9.795787    , 0.0424865521, -0.0924935  , -0.00031067885, -0.00094921916, -9.994063E-05, -0.348021477, 1.55768514  , -0.00020635128, 921.4988    , 28.9070454  , 793.9593    , 2.76        , 3           , 255         , 0           , 0
9.790087    , 0.0495503955, -0.104003213, -0.000159942312, -0.00341694639, -0.000686472165, -0.348021477, 1.55763984  , -0.000204712152, 921.4988    , 28.9070454  , 793.9593    , 2.77        , 3           , 255         , 0           , 0
9.793721    , 0.04919191  , -0.09992532 , 0.000162426149, -0.00484272558, -4.90710663E-05, -0.348021477, 1.55759907  , -0.000206232071, 921.4988    , 28.9070454  , 793.9593    , 2.78        , 3           , 255         , 0           , 0
9.791697    , 0.05206572  , -0.10613884 , -0.0001836979, -0.003954539, 0.000264716218, -0.348021477, 1.55755854  , -0.00020429492, 921.4988    , 28.9070454  , 793.9593    , 2.79        , 3           , 255         , 0           , 0
9.783743    , 0.0465510637, -0.121050693, -0.000441912445, -0.00235568453, -4.23456077E-05, -0.348021477, 1.557554    , -0.000199764967, 921.4988    , 28.9070454  , 793.9593    , 2.8         , 3           , 255         , 0           , 0
9.788758    , 0.0436978452, -0.123224542, 0.000398178468, 3.67466127E-05, -8.061473E-05, -0.348021477, 1.557563    , -0.000203728676, 921.4988    , 28.9070454  , 793.8953    , 2.81        , 3           , 255         , 0           , 0
9.793925    , 0.04406132  , -0.10835354 , 0.00019067293, 0.00144531706, 0.0003587466, -0.348021477, 1.55757654  , -0.000205606222, 921.4988    , 28.9070454  , 793.894958  , 2.82        , 3           , 255         , 0           , 0
9.796191    , 0.0546699278, -0.122607276, -0.000293192978, 0.00143230928, 0.000582379638, -0.348021477, 1.55759     , -0.000202655792, 921.4532    , 28.9113865  , 793.8946    , 2.83        , 3           , 255         , 0           , 0
9.803816    , 0.0499159172, -0.121354178, -0.0004384591, 0.00363178318, 0.000484137476, -0.348021477, 1.55762625  , -0.000198334455, 921.4532    , 28.9113865  , 793.8942    , 2.84        , 3           , 255         , 0           , 0
9.793013    , 0.0393238738, -0.109847531, -8.335197E-05, 0.00397171546, 0.0002638319, -0.348021477, 1.55768061  , -0.0001975596, 921.4532    , 28.9113865  , 793.89386   , 2.85        , 3           , 255         , 0           , 0
9.797033    , 0.04811081  , -0.105807386, 0.000261969748, 0.004448985 , 0.0003850451, -0.348021477, 1.55770338  , -0.000200301409, 921.4532    , 28.9113865  , 793.8935    , 2.86        , 3           , 255         , 0           , 0
9.78664     , 0.0545891821, -0.106251   , -0.0006129908, 0.003955756 , 0.0004980536, -0.348021477, 1.557749    , -0.000194221735, 921.4532    , 28.9113865  , 793.8931    , 2.87        , 3           , 255         , 0           , 0
9.788718    , 0.04971225  , -0.09329693 , -0.0005715199, 0.00175885216, -5.066616E-05, -0.348021477, 1.55776727  , -0.0001885593, 921.4532    , 28.9113865  , 793.892761  , 2.88        , 3           , 255         , 0           , 0
9.79417     , 0.0519202724, -0.0978583246, -0.00042612938, -0.0005971108, -0.0001698018, -0.348021477, 1.55775809  , -0.000184267759, 921.4532    , 28.9113865  , 793.8924    , 2.89        , 3           , 255         , 0           , 0
9.804255    , 0.05106712  , -0.09437361 , 0.00045569113, -0.00397091964, -0.000700465054, -0.348021477, 1.55771708  , -0.000188797712, 921.4532    , 28.9113865  , 793.892     , 2.9         , 3           , 255         , 0           , 0
9.802149    , 0.0468130521, -0.105172575, 0.0006077972, -0.00437348429, 0.000863735 , -0.348021477, 1.55769432  , -0.00019466877, 921.4532    , 28.9113865  , 793.9007    , 2.91        , 3           , 255         , 0           , 0
9.791183    , 0.0464455746, -0.111927822, 0.000473569962, -0.004109027, 7.822778E-05, -0.348021477, 1.55765343  , -0.000199258327, 921.4532    , 28.9113865  , 793.9004    , 2.92        , 3           , 255         , 0           , 0
9.790579    , 0.0501832   , -0.130406424, -0.00011662941, -0.00251468061, -0.000318067381, -0.348021477, 1.55763531  , -0.000198066235, 921.4741    , 28.91505    , 793.9001    , 2.93        , 3           , 255         , 0           , 0
9.78805     , 0.05836302  , -0.114663795, -0.000418087933, -0.0003244296, -0.000652138144, -0.348021477, 1.55763531  , -0.000193923712, 921.4741    , 28.91505    , 793.8998    , 2.94        , 3           , 255         , 0           , 0
9.791536    , 0.05073446  , -0.118255854, 0.000159422983, 0.0015482544, -0.000607378839, -0.348021477, 1.55763531  , -0.000195622444, 921.4741    , 28.91505    , 793.8995    , 2.95        , 3           , 255         , 0           , 0
9.787291    , 0.0373628624, -0.116674975, -0.000359845, 0.0034615628, -0.0005157031, -0.348021477, 1.55768514  , -0.00019210577, 921.4741    , 28.91505    , 793.8992    , 2.96        , 3           , 255         , 0           , 0
9.790879    , 0.054942973 , -0.113451645, 9.428547E-05, 0.003847731 , -0.00034256393, -0.348021477, 1.55770791  , -0.000193148851, 921.4741    , 28.91505    , 793.898865  , 2.97        , 3           , 255         , 0           , 0
9.790003    , 0.05137863  , -0.107176542, -0.0001619684, 0.003875497 , 3.66179156E-05, -0.348021477, 1.55773985  , -0.000191628933, 921.4741    , 28.91505    , 793.89856   , 2.98        , 3           , 255         , 0           , 0
9.790479    , 0.0421005562, -0.0968288854, -6.95741037E-05, 0.00337183266, 1.2695411E-05, -0.348021477, 1.55776727  , -0.000191032887, 921.4741    , 28.91505    , 793.898254  , 2.99        , 3           , 255         , 0           , 0
9.785837    , 0.04625039  , -0.101119384, 0.0004796323, 0.00219505816, 0.000774773769, -0.348021477, 1.55779469  , -0.000195801258, 921.4741    , 28.91505    , 793.897949  , 3           , 3           , 0           , 8.477237    , 300
9.791366    , 0.04773017  , -0.112817489, -0.000603983237, 0.0006622684, -0.0003472513, -0.348021477, 1.5578177   , -0.000189721584, 921.4741    , 28.91505    , 793.8766    , 3.01        , 3           , 1           , 0           , 0
9.80485     , 0.03921058  , -0.10389445 , -0.000268889184, 0.0008190478, 0.000311293377, -0.348021477, 1.557836    , -0.000187009573, 921.4741    , 28.91505    , 793.87616   , 3.02        , 3           , 2           , 0           , 0
9.780629    , 0.0434968062, -0.110866942, -0.00012194016, 0.00161626562, 7.049632E-05, -0.348021477, 1.55784988  , -0.000185787678, 921.416748  , 28.91539    , 793.875732  , 3.03        , 3           , 3           , 0           , 0
9.788056    , 0.048827488 , -0.105820552, 5.20749E-05 , 0.0016004499, 0.000383583625, -0.348021477, 1.55785906  , -0.00018632412, 921.416748  , 28.91539    , 793.8753    , 3.04        , 3           , 4           , 0           , 0
9.791761    , 0.04984662  , -0.102724746, 5.80889173E-05, 0.000309865223, -6.48322748E-05, -0.348021477, 1.55787289  , -0.000186979771, 921.416748  , 28.91539    , 793.8749    , 3.05        , 3           , 5           , 0           , 0
9.811434    , 0.0408460572, -0.109686181, -0.0005979097, -2.11015576E-05, 5.80181077E-05, -0.348021477, 1.55786371  , -0.0001809597, 921.416748  , 28.91539    , 793.874451  , 3.06        , 3           , 6           , 0           , 0
9.797968    , 0.04175312  , -0.105023935, -0.000140856951, -0.000348598522, -0.0001582412, -0.348021477, 1.55785453  , -0.000179558992, 921.416748  , 28.91539    , 793.874     , 3.07        , 3           , 7           , 0           , 0
9.794116    , 0.0421255678, -0.107020222, 2.67674914E-05, 0.00121269026, 4.48339269E-05, -0.348021477, 1.55786836  , -0.000179827213, 921.416748  , 28.91539    , 793.8736    , 3.08        , 3           , 8           , 5           , 5
9.791852    , 0.0485673   , -0.1041955  , 0.00019576354, 0.00127804372, 0.000246728334, -0.348021477, 1.55788672  , -0.000181794167, 921.416748  , 28.91539    , 793.873169  , 3.09        , 3           , 9           , 5           , 0.1
9.793951    , 0.05094881  , -0.104381636, -7.64092E-06, 0.000720019569, -0.000432773522, -0.348021477, 1.55789137  , -0.000181764364, 921.416748  , 28.91539    , 793.872742  , 3.1         , 3           , 10          , 0.1         , 0.1
9.793334    , 0.0490960069, -0.09869821 , 6.527058E-05, -0.00116172933, -0.000319547456, -0.348021477, 1.557896    , -0.000182360411, 921.416748  , 28.91539    , 793.9358    , 3.11        , 3           , 11          , 0.007011687 , 0.00701168971
9.78842     , 0.0537217744, -0.108394042, -9.43732448E-05, -0.00157907826, -0.00037825972, -0.348021477, 1.55788219  , -0.000181376934, 921.416748  , 28.91539    , 793.9358    , 3.12        , 3           , 12          , 0.174645633 , 0
9.7842865   , 0.0565660372, -0.110365927, 0.000219723443, -0.0006819987, 2.381709E-05, -0.348021477, 1.55787289  , -0.0001835525, 921.4811    , 28.9173565  , 793.9358    , 3.13        , 3           , 13          , 0           , 0
9.787851    , 0.04920924  , -0.1280976  , 0.000686701736, 0.00173326873, -0.00010772259, -0.348021477, 1.55789137  , -0.000190466642, 921.4811    , 28.9173565  , 793.9358    , 3.14        , 3           , 14          , 0.00121123774, 0.00104759971
9.794258    , 0.0427807234, -0.109118842, 0.0001061128, 0.00452476926, 6.72813039E-05, -0.348021477, 1.55792379  , -0.000191599131, 921.4811    , 28.9173565  , 793.9358    , 3.15        , 3           , 15          , 0           , 0.000383240316
9.799809    , 0.040694993 , -0.10486351 , -0.000140093849, 0.005681364 , -0.000227259312, -0.348021477, 1.55799806  , -0.000190407038, 921.4811    , 28.9173565  , 793.9358    , 3.16        , 3           , 16          , 0           , 1.401298E-45
9.808687    , 0.0408809669, -0.0923248  , -0.0002349075, 0.00315635046, -0.000164730343, -0.348021477, 1.55800736  , -0.000188142061, 921.4811    , 28.9173565  , 793.9358    , 3.17        , 3           , 20          , 0           , 0
9.806122    , 0.039634943 , -0.09311991 , 0.0002705151, -6.322516E-07, 0.0002837153, -0.348021477, 1.55800736  , -0.000190854073, 921.4811    , 28.9173565  , 793.9358    , 3.18        , 3           , 21          , 0           , 0
9.796222    , 0.0412305854, -0.104797661, 0.0006258718, -0.00189977884, 0.0003954314, -0.348021477, 1.55798411  , -0.000196963549, 921.4811    , 28.9173565  , 793.9358    , 3.19        , 3           , 22          , 0           , 0
9.78956     , 0.047457505 , -0.09900801 , 0.00035735406, -0.002914865, -0.000354044285, -0.348021477, 1.55796552  , -0.000200539827, 921.4811    , 28.9173565  , 793.9358    , 3.2         , 3           , 40          , 0           , 0
9.776376    , 0.051588852 , -0.115781985, 0.0002960501, -0.002988977, -0.0006977697, -0.348021477, 1.55794692  , -0.00020340085, 921.4811    , 28.9173565  , 793.8991    , 3.21        , 3           , 41          , 0           , 0
9.789138    , 0.03659613  , -0.1136897  , 0.0006055387, -0.0005902417, 5.50940167E-05, -0.348021477, 1.55795157  , -0.000209420919, 921.4811    , 28.9173565  , 793.898865  , 3.22        , 3           , 42          , 0           , 0
9.78914452  , 0.0378896445, -0.118852474, 0.000213749008, 0.002395817 , -0.0005417661, -0.348021477, 1.55797482  , -0.000211626291, 921.441467  , 28.9180355  , 793.8986    , 3.23        , 3           , 255         , 0           , 0
9.792852    , 0.0561494157, -0.111781821, -0.000203594565, 0.004274004 , -8.77491839E-05, -0.348021477, 1.558012    , -0.00020968914, 921.441467  , 28.9180355  , 793.8984    , 3.24        , 3           , 255         , 0           , 0
9.779917    , 0.0547431521, -0.111640811, -1.18201133E-05, 0.005658039 , 0.000108132517, -0.348021477, 1.55805874  , -0.00020968914, 921.441467  , 28.9180355  , 793.898132  , 3.25        , 3           , 255         , 0           , 0
9.791976    , 0.048072964 , -0.09893848 , 0.000161465839, 0.00677213259, 0.0001334146, -0.348021477, 1.55811977  , -0.00021147728, 921.441467  , 28.9180355  , 793.8979    , 3.26        , 3           , 255         , 0           , 0
9.788112    , 0.0434276536, -0.08385082 , -0.000102702295, 0.005506462 , 0.000129194435, -0.348021477, 1.5581857   , -0.000210613012, 921.441467  , 28.9180355  , 793.897644  , 3.27        , 3           , 255         , 0           , 0
9.792796    , 0.04712776  , -0.09113856 , 1.21021876E-05, 0.00290321279, 0.000171520776, -0.348021477, 1.55819988  , -0.000210791826, 921.441467  , 28.9180355  , 793.8974    , 3.28        , 3           , 255         , 0           , 0
9.799666    , 0.0408813246, -0.0876569748, -0.000188344857, -0.000373225717, 0.0005691177, -0.348021477, 1.55820465  , -0.000208824873, 921.441467  , 28.9180355  , 793.8972    , 3.29        , 3           , 255         , 0           , 0
9.795908    , 0.0345790274, -0.09747125 , 0.0004506146, -0.00122117111, -3.95129027E-05, -0.348021477, 1.55819523  , -0.000213295221, 921.441467  , 28.9180355  , 793.897034  , 3.3         , 3           , 255         , 0           , 0
9.796013    , 0.04543835  , -0.0907042  , -0.000509795034, -0.00426354725, -0.000115195871, -0.348021477, 1.5581857   , -0.000208079815, 921.441467  , 28.9180355  , 793.922058  , 3.31        , 3           , 255         , 0           , 0
9.783164    , 0.0501989536, -0.114798523, 0.000215044827, -0.00439037662, -0.000512539758, -0.348021477, 1.55814326  , -0.000210165977, 921.441467  , 28.9180355  , 793.922     , 3.32        , 3           , 255         , 0           , 0
