Acc X       , Acc Y       , Acc Z       , Gyro X      , Gyro Y      , Gyro Z      , Euler X     , Euler Y     , Euler Z     , Pres X      , Pres Y      , Pres Z      , Time        , Status      , LowRate X   , LowRate Y   , LowRate Z    
-0.128800213, 0.13026616  , -9.787316   , 0           , 0           , 0           , -0.0133089051, -0.013157987, 0           , 922.7844    , 32.9779053  , 781.9918    , 0           , 2           , 0           , 5.48823166  , 0
-0.136492267, 0.13432081  , -9.799277   , -7.46529E-05, 7.067114E-05, -0.000144965859, -0.0133099733, -0.013157255, -1.459014E-06, 922.7844    , 32.9779053  , 781.9918    , 0.01        , 3           , 1           , 0           , 0
-0.130850121, 0.137030125 , -9.794752   , 0.000258506363, 0.000101848476, 0.0006522672, -0.0133074736, -0.01315615 , 5.04993E-06 , 922.7844    , 32.9779053  , 781.9918    , 0.02        , 3           , 2           , 0           , 0
-0.134251282, 0.133382276 , -9.80274    , 0.000127435254, 0.000244453142, 0.000631442643, -0.0133062843, -0.01315362 , 1.13316628E-05, 922.7507    , 32.541275   , 781.9918    , 0.03        , 3           , 3           , 0           , 0
-0.130969092, 0.13166666  , -9.798701   , 0.000275440427, 0.000293979858, -0.0005158549, -0.0133034615, -0.0131507525, 6.13414E-06 , 922.7507    , 32.541275   , 781.9918    , 0.04        , 3           , 4           , 0           , 0
-0.132845029, 0.12835893  , -9.791161   , 0.000124569342, -5.83945075E-05, -0.000106638036, -0.0133022014, -0.0131513486, 5.07555751E-06, 922.7507    , 32.541275   , 781.9918    , 0.05        , 3           , 5           , 0           , 0
-0.130648568, 0.131328613 , -9.796921   , -0.000702342, -0.0009539698, -0.000352381379, -0.0133091807, -0.0131609375, 1.67878136E-06, 922.7507    , 32.541275   , 781.9918    , 0.06        , 3           , 6           , 0           , 0
-0.123493895, 0.128366292 , -9.790571   , -0.000889001531, -0.000135411246, -0.000153600675, -0.0133180507, -0.0131623112, 1.608417E-07, 922.7507    , 32.541275   , 781.9918    , 0.07        , 3           , 7           , 0           , 0
-0.120414056, 0.134558812 , -9.799355   , -0.000192861015, 6.526083E-05, 0.00071773614, -0.0133200726, -0.0131615624, 7.32932131E-06, 922.7507    , 32.541275   , 781.9918    , 0.08        , 3           , 8           , 5           , 5
-0.130081385, 0.126877576 , -9.801352   , 0.0005624957, 0.000108156994, 0.000349186448, -0.0133144949, -0.0131604346, 1.08066934E-05, 922.7507    , 32.541275   , 781.9918    , 0.09        , 3           , 9           , 5           , 0.1
-0.137518167, 0.131663352 , -9.808719   , 0.000469322549, 0.000229280733, -1.77811889E-05, -0.0133098  , -0.0131581444, 1.05983718E-05, 922.7507    , 32.541275   , 781.9918    , 0.1         , 3           , 10          , 0.1         , 0.1
-0.139541358, 0.1313483   , -9.79255    , 0.000513885636, 5.810283E-05, -0.0003131033, -0.0133087458, -0.0131631261, 7.51400148E-06, 922.7507    , 32.541275   , 782.2932    , 0.11        , 3           , 11          , 0.0109544508, 0.0109544508
-0.123301364, 0.126853138 , -9.795667   , 1.55585585E-05, 0.000260520028, -0.000425413833, -0.0133085335, -0.013160578, 3.225304E-06, 922.7507    , 32.541275   , 782.2932    , 0.12        , 3           , 12          , 0.174642488 , 0
-0.126743123, 0.134489164 , -9.795567   , -0.000460560259, -0.000321510655, -4.178579E-05, -0.0133131342, -0.0131637985, 2.850254E-06, 922.7671    , 32.57567    , 782.2932    , 0.13        , 3           , 13          , 0           , 0
-0.124747694, 0.142419264 , -9.791542   , 0.000118270575, -0.000100421923, 0.0004168545, -0.0133120064, -0.0131647466, 7.032051E-06, 922.7671    , 32.57567    , 782.2932    , 0.14        , 3           , 14          , -0.0006586728, -0.0003477579
-0.1258315  , 0.129660934 , -9.788537   , 0.0003248812, 0.000250194746, -0.000478465954, -0.0133086946, -0.0131623084, 2.21422215E-06, 922.7671    , 32.57567    , 782.2932    , 0.15        , 3           , 15          , 0           , -1.00235611E-05
-0.1252758  , 0.127507776 , -9.789695   , 0.000138302043, -0.0003333342, -0.0005419643, -0.0133072417, -0.0131657133, -3.16092087E-06, 922.7671    , 32.57567    , 782.2933    , 0.16        , 3           , 16          , 0           , 1.401298E-45
-0.129576519, 0.135515422 , -9.798641   , 0.000142687873, 0.000132629866, -0.0003343025, -0.01330577 , -0.0131644318, -6.52149674E-06, 922.7671    , 32.57567    , 782.293335  , 0.17        , 3           , 20          , 0           , 0
-0.127930939, 0.132795691 , -9.795122   , -0.0001584668, 6.94782939E-05, -0.0005518605, -0.0133072818, -0.0131638106, -1.20492077E-05, 922.7671    , 32.57567    , 782.2934    , 0.18        , 3           , 21          , 0           , 0
-0.125346452, 0.132985786 , -9.78725    , -0.000430296, -0.000156263821, 0.0005878218, -0.0133116618, -0.0131652951, -6.15033969E-06, 922.7671    , 32.57567    , 782.293457  , 0.19        , 3           , 22          , 0           , 0
-0.133537874, 0.13131699  , -9.792714   , 0.00043599715, -0.0001802821, 0.000422297424, -0.0133073581, -0.0131670414, -1.90348271E-06, 922.7671    , 32.57567    , 782.2935    , 0.2         , 3           , 40          , 0           , 0
-0.127304271, 0.126279086 , -9.798407   , 0.0007110697, 9.677693E-06, 0.000100654484, -0.0133087346, -0.0131640024, -7.86708256E-07, 922.7671    , 32.57567    , 782.2207    , 0.21        , 3           , 41          , 0           , 0
-0.124363825, 0.128529519 , -9.789044   , 0.0005051857, 0.000426519371, -0.000426408, -0.0133036254, -0.0131597947, -5.107422E-06, 922.7671    , 32.57567    , 782.220764  , 0.22        , 3           , 42          , 0           , 0
-0.1277696  , 0.138412267 , -9.796559   , -0.0004631434, -0.000249961857, -0.000353846728, -0.0133082112, -0.0131623391, -8.612534E-06, 922.776245  , 32.6015167  , 782.2208    , 0.23        , 3           , 255         , 0           , 0
-0.13720192 , 0.1292717   , -9.793972   , -2.367131E-06, -0.000127920008, -0.000395835144, -0.0133081824, -0.0131636709, -1.25537517E-05, 922.776245  , 32.6015167  , 782.2209    , 0.24        , 3           , 255         , 0           , 0
-0.128038451, 0.128107265 , -9.801839   , 0.000477886759, 0.0002794888, -0.000103832972, -0.01330339 , -0.0131608909, -1.36292392E-05, 922.776245  , 32.6015167  , 782.220947  , 0.25        , 3           , 255         , 0           , 0
-0.130251959, 0.135074258 , -9.801261   , 0.00043536842, -8.562551E-06, 0.000208107085, -0.0132990647, -0.0131609477, -1.15470866E-05, 922.776245  , 32.6015167  , 782.221     , 0.26        , 3           , 255         , 0           , 0
-0.1207674  , 0.135522231 , -9.806784   , 0.0006400381, -0.00038097956, 0.000260291243, -0.0132926991, -0.0131647252, -8.893583E-06, 922.776245  , 32.6015167  , 782.221069  , 0.27        , 3           , 255         , 0           , 0
-0.120690539, 0.130320162 , -9.799139   , 0.000216821092, 0.000245466654, 0.000450982858, -0.0132905925, -0.01316221 , -4.416511E-06, 922.776245  , 32.6015167  , 782.2211    , 0.28        , 3           , 255         , 0           , 0
-0.127641127, 0.135496676 , -9.797737   , -3.453513E-05, 0.00038918163, 0.0004660128, -0.0132909985, -0.0131582562, 1.91774475E-07, 922.776245  , 32.6015167  , 782.2212    , 0.29        , 3           , 255         , 0           , 0
-0.135411933, 0.141510561 , -9.797129   , 0.000341528357, 0.000183327691, -0.000175786292, -0.0132875592, -0.0131564457, -1.59040746E-06, 922.776245  , 32.6015167  , 782.221252  , 0.3         , 3           , 255         , 0           , 0
-0.130994663, 0.132527351 , -9.801375   , -0.000232336053, -6.626017E-05, -6.40884537E-05, -0.0132967513, -0.0131542319, -2.13200383E-06, 922.776245  , 32.6015167  , 782.1693    , 0.31        , 3           , 255         , 0           , 0
-0.1246389  , 0.135788471 , -9.793805   , -0.00026224897, -1.4129706E-05, 0.000896941056, -0.0132994913, -0.0131542552, 6.83904636E-06, 922.776245  , 32.6015167  , 782.1694    , 0.32        , 3           , 255         , 0           , 0
-0.1283823  , 0.134174749 , -9.797011   , 3.94945964E-05, 5.076494E-06, 0.00016931929, -0.0132991187, -0.0131541817, 8.531515E-06, 922.777161  , 32.6218033  , 782.169434  , 0.33        , 3           , 255         , 0           , 0
-0.12867257 , 0.131099969 , -9.802184   , 0.000426545739, -8.030579E-05, -0.000514559564, -0.0132947844, -0.0131550524, 3.396733E-06, 922.777161  , 32.6218033  , 782.1695    , 0.34        , 3           , 255         , 0           , 0
-0.1358439  , 0.138875514 , -9.799382   , 4.11045621E-05, 0.00022263432, -0.000782097, -0.0132942721, -0.01315293 , -4.453621E-06, 922.777161  , 32.6218033  , 782.169556  , 0.35        , 3           , 255         , 0           , 0
-0.135362238, 0.138118118 , -9.79264    , -0.000217249442, 0.000274214253, -0.0005328954, -0.0132963732, -0.0131502589, -9.818888E-06, 922.777161  , 32.6218033  , 782.1696    , 0.36        , 3           , 255         , 0           , 0
-0.127096623, 0.1338388   , -9.795809   , 0.000292399578, -3.77879769E-05, 0.000324774184, -0.0132934935, -0.0131505942, -6.56621069E-06, 922.777161  , 32.6218033  , 782.1697    , 0.37        , 3           , 255         , 0           , 0
-0.131798059, 0.126717016 , -9.796518   , -0.0003048675, -0.000208687852, -0.000216374581, -0.0132965147, -0.0131527092, -8.702151E-06, 922.777161  , 32.6218033  , 782.169739  , 0.38        , 3           , 255         , 0           , 0
-0.139900088, 0.126635864 , -9.78808    , -0.000324708468, 0.0002036725, 0.0006219537, -0.0132998414, -0.0131505905, -2.50986955E-06, 922.777161  , 32.6218033  , 782.1698    , 0.39        , 3           , 255         , 0           , 0
-0.119973466, 0.124384426 , -9.795827   , -0.000249263656, -0.000109805405, 0.000201168761, -0.01330236 , -0.0131516624, -4.836311E-07, 922.777161  , 32.6218033  , 782.169861  , 0.4         , 3           , 255         , 0           , 0
-0.123756006, 0.130146235 , -9.806082   , 9.921438E-06, -0.000348242029, -0.000223272844, -0.01330812 , -0.0131593226, -2.59246622E-06, 922.777161  , 32.6218033  , 782.141052  , 0.41        , 3           , 255         , 0           , 0
-0.134507835, 0.131316423 , -9.801611   , 0.0003057516, -0.000337477046, 0.000201549046, -0.0133050894, -0.01316267 , -5.32136937E-07, 922.777161  , 32.6218033  , 782.1411    , 0.42        , 3           , 255         , 0           , 0
-0.13394554 , 0.12122371  , -9.801466   , -0.000107997912, -0.000115047907, 0.0005705172, -0.0133062461, -0.0131637445, 5.188193E-06, 922.786     , 32.63286    , 782.1412    , 0.43        , 3           , 255         , 0           , 0
-0.129695386, 0.120792404 , -9.78910351 , -0.0001897068, 0.000217502529, 0.000370597118, -0.01330819 , -0.01316152 , 8.865119E-06, 922.786     , 32.63286    , 782.141235  , 0.44        , 3           , 255         , 0           , 0
-0.124693155, 0.1280762   , -9.794527   , -3.77341639E-05, 0.00021872198, -0.000141376222, -0.0133085484, -0.0131593524, 7.422287E-06, 922.786     , 32.63286    , 782.1413    , 0.45        , 3           , 255         , 0           , 0
-0.124300815, 0.136603311 , -9.792242   , 0.000215613865, 9.441216E-05, -0.00052882923, -0.0133063244, -0.0131584778, 2.1215692E-06, 922.786     , 32.63286    , 782.141357  , 0.46        , 3           , 255         , 0           , 0
-0.132696524, 0.136624992 , -9.797332   , 0.00083333283, 0.000410991954, 3.04240848E-06, -0.0132979909, -0.01315437 , 2.09733776E-06, 922.786     , 32.63286    , 782.1415    , 0.47        , 3           , 255         , 0           , 0
-0.134593368, 0.125977367 , -9.79954052 , 5.33750281E-05, 6.87352149E-05, -0.0003693899, -0.0132974088, -0.01315373 , -1.6056008E-06, 922.786     , 32.63286    , 782.1416    , 0.48        , 3           , 255         , 0           , 0
-0.131851256, 0.128256947 , -9.795214   , 0.000297507941, -2.59224034E-05, -0.000444689183, -0.0132943755, -0.0131540475, -6.04892557E-06, 922.786     , 32.63286    , 782.1417    , 0.49        , 3           , 255         , 0           , 0
-0.128647417, 0.133549541 , -9.79157    , 0.000429570267, 0.0006652827, -0.000321901171, -0.0132900374, -0.0131474417, -9.35627E-06, 922.786     , 32.63286    , 782.141846  , 0.5         , 3           , 255         , 0           , 0
-0.129401624, 0.125552446 , -9.7897625  , -0.000285506365, 0.000413438655, 0.0008446005, -0.0132898176, -0.0131457886, -1.00731961E-06, 922.786     , 32.63286    , 782.108032  , 0.51        , 3           , 255         , 0           , 0
-0.126591757, 0.133003145 , -9.787209   , 0.000244385446, -9.246371E-05, 0.0006017687, -0.013287453, -0.0131466314, 5.0224894E-06, 922.786     , 32.63286    , 782.108154  , 0.52        , 3           , 255         , 0           , 0
-0.12715511 , 0.1327474   , -9.789568   , -0.000206777477, 3.92282964E-05, -0.000386694359, -0.0132894712, -0.0131462906, 1.15044293E-06, 922.777954  , 32.6398468  , 782.1083    , 0.53        , 3           , 255         , 0           , 0
-0.12199682 , 0.140210822 , -9.791981   , 8.936471E-05, -0.000265877636, -0.00037203572, -0.0132885287, -0.0131489979, -2.53447138E-06, 922.777954  , 32.6398468  , 782.1084    , 0.54        , 3           , 255         , 0           , 0
-0.126551419, 0.138943642 , -9.792437   , 9.48220259E-05, 0.00010907813, 0.000477946975, -0.0132876439, -0.013147844, 2.23037569E-06, 922.777954  , 32.6398468  , 782.1085    , 0.55        , 3           , 255         , 0           , 0
-0.131989241, 0.13198486  , -9.78270149 , -0.000333705742, 0.0005835481, -0.00101270818, -0.0132908477, -0.0131421452, -7.973966E-06, 922.777954  , 32.6398468  , 782.108643  , 0.56        , 3           , 255         , 0           , 0
-0.122441724, 0.128540784 , -9.793509   , -0.000600025, 0.000473461841, -0.0004614601, -0.0132967858, -0.0131374728, -1.26514E-05, 922.777954  , 32.6398468  , 782.108765  , 0.57        , 3           , 255         , 0           , 0
-0.132492751, 0.121612728 , -9.800224   , -0.000350407034, 0.0002469952, 0.000217958048, -0.0133003173, -0.013134975, -1.0504712E-05, 922.777954  , 32.6398468  , 782.1089    , 0.58        , 3           , 255         , 0           , 0
-0.131923079, 0.12543048  , -9.79468    , -0.000270480348, 0.000102280435, 0.0004490645, -0.0133030806, -0.0131338919, -6.02779255E-06, 922.777954  , 32.6398468  , 782.109     , 0.59        , 3           , 255         , 0           , 0
-0.130302414, 0.126413688 , -9.793085   , -0.0005322103, 2.895217E-05, 2.825483E-05, -0.0133084049, -0.0131335985, -5.749106E-06, 922.777954  , 32.6398468  , 782.109131  , 0.6         , 3           , 255         , 0           , 0
-0.13198474 , 0.128203988 , -9.796589   , -0.000493417145, 3.251969E-05, 4.461145E-05, -0.0133146  , -0.0131306751, -5.290841E-06, 922.777954  , 32.6398468  , 782.0991    , 0.61        , 3           , 255         , 0           , 0
-0.130360261, 0.133956552 , -9.800148   , -0.0008882248, 0.000273771147, 0.00047798868, -0.0133235455, -0.0131278718, -5.47563E-07, 922.777954  , 32.6398468  , 782.099243  , 0.62        , 3           , 255         , 0           , 0
-0.127496749, 0.134611234 , -9.792109   , -9.792502E-05, -0.000105378887, -9.413249E-05, -0.0133245112, -0.0131289382, -1.47482547E-06, 922.7214    , 32.6460228  , 782.099365  , 0.63        , 3           , 255         , 0           , 0
-0.120594606, 0.140502423 , -9.788639   , -1.473946E-05, 0.000203298056, 0.000126787112, -0.0133246752, -0.0131268883, -2.34087736E-07, 922.7214    , 32.6460228  , 782.0995    , 0.64        , 3           , 255         , 0           , 0
-0.123164132, 0.132700011 , -9.79177    , -6.28724229E-06, -0.0003890702, 0.000328925467, -0.0133247813, -0.0131307356, 3.10691985E-06, 922.7214    , 32.6460228  , 782.0996    , 0.65        , 3           , 255         , 0           , 0
-0.127116114, 0.12566413  , -9.79759    , 0.000170993851, -6.560414E-05, 0.0006106546, -0.0133231506, -0.01313131 , 9.222046E-06, 922.7214    , 32.6460228  , 782.099731  , 0.66        , 3           , 255         , 0           , 0
-0.121743724, 0.1368727   , -9.795444   , 6.533024E-05, 0.000275152066, -7.930426E-06, -0.0133224977, -0.0131285591, 9.10608651E-06, 922.7214    , 32.6460228  , 782.099854  , 0.67        , 3           , 255         , 0           , 0
-0.1267116  , 0.137413785 , -9.78982    , -9.93493E-05, -0.000272263016, 0.000239524583, -0.0133235231, -0.01313125 , 1.15375342E-05, 922.7214    , 32.6460228  , 782.1       , 0.68        , 3           , 255         , 0           , 0
-0.131862625, 0.136147454 , -9.790924   , -0.000139480864, 0.000300752523, -0.0004234545, -0.0133248623, -0.0131282993, 7.26302869E-06, 922.7214    , 32.6460228  , 782.1001    , 0.69        , 3           , 255         , 0           , 0
-0.133221656, 0.129459038 , -9.79294    , -0.000151545391, 0.00031871497, -0.000547572563, -0.013326304, -0.0131251849, 1.744976E-06, 922.7214    , 32.6460228  , 782.1002    , 0.7         , 3           , 255         , 0           , 0
-0.12907809 , 0.134996012 , -9.807656   , 0.000216198736, 0.000414519978, -0.000460063282, -0.01333382 , -0.0131173478, -2.78303833E-06, 922.7214    , 32.6460228  , 782.1706    , 0.71        , 3           , 255         , 0           , 0
-0.128430083, 0.139497846 , -9.800383   , -7.65530858E-05, 0.000374628959, 0.000102395592, -0.0133345975, -0.0131135862, -1.80906784E-06, 922.7214    , 32.6460228  , 782.1708    , 0.72        , 3           , 255         , 0           , 0
-0.121455446, 0.138608813 , -9.798842   , -0.000441766228, 0.0005919797, -0.000312215037, -0.0133389728, -0.0131077077, -5.01007344E-06, 922.7912    , 32.6476479  , 782.170959  , 0.73        , 3           , 255         , 0           , 0
-0.117381968, 0.143366814 , -9.796909   , -0.0005056432, -3.32784257E-05, -0.000158627037, -0.0133440094, -0.0131080626, -6.591864E-06, 922.7912    , 32.6476479  , 782.171143  , 0.74        , 3           , 255         , 0           , 0
-0.13416262 , 0.13641724  , -9.796418   , 2.83265836E-05, 0.0002467809, 0.000687185035, -0.0133438157, -0.0131055033, 2.46865341E-07, 922.7912    , 32.6476479  , 782.1713    , 0.75        , 3           , 255         , 0           , 0
-0.136446029, 0.129928052 , -9.79637    , -0.00021673087, 0.000309660449, 0.000621332845, -0.013346063, -0.0131023247, 6.418695E-06, 922.7912    , 32.6476479  , 782.1715    , 0.76        , 3           , 255         , 0           , 0
-0.124067761, 0.124663629 , -9.797787   , 0.000690272544, -0.000138822652, -0.0002584071, -0.0133391265, -0.0131037459, 3.853227E-06, 922.7912    , 32.6476479  , 782.1717    , 0.77        , 3           , 255         , 0           , 0
-0.129706591, 0.124350928 , -9.79303551 , 0.0004197879, 0.0003929901, -6.268792E-05, -0.0133349225, -0.0130998278, 3.17396461E-06, 922.7912    , 32.6476479  , 782.1719    , 0.78        , 3           , 255         , 0           , 0
-0.13010776 , 0.118772291 , -9.783328   , 0.000175249268, 0.0006712152, 0.000357669778, -0.0133332163, -0.0130930692, 6.66106234E-06, 922.7912    , 32.6476479  , 782.172058  , 0.79        , 3           , 255         , 0           , 0
-0.133319184, 0.119246185 , -9.78904152 , -0.000628763344, 0.000405608444, 9.333698E-06, -0.0133395046, -0.0130890114, 6.70030477E-06, 922.7912    , 32.6476479  , 782.172241  , 0.8         , 3           , 255         , 0           , 0
-0.134411842, 0.132019952 , -9.800254   , -0.000149142055, 0.00018360067, -8.272195E-05, -0.0133416848, -0.0130872  , 5.85778571E-06, 922.7912    , 32.6476479  , 782.1393    , 0.81        , 3           , 255         , 0           , 0
-0.125663951, 0.122876383 , -9.797136   , 0.0005067581, 1.12760172E-05, 0.000117863128, -0.0133366315, -0.0130870705, 7.034868E-06, 922.7912    , 32.6476479  , 782.139465  , 0.82        , 3           , 255         , 0           , 0
-0.125058889, 0.125987083 , -9.79997349 , 0.000424741069, -5.780763E-05, -0.0007575601, -0.0133322859, -0.0130877532, -5.327912E-07, 922.740356  , 32.6507721  , 782.139648  , 0.83        , 3           , 255         , 0           , 0
-0.120347142, 0.133694559 , -9.794989   , 0.000166305632, 2.59151566E-05, -0.000534099061, -0.0133305527, -0.0130875632, -5.877098E-06, 922.740356  , 32.6507721  , 782.139832  , 0.84        , 3           , 255         , 0           , 0
-0.131651789, 0.137886137 , -9.795566   , -0.000239037327, 7.085607E-05, 0.000105848689, -0.0133329565, -0.0130868414, -4.828084E-06, 922.740356  , 32.6507721  , 782.14      , 0.85        , 3           , 255         , 0           , 0
-0.1304191  , 0.133943155 , -9.793867   , 7.77855748E-05, 0.0001392195, 0.000718667754, -0.0133322719, -0.0130853541, 2.33982814E-06, 922.740356  , 32.6507721  , 782.1402    , 0.86        , 3           , 255         , 0           , 0
-0.130642653, 0.139926314 , -9.793037   , -0.00060045236, -0.000209591322, 0.0006330581, -0.0133383591, -0.0130873658, 8.698177E-06, 922.740356  , 32.6507721  , 782.1404    , 0.87        , 3           , 255         , 0           , 0
-0.13798888 , 0.139437318 , -9.802274   , -0.0001682947, 0.0001433795, 0.000935025339, -0.013340163, -0.0130858058, 1.80290481E-05, 922.740356  , 32.6507721  , 782.140564  , 0.88        , 3           , 255         , 0           , 0
-0.132983744, 0.138731569 , -9.800373   , 0.000466158119, 0.000340104772, 0.0006217756, -0.0133355837, -0.0130823255, 2.42012629E-05, 922.740356  , 32.6507721  , 782.140747  , 0.89        , 3           , 255         , 0           , 0
-0.129072458, 0.140382066 , -9.79690552 , 0.000103190832, 5.09304518E-05, 0.000294016354, -0.0133345909, -0.013081775, 2.71345616E-05, 922.740356  , 32.6507721  , 782.1409    , 0.9         , 3           , 255         , 0           , 0
-0.13680622 , 0.1374243   , -9.790388   , -9.15825949E-05, 0.000142361358, -0.000784356263, -0.0133447172, -0.0130842775, 1.93940959E-05, 922.740356  , 32.6507721  , 782.1727    , 0.91        , 3           , 255         , 0           , 0
-0.1276017  , 0.139582485 , -9.796111   , -0.000115065835, 0.000170739324, -0.0005424588, -0.0133457975, -0.013082643, 1.39468766E-05, 922.740356  , 32.6507721  , 782.173     , 0.92        , 3           , 255         , 0           , 0
-0.12961407 , 0.14289476  , -9.789988   , -0.0002068454, -0.000245481031, -0.000232322345, -0.0133478353, -0.0130851278, 1.16564861E-05, 922.7446    , 32.6542969  , 782.1732    , 0.93        , 3           , 255         , 0           , 0
-0.134627312, 0.128204226 , -9.797846   , -0.000250184967, -5.11757971E-05, -0.000146625069, -0.0133503182, -0.01308566 , 1.01971091E-05, 922.7446    , 32.6542969  , 782.173462  , 0.94        , 3           , 255         , 0           , 0
-0.136121482, 0.122411869 , -9.801737   , 8.58054264E-05, 0.000259616063, -0.000269138836, -0.0133494241, -0.0130830994, 7.47114927E-06, 922.7446    , 32.6542969  , 782.1737    , 0.95        , 3           , 255         , 0           , 0
-0.129085392, 0.118120313 , -9.79095    , -0.00017736922, 0.000288611918, 0.000160412441, -0.0133512188, -0.0130801918, 9.03669E-06 , 922.7446    , 32.6542969  , 782.17395   , 0.96        , 3           , 255         , 0           , 0
-0.12776947 , 0.122488655 , -9.799269   , 0.000187317753, 0.0004168367, 0.000437682029, -0.0133494018, -0.0130759664, 1.33577423E-05, 922.7446    , 32.6542969  , 782.1742    , 0.97        , 3           , 255         , 0           , 0
-0.133627787, 0.120964929 , -9.793274   , 0.0007494606, 0.000105838117, 0.000686279556, -0.0133419987, -0.0130748162, 2.020621E-05, 922.7446    , 32.6542969  , 782.174438  , 0.98        , 3           , 255         , 0           , 0
-0.1306868  , 0.126740068 , -9.798138   , 6.871595E-05, 8.490222E-05, -9.592266E-05, -0.0133412974, -0.0130739808, 1.92356838E-05, 922.7446    , 32.6542969  , 782.1747    , 0.99        , 3           , 255         , 0           , 0
-0.128619924, 0.128596932 , -9.796355   , 1.99343776E-06, 0.000358799938, -0.00042005087, -0.013341222, -0.0130704492, 1.49874259E-05, 922.7446    , 32.6542969  , 782.1749    , 1           , 3           , 0           , 6.48823643  , 100
-0.1394266  , 0.126939446 , -9.799526   , 0.000237520784, -0.0003498926, 0.000156523893, -0.0133335032, -0.0130825788, 1.652908E-05, 922.7446    , 32.6542969  , 782.196533  , 1.01        , 3           , 1           , 0           , 0
-0.128932059, 0.129018068 , -9.802243   , 0.000657689234, -4.97284345E-05, 0.000349542825, -0.0133269727, -0.0130830286, 2.00310442E-05, 922.7446    , 32.6542969  , 782.196838  , 1.02        , 3           , 2           , 0           , 0
-0.122070313, 0.133613929 , -9.792774   , 0.0009995546, -0.0002384088, -0.00011067179, -0.0133169629, -0.01308543 , 1.89561233E-05, 922.7761    , 32.65613    , 782.197144  , 1.03        , 3           , 3           , 0           , 0
-0.12915206 , 0.1392397   , -9.78418    , 2.665742E-05, 0.00011277775, 0.00022914866, -0.0133167254, -0.01308427 , 2.12325376E-05, 922.7761    , 32.65613    , 782.197449  , 1.04        , 3           , 4           , 0           , 0
-0.126390487, 0.138413027 , -9.78757    , 0.000451779168, -1.12153357E-05, -3.317676E-05, -0.0133122029, -0.0130843865, 2.090227E-05, 922.7761    , 32.65613    , 782.197754  , 1.05        , 3           , 5           , 0           , 0
-0.123159029, 0.1321542   , -9.797327   , -0.000371888978, -3.3917604E-06, -0.000200913535, -0.0133158965, -0.0130844479, 1.88936483E-05, 922.7761    , 32.65613    , 782.198059  , 1.06        , 3           , 6           , 0           , 0
-0.121925354, 0.134118959 , -9.794205   , -0.000314578123, 9.170256E-05, 0.000896496465, -0.01331916 , -0.0130834114, 2.78461521E-05, 922.7761    , 32.65613    , 782.198364  , 1.07        , 3           , 7           , 0           , 0
-0.127174646, 0.126690984 , -9.791012   , -0.000146732957, 0.0005254055, 0.000482640433, -0.0133206882, -0.0130780926, 3.26024274E-05, 922.7761    , 32.65613    , 782.198669  , 1.08        , 3           , 8           , 5           , 5
-0.133728221, 0.136172742 , -9.786143   , 0.000285423157, 0.0001892931, 0.000405186962, -0.0133178877, -0.0130761461, 3.66289642E-05, 922.7761    , 32.65613    , 782.199     , 1.09        , 3           , 9           , 5           , 0.1
-0.133776024, 0.138095647 , -9.790115   , 0.000111806788, -0.000134959177, 0.000413906469, -0.0133168241, -0.01307744 , 4.078589E-05, 922.7761    , 32.65613    , 782.1993    , 1.1         , 3           , 10          , 0.1         , 0.1
-0.128564924, 0.136887133 , -9.787697   , 0.000377018878, 0.0004357433, 0.000459154777, -0.0133225815, -0.0130743422, 4.54430738E-05, 922.7761    , 32.65613    , 782.184265  , 1.11        , 3           , 11          , 0.009431979 , 0.00943198
-0.128932878, 0.129719689 , -9.817514   , 0.000121679856, 0.0005282739, -0.000188155027, -0.0133213392, -0.0130690848, 4.34912072E-05, 922.7761    , 32.65613    , 782.1845    , 1.12        , 3           , 12          , 0.174642846 , 0
-0.1302666  , 0.1276758   , -9.800942   , 0.00033826087, 0.000149796091, -0.000304639078, -0.0133179165, -0.0130676264, 4.04249367E-05, 922.79126   , 32.6571465  , 782.184753  , 1.13        , 3           , 13          , 0           , 0
-0.125801   , 0.123869583 , -9.792247   , 0.0004210766, -0.000126303086, 0.000114335504, -0.01331372 , -0.0130688744, 4.158509E-05, 922.79126   , 32.6571465  , 782.185     , 1.14        , 3           , 14          , -0.0006586455, -0.000347745518
-0.125470683, 0.125713021 , -9.793655   , 0.000171446765, 7.530092E-05, -0.0003408207, -0.0133119626, -0.0130681666, 3.81669524E-05, 922.79126   , 32.6571465  , 782.185242  , 1.15        , 3           , 15          , 0           , -1.00237539E-05
-0.130421713, 0.123580016 , -9.789189   , 0.000358262652, -0.000130140135, 0.000353908574, -0.0133084254, -0.01306942 , 4.17232623E-05, 922.79126   , 32.6571465  , 782.1855    , 1.16        , 3           , 16          , 0           , 1.401298E-45
-0.115083173, 0.132151544 , -9.801325   , 0.000434621063, 0.000210802114, 0.000200668248, -0.013304106, -0.0130672865, 4.370184E-05, 922.79126   , 32.6571465  , 782.1857    , 1.17        , 3           , 20          , 0           , 0
-0.127543271, 0.135659754 , -9.795711   , 0.000226474891, -0.000281985878, -0.0002486395, -0.0133018093, -0.0130701382, 4.12530244E-05, 922.79126   , 32.6571465  , 782.186035  , 1.18        , 3           , 21          , 0           , 0
-0.115552105, 0.134888679 , -9.795036   , -0.0003610826, -0.000155682646, 0.00010053422, -0.0133054331, -0.0130716814, 4.227905E-05, 922.79126   , 32.6571465  , 782.18634   , 1.19        , 3           , 22          , 0           , 0
-0.122800566, 0.1386      , -9.786539   , -0.000201698509, -0.0004301718, -8.958936E-05, -0.0133074392, -0.0130759953, 4.14404276E-05, 922.79126   , 32.6571465  , 782.186646  , 1.2         , 3           , 40          , 0           , 0
-0.126015231, 0.14111796  , -9.800738   , 9.782438E-05, -0.000378618541, 0.000646209752, -0.0133076534, -0.0130724292, 4.796721E-05, 922.79126   , 32.6571465  , 782.1576    , 1.21        , 3           , 41          , 0           , 0
-0.1272002  , 0.132194191 , -9.800402   , 0.0004013176, -0.000126202242, 0.00019692583, -0.0133036654, -0.0130736642, 4.99532034E-05, 922.79126   , 32.6571465  , 782.1578    , 1.22        , 3           , 42          , 0           , 0
-0.126439065, 0.12612249  , -9.794321   , -0.000152354769, 0.000222943519, -0.000412375171, -0.013305136, -0.01307149 , 4.57999122E-05, 922.7973    , 32.6585732  , 782.157959  , 1.23        , 3           , 255         , 0           , 0
-0.137396991, 0.1301367   , -9.790012   , -0.0001356107, 1.633889E-06, -0.000103961414, -0.01330648 , -0.0130714886, 4.4760116E-05, 922.7973    , 32.6585732  , 782.158142  , 1.24        , 3           , 255         , 0           , 0
-0.130592674, 0.1362338   , -9.796019   , 3.231666E-05, -8.686472E-05, 0.000107767883, -0.0133061707, -0.0130723426, 4.58493232E-05, 922.7973    , 32.6585732  , 782.1583    , 1.25        , 3           , 255         , 0           , 0
-0.134226233, 0.136015177 , -9.799669   , 0.000132637564, -0.00028431142, 0.000265025825, -0.013304879, -0.0130751505, 4.85373457E-05, 922.7973    , 32.6585732  , 782.1585    , 1.26        , 3           , 255         , 0           , 0
-0.128561467, 0.13407591  , -9.794319   , 2.46239942E-05, 8.394642E-05, -0.000348264672, -0.0133045884, -0.0130743571, 4.504364E-05, 922.7973    , 32.6585732  , 782.1587    , 1.27        , 3           , 255         , 0           , 0
-0.126252308, 0.13087593  , -9.800667   , 0.000149624655, 7.671956E-05, -0.000144036676, -0.0133030741, -0.01307361 , 4.3593107E-05, 922.7973    , 32.6585732  , 782.1589    , 1.28        , 3           , 255         , 0           , 0
-0.131611869, 0.131287724 , -9.795599   , 0.000115581031, 0.000338528829, -0.0007861866, -0.0133018158, -0.0130703291, 3.56864257E-05, 922.7973    , 32.6585732  , 782.159058  , 1.29        , 3           , 255         , 0           , 0
-0.1275405  , 0.1300672   , -9.788031   , 0.0004415649, 0.0005033355, -0.00024650048, -0.0132973669, -0.0130653307, 3.31545525E-05, 922.7973    , 32.6585732  , 782.159241  , 1.3         , 3           , 255         , 0           , 0
-0.132056385, 0.12730971  , -9.795644   , 0.000205507 , 0.000153787914, 0.000149343818, -0.0133011322, -0.0130673414, 3.470331E-05, 922.7973    , 32.6585732  , 782.1273    , 1.31        , 3           , 255         , 0           , 0
-0.135507673, 0.134343356 , -9.791977   , -0.000149588159, -0.000309614785, 0.000348470872, -0.0133026736, -0.0130703915, 3.82291073E-05, 922.7973    , 32.6585732  , 782.127441  , 1.32        , 3           , 255         , 0           , 0
-0.141471162, 0.130950868 , -9.798789   , -1.35729206E-05, -9.985233E-06, 0.000326304667, -0.0133028524, -0.0130704483, 4.14933929E-05, 922.7763    , 32.6609459  , 782.127563  , 1.33        , 3           , 255         , 0           , 0
-0.132566661, 0.135903269 , -9.790031   , -3.43919965E-05, 9.432854E-05, 0.000475735666, -0.0133032566, -0.0130694406, 4.62380631E-05, 922.7763    , 32.6609459  , 782.1277    , 1.34        , 3           , 255         , 0           , 0
-0.11983867 , 0.141939119 , -9.790886   , -0.000363910163, -0.000103786151, 0.000861261738, -0.01330701 , -0.0130703626, 5.48642456E-05, 922.7763    , 32.6609459  , 782.1278    , 1.35        , 3           , 255         , 0           , 0
-0.124761127, 0.126597628 , -9.807257   , 0.000346184563, -0.000181505777, 0.000448161765, -0.013303604, -0.0130721182, 5.936989E-05, 922.7763    , 32.6609459  , 782.1279    , 1.36        , 3           , 255         , 0           , 0
-0.130820125, 0.127838969 , -9.79925    , -0.000229231373, 7.83831347E-05, 4.72848078E-05, -0.0133059043, -0.0130713284, 5.98322877E-05, 922.7763    , 32.6609459  , 782.128052  , 1.37        , 3           , 255         , 0           , 0
-0.1301746  , 0.128088042 , -9.793732   , 0.000351824536, 7.879009E-05, 0.000410297362, -0.01330244 , -0.0130704856, 6.39246646E-05, 922.7763    , 32.6609459  , 782.1282    , 1.38        , 3           , 255         , 0           , 0
-0.119872972, 0.136234969 , -9.783187   , 0.000189651619, 8.41631263E-05, 0.0006025541, -0.0133006219, -0.0130695635, 6.993885E-05, 922.7763    , 32.6609459  , 782.1283    , 1.39        , 3           , 255         , 0           , 0
-0.13007006 , 0.137702852 , -9.787357   , 0.0002226301, -0.000146631472, 0.000358144229, -0.0132984435, -0.0130709819, 7.353969E-05, 922.7763    , 32.6609459  , 782.1284    , 1.4         , 3           , 255         , 0           , 0
-0.126569822, 0.131845713 , -9.793585   , 0.00030406873, -0.000185057288, -0.0008886998, -0.0133015215, -0.013077396, 6.47591E-05 , 922.7763    , 32.6609459  , 782.121155  , 1.41        , 3           , 255         , 0           , 0
-0.127586648, 0.133841589 , -9.806065   , 0.0003219042, 0.000348493573, -0.000454961148, -0.0132982442, -0.0130739715, 6.01632746E-05, 922.7763    , 32.6609459  , 782.1212    , 1.42        , 3           , 255         , 0           , 0
-0.134965166, 0.133334965 , -9.798281   , 4.119624E-05, 0.000118831565, -0.0005151489, -0.0132977655, -0.013072852, 5.499613E-05, 922.7534    , 32.659317   , 782.1213    , 1.43        , 3           , 255         , 0           , 0
-0.126175687, 0.1258413   , -9.793097   , 0.000132351124, 8.12549551E-05, -0.000233023922, -0.0132964123, -0.01307207 , 5.26551557E-05, 922.7534    , 32.659317   , 782.121338  , 1.44        , 3           , 255         , 0           , 0
-0.124610886, 0.123870254 , -9.792046   , -0.00030895567, -0.000199894712, -0.000187668818, -0.0132994764, -0.0130740944, 5.08051E-05 , 922.7534    , 32.659317   , 782.1214    , 1.45        , 3           , 255         , 0           , 0
-0.1364342  , 0.13221927  , -9.798705   , -0.000165817386, -0.0003177416, -3.27376656E-05, -0.01330113 , -0.013077274, 5.05199969E-05, 922.7534    , 32.659317   , 782.12146   , 1.46        , 3           , 255         , 0           , 0
-0.132308066, 0.126633227 , -9.792299   , -0.000428034458, -0.00051388063, 2.88836563E-05, -0.0133054145, -0.0130824093, 5.087718E-05, 922.7534    , 32.659317   , 782.1216    , 1.47        , 3           , 255         , 0           , 0
-0.125166923, 0.126745775 , -9.79842949 , -0.000367056346, -0.000304094632, -0.000197056434, -0.0133090587, -0.0130854743, 4.89471349E-05, 922.7534    , 32.659317   , 782.1217    , 1.48        , 3           , 255         , 0           , 0
-0.12744835 , 0.121369675 , -9.797376   , 0.000235504762, -0.000370525056, -0.000404486316, -0.0133066522, -0.0130892331, 4.49516956E-05, 922.7534    , 32.659317   , 782.1218    , 1.49        , 3           , 255         , 0           , 0
-0.1344162  , 0.131134421 , -9.794644   , 0.000307288778, -0.0003171318, -0.00033483794, -0.013303536, -0.0130924489, 4.1645606E-05, 922.7534    , 32.659317   , 782.121948  , 1.5         , 3           , 255         , 0           , 0
-0.136593089, 0.134404391 , -9.794929   , -0.000251972058, -0.0005366057, -1.64189E-05, -0.0133025348, -0.0131010674, 4.15067043E-05, 922.7534    , 32.659317   , 782.139343  , 1.51        , 3           , 255         , 0           , 0
-0.1355313  , 0.135425359 , -9.793833   , -0.000849383941, -0.0005494931, 0.0008227959, -0.0133111365, -0.0131064514, 4.980755E-05, 922.7534    , 32.659317   , 782.1395    , 1.52        , 3           , 255         , 0           , 0
-0.130477875, 0.127684027 , -9.796166   , -0.000471036939, -0.000412147521, 0.000461177522, -0.0133159067, -0.0131105119, 5.44740651E-05, 922.8131    , 32.6608124  , 782.1397    , 1.53        , 3           , 255         , 0           , 0
-0.1330481  , 0.125400662 , -9.79863548 , 6.496429E-05, 0.000262948277, -0.00037569087, -0.0133152083, -0.0131079331, 5.068225E-05, 922.8131    , 32.6608124  , 782.1399    , 1.54        , 3           , 255         , 0           , 0
-0.124963023, 0.130000621 , -9.790564   , -0.000221118913, -0.000180362636, -0.0005168527, -0.0133173522, -0.0131098051, 4.55378831E-05, 922.8131    , 32.6608124  , 782.1401    , 1.55        , 3           , 255         , 0           , 0
-0.120954834, 0.128542274 , -9.793569   , 4.816451E-06, -4.123323E-05, -0.000306764618, -0.0133172637, -0.0131102577, 4.247581E-05, 922.8131    , 32.6608124  , 782.140259  , 1.56        , 3           , 255         , 0           , 0
-0.126204863, 0.124886774 , -9.790014   , 3.55384545E-05, -7.181635E-05, -4.07181324E-06, -0.0133169061, -0.0131109767, 4.2444648E-05, 922.8131    , 32.6608124  , 782.140442  , 1.57        , 3           , 255         , 0           , 0
-0.128091887, 0.129427    , -9.79314    , 0.000267966971, -0.000183155615, -0.000301310472, -0.0133141866, -0.0131128477, 3.94560229E-05, 922.8131    , 32.6608124  , 782.1406    , 1.58        , 3           , 255         , 0           , 0
-0.126482025, 0.124587819 , -9.789401   , 0.000173098524, -9.532648E-05, -0.0001805049, -0.0133124329, -0.0131138256, 3.76637036E-05, 922.8131    , 32.6608124  , 782.1408    , 1.59        , 3           , 255         , 0           , 0
-0.125835657, 0.1245177   , -9.791112   , 0.000235746935, 0.000132582674, 2.92474688E-05, -0.0133100785, -0.0131124938, 3.79385237E-05, 922.8131    , 32.6608124  , 782.141     , 1.6         , 3           , 255         , 0           , 0
-0.125056475, 0.134813339 , -9.78994    , -0.000119413715, 0.0008491719, 0.000211736769, -0.0133062107, -0.0131050851, 3.98760858E-05, 922.8131    , 32.6608124  , 782.092651  , 1.61        , 3           , 255         , 0           , 0
-0.122540154, 0.134586692 , -9.78716    , 0.0004969388, 0.000134534421, 0.0004505869, -0.0133013008, -0.01310368 , 4.436394E-05, 922.8131    , 32.6608124  , 782.0926    , 1.62        , 3           , 255         , 0           , 0
-0.132648736, 0.129090786 , -9.794337   , 5.426933E-05, 0.000363269384, 0.000293730758, -0.0133007979, -0.0131000113, 4.72528554E-05, 922.742     , 32.6615562  , 782.0925    , 1.63        , 3           , 255         , 0           , 0
-0.125578552, 0.127825379 , -9.799336   , 0.0005346961, 0.000134018352, -0.000415544724, -0.0132953962, -0.013098726, 4.30797045E-05, 922.742     , 32.6615562  , 782.092468  , 1.64        , 3           , 255         , 0           , 0
-0.133139521, 0.126476958 , -9.797834   , 0.000210078608, 0.0002116128, -0.000359494821, -0.0132932458, -0.0130966585, 3.945672E-05, 922.742     , 32.6615562  , 782.0924    , 1.65        , 3           , 255         , 0           , 0
-0.1346235  , 0.118820354 , -9.790396   , 0.0003787367, 5.324473E-05, -0.000339309743, -0.0132894162, -0.0130961714, 3.60566519E-05, 922.742     , 32.6615562  , 782.092346  , 1.66        , 3           , 255         , 0           , 0
-0.123979449, 0.1311363   , -9.79101    , 0.000640415645, 0.000144658945, -0.0004033554, -0.0132829593, -0.0130947782, 3.200399E-05, 922.742     , 32.6615562  , 782.0923    , 1.67        , 3           , 255         , 0           , 0
-0.131656274, 0.132002562 , -9.790877   , 0.000275280356, 0.000120142853, 0.0003331158, -0.01328025 , -0.0130935321, 3.531909E-05, 922.742     , 32.6615562  , 782.0922    , 1.68        , 3           , 255         , 0           , 0
-0.125429437, 0.142336562 , -9.796651   , 0.000338450656, -0.000432354922, 0.000118869895, -0.0132768806, -0.0130978394, 3.656518E-05, 922.742     , 32.6615562  , 782.092163  , 1.69        , 3           , 255         , 0           , 0
-0.125133753, 0.1442521   , -9.797019   , 0.0005093239, 0.000257436332, 2.96299731E-05, -0.0132717919, -0.0130952653, 3.68273E-05 , 922.742     , 32.6615562  , 782.0921    , 1.7         , 3           , 255         , 0           , 0
-0.12840572 , 0.14027071  , -9.805436   , 0.000415951537, 0.000194797234, 0.0009537468, -0.0132726068, -0.0130924117, 4.6402165E-05, 922.742     , 32.6615562  , 782.1264    , 1.71        , 3           , 255         , 0           , 0
-0.123928681, 0.137625247 , -9.791906   , 1.043902E-05, 0.000233433122, 0.0003539928, -0.013272549, -0.0130900275, 4.991101E-05, 922.742     , 32.6615562  , 782.1266    , 1.72        , 3           , 255         , 0           , 0
-0.126726314, 0.135308266 , -9.796141   , 0.0005708671, -0.000139294541, 0.0003741629, -0.0132668894, -0.0130913714, 5.367102E-05, 922.787354  , 32.6615562  , 782.1268    , 1.73        , 3           , 255         , 0           , 0
-0.123954609, 0.132094547 , -9.795839   , 0.000468803541, 3.59230035E-05, 0.000219817317, -0.0132622309, -0.0130909821, 5.586438E-05, 922.787354  , 32.6615562  , 782.126953  , 1.74        , 3           , 255         , 0           , 0
-0.119292937, 0.129707873 , -9.7903     , 3.9763574E-05, 0.000308346032, 0.000355776341, -0.0132618779, -0.0130878519, 5.93811528E-05, 922.787354  , 32.6615562  , 782.127136  , 1.75        , 3           , 255         , 0           , 0
-0.134128734, 0.136494428 , -9.797737   , 3.94280069E-05, -0.000188967853, -0.000116602037, -0.01326147 , -0.0130897565, 5.824022E-05, 922.787354  , 32.6615562  , 782.1273    , 1.76        , 3           , 255         , 0           , 0
-0.129308179, 0.136846468 , -9.795128   , 0.000203615607, 2.11737934E-05, 0.0003055942, -0.0132594751, -0.0130895078, 6.12932854E-05, 922.787354  , 32.6615562  , 782.1275    , 1.77        , 3           , 255         , 0           , 0
-0.126412839, 0.125834629 , -9.79879951 , 0.000749438 , 0.0008382033, 0.00107334717, -0.01325212 , -0.0130809834, 7.19153541E-05, 922.787354  , 32.6615562  , 782.1277    , 1.78        , 3           , 255         , 0           , 0
-0.126979709, 0.125454456 , -9.795084   , 0.000170250481, 0.0002974113, 0.000405399216, -0.0132504692, -0.0130779576, 7.592983E-05, 922.787354  , 32.6615562  , 782.127869  , 1.79        , 3           , 255         , 0           , 0
-0.127714187, 0.12986815  , -9.79065    , -0.000358229561, -0.000370214228, -0.0002059023, -0.013254026, -0.0130816866, 7.3919924E-05, 922.787354  , 32.6615562  , 782.128052  , 1.8         , 3           , 255         , 0           , 0
-0.121841073, 0.129279539 , -9.79101849 , -8.873019E-05, -0.000350073678, -0.0002044263, -0.0132613666, -0.013081898, 7.200688E-05, 922.787354  , 32.6615562  , 782.1079    , 1.81        , 3           , 255         , 0           , 0
-0.130752414, 0.119318865 , -9.795885   , -0.000375857635, -0.0001285346, -0.00015416005, -0.013265105, -0.0130832037, 7.048236E-05, 922.787354  , 32.6615562  , 782.108     , 1.82        , 3           , 255         , 0           , 0
-0.135714278, 0.135401517 , -9.800188   , 0.0001662997, 0.000145605678, -0.000259362045, -0.0132634072, -0.0130817816, 6.78695E-05 , 922.7538    , 32.6621     , 782.108032  , 1.83        , 3           , 255         , 0           , 0
-0.121084474, 0.136027128 , -9.799609   , 0.0003204301, 0.0005154576, 0.0001664846, -0.0132602239, -0.0130766062, 6.946595E-05, 922.7538    , 32.6621     , 782.1081    , 1.84        , 3           , 255         , 0           , 0
-0.12455032 , 0.12973249  , -9.804148   , 0.000154829584, 0.0003438416, 0.0001255404, -0.0132586928, -0.013073151, 7.067573E-05, 922.7538    , 32.6621     , 782.108154  , 1.85        , 3           , 255         , 0           , 0
-0.128259346, 0.1287395   , -9.793327   , 2.08295533E-05, -7.915875E-05, -0.0002453248, -0.0132584525, -0.0130739743, 6.823305E-05, 922.7538    , 32.6621     , 782.1082    , 1.86        , 3           , 255         , 0           , 0
-0.1381719  , 0.132766858 , -9.794743   , 0.000171705935, 0.000434760877, -0.000150220061, -0.0132567147, -0.0130696511, 6.667324E-05, 922.7538    , 32.6621     , 782.1083    , 1.87        , 3           , 255         , 0           , 0
-0.1301841  , 0.134580821 , -9.79645    , 0.000352050818, 0.000503151 , 0.000128962231, -0.013253211, -0.0130646024, 6.78961442E-05, 922.7538    , 32.6621     , 782.108337  , 1.88        , 3           , 255         , 0           , 0
-0.131733924, 0.134399623 , -9.799327   , -0.000260617468, 0.000219559734, 0.00021315318, -0.0132558448, -0.0130623784, 6.999852E-05, 922.7538    , 32.6621     , 782.1084    , 1.89        , 3           , 255         , 0           , 0
-0.134798139, 0.1364383   , -9.797846   , -0.000216393615, 0.000446722872, -0.000133972149, -0.01325799 , -0.0130579285, 6.85996056E-05, 922.7538    , 32.6621     , 782.108459  , 1.9         , 3           , 255         , 0           , 0
-0.117366754, 0.14221774  , -9.798472   , -0.0003590199, 0.0005645847, 0.0006211052, -0.0132650351, -0.0130552659, 7.477967E-05, 922.7538    , 32.6621     , 782.12915   , 1.91        , 3           , 255         , 0           , 0
-0.122004829, 0.130354032 , -9.7894     , -3.75655363E-05, -0.000226235512, -0.000377720047, -0.0132653611, -0.0130575774, 7.10325839E-05, 922.7538    , 32.6621     , 782.129333  , 1.92        , 3           , 255         , 0           , 0
-0.128539473, 0.133143961 , -9.793094   , -0.000254483137, -0.000130305183, -0.000688940054, -0.013267816, -0.0130589725, 6.416065E-05, 922.774353  , 32.6637955  , 782.1295    , 1.93        , 3           , 255         , 0           , 0
-0.129535481, 0.147363931 , -9.802556   , -0.000520645233, 0.000245653471, -0.000675467541, -0.0132729337, -0.013056607, 5.7373567E-05, 922.774353  , 32.6637955  , 782.1297    , 1.94        , 3           , 255         , 0           , 0
-0.12857756 , 0.14382337  , -9.806673   , -0.000305548368, 0.000299222622, -0.000122278361, -0.0132759726, -0.0130536314, 5.61111046E-05, 922.774353  , 32.6637955  , 782.1299    , 1.95        , 3           , 255         , 0           , 0
-0.129717916, 0.132793665 , -9.803682   , 0.000607781054, -2.96859071E-06, -8.78016E-05, -0.0132698845, -0.0130536724, 5.52335077E-05, 922.774353  , 32.6637955  , 782.1301    , 1.96        , 3           , 255         , 0           , 0
-0.1219244  , 0.135402769 , -9.786064   , 0.0001764138, 0.0002817525, 5.92958E-05 , -0.0132681271, -0.0130508468, 5.57890635E-05, 922.774353  , 32.6637955  , 782.1304    , 1.97        , 3           , 255         , 0           , 0
-0.1254503  , 0.1289631   , -9.792367   , -0.000278299383, 4.22203739E-05, 0.000621190062, -0.0132709919, -0.013050342, 6.199518E-05, 922.774353  , 32.6637955  , 782.1306    , 1.98        , 3           , 255         , 0           , 0
-0.128631   , 0.122644678 , -9.794342   , -0.0008406097, -0.000127286272, 0.000673208 , -0.0132794837, -0.0130515248, 6.874396E-05, 922.774353  , 32.6637955  , 782.130859  , 1.99        , 3           , 255         , 0           , 0
-0.120043918, 0.123805    , -9.794342   , -6.259419E-05, 0.000174745175, 0.00026267505, -0.0132801449, -0.0130497459, 7.134744E-05, 922.774353  , 32.6637955  , 782.1311    , 2           , 3           , 0           , 7.48823643  , 200
-0.117908105, 0.1334678   , -9.800923   , 0.000136172574, 0.000117752992, 0.0003771875, -0.0132868821, -0.013043033, 7.520858E-05, 922.774353  , 32.6637955  , 782.125     , 2.01        , 3           , 1           , 0           , 0
-0.1254603  , 0.128281638 , -9.804056   , 3.66638415E-06, -0.000100288627, -0.000291583827, -0.0132868076, -0.0130440742, 7.230616E-05, 922.774353  , 32.6637955  , 782.1252    , 2.02        , 3           , 2           , 0           , 0
-0.140663087, 0.130200818 , -9.795355   , -0.0003453709, 0.0004838836, -0.000266729534, -0.0132902265, -0.0130392723, 6.957464E-05, 922.7734    , 32.6624374  , 782.125366  , 2.03        , 3           , 3           , 0           , 0
-0.129331738, 0.12886624  , -9.783458   , 0.000168953091, -0.000267943949, -0.000212843268, -0.0132885091, -0.01304198 , 6.748187E-05, 922.7734    , 32.6624374  , 782.125549  , 2.04        , 3           , 4           , 0           , 0
-0.122314192, 0.130215377 , -9.794268   , 0.0007102754, -1.0904565E-05, -0.0004205363, -0.0132813519, -0.0130421435, 6.327809E-05, 922.7734    , 32.6624374  , 782.125732  , 2.05        , 3           , 5           , 0           , 0
-0.13258037 , 0.130025044 , -9.796602   , 0.000476270943, -1.03784841E-05, -0.000306673348, -0.0132765481, -0.0130422879, 6.02128166E-05, 922.7734    , 32.6624374  , 782.1259    , 2.06        , 3           , 6           , 0           , 0
-0.127431229, 0.135340974 , -9.803088   , 0.000124963408, 0.000334794866, -6.650738E-05, -0.0132752908, -0.0130389491, 5.95033125E-05, 922.7734    , 32.6624374  , 782.1261    , 2.07        , 3           , 7           , 0           , 0
-0.128236473, 0.128937647 , -9.799087   , -0.000115112227, -0.0001434504, 0.000335681427, -0.0132764839, -0.0130403386, 6.287907E-05, 922.7734    , 32.6624374  , 782.1263    , 2.08        , 3           , 8           , 5           , 5
-0.122652531, 0.140233234 , -9.794061   , -0.000217884721, -0.000205550983, 0.0007854798, -0.0132787656, -0.01304229 , 7.07609361E-05, 922.7734    , 32.6624374  , 782.126465  , 2.09        , 3           , 9           , 5           , 0.1
-0.123323105, 0.132483155 , -9.803495   , -2.717966E-05, 2.56731582E-05, 0.000312879769, -0.0132790795, -0.0130419917, 7.38862364E-05, 922.7734    , 32.6624374  , 782.126648  , 2.1         , 3           , 10          , 0.1         , 0.1
-0.1248941  , 0.136784673 , -9.799116   , -0.0006139126, -0.00012644392, 0.0007016535, -0.0132883312, -0.0130416807, 8.095879E-05, 922.7734    , 32.6624374  , 782.1221    , 2.11        , 3           , 11          , 0.008394983 , 0.008394983
-0.1339607  , 0.143350169 , -9.796255   , 0.000495545159, -0.000287425355, 0.000768233 , -0.0132834772, -0.0130444532, 8.86790949E-05, 922.7734    , 32.6624374  , 782.122253  , 2.12        , 3           , 12          , 0.174643889 , 0
-0.123683073, 0.128350362 , -9.791907   , 0.000197941466, -0.000396232877, 8.391872E-05, -0.0132815083, -0.013048403, 8.957087E-05, 922.74585   , 32.6656952  , 782.122437  , 2.13        , 3           , 13          , 0           , 0
-0.123830833, 0.1321213   , -9.790878   , 0.000201755262, 9.896976E-05, -0.00016457148, -0.0132794706, -0.0130474344, 8.79120562E-05, 922.74585   , 32.6656952  , 782.1226    , 2.14        , 3           , 14          , -0.000658577657, -0.000347754976
-0.122852668, 0.139061317 , -9.784976   , 0.00113459909, 0.000334105775, 0.000505674 , -0.0132681886, -0.0130440295, 9.292432E-05, 922.74585   , 32.6656952  , 782.1228    , 2.15        , 3           , 15          , 0           , -1.00247707E-05
-0.134242728, 0.128734946 , -9.785025   , 0.000544389535, 0.00035873038, 0.0009467084, -0.0132628679, -0.0130403144, 0.000102343547, 922.74585   , 32.6656952  , 782.123     , 2.16        , 3           , 16          , 0           , 1.401298E-45
-0.129286945, 0.130898446 , -9.795085   , -1.2990844E-05, 9.510448E-05, 0.000603372348, -0.0132630756, -0.0130392835, 0.000108364489, 922.74585   , 32.6656952  , 782.123169  , 2.17        , 3           , 20          , 0           , 0
-0.124370381, 0.1262312   , -9.792097   , 0.000345608976, -0.000501596, -5.97968974E-05, -0.0132596139, -0.013044307, 0.000107833053, 922.74585   , 32.6656952  , 782.123352  , 2.18        , 3           , 21          , 0           , 0
-0.133552074, 0.132871389 , -9.798193   , 7.350603E-05, -0.000235110463, -9.676491E-05, -0.013258866, -0.0130466707, 0.0001068966, 922.74585   , 32.6656952  , 782.123535  , 2.19        , 3           , 22          , 0           , 0
-0.1195341  , 0.13682358  , -9.788874   , -0.0004356088, -0.000356958481, 0.0005724452, -0.0132632963, -0.013050165, 0.000112668233, 922.74585   , 32.6656952  , 782.1237    , 2.2         , 3           , 40          , 0           , 0
-0.125945076, 0.133638829 , -9.788676   , 0.000106204825, -0.000551692559, 0.000710480439, -0.0132711045, -0.0130537506, 0.000119960576, 922.74585   , 32.6656952  , 782.1543    , 2.21        , 3           , 41          , 0           , 0
-0.136288509, 0.1308682   , -9.792633   , 0.0003743993, 1.66632235E-05, 0.000300719083, -0.0132674  , -0.0130535448, 0.000122965488, 922.74585   , 32.6656952  , 782.154663  , 2.22        , 3           , 42          , 0           , 0
-0.124128774, 0.123630166 , -9.792567   , 0.000215408567, 0.000232531369, 0.000401200377, -0.0132652959, -0.0130511662, 0.000126946514, 922.763733  , 32.66556    , 782.155     , 2.23        , 3           , 255         , 0           , 0
-0.129169881, 0.1225697   , -9.794284   , 0.000647283741, 4.81160823E-05, 9.404248E-06, -0.013258826, -0.0130506875, 0.000127034189, 922.763733  , 32.66556    , 782.1554    , 2.24        , 3           , 255         , 0           , 0
-0.128734291, 0.133708924 , -9.796622   , 0.001171564 , -0.000426304876, 0.0005794042, -0.0132471863, -0.0130548719, 0.000132884568, 922.763733  , 32.66556    , 782.155762  , 2.25        , 3           , 255         , 0           , 0
-0.126582488, 0.132302538 , -9.798637   , -0.000228102552, -0.000282344583, 0.000220921022, -0.0132494951, -0.013057664, 0.000135131108, 922.763733  , 32.66556    , 782.1561    , 2.26        , 3           , 255         , 0           , 0
-0.130400449, 0.1348907   , -9.79368    , 0.0002747195, -0.000212525891, -0.0008611653, -0.0132466368, -0.0130599039, 0.00012654785, 922.763733  , 32.66556    , 782.1565    , 2.27        , 3           , 255         , 0           , 0
-0.120838441, 0.133109018 , -9.79081    , 0.000460450363, -0.00065874384, -0.0004155009, -0.0132419784, -0.0130665451, 0.0001224802, 922.763733  , 32.66556    , 782.15686   , 2.28        , 3           , 255         , 0           , 0
-0.128631473, 0.1270858   , -9.79375648 , -0.000310914184, 0.000120159253, -0.000169845516, -0.0132450657, -0.013065367, 0.000120765864, 922.763733  , 32.66556    , 782.1573    , 2.29        , 3           , 255         , 0           , 0
-0.127052441, 0.12365067  , -9.794734   , -6.35745237E-05, -3.373722E-05, 8.449293E-05, -0.013245713, -0.013065693, 0.000121615238, 922.763733  , 32.66556    , 782.1577    , 2.3         , 3           , 255         , 0           , 0
-0.132216036, 0.126857072 , -9.792634   , 0.0002553031, -0.00016424252, -0.000164837576, -0.0132425977, -0.01306718 , 0.000119981589, 922.763733  , 32.66556    , 782.161438  , 2.31        , 3           , 255         , 0           , 0
-0.133914232, 0.126099452 , -9.795474   , 0.000629500137, -0.000615043333, -0.000665700238, -0.0132362163, -0.01307342 , 0.0001134062, 922.763733  , 32.66556    , 782.161865  , 2.32        , 3           , 255         , 0           , 0
-0.123392977, 0.131998733 , -9.794244   , 4.12333175E-05, -0.000688913453, 6.102293E-05, -0.0132358121, -0.013080298, 0.000114107592, 922.762268  , 32.6635246  , 782.1623    , 2.33        , 3           , 255         , 0           , 0
-0.118081771, 0.133473128 , -9.803507   , -5.035824E-05, -0.000226991717, -7.202689E-05, -0.0132363066, -0.0130825778, 0.00011341738, 922.762268  , 32.6635246  , 782.1627    , 2.34        , 3           , 255         , 0           , 0
-0.126327723, 0.131545663 , -9.80098152 , -0.0006619186, -0.0007997605, -0.00101167872, -0.0132427951, -0.0130907074, 0.000103406746, 922.762268  , 32.6635246  , 782.163147  , 2.35        , 3           , 255         , 0           , 0
-0.136526063, 0.135135412 , -9.79777    , -0.000385099964, 0.000169173436, 0.000228476943, -0.013246675, -0.0130889853, 0.000105669045, 922.762268  , 32.6635246  , 782.1636    , 2.36        , 3           , 255         , 0           , 0
-0.123858407, 0.136439681 , -9.793768   , 0.000393000984, 6.281157E-05, 0.000234563049, -0.0132427756, -0.013088326, 0.000108006287, 922.762268  , 32.6635246  , 782.164     , 2.37        , 3           , 255         , 0           , 0
-0.119573   , 0.13457936  , -9.78243    , 0.0003601343, 5.4598E-05  , 0.000239277491, -0.013239204, -0.0130877485, 0.000110391775, 922.762268  , 32.6635246  , 782.1644    , 2.38        , 3           , 255         , 0           , 0
-0.116635345, 0.1322165   , -9.79758549 , -0.0003242662, 7.578023E-05, 0.0003495538, -0.0132424934, -0.0130869448, 0.000113877191, 922.762268  , 32.6635246  , 782.164856  , 2.39        , 3           , 255         , 0           , 0
-0.12372575 , 0.133650512 , -9.793217   , -0.000318425067, -0.000706359, -6.09832059E-05, -0.0132456711, -0.0130940173, 0.000113360911, 922.762268  , 32.6635246  , 782.1653    , 2.4         , 3           , 255         , 0           , 0
-0.1292222  , 0.125425518 , -9.799927   , -6.044167E-06, -0.000306675181, -0.00020682413, -0.0132506154, -0.0130916368, 0.00011139764, 922.762268  , 32.6635246  , 782.17      , 2.41        , 3           , 255         , 0           , 0
-0.132845834, 0.142343044 , -9.811645   , -6.156019E-05, 0.000213319014, -0.0006935651, -0.01325114 , -0.0130895944, 0.000104433908, 922.762268  , 32.6635246  , 782.1705    , 2.42        , 3           , 255         , 0           , 0
-0.128805235, 0.141342491 , -9.793913   , 5.02383919E-05, -0.000402336445, -2.777056E-05, -0.013250635, -0.0130936224, 0.000104209525, 922.74054   , 32.6637955  , 782.170959  , 2.43        , 3           , 255         , 0           , 0
-0.133979052, 0.138946339 , -9.796915   , -0.000175232533, -0.00014445986, 3.06546863E-05, -0.0132523915, -0.0130950632, 0.0001045352, 922.74054   , 32.6637955  , 782.171448  , 2.44        , 3           , 255         , 0           , 0
-0.138484031, 0.1410476   , -9.799277   , -0.00017512677, -0.000289811433, 0.000276488368, -0.0132541787, -0.0130979242, 0.000107338412, 922.74054   , 32.6637955  , 782.171936  , 2.45        , 3           , 255         , 0           , 0
-0.1305683  , 0.1248364   , -9.803177   , 0.0004240254, -0.0003523672, 0.000349563546, -0.013249984, -0.0131014008, 0.000110880661, 922.74054   , 32.6637955  , 782.1724    , 2.46        , 3           , 255         , 0           , 0
-0.125603765, 0.124879323 , -9.794995   , 0.000641769846, 0.0001653354, -0.000285634946, -0.01324353 , -0.013099785, 0.000108002489, 922.74054   , 32.6637955  , 782.1729    , 2.47        , 3           , 255         , 0           , 0
-0.123485781, 0.130363435 , -9.794468   , -7.966859E-05, 5.06962242E-05, -0.000221686641, -0.0132442964, -0.0130993072, 0.000105778963, 922.74054   , 32.6637955  , 782.1734    , 2.48        , 3           , 255         , 0           , 0
-0.12688145 , 0.124021843 , -9.785647   , -0.000470069353, 0.000150738837, -0.0004021255, -0.0132489447, -0.0130978534, 0.000101737853, 922.74054   , 32.6637955  , 782.1739    , 2.49        , 3           , 255         , 0           , 0
-0.127179608, 0.129853934 , -9.792473   , 0.000187288388, -0.000475576875, -0.000652219635, -0.013246987, -0.0131026963, 9.527883E-05, 922.74054   , 32.6637955  , 782.1744    , 2.5         , 3           , 255         , 0           , 0
-0.130055442, 0.138558418 , -9.796349   , 0.000294188678, 0.0002323712, 0.000217238325, -0.0132482611, -0.0131026926, 9.747528E-05, 922.74054   , 32.6637955  , 782.207031  , 2.51        , 3           , 255         , 0           , 0
-0.13809523 , 0.1287144   , -9.79451    , 0.000271713972, 0.0004926789, 0.0002075132, -0.0132455723, -0.0130977379, 9.948509E-05, 922.74054   , 32.6637955  , 782.2077    , 2.52        , 3           , 255         , 0           , 0
-0.134018838, 0.133711427 , -9.79135    , 0.000286912866, -5.36660082E-05, -0.000636771438, -0.0132426191, -0.0130983591, 9.312466E-05, 922.7472    , 32.6633873  , 782.2084    , 2.53        , 3           , 255         , 0           , 0
-0.130709648, 0.131484345 , -9.791512   , 0.000183590455, 6.251008E-06, -0.0003807069, -0.0132407332, -0.013098347, 8.931686E-05, 922.7472    , 32.6633873  , 782.209045  , 2.54        , 3           , 255         , 0           , 0
-0.13107352 , 0.133852944 , -9.795446   , 0.000182575313, 0.00010904971, -6.147743E-05, -0.0132389  , -0.0130972648, 8.868768E-05, 922.7472    , 32.6633873  , 782.2098    , 2.55        , 3           , 255         , 0           , 0
-0.1338815  , 0.125752881 , -9.789807   , -0.000117790885, -0.00037647906, 0.000180905525, -0.0132401027, -0.013101005, 9.054652E-05, 922.7472    , 32.6633873  , 782.2105    , 2.56        , 3           , 255         , 0           , 0
-0.146461517, 0.126014024 , -9.795684   , 0.0002361156, 0.000321885251, 0.000259535445, -0.0132377753, -0.0130977519, 9.309919E-05, 922.7472    , 32.6633873  , 782.211243  , 2.57        , 3           , 255         , 0           , 0
-0.142900631, 0.130985171 , -9.79806    , 0.0007185376, -7.25452555E-05, -0.000157076836, -0.01323057 , -0.0130985007, 9.1538066E-05, 922.7472    , 32.6633873  , 782.212     , 2.58        , 3           , 255         , 0           , 0
-0.131133631, 0.132816121 , -9.79738    , 0.000216017885, -0.000237399654, -0.0006134145, -0.01322833 , -0.0131009538, 8.54355E-05 , 922.7472    , 32.6633873  , 782.2127    , 2.59        , 3           , 255         , 0           , 0
-0.14016892 , 0.1366925   , -9.79735    , 0.000406160834, 0.000233546059, 0.000145088183, -0.013224287, -0.0130985994, 8.685545E-05, 922.7472    , 32.6633873  , 782.21344   , 2.6         , 3           , 255         , 0           , 0
-0.135710284, 0.1311803   , -9.799304   , -0.000198602153, -0.000371214526, 0.000276449631, -0.0132304989, -0.0131168216, 8.97239152E-05, 922.7472    , 32.6633873  , 782.232056  , 2.61        , 3           , 255         , 0           , 0
-0.131850377, 0.131505191 , -9.801822   , 0.0002716236, 5.837038E-05, 8.653864E-05, -0.0132277943, -0.0131162265, 9.058156E-05, 922.7472    , 32.6633873  , 782.2329    , 2.62        , 3           , 255         , 0           , 0
-0.119840182, 0.1342109   , -9.792834   , 0.0004025634, 0.000247502758, 0.000124606959, -0.013223784, -0.0131137352, 9.179487E-05, 922.7363    , 32.6637268  , 782.233765  , 2.63        , 3           , 255         , 0           , 0
-0.13326256 , 0.132766962 , -9.801407   , 1.869438E-05, -0.000208346813, -0.000143530386, -0.0132235792, -0.0131158372, 9.03871551E-05, 922.7363    , 32.6637268  , 782.2346    , 2.64        , 3           , 255         , 0           , 0
-0.128631622, 0.12760362  , -9.801262   , 0.000775832741, -0.000249343226, 0.0006490795, -0.0132159069, -0.0131182456, 9.691074E-05, 922.7363    , 32.6637268  , 782.2355    , 2.65        , 3           , 255         , 0           , 0
-0.117063656, 0.126140967 , -9.798953   , 0.000446843274, -0.000284582318, -0.000125323219, -0.0132114226, -0.0131211067, 9.569515E-05, 922.7363    , 32.6637268  , 782.2363    , 2.66        , 3           , 255         , 0           , 0
-0.127551287, 0.124746442 , -9.785792   , 0.000264225848, -9.040267E-05, 0.0008517975, -0.0132088913, -0.0131218974, 0.00010422484, 922.7363    , 32.6637268  , 782.2372    , 2.67        , 3           , 255         , 0           , 0
-0.131426647, 0.132926136 , -9.788053   , 0.00017022976, -0.000141757308, 0.000120456869, -0.0132072037, -0.013123299, 0.000105448089, 922.7363    , 32.6637268  , 782.238037  , 2.68        , 3           , 255         , 0           , 0
-0.128480762, 0.131469235 , -9.792187   , -2.70250021E-05, 0.000190145016, -0.0004956919, -0.0132074095, -0.0131214634, 0.00010046619, 922.7363    , 32.6637268  , 782.2389    , 2.69        , 3           , 255         , 0           , 0
-0.133576125, 0.119596146 , -9.787647   , -0.0006901702, -0.00037495885, -0.00046202814, -0.01321425 , -0.0131252753, 9.589557E-05, 922.7363    , 32.6637268  , 782.239746  , 2.7         , 3           , 255         , 0           , 0
-0.129953116, 0.129687518 , -9.794083   , -9.890756E-05, -0.000336976023, -2.37472887E-06, -0.013214726, -0.0131290918, 9.59096142E-05, 922.7363    , 32.6637268  , 782.2698    , 2.71        , 3           , 255         , 0           , 0
-0.12906523 , 0.1274624   , -9.796226   , 0.000237438479, 0.000181189753, 0.000528794539, -0.013212421, -0.0131272106, 0.000101173471, 922.7363    , 32.6637268  , 782.2708    , 2.72        , 3           , 255         , 0           , 0
-0.123575807, 0.1326065   , -9.800428   , -7.648743E-05, 0.0003021339, 0.000174367378, -0.013213207, -0.013124167, 0.000102877188, 922.7098    , 32.6662369  , 782.271851  , 2.73        , 3           , 255         , 0           , 0
-0.134353489, 0.130048245 , -9.799552   , -7.77742243E-05, 0.000314948149, 0.0001322163, -0.0132140014, -0.013121   , 0.000104157691, 922.7098    , 32.6662369  , 782.2729    , 2.74        , 3           , 255         , 0           , 0
-0.135277554, 0.131733626 , -9.797093   , 0.0006980621, 0.0002423197, 0.000881446933, -0.0132071367, -0.0131184617, 0.000112939924, 922.7098    , 32.6662369  , 782.2739    , 2.75        , 3           , 255         , 0           , 0
-0.12983    , 0.12681368  , -9.797415   , 0.0007063715, 4.95088461E-05, 0.000173891371, -0.0132000977, -0.0131179439, 0.000114672257, 922.7098    , 32.6662369  , 782.274963  , 2.76        , 3           , 255         , 0           , 0
-0.131659061, 0.12927103  , -9.800006   , 0.000509234844, -0.000236408436, 0.0008801064, -0.0131951207, -0.0131201921, 0.000123504287, 922.7098    , 32.6662369  , 782.276     , 2.77        , 3           , 255         , 0           , 0
-0.134452626, 0.133416578 , -9.801477   , 0.00028455237, -0.000321685977, 0.000244334457, -0.0131923072, -0.0131233772, 0.000125990016, 922.7098    , 32.6662369  , 782.277039  , 2.78        , 3           , 255         , 0           , 0
-0.127694741, 0.13439852  , -9.797052   , 0.0005407427, -5.4546108E-05, -9.83082E-05, -0.013186886, -0.013123937, 0.000125014165, 922.7098    , 32.6662369  , 782.2781    , 2.79        , 3           , 255         , 0           , 0
-0.118771136, 0.135207027 , -9.788804   , 0.000231851533, -0.000209020334, 9.222754E-05, -0.0131845819, -0.0131260147, 0.000125963983, 922.7098    , 32.6662369  , 782.2791    , 2.8         , 3           , 255         , 0           , 0
-0.1325278  , 0.1289739   , -9.783022   , -5.11846156E-05, 0.000143232071, -0.00100399554, -0.0131876254, -0.0131261954, 0.000115940376, 922.7098    , 32.6662369  , 782.3406    , 2.81        , 3           , 255         , 0           , 0
-0.121638313, 0.130693316 , -9.791463   , 0.0003196578, 0.000529404031, -0.000325399276, -0.0131843863, -0.0131209474, 0.000112616661, 922.7098    , 32.6662369  , 782.342041  , 2.82        , 3           , 255         , 0           , 0
-0.120203055, 0.137860715 , -9.796133   , -5.29853278E-05, 0.000635666365, -0.0006821158, -0.0131848259, -0.0131146815, 0.000105711879, 922.808838  , 32.6658974  , 782.3435    , 2.83        , 3           , 255         , 0           , 0
-0.132568076, 0.137537    , -9.79785    , -0.000464071461, 0.000395372335, -0.000284821348, -0.0131894294, -0.0131107653, 0.000102811588, 922.808838  , 32.6658974  , 782.345     , 2.84        , 3           , 255         , 0           , 0
-0.12904796 , 0.135638982 , -9.795336   , 0.00028990797, 0.000452791 , -0.0007312418, -0.0131864334, -0.013106334, 9.54396455E-05, 922.808838  , 32.6658974  , 782.346436  , 2.85        , 3           , 255         , 0           , 0
-0.118752137, 0.136207461 , -9.795992   , 0.000197135058, 0.000315496261, -0.000524534, -0.0131843928, -0.0131032486, 9.015285E-05, 922.808838  , 32.6658974  , 782.3479    , 2.86        , 3           , 255         , 0           , 0
-0.123190857, 0.137184888 , -9.794289   , -0.000187539263, -6.122893E-06, -0.000148999665, -0.013186249, -0.01310333 , 8.86637063E-05, 922.808838  , 32.6658974  , 782.349365  , 2.87        , 3           , 255         , 0           , 0
-0.117290556, 0.140692621 , -9.797994   , -0.0008093577, -0.000683124352, 0.000184353165, -0.0131943682, -0.0131101338, 9.059728E-05, 922.808838  , 32.6658974  , 782.3508    , 2.88        , 3           , 255         , 0           , 0
-0.117933273, 0.134683758 , -9.795848   , -0.000339781574, -0.000314154662, -0.0002773193, -0.0131977275, -0.0131133134, 8.78656138E-05, 922.808838  , 32.6658974  , 782.3523    , 2.89        , 3           , 255         , 0           , 0
-0.1281253  , 0.131374687 , -9.791277   , 0.0003694602, -3.85275343E-05, -0.000253874139, -0.013194   , -0.0131137315, 8.533202E-05, 922.808838  , 32.6658974  , 782.35376   , 2.9         , 3           , 255         , 0           , 0
-0.130129218, 0.126238972 , -9.798251   , 0.000220888614, 0.000145732673, -0.000200275288, -0.0132032754, -0.0131039983, 8.34609164E-05, 922.808838  , 32.6658974  , 782.2671    , 2.91        , 3           , 255         , 0           , 0
-0.124327563, 0.131259114 , -9.796472   , 0.000256079249, -0.000111408153, 0.0004319219, -0.013200772, -0.0131050553, 8.779473E-05, 922.808838  , 32.6658974  , 782.268     , 2.92        , 3           , 255         , 0           , 0
-0.12187998 , 0.132195562 , -9.798742   , 0.000165872218, -0.000117531832, 0.000284447451, -0.01319915 , -0.0131061934, 9.065465E-05, 922.7347    , 32.6620331  , 782.2689    , 2.93        , 3           , 255         , 0           , 0
-0.138925835, 0.130118132 , -9.799429   , 9.945361E-05, 9.21528554E-05, 6.801708E-05, -0.0131981643, -0.013105263, 9.132265E-05, 922.7347    , 32.6620331  , 782.269836  , 2.94        , 3           , 255         , 0           , 0
-0.12853989 , 0.138455763 , -9.799866   , 0.0003541652, 0.000347485533, 0.0005381676, -0.0131946933, -0.0131017165, 9.66583248E-05, 922.7347    , 32.6620331  , 782.270752  , 2.95        , 3           , 255         , 0           , 0
-0.123433217, 0.131964162 , -9.795488   , 1.845503E-05, -0.000297056773, -1.29149157E-07, -0.0131945089, -0.0131046865, 9.66962252E-05, 922.7347    , 32.6620331  , 782.271667  , 2.96        , 3           , 255         , 0           , 0
-0.124888495, 0.124686494 , -9.79141    , 9.329233E-06, -6.02265354E-05, -7.723043E-05, -0.0131944064, -0.0131052993, 9.593189E-05, 922.7347    , 32.6620331  , 782.2726    , 2.97        , 3           , 255         , 0           , 0
-0.13150233 , 0.1336467   , -9.803528   , 0.000330506329, 6.32480951E-05, 0.000176074172, -0.0131911226, -0.0131046427, 9.76842348E-05, 922.7347    , 32.6620331  , 782.2735    , 2.98        , 3           , 255         , 0           , 0
-0.12375015 , 0.135494977 , -9.795256   , 5.98374754E-06, 0.0002681868, 0.000530876045, -0.0131911328, -0.0131018944, 0.000102957485, 922.7347    , 32.6620331  , 782.2744    , 2.99        , 3           , 255         , 0           , 0
-0.1229076  , 0.127591208 , -9.801685   , -0.0002174853, -3.67961475E-05, 9.87152744E-05, -0.0131933205, -0.0131022483, 0.000103949467, 922.7347    , 32.6620331  , 782.2753    , 3           , 3           , 0           , 8.488236    , 300
-0.130948022, 0.134228632 , -9.797248   , -0.00011689408, 0.00010794749, 0.000206467681, -0.0131973354, -0.0130990595, 0.000106036765, 922.7347    , 32.6620331  , 782.3031    , 3.01        , 3           , 1           , 0           , 0
-0.12353377 , 0.131840557 , -9.79859    , -0.000301870983, 0.0002590359, -5.087577E-07, -0.0132003529, -0.0130964695, 0.000105997482, 922.7347    , 32.6620331  , 782.3042    , 3.02        , 3           , 2           , 0           , 0
-0.119977929, 0.128847584 , -9.796859   , 0.000182482414, 0.000152669163, 0.000647709065, -0.0131986141, -0.0130948583, 0.000112454254, 922.750061  , 32.6657639  , 782.3053    , 3.03        , 3           , 3           , 0           , 0
-0.128295556, 0.135021448 , -9.784321   , -0.000222178991, -0.000108704291, 0.00102682656, -0.0132009694, -0.0130958073, 0.000122736586, 922.750061  , 32.6657639  , 782.3064    , 3.04        , 3           , 4           , 0           , 0
-0.127559334, 0.139747858 , -9.786449   , -0.000120100449, 0.000137091527, 0.0005730744, -0.0132022435, -0.0130943609, 0.000128449072, 922.750061  , 32.6657639  , 782.3075    , 3.05        , 3           , 5           , 0           , 0
-0.124349967, 0.135498732 , -9.79728    , 4.120049E-05, 0.0004736302, 0.000573161931, -0.0132019063, -0.0130895516, 0.000134118018, 922.750061  , 32.6657639  , 782.3086    , 3.06        , 3           , 6           , 0           , 0
-0.131214857, 0.126265615 , -9.79377    , 0.0006936724, 0.000121946665, 7.148532E-05, -0.013194981, -0.0130883241, 0.000134816772, 922.750061  , 32.6657639  , 782.3097    , 3.07        , 3           , 7           , 0           , 0
-0.13211149 , 0.129114    , -9.787538   , 0.000233645376, 6.07652764E-05, -0.001214015, -0.0131924832, -0.0130878752, 0.00012266892, 922.750061  , 32.6657639  , 782.3108    , 3.08        , 3           , 8           , 5           , 5
-0.1338833  , 0.119620278 , -9.799129   , -0.0002654082, -0.000334597338, -0.000336560741, -0.0131950947, -0.0130912652, 0.00011934754, 922.750061  , 32.6657639  , 782.3119    , 3.09        , 3           , 9           , 5           , 0.1
-0.1326988  , 0.131222591 , -9.791657   , -0.0005935067, -8.259542E-05, -0.000227080644, -0.013201   , -0.013092122, 0.000117087686, 922.750061  , 32.6657639  , 782.313     , 3.1         , 3           , 10          , 0.1         , 0.1
-0.131756291, 0.1298904   , -9.794114   , -0.0005104272, -8.587641E-05, -0.000107128355, -0.0132097108, -0.0130933793, 0.000116075185, 922.750061  , 32.6657639  , 782.3135    , 3.11        , 3           , 11          , 0.00766817154, 0.00766816875
-0.132356077, 0.1277016   , -9.796495   , -0.000353307521, -0.000238602661, -0.000238008768, -0.0132132107, -0.0130957952, 0.000113726681, 922.750061  , 32.6657639  , 782.3146    , 3.12        , 3           , 12          , 0.174645633 , 0
-0.127460808, 0.132531315 , -9.792967   , -0.000286365335, 0.000619355531, -5.70440134E-05, -0.013216068, -0.0130896093, 0.000113074413, 922.807068  , 32.6662369  , 782.3157    , 3.13        , 3           , 13          , 0           , 0
-0.139682114, 0.120530032 , -9.783671   , -7.715932E-05, 0.000238386972, 0.000163193181, -0.01321686 , -0.0130872047, 0.000114674775, 922.807068  , 32.6662369  , 782.3168    , 3.14        , 3           , 14          , -0.000658418, -0.000347752328
-0.128173292, 0.125143468 , -9.789209   , 0.000109665212, 0.000660166552, -0.0008802041, -0.0132156471, -0.0130807217, 0.000105785723, 922.807068  , 32.6662369  , 782.3179    , 3.15        , 3           , 15          , 0           , -1.00268253E-05
-0.131317288, 0.135489628 , -9.796019   , 0.000150784908, 0.000299174251, -0.000481160678, -0.013214075, -0.0130777927, 0.000100934711, 922.807068  , 32.6662369  , 782.319     , 3.16        , 3           , 16          , 0           , 1.401298E-45
-0.1282175  , 0.145922512 , -9.78846    , -6.725988E-05, 4.409594E-05, 0.000557717751, -0.01321482 , -0.0130772777, 0.000106505911, 922.807068  , 32.6662369  , 782.320068  , 3.17        , 3           , 20          , 0           , 0
-0.130499184, 0.136326313 , -9.795775   , -0.0005932883, -3.44309665E-05, 0.000813553168, -0.01322086 , -0.0130775133, 0.000114645765, 922.807068  , 32.6662369  , 782.321167  , 3.18        , 3           , 21          , 0           , 0
-0.125727862, 0.141169176 , -9.78974    , -0.0004166505, -1.24561484E-05, -0.0003952847, -0.0132249724, -0.01307769 , 0.000110694673, 922.807068  , 32.6662369  , 782.322266  , 3.19        , 3           , 22          , 0           , 0
-0.126048654, 0.144406036 , -9.791126   , 0.000338898739, -1.06729858E-05, 6.771166E-06, -0.0132215852, -0.0130777955, 0.000110763787, 922.807068  , 32.6662369  , 782.323364  , 3.2         , 3           , 40          , 0           , 0
-0.11866764 , 0.13398771  , -9.792262   , 2.098654E-05, -3.097445E-05, -7.48770763E-05, -0.0132309785, -0.013082386, 0.0001101449, 922.807068  , 32.6662369  , 782.242     , 3.21        , 3           , 41          , 0           , 0
-0.123027064, 0.12193086  , -9.805877   , -0.00026225805, -0.000456471, -1.692695E-05, -0.0132335983, -0.0130869523, 0.000110036046, 922.807068  , 32.6662369  , 782.2426    , 3.22        , 3           , 42          , 0           , 0
-0.125536546, 0.135197759 , -9.796107   , 0.0002490917, 0.000144959093, 0.0005398813, -0.01323118 , -0.0130854314, 0.00011541554, 922.760132  , 32.6658325  , 782.2432    , 3.23        , 3           , 255         , 0           , 0
-0.133412644, 0.134482592 , -9.78661251 , -0.000201072777, 0.000296791841, 0.000187970843, -0.0132332146, -0.0130824391, 0.00011725592, 922.760132  , 32.6658325  , 782.243835  , 3.24        , 3           , 255         , 0           , 0
-0.122105993, 0.127462447 , -9.793233   , 0.000264352042, -0.000475338835, 0.000407031825, -0.0132306255, -0.0130871385, 0.000121389035, 922.760132  , 32.6658325  , 782.244446  , 3.25        , 3           , 255         , 0           , 0
-0.113618173, 0.135131314 , -9.794669   , -3.07663577E-05, -3.2232987E-05, -0.0001070286, -0.013230918, -0.0130874747, 0.000120323042, 922.760132  , 32.6658325  , 782.245056  , 3.26        , 3           , 255         , 0           , 0
-0.127524778, 0.131107613 , -9.796537   , 0.000241233269, -0.000132577086, -7.637103E-05, -0.0132284975, -0.0130888112, 0.0001195769, 922.760132  , 32.6658325  , 782.245667  , 3.27        , 3           , 255         , 0           , 0
-0.129593879, 0.1282122   , -9.799419   , 0.000637613935, 7.469859E-05, 0.0006799397, -0.013222212, -0.0130879777, 0.000126366256, 922.760132  , 32.6658325  , 782.2463    , 3.28        , 3           , 255         , 0           , 0
-0.122740291, 0.128724754 , -9.801478   , -6.83536055E-05, -0.000257292, -0.000391176436, -0.0132228443, -0.0130906  , 0.000122488607, 922.760132  , 32.6658325  , 782.2469    , 3.29        , 3           , 255         , 0           , 0
-0.123816654, 0.120828129 , -9.794619   , -0.00026575 , -0.000555356, -2.51993115E-05, -0.0132254986, -0.0130961565, 0.000122310041, 922.760132  , 32.6658325  , 782.2475    , 3.3         , 3           , 255         , 0           , 0
-0.132965   , 0.132435217 , -9.793864   , -0.000325808069, -0.0004691295, 0.000161738921, -0.0132289072, -0.01309411 , 0.000123991136, 922.760132  , 32.6658325  , 782.2429    , 3.31        , 3           , 255         , 0           , 0
-0.1317054  , 0.133146212 , -9.79552    , -6.628013E-05, -0.000415345159, 0.000402759062, -0.0132296234, -0.01309821 , 0.000128073574, 922.760132  , 32.6658325  , 782.2435    , 3.32        , 3           , 255         , 0           , 0
-0.123916447, 0.132168055 , -9.79543    , 0.0004200695, -0.000314456731, 0.0007196934, -0.0132255191, -0.0131012574, 0.0001353119, 922.7692    , 32.6667137  , 782.244141  , 3.33        , 3           , 255         , 0           , 0
-0.128376454, 0.122838184 , -9.78908348 , 1.11735426E-05, 0.0003158259, -0.000636760262, -0.0132253226, -0.013098185, 0.000128902713, 922.7692    , 32.6667137  , 782.244751  , 3.34        , 3           , 255         , 0           , 0
-0.133954719, 0.126940966 , -9.789136   , -0.000136346847, -1.46478123E-05, 0.000410764856, -0.013226741, -0.0130982772, 0.000133012189, 922.7692    , 32.6667137  , 782.245361  , 3.35        , 3           , 255         , 0           , 0
-0.134180233, 0.129151419 , -9.797287   , 0.000424419879, 0.000195935136, 0.000454232359, -0.0132225547, -0.0130962571, 0.000137528463, 922.7692    , 32.6667137  , 782.246     , 3.36        , 3           , 255         , 0           , 0
-0.129939541, 0.134281248 , -9.795319   , -0.000478525879, 0.00012175749, 0.0002666083, -0.0132273762, -0.0130950054, 0.000140178367, 922.7692    , 32.6667137  , 782.2466    , 3.37        , 3           , 255         , 0           , 0
-0.129419535, 0.137385041 , -9.794959   , 0.000127228792, -8.67664348E-05, -0.000336211466, -0.0132260593, -0.0130959162, 0.000136827817, 922.7692    , 32.6667137  , 782.2472    , 3.38        , 3           , 255         , 0           , 0
-0.127487272, 0.129342228 , -9.796709   , 0.000305675727, -0.000114642782, 0.00103912421, -0.0132231377, -0.0130969267, 0.000147233979, 922.7692    , 32.6667137  , 782.2478    , 3.39        , 3           , 255         , 0           , 0
-0.128887311, 0.138564587 , -9.789998   , -0.000183885335, 6.488056E-05, -3.1241645E-05, -0.0132249724, -0.0130962823, 0.000146912964, 922.7692    , 32.6667137  , 782.2484    , 3.4         , 3           , 255         , 0           , 0
-0.132165149, 0.135034174 , -9.800718   , 0.000527560362, -0.00035623397, 3.03009183E-05, -0.0132234674, -0.0131030614, 0.000147312414, 922.7692    , 32.6667137  , 782.2307    , 3.41        , 3           , 255         , 0           , 0
-0.124514177, 0.129751965 , -9.804556   , 0.000239125948, -0.000192086154, 0.000483995827, -0.013221141, -0.0131049184, 0.000152177643, 922.7692    , 32.6667137  , 782.2312    , 3.42        , 3           , 255         , 0           , 0
-0.129964739, 0.134937212 , -9.79788    , 0.000544513052, 0.000183599273, 0.000347512774, -0.0132157411, -0.0131030362, 0.000155628441, 922.765259  , 32.6663742  , 782.2317    , 3.43        , 3           , 255         , 0           , 0
-0.134475365, 0.120490648 , -9.797862   , -6.917806E-05, 0.000434063259, 0.000370053138, -0.0132164806, -0.0130986469, 0.000159271513, 922.765259  , 32.6663742  , 782.2322    , 3.44        , 3           , 255         , 0           , 0
-0.122693464, 0.116416179 , -9.799702   , 0.0004282044, -0.000117625314, 3.235527E-05, -0.013212204, -0.0130998222, 0.000159610587, 922.765259  , 32.6663742  , 782.232666  , 3.45        , 3           , 255         , 0           , 0
-0.1266656  , 0.119285047 , -9.804443   , 0.000277378829, -0.00015873689, -0.000879862346, -0.013209315, -0.0131015237, 0.000150833177, 922.765259  , 32.6663742  , 782.233154  , 3.46        , 3           , 255         , 0           , 0
-0.132418573, 0.133597374 , -9.798212   , 0.000401848229, -0.000122880243, 5.81462155E-05, -0.0132053047, -0.0131027456, 0.000151430868, 922.765259  , 32.6663742  , 782.233643  , 3.47        , 3           , 255         , 0           , 0
-0.124371313, 0.129111975 , -9.791979   , -0.000146300124, 0.000230242062, 0.000247588847, -0.0132067986, -0.0131004089, 0.000153876259, 922.765259  , 32.6663742  , 782.234131  , 3.48        , 3           , 255         , 0           , 0
-0.133336157, 0.132694513 , -9.793584   , 0.000109684712, -0.000201392861, 0.0006129612, -0.0132057825, -0.0131023433, 0.000160032316, 922.765259  , 32.6663742  , 782.2346    , 3.49        , 3           , 255         , 0           , 0
-0.137133673, 0.137062237 , -9.79509    , -0.000191305182, -0.000409950444, -0.000740173331, -0.0132075995, -0.01310654 , 0.000152684908, 922.765259  , 32.6663742  , 782.2351    , 3.5         , 3           , 255         , 0           , 0
-0.11839509 , 0.13417919  , -9.794771   , -0.000276464969, -0.000308809424, -0.000727702631, -0.0132093886, -0.0131116388, 0.000145437312, 922.765259  , 32.6663742  , 782.2251    , 3.51        , 3           , 255         , 0           , 0
-0.120572567, 0.134137183 , -9.81093    , -3.634562E-05, -4.565605E-06, 2.18297755E-05, -0.0132097555, -0.0131116807, 0.000145656217, 922.765259  , 32.6663742  , 782.2255    , 3.52        , 3           , 255         , 0           , 0
-0.1299314  , 0.136984423 , -9.799084   , -0.000573007, 0.000135114067, -0.000170128478, -0.0132154617, -0.01311035 , 0.000143937112, 922.755066  , 32.6679344  , 782.225952  , 3.53        , 3           , 255         , 0           , 0
-0.124004841, 0.13389203  , -9.793289   , 0.000434267567, -0.000178978866, 9.378713E-05, -0.013211132, -0.0131121278, 0.0001448986, 922.755066  , 32.6679344  , 782.2264    , 3.54        , 3           , 255         , 0           , 0
-0.125327691, 0.136590272 , -9.786554   , 0.000324704422, -0.0002942049, 0.0006343178, -0.0132079693, -0.0131149869, 0.0001512805, 922.755066  , 32.6679344  , 782.2268    , 3.55        , 3           , 255         , 0           , 0
-0.125801727, 0.146111116 , -9.788689   , -0.000144156627, -0.000264952279, 5.980666E-05, -0.01320942 , -0.0131176272, 0.00015191354, 922.755066  , 32.6679344  , 782.227234  , 3.56        , 3           , 255         , 0           , 0
-0.13464646 , 0.137088746 , -9.78900051 , 0.000336549565, -0.000343047926, -3.79925841E-05, -0.01320605 , -0.013121062, 0.000151578934, 922.755066  , 32.6679344  , 782.227661  , 3.57        , 3           , 255         , 0           , 0
-0.128948689, 0.125448912 , -9.802065   , 7.10965251E-05, -7.645652E-05, 1.15899456E-06, -0.01320534 , -0.0131218266, 0.000151600616, 922.755066  , 32.6679344  , 782.2281    , 3.58        , 3           , 255         , 0           , 0
-0.1314322  , 0.1263694   , -9.798972   , 0.0008416174, 0.0002481282, -0.00105174177, -0.0131967859, -0.0131194852, 0.000141050739, 922.755066  , 32.6679344  , 782.2286    , 3.59        , 3           , 255         , 0           , 0
-0.13595356 , 0.124773763 , -9.793539   , 0.000485996 , -0.000247121759, -0.000600834959, -0.0131918481, -0.0131220352, 0.000135075141, 922.755066  , 32.6679344  , 782.229065  , 3.6         , 3           , 255         , 0           , 0
-0.1253422  , 0.124151208 , -9.80211449 , -0.000329731032, -0.000403206446, 3.706466E-05, -0.013201626, -0.01312454 , 0.000135583963, 922.755066  , 32.6679344  , 782.2341    , 3.61        , 3           , 255         , 0           , 0
-0.12569584 , 0.128647789 , -9.801527   , 0.000658926147, -0.000426133338, -0.000271478057, -0.0131950015, -0.0131288366, 0.0001329255, 922.755066  , 32.6679344  , 782.234558  , 3.62        , 3           , 255         , 0           , 0
-0.130497962, 0.131661534 , -9.796083   , 0.000193217566, -0.000464619079, -0.000305545283, -0.01319303 , -0.0131335221, 0.000129931417, 922.7821    , 32.6669846  , 782.235046  , 3.63        , 3           , 255         , 0           , 0
-0.132520467, 0.127789289 , -9.802851   , -0.0001965675, -0.0001883888, 3.06457732E-05, -0.0131949987, -0.0131354034, 0.000130262735, 922.7821    , 32.6669846  , 782.235535  , 3.64        , 3           , 255         , 0           , 0
-0.1282015  , 0.134792462 , -9.798964   , -0.0001722041, -0.000137332885, -0.0003119118, -0.0131966788, -0.0131368181, 0.000127161809, 922.7821    , 32.6669846  , 782.236     , 3.65        , 3           , 255         , 0           , 0
-0.1341336  , 0.127916977 , -9.793667   , 0.000654102536, -0.00033170887, -0.00053608563, -0.0131900692, -0.0131402053, 0.000121844852, 922.7821    , 32.6669846  , 782.2365    , 3.66        , 3           , 255         , 0           , 0
-0.125596985, 0.126248464 , -9.79202    , 0.00053790363, -0.000305694353, 0.000197808928, -0.0131847188, -0.0131432349, 0.000123863225, 922.7821    , 32.6669846  , 782.237     , 3.67        , 3           , 255         , 0           , 0
-0.126484886, 0.133413449 , -9.796555   , 8.957274E-05, -0.0002003021, 0.000567308452, -0.0131838974, -0.0131451618, 0.000129562555, 922.7821    , 32.6669846  , 782.2375    , 3.68        , 3           , 255         , 0           , 0
-0.132424921, 0.118220732 , -9.79592    , -0.000459727831, 0.000132013287, 5.8711048E-05, -0.0131885009, -0.0131438337, 0.000130132248, 922.7821    , 32.6669846  , 782.238     , 3.69        , 3           , 255         , 0           , 0
-0.1328534  , 0.129685357 , -9.794317   , -0.000268142379, 0.000188753271, 0.000368908164, -0.0131912287, -0.0131418984, 0.000133796333, 922.7821    , 32.6669846  , 782.238464  , 3.7         , 3           , 255         , 0           , 0
-0.126231641, 0.130929887 , -9.799811   , -0.000475593377, -3.19693936E-06, 2.23150855E-05, -0.01319453 , -0.0131428456, 0.000134000715, 922.7821    , 32.6669846  , 782.2041    , 3.71        , 3           , 255         , 0           , 0
-0.1302472  , 0.136426538 , -9.799103   , 0.000482950039, 0.000177410475, -0.000310043222, -0.0131896595, -0.0131411133, 0.000130876942, 922.7821    , 32.6669846  , 782.2044    , 3.72        , 3           , 255         , 0           , 0
-0.137622282, 0.1328326   , -9.790452   , 0.000934926153, -0.000346857938, 0.000217834633, -0.0131803388, -0.0131445508, 0.00013310097, 922.7439    , 32.6633873  , 782.2047    , 3.73        , 3           , 255         , 0           , 0
-0.127790749, 0.133527786 , -9.798447   , 0.000365266576, -0.0002997002, 0.000428726664, -0.0131767429, -0.013147492, 0.000137427618, 922.7439    , 32.6633873  , 782.205     , 3.74        , 3           , 255         , 0           , 0
-0.1246742  , 0.124675646 , -9.794961   , 0.000149513711, -0.000239499321, -0.0003621222, -0.0131751988, -0.0131499339, 0.000133838039, 922.7439    , 32.6633873  , 782.2053    , 3.75        , 3           , 255         , 0           , 0
-0.136129633, 0.126472011 , -9.796804   , 4.68022772E-05, 5.8808364E-06, -0.0009942543, -0.0131746009, -0.0131500075, 0.000123894963, 922.7439    , 32.6633873  , 782.2056    , 3.76        , 3           , 255         , 0           , 0
-0.129871935, 0.128657222 , -9.79902649 , 1.73015287E-05, 0.0002911352, 0.000180113784, -0.0131744528, -0.0131470729, 0.000125657709, 922.7439    , 32.6633873  , 782.205933  , 3.77        , 3           , 255         , 0           , 0
-0.115985021, 0.1368253   , -9.79689    , 0.000312896038, -2.59896042E-05, -0.0004944776, -0.0131712584, -0.0131473979, 0.000120716475, 922.7439    , 32.6633873  , 782.206238  , 3.78        , 3           , 255         , 0           , 0
-0.131435916, 0.137762472 , -9.798503   , 0.000912398333, -0.000473727938, -0.0005967982, -0.0131620551, -0.013152211, 0.000114811024, 922.7439    , 32.6633873  , 782.206543  , 3.79        , 3           , 255         , 0           , 0
-0.118747316, 0.138247177 , -9.793684   , 0.000356669858, 0.000133083871, -0.000567013631, -0.0131584164, -0.0131509546, 0.00010912351, 922.7439    , 32.6633873  , 782.206848  , 3.8         , 3           , 255         , 0           , 0
-0.1184508  , 0.146962479 , -9.792533   , 0.000140576623, 3.727633E-05, 0.000125318373, -0.013162097, -0.01314919 , 0.000110438443, 922.7439    , 32.6633873  , 782.2309    , 3.81        , 3           , 255         , 0           , 0
-0.138557345, 0.1401945   , -9.791475   , -0.000124788086, 8.212481E-05, 0.000153168847, -0.0131633654, -0.0131483478, 0.000111959278, 922.7439    , 32.6633873  , 782.2314    , 3.82        , 3           , 255         , 0           , 0
-0.126257375, 0.1408606   , -9.793455   , 0.0003531806, 6.588278E-05, 0.000381595717, -0.0131598832, -0.0131476391, 0.000115766481, 922.7696    , 32.6643372  , 782.2319    , 3.83        , 3           , 255         , 0           , 0
-0.129015118, 0.128990918 , -9.798248   , 0.000255901658, 0.000181460113, 0.0002494503, -0.0131573584, -0.0131457923, 0.00011823704, 922.7696    , 32.6643372  , 782.232361  , 3.84        , 3           , 255         , 0           , 0
-0.128351033, 0.131745815 , -9.799824   , -0.000127946027, 0.0002066812, 0.0005590853, -0.01315871 , -0.01314365 , 0.000123800564, 922.7696    , 32.6643372  , 782.232849  , 3.85        , 3           , 255         , 0           , 0
-0.1338684  , 0.128953442 , -9.791472   , 0.0006787347, -0.0002154549, 0.000656243239, -0.01315201 , -0.0131457215, 0.00013039117, 922.7696    , 32.6643372  , 782.233337  , 3.86        , 3           , 255         , 0           , 0
-0.126965821, 0.142311051 , -9.794064   , 0.0005898074, 0.000306046015, 0.000895673642, -0.0131462291, -0.0131425448, 0.000139307449, 922.7696    , 32.6643372  , 782.2338    , 3.87        , 3           , 255         , 0           , 0
-0.122602388, 0.13540718  , -9.797173   , 0.000374258845, -2.33867031E-05, 0.000104517458, -0.0131425  , -0.0131427646, 0.000140355682, 922.7696    , 32.6643372  , 782.2343    , 3.88        , 3           , 255         , 0           , 0
-0.124607459, 0.130237862 , -9.797087   , 0.000191261934, 0.000466924481, -0.000178320726, -0.0131405629, -0.0131381191, 0.000138511154, 922.7696    , 32.6643372  , 782.2348    , 3.89        , 3           , 255         , 0           , 0
-0.11868985 , 0.1381503   , -9.80054    , 0.0004470805, 0.0003099379, -5.57521162E-05, -0.0131360851, -0.0131350271, 0.000137912924, 922.7696    , 32.6643372  , 782.2353    , 3.9         , 3           , 255         , 0           , 0
-0.1260148  , 0.135004565 , -9.801625   , 0.000419743359, -0.0002355733, 0.0001968246, -0.0131431744, -0.0131342839, 0.000140059987, 922.7696    , 32.6643372  , 782.218933  , 3.91        , 3           , 255         , 0           , 0
-0.124897443, 0.12907663  , -9.801806   , -3.458379E-05, 0.000123109785, 0.000101570869, -0.0131435329, -0.0131330425, 0.00014105947, 922.7696    , 32.6643372  , 782.2193    , 3.92        , 3           , 255         , 0           , 0
-0.127436325, 0.1253356   , -9.79183    , 0.0002698773, -0.0003858639, 0.000346782559, -0.0131408805, -0.0131368535, 0.0001445779, 922.7429    , 32.6671867  , 782.219666  , 3.93        , 3           , 255         , 0           , 0
-0.127473414, 0.13295351  , -9.790477   , -0.000168495812, -9.764507E-05, 4.23996426E-05, -0.01314257 , -0.0131378239, 0.000145014725, 922.7429    , 32.6671867  , 782.220032  , 3.94        , 3           , 255         , 0           , 0
-0.123365439, 0.121214345 , -9.79248    , -0.00017260696, 0.000254974118, 0.00081859075, -0.0131444037, -0.0131351668, 0.000153166926, 922.7429    , 32.6671867  , 782.2204    , 3.95        , 3           , 255         , 0           , 0
-0.1301338  , 0.123922922 , -9.792979   , -0.000167048536, -0.000248788652, -0.000114659604, -0.0131460605, -0.0131376693, 0.00015205305, 922.7429    , 32.6671867  , 782.220764  , 3.96        , 3           , 255         , 0           , 0
-0.128739923, 0.13538599  , -9.798607   , 0.0002001063, -0.0001530204, -0.0004991365, -0.013143993, -0.0131392656, 0.000147081941, 922.7429    , 32.6671867  , 782.2211    , 3.97        , 3           , 255         , 0           , 0
-0.1269893  , 0.129683062 , -9.790709   , 8.868601E-05, 0.000171769585, 9.561751E-05, -0.0131431194, -0.0131375352, 0.000148015519, 922.7429    , 32.6671867  , 782.2215    , 3.98        , 3           , 255         , 0           , 0
-0.125206515, 0.138546452 , -9.797365   , 0.000144309015, 0.000292899174, 0.0005254758, -0.0131417466, -0.0131345363, 0.000153231653, 922.7429    , 32.6671867  , 782.221863  , 3.99        , 3           , 255         , 0           , 0
-0.1252639  , 0.129761785 , -9.792013   , -0.000264419126, 0.000188348829, 0.000486609031, -0.0131444531, -0.0131325889, 0.000158072842, 922.7429    , 32.6671867  , 782.2222    , 4           , 3           , 0           , 9.488236    , 400
-0.118966378, 0.133356854 , -9.792913   , -0.000230314559, -0.0001102954, 0.0006825096, -0.013148916, -0.0131303  , 0.000164939454, 922.7429    , 32.6671867  , 782.245667  , 4.01        , 3           , 1           , 0           , 0
-0.1286244  , 0.140250757 , -9.79614449 , 0.0004834759, -0.00051476754, 3.54971053E-05, -0.013144087, -0.0131354416, 0.000165362115, 922.7429    , 32.6671867  , 782.2462    , 4.02        , 3           , 2           , 0           , 0
-0.1252896  , 0.1321462   , -9.794479   , 0.000491174636, -0.000176762056, 0.0003666141, -0.0131392246, -0.0131371608, 0.000169051389, 922.732361  , 32.6672554  , 782.246765  , 4.03        , 3           , 3           , 0           , 0
-0.125089526, 0.1311308   , -9.788908   , 0.000736671151, 0.0001011439, 0.000210795522, -0.0131318867, -0.0131361224, 0.000171146035, 922.732361  , 32.6672554  , 782.2473    , 4.04        , 3           , 4           , 0           , 0
-0.1180668  , 0.13567391  , -9.78953    , 0.00049663  , 0.000225640179, 0.0002849426, -0.0131269582, -0.0131338276, 0.000173965775, 922.732361  , 32.6672554  , 782.247864  , 4.05        , 3           , 5           , 0           , 0
-0.118558288, 0.134525985 , -9.800586   , -0.0005016981, 0.000254794577, -0.000451779721, -0.0131319137, -0.01313134 , 0.0001694146, 922.732361  , 32.6672554  , 782.2484    , 4.06        , 3           , 6           , 0           , 0
-0.117307268, 0.129747063 , -9.79913    , -0.000386632746, 2.72711914E-05, -4.10007342E-05, -0.013135775, -0.0131310718, 0.000169001025, 922.732361  , 32.6672554  , 782.248962  , 4.07        , 3           , 7           , 0           , 0
-0.129119948, 0.1246372   , -9.796288   , 0.000193343032, 0.000230760968, -6.60740843E-05, -0.0131338323, -0.0131287733, 0.000168309984, 922.732361  , 32.6672554  , 782.2495    , 4.08        , 3           , 8           , 5           , 5
-0.1302515  , 0.127346933 , -9.794886   , 0.000200977782, -5.684112E-05, 0.000108197077, -0.0131318364, -0.0131293284, 0.000169399413, 922.732361  , 32.6672554  , 782.250061  , 4.09        , 3           , 9           , 5           , 0.1
-0.12612994 , 0.133223847 , -9.803393   , 0.0006445814, -0.00013681085, -0.0005019553, -0.0131253265, -0.0131307645, 0.000164397949, 922.732361  , 32.6672554  , 782.2506    , 4.1         , 3           , 10          , 0.1         , 0.1
-0.122263193, 0.130885869 , -9.803614   , 0.0007032825, 0.000127003033, 0.0007314445, -0.0131236678, -0.0131221367, 0.000171764783, 922.732361  , 32.6672554  , 782.285     , 4.11        , 3           , 11          , 0.00711619249, 0.00711618969
-0.127158642, 0.123980448 , -9.792521   , -3.21333646E-05, 0.000225979762, 0.000417870033, -0.0131240441, -0.0131198214, 0.000175913738, 922.732361  , 32.6672554  , 782.285767  , 4.12        , 3           , 12          , 0.174648076 , 0
-0.131978482, 0.1308902   , -9.801117   , 4.61249147E-06, 0.00015713695, 0.000538992754, -0.0131240673, -0.0131181795, 0.0001812829, 922.7597    , 32.6669159  , 782.28656   , 4.13        , 3           , 13          , 0           , 0
-0.135869473, 0.135165423 , -9.802863   , 0.000334136275, 0.000156873139, 0.000114075745, -0.0131207407, -0.0131165963, 0.000182403062, 922.7597    , 32.6669159  , 782.287354  , 4.14        , 3           , 14          , -0.0006581721, -0.0003478417
-0.136094481, 0.1348536   , -9.796174   , 0.000283345435, -2.11963488E-05, 0.000428453874, -0.0131179644, -0.0131167518, 0.00018669026, 922.7597    , 32.6669159  , 782.288147  , 4.15        , 3           , 15          , 0           , -1.00312272E-05
-0.128746927, 0.136305049 , -9.793756   , 0.000758126669, -1.56704045E-05, -0.000141259588, -0.0131103639, -0.0131169269, 0.000185279772, 922.7597    , 32.6669159  , 782.28894   , 4.16        , 3           , 16          , 0           , 1.401298E-45
-0.1248245  , 0.136940047 , -9.793486   , 0.000166964659, 8.921305E-05, -6.32275842E-05, -0.0131086865, -0.013116044, 0.000184635821, 922.7597    , 32.6669159  , 782.289734  , 4.17        , 3           , 20          , 0           , 0
-0.1309847  , 0.137591273 , -9.79646    , 1.11794216E-05, -0.00028172665, 2.15623477E-05, -0.0131085785, -0.0131188575, 0.000184888355, 922.7597    , 32.6669159  , 782.2905    , 4.18        , 3           , 21          , 0           , 0
-0.128415257, 0.137661651 , -9.802226   , -0.000940241, -0.0001945747, 0.00020655492, -0.0131180091, -0.013120777, 0.000186979392, 922.7597    , 32.6669159  , 782.2913    , 4.19        , 3           , 22          , 0           , 0
-0.128498077, 0.131539866 , -9.799191   , -0.0003676258, 7.138893E-05, 0.0005375785, -0.0131217549, -0.0131199937, 0.000192345673, 922.7597    , 32.6669159  , 782.2921    , 4.2         , 3           , 40          , 0           , 0
-0.128254056, 0.136852071 , -9.797305   , 0.000655480952, 1.215213E-05, 0.000630099734, -0.01312162 , -0.0131209781, 0.00019872807, 922.7597    , 32.6669159  , 782.2818    , 4.21        , 3           , 41          , 0           , 0
-0.135592237, 0.138402626 , -9.795407   , 0.0003180096, 0.000212631683, 0.0002693197, -0.0131184766, -0.01311882 , 0.000201393326, 922.7597    , 32.6669159  , 782.282532  , 4.22        , 3           , 42          , 0           , 0
-0.130754128, 0.126306623 , -9.79537    , 0.000255206862, 1.82764779E-05, -0.000229102632, -0.013115894, -0.0131186657, 0.000199099959, 922.7671    , 32.6660347  , 782.283264  , 4.23        , 3           , 255         , 0           , 0
