Acc X       , Acc Y       , Acc Z       , Gyro X      , Gyro Y      , Gyro Z      , Euler X     , Euler Y     , Euler Z     , Pres X      , Pres Y      , Pres Z      , Time        , Status      , LowRate X   , LowRate Y   , LowRate Z    
-0.128506988, 0.1413289   , -9.78376    , 0           , 0           , 0           , -0.01444425 , -0.0131325992, 0           , 918.521057  , 29.89211    , 820.3504    , 0           , 2           , 0           , 5.02023172  , 0
-0.138736159, 0.144201666 , -9.787916   , -0.000464791752, -0.000435148075, -0.000109845132, -0.0144486474, -0.0131368432, -1.03554544E-06, 918.521057  , 29.89211    , 820.3504    , 0.01        , 3           , 1           , 0           , 0
-0.1294847  , 0.131192356 , -9.78479    , -0.000213021573, -0.00035097677, 0.000556346844, -0.0144508518, -0.0131402723, 4.57839133E-06, 918.521057  , 29.89211    , 820.3504    , 0.02        , 3           , 2           , 0           , 0
-0.122381471, 0.1272761   , -9.784389   , -0.000176044166, -9.555684E-05, -9.876923E-05, -0.0144525971, -0.0131412428, 3.60455851E-06, 918.484558  , 29.466198   , 820.3504    , 0.03        , 3           , 3           , 0           , 0
-0.124568544, 0.125017837 , -9.789758   , 0.000145735321, -9.906158E-05, 0.000133938884, -0.0144511582, -0.0131422132, 4.95820723E-06, 918.484558  , 29.466198   , 820.3504    , 0.04        , 3           , 4           , 0           , 0
-0.133137554, 0.1230007   , -9.797636   , 0.000575817365, -0.00016350142, 0.000223009731, -0.0144454306, -0.0131438151, 7.21183233E-06, 918.484558  , 29.466198   , 820.3504    , 0.05        , 3           , 5           , 0           , 0
-0.129688114, 0.12147107  , -9.793581   , 0.0004929234, -0.000179705967, 0.000413991074, -0.014440557, -0.0131455529, 1.13775177E-05, 918.484558  , 29.466198   , 820.3504    , 0.06        , 3           , 6           , 0           , 0
-0.130049527, 0.127574816 , -9.788326   , 0.000129942448, 1.743919E-05, 0.00065112533, -0.0144393416, -0.0131452829, 1.78859809E-05, 918.484558  , 29.466198   , 820.3504    , 0.07        , 3           , 7           , 0           , 0
-0.135113686, 0.139803261 , -9.789552   , 0.0001497033, -0.000772942731, 0.0006381831, -0.0144379316, -0.0131529206, 2.437914E-05, 918.484558  , 29.466198   , 820.3504    , 0.08        , 3           , 8           , 5           , 5
-0.1423634  , 0.133240625 , -9.783341   , 0.000349383481, -1.02933845E-05, -0.000124461309, -0.0144344214, -0.01315304 , 2.31360627E-05, 918.484558  , 29.466198   , 820.3504    , 0.09        , 3           , 9           , 5           , 0.1
-0.129023746, 0.136417121 , -9.785393   , 2.734171E-05, 0.000307380746, 0.0005407901, -0.0144342175, -0.0131498892, 2.84993566E-05, 918.484558  , 29.466198   , 820.3504    , 0.1         , 3           , 10          , 0.1         , 0.1
-0.122617446, 0.140871957 , -9.779734   , 0.0002833103, 0.0002900542, 0.0009855439, -0.0143713979, -0.01316277 , 3.7521193E-05, 918.484558  , 29.466198   , 820.6807    , 0.11        , 3           , 11          , 0.0109544508, 0.0109544508
-0.127475724, 0.14261736  , -9.789732   , -0.0002076224, -0.000239449029, 0.000390120869, -0.0143735241, -0.013165107, 4.1456653E-05, 918.484558  , 29.466198   , 820.6807    , 0.12        , 3           , 12          , 0.174642488 , 0
-0.118268944, 0.1409486   , -9.787678   , -0.000381860067, 9.601767E-05, -0.0006470908, -0.0143772578, -0.0131642409, 3.49722068E-05, 918.518738  , 29.5096169  , 820.6807    , 0.13        , 3           , 13          , 0           , 0
-0.119412556, 0.147721827 , -9.782923   , -9.375399E-06, -6.619998E-05, -0.000131137291, -0.0143773351, -0.0131649217, 3.367041E-05, 918.518738  , 29.5096169  , 820.6807    , 0.14        , 3           , 14          , 8.851096E-05, -0.000577193452
-0.132056966, 0.149309561 , -9.792067   , 0.000364468375, -0.000163670513, 0.000237882181, -0.0143737216, -0.0131665235, 3.60726663E-05, 918.518738  , 29.5096169  , 820.6807    , 0.15        , 3           , 15          , 0           , -0.000185487967
-0.1303737  , 0.153111219 , -9.787214   , 0.000231091064, -0.000124318176, 0.00044653067, -0.0143714715, -0.0131677026, 4.05556566E-05, 918.518738  , 29.5096169  , 820.6807    , 0.16        , 3           , 16          , 0           , 1.401298E-45
-0.1395867  , 0.159411877 , -9.790986   , 0.0003871543, 0.000213353749, -0.000470996834, -0.0143675376, -0.013165636, 3.58152356E-05, 918.518738  , 29.5096169  , 820.6807    , 0.17        , 3           , 20          , 0           , 0
-0.141417146, 0.160606951 , -9.794361   , -0.0002704324, 0.0005762115, -0.000367507862, -0.0143701918, -0.0131599288, 3.20575127E-05, 918.518738  , 29.5096169  , 820.6807    , 0.18        , 3           , 21          , 0           , 0
-0.1350151  , 0.154623181 , -9.792234   , -0.000180298026, -7.691153E-05, -0.000153209927, -0.0143719753, -0.0131607205, 3.053653E-05, 918.518738  , 29.5096169  , 820.6807    , 0.19        , 3           , 22          , 0           , 0
-0.11989931 , 0.152181134 , -9.791089   , -0.00036805222, 0.000139242591, 0.000185053563, -0.01437568 , -0.0131593021, 3.23669774E-05, 918.518738  , 29.5096169  , 820.6807    , 0.2         , 3           , 40          , 0           , 0
-0.118480042, 0.152418315 , -9.788378   , 0.000476949324, 4.75251E-05 , -0.000286765047, -0.0144192372, -0.0131573863, 3.01289747E-05, 918.518738  , 29.5096169  , 820.52594   , 0.21        , 3           , 41          , 0           , 0
-0.124378726, 0.150748655 , -9.783703   , -0.0003212839, -0.000264911738, -0.000213518637, -0.0144224223, -0.0131600667, 2.803209E-05, 918.518738  , 29.5096169  , 820.52594   , 0.22        , 3           , 42          , 0           , 0
-0.125353888, 0.14581275  , -9.78804    , 2.8388502E-05, 2.61159148E-05, 0.000198581925, -0.0144221643, -0.0131597761, 3.00140564E-05, 918.5322    , 29.5332947  , 820.52594   , 0.23        , 3           , 255         , 0           , 0
-0.139223263, 0.145019457 , -9.796852   , -0.000224354444, 0.0003107225, -0.0003097942, -0.0144243678, -0.0131567148, 2.68714412E-05, 918.5322    , 29.5332947  , 820.526     , 0.24        , 3           , 255         , 0           , 0
-0.147022724, 0.139768749 , -9.787218   , -0.0009443589, -0.0002730782, 0.000227526078, -0.01443384 , -0.0131594138, 2.91860142E-05, 918.5322    , 29.5332947  , 820.526062  , 0.25        , 3           , 255         , 0           , 0
-0.131898388, 0.131800935 , -9.783575   , -0.000127271778, -0.0002502633, 0.000118895106, -0.0144351283, -0.0131618995, 3.04110363E-05, 918.5322    , 29.5332947  , 820.5261    , 0.26        , 3           , 255         , 0           , 0
-0.135494381, 0.12842074  , -9.795149   , 0.000599273946, -0.000187544967, -0.000729206542, -0.0144290393, -0.01316388 , 2.31463582E-05, 918.5322    , 29.5332947  , 820.5262    , 0.27        , 3           , 255         , 0           , 0
-0.126671329, 0.125185162 , -9.790681   , 0.000307276525, -0.000449165469, -0.0006149009, -0.0144258868, -0.0131684588, 1.706242E-05, 918.5322    , 29.5332947  , 820.526245  , 0.28        , 3           , 255         , 0           , 0
-0.121828616, 0.125738531 , -9.786585   , -3.02398221E-05, -0.0003797362, -8.45140748E-05, -0.0144261792, -0.0131722689, 1.627209E-05, 918.5322    , 29.5332947  , 820.5263    , 0.29        , 3           , 255         , 0           , 0
-0.137028083, 0.123843275 , -9.784731   , -0.000273085, -0.0003529013, 2.17666529E-05, -0.0144289136, -0.0131757921, 1.65406636E-05, 918.5322    , 29.5332947  , 820.526367  , 0.3         , 3           , 255         , 0           , 0
-0.137245461, 0.121048525 , -9.790441   , -0.0002155749, -0.000151538348, 0.000516101 , -0.0144087318, -0.0131870359, 2.14278552E-05, 918.5322    , 29.5332947  , 820.4338    , 0.31        , 3           , 255         , 0           , 0
-0.123604022, 0.125169128 , -9.790559   , 4.60049268E-05, -4.264852E-05, -5.21249167E-05, -0.0144082643, -0.01318747 , 2.09127738E-05, 918.5322    , 29.5332947  , 820.433838  , 0.32        , 3           , 255         , 0           , 0
-0.138202876, 0.124848768 , -9.786082   , -0.0004798336, -4.0597457E-05, 0.0005305338, -0.0144131333, -0.0131878  , 2.6223739E-05, 918.544     , 29.551815   , 820.4339    , 0.33        , 3           , 255         , 0           , 0
-0.137212336, 0.120499775 , -9.77712    , -0.000153712012, 0.000327872462, 0.000231227808, -0.0144147  , -0.0131844888, 2.84886573E-05, 918.544     , 29.551815   , 820.43396   , 0.34        , 3           , 255         , 0           , 0
-0.126812935, 0.1281518   , -9.78729248 , -0.000186985882, 0.000281714922, 0.000299742271, -0.01441661 , -0.0131816287, 3.14453537E-05, 918.544     , 29.551815   , 820.434     , 0.35        , 3           , 255         , 0           , 0
-0.119924769, 0.139666319 , -9.788512   , -0.000158158917, -0.000363731, -0.000282290566, -0.014418154, -0.0131853046, 2.86750128E-05, 918.544     , 29.551815   , 820.4341    , 0.36        , 3           , 255         , 0           , 0
-0.122323573, 0.134703949 , -9.7897625  , 0.0004476888, -0.0001938339, -6.61551749E-05, -0.0144136678, -0.0131872511, 2.804142E-05, 918.544     , 29.551815   , 820.434143  , 0.37        , 3           , 255         , 0           , 0
-0.123291418, 0.142322183 , -9.788963   , -0.0002764247, 1.96488691E-05, -6.343245E-05, -0.0144164246, -0.0131870648, 2.74042941E-05, 918.544     , 29.551815   , 820.4342    , 0.38        , 3           , 255         , 0           , 0
-0.119130179, 0.153587922 , -9.788003   , 0.0006619707, -0.0002544978, 0.000372168841, -0.014409855, -0.0131895561, 3.11625045E-05, 918.544     , 29.551815   , 820.434265  , 0.39        , 3           , 255         , 0           , 0
-0.127834052, 0.149480253 , -9.783102   , -0.000119237215, -6.278959E-05, 0.0003157926, -0.0144110881, -0.0131901391, 3.432935E-05, 918.544     , 29.551815   , 820.4343    , 0.4         , 3           , 255         , 0           , 0
-0.129555255, 0.166322246 , -9.78469849 , 4.463627E-05, -0.000137558032, -0.000155848073, -0.0143695772, -0.0131830387, 3.22496344E-05, 918.544     , 29.551815   , 820.3609    , 0.41        , 3           , 255         , 0           , 0
-0.1130379  , 0.16069518  , -9.788598   , 5.96196332E-05, -0.0003828617, 0.000147864019, -0.014369   , -0.0131868431, 3.378322E-05, 918.544     , 29.551815   , 820.360962  , 0.42        , 3           , 255         , 0           , 0
-0.118015252, 0.157637209 , -9.794966   , -0.000464243174, 0.0004162831, 4.65925841E-05, -0.014373647, -0.0131826745, 3.41893028E-05, 918.521     , 29.5615845  , 820.361     , 0.43        , 3           , 255         , 0           , 0
-0.130418465, 0.1590769   , -9.804315   , -0.000183912111, 0.000211254082, 9.941095E-05, -0.0143755  , -0.0131805483, 3.51530034E-05, 918.521     , 29.5615845  , 820.3611    , 0.44        , 3           , 255         , 0           , 0
-0.124747574, 0.159417763 , -9.796078   , -0.000152717752, 0.000107433647, -0.000127329113, -0.01437701 , -0.0131794922, 3.386432E-05, 918.521     , 29.5615845  , 820.361145  , 0.45        , 3           , 255         , 0           , 0
-0.112403974, 0.150493383 , -9.789587   , -0.000279862725, 8.609053E-05, -0.000256036, -0.0143797752, -0.013178668, 3.12916854E-05, 918.521     , 29.5615845  , 820.3612    , 0.46        , 3           , 255         , 0           , 0
-0.12987408 , 0.142838582 , -9.789911   , 0.0003590181, -9.591406E-05, -0.000287919625, -0.0143761477, -0.0131796682, 2.84263915E-05, 918.521     , 29.5615845  , 820.361267  , 0.47        , 3           , 255         , 0           , 0
-0.123780392, 0.144184679 , -9.790946   , -0.0007152118, 0.000204095035, -9.26689245E-05, -0.0143832862, -0.0131776417, 2.7470398E-05, 918.521     , 29.5615845  , 820.3613    , 0.48        , 3           , 255         , 0           , 0
-0.123897731, 0.13761206  , -9.794434   , -0.000398985343, -8.21756E-05, 0.000441987533, -0.0143873328, -0.0131784  , 3.19019127E-05, 918.521     , 29.5615845  , 820.3614    , 0.49        , 3           , 255         , 0           , 0
-0.137150079, 0.12582171  , -9.788628   , 0.000149497107, 0.000212381943, 0.000287604955, -0.0143858753, -0.0131762344, 3.4747296E-05, 918.521     , 29.5615845  , 820.36145   , 0.5         , 3           , 255         , 0           , 0
-0.1413308  , 0.127584249 , -9.780159   , 0.00015016101, 0.000203297881, -0.0008478643, -0.0144166965, -0.0131581649, 2.66665247E-05, 918.521     , 29.5615845  , 820.3594    , 0.51        , 3           , 255         , 0           , 0
-0.133680925, 0.121501468 , -9.79212    , -0.0003285536, -0.0004789324, -0.000583773, -0.0144199077, -0.0131630376, 2.08980982E-05, 918.521     , 29.5615845  , 820.359436  , 0.52        , 3           , 255         , 0           , 0
-0.127444535, 0.117583737 , -9.773916   , 0.000291552715, -6.1648374E-05, 0.000452955137, -0.0144170513, -0.0131635889, 2.543636E-05, 918.5472    , 29.5679626  , 820.3595    , 0.53        , 3           , 255         , 0           , 0
-0.125313   , 0.125280678 , -9.782564   , -0.0002270317, 0.000305873138, -0.000443895464, -0.0144192642, -0.0131605938, 2.09534937E-05, 918.5472    , 29.5679626  , 820.359558  , 0.54        , 3           , 255         , 0           , 0
-0.129329562, 0.129846573 , -9.78994    , -0.000115556395, -4.9261027E-05, -8.65018956E-05, -0.0144204088, -0.0131610995, 2.00956219E-05, 918.5472    , 29.5679626  , 820.3596    , 0.55        , 3           , 255         , 0           , 0
-0.134683847, 0.128225967 , -9.790617   , -0.0008607774, -3.79514531E-05, 0.000120456185, -0.0144290328, -0.0131614609, 2.130561E-05, 918.5472    , 29.5679626  , 820.3597    , 0.56        , 3           , 255         , 0           , 0
-0.139866173, 0.134052351 , -9.788121   , -0.0004059528, 0.0001574714, -0.000172100947, -0.0144330692, -0.0131599121, 1.95619486E-05, 918.5472    , 29.5679626  , 820.359741  , 0.57        , 3           , 255         , 0           , 0
-0.12961553 , 0.133534    , -9.784674   , -0.000414197362, 0.000231492973, 6.805899E-05, -0.01443722 , -0.0131575884, 2.02091E-05 , 918.5472    , 29.5679626  , 820.3598    , 0.58        , 3           , 255         , 0           , 0
-0.128938839, 0.1417779   , -9.780199   , -0.000229923477, -0.000167222926, -0.000291425851, -0.0144394794, -0.0131593021, 1.73191074E-05, 918.5472    , 29.5679626  , 820.359863  , 0.59        , 3           , 255         , 0           , 0
-0.126261562, 0.1468337   , -9.779061   , -8.252195E-06, 7.519324E-06, -0.000135179391, -0.0144395446, -0.0131592471, 1.59662886E-05, 918.5472    , 29.5679626  , 820.3599    , 0.6         , 3           , 255         , 0           , 0
-0.121887483, 0.141996533 , -9.792553   , 0.000477489375, 0.0003400922, 0.000201261835, -0.0143536534, -0.0131779658, 1.68604129E-05, 918.5472    , 29.5679626  , 820.3174    , 0.61        , 3           , 255         , 0           , 0
-0.111470424, 0.138357565 , -9.790005   , 1.74552188E-05, 0.000104603881, 0.000281223445, -0.0143535174, -0.013176878, 1.96575256E-05, 918.5472    , 29.5679626  , 820.317444  , 0.62        , 3           , 255         , 0           , 0
-0.124193713, 0.1602045   , -9.789946   , -1.9710089E-05, 0.00032038978, -0.000210462284, -0.014353686, -0.0131737087, 1.75070127E-05, 918.500061  , 29.5741348  , 820.3175    , 0.63        , 3           , 255         , 0           , 0
-0.123917028, 0.152089477 , -9.784686   , -1.94574241E-05, 0.0003758088, -0.000332221825, -0.0143538369, -0.0131699964, 1.41309965E-05, 918.500061  , 29.5741348  , 820.317566  , 0.64        , 3           , 255         , 0           , 0
-0.1303159  , 0.160801858 , -9.785061   , -0.0004357  , 0.000290625321, -0.000319533021, -0.0143581517, -0.0131671373, 1.08940712E-05, 918.500061  , 29.5741348  , 820.3176    , 0.65        , 3           , 255         , 0           , 0
-0.126702383, 0.152939171 , -9.783396   , -0.0005072129, -0.000184245466, -0.0001353673, -0.0143632041, -0.013168999, 9.566917E-06, 918.500061  , 29.5741348  , 820.3177    , 0.66        , 3           , 255         , 0           , 0
-0.127199948, 0.152226374 , -9.789305   , -0.000107145621, -0.0006487432, -0.000391492125, -0.0143642239, -0.0131755406, 5.74534033E-06, 918.500061  , 29.5741348  , 820.317749  , 0.67        , 3           , 255         , 0           , 0
-0.123537123, 0.142681062 , -9.783016   , -0.00026529294, 0.0003019588, -0.0002687654, -0.0143668419, -0.0131725613, 3.01442174E-06, 918.500061  , 29.5741348  , 820.3178    , 0.68        , 3           , 255         , 0           , 0
-0.1261206  , 0.145983234 , -9.789877   , -3.8333008E-05, 0.000315193844, -0.00014485963, -0.014367206, -0.01316943 , 1.52061057E-06, 918.500061  , 29.5741348  , 820.3179    , 0.69        , 3           , 255         , 0           , 0
-0.127340063, 0.143804446 , -9.779753   , -7.500706E-05, 0.000197425019, 0.000191803 , -0.0143679809, -0.0131674288, 3.41019518E-06, 918.500061  , 29.5741348  , 820.317932  , 0.7         , 3           , 255         , 0           , 0
-0.122329816, 0.12675941  , -9.786137   , 0.000263318536, 4.30448563E-05, 0.000447798258, -0.0144076375, -0.0131441979, 8.436889E-06, 918.500061  , 29.5741348  , 820.352234  , 0.71        , 3           , 255         , 0           , 0
-0.122114554, 0.1288262   , -9.796464   , 0.0007623188, 0.000339509977, -3.42313433E-06, -0.0144000128, -0.0131408069, 8.353767E-06, 918.500061  , 29.5741348  , 820.3523    , 0.72        , 3           , 255         , 0           , 0
-0.134315878, 0.132614583 , -9.791389   , 0.0004287557, -0.000123974518, 0.000118381962, -0.0143957417, -0.013142027, 9.55538E-06 , 918.5594    , 29.57902    , 820.352356  , 0.73        , 3           , 255         , 0           , 0
-0.130165532, 0.132520989 , -9.789282   , -8.069012E-05, -3.18143866E-05, 0.0007005081, -0.0143966405, -0.013142244, 1.65647416E-05, 918.5594    , 29.57902    , 820.3524    , 0.74        , 3           , 255         , 0           , 0
-0.125899017, 0.123690628 , -9.786802   , -0.000207641977, -0.000215183711, 0.000146533988, -0.0143987369, -0.0131443748, 1.80609968E-05, 918.5594    , 29.57902    , 820.352539  , 0.75        , 3           , 255         , 0           , 0
-0.126116857, 0.121679261 , -9.785041   , 0.000413273985, 0.0002779573, 0.0005854322, -0.0143946791, -0.01314151 , 2.38750545E-05, 918.5594    , 29.57902    , 820.352661  , 0.76        , 3           , 255         , 0           , 0
-0.124184847, 0.13212426  , -9.783686   , 0.0001711035, 0.00019888964, 0.000236038584, -0.0143930009, -0.0131394872, 2.62067042E-05, 918.5594    , 29.57902    , 820.3528    , 0.77        , 3           , 255         , 0           , 0
-0.1274143  , 0.135387287 , -9.781163   , -0.0004210259, 0.000322271226, -0.0003019559, -0.01439717 , -0.0131363086, 2.31408831E-05, 918.5594    , 29.57902    , 820.3529    , 0.78        , 3           , 255         , 0           , 0
-0.131312281, 0.140703887 , -9.800615   , -0.00015157499, -2.39620567E-05, -0.000402661768, -0.0143986326, -0.0131366057, 1.91178915E-05, 918.5594    , 29.57902    , 820.353     , 0.79        , 3           , 255         , 0           , 0
-0.124404669, 0.141130283 , -9.788349   , -0.0003871771, -0.0001930584, -0.000259065622, -0.0144024706, -0.0131385745, 1.65551428E-05, 918.5594    , 29.57902    , 820.353149  , 0.8         , 3           , 255         , 0           , 0
-0.118986771, 0.137950376 , -9.785322   , -0.000722939149, -0.0002363071, -2.82673864E-06, -0.0143735167, -0.0131338043, 1.60856853E-05, 918.5594    , 29.57902    , 820.3054    , 0.81        , 3           , 255         , 0           , 0
-0.130457327, 0.14394033  , -9.792565   , -0.0005509233, -0.000225358584, -0.0002471992, -0.0143789938, -0.0131360954, 1.36461949E-05, 918.5594    , 29.57902    , 820.3055    , 0.82        , 3           , 255         , 0           , 0
-0.122766934, 0.15287295  , -9.785505   , -0.000326533569, 5.313015E-05, -0.000390111119, -0.0143822078, -0.0131356185, 9.737607E-06, 918.4726    , 29.5820045  , 820.305542  , 0.83        , 3           , 255         , 0           , 0
-0.121053889, 0.154154018 , -9.784076   , 0.000265100738, 0.000229388243, -0.000220802511, -0.0143795265, -0.0131333554, 7.496695E-06, 918.4726    , 29.5820045  , 820.3056    , 0.84        , 3           , 255         , 0           , 0
-0.119281627, 0.157343417 , -9.788459   , 5.03635965E-05, 0.0003960129, -0.00105256 , -0.0143788848, -0.0131295482, -3.08541757E-06, 918.4726    , 29.5820045  , 820.305664  , 0.85        , 3           , 255         , 0           , 0
-0.11379683 , 0.15584223  , -9.78816    , 0.000333583535, 0.000331216143, 0.0006499767, -0.0143756354, -0.0131261433, 3.36646826E-06, 918.4726    , 29.5820045  , 820.3057    , 0.86        , 3           , 255         , 0           , 0
-0.118237771, 0.1531798   , -9.787988   , 0.0003189509, 0.000143686368, 0.0008635858, -0.0143725574, -0.0131245824, 1.19813112E-05, 918.4726    , 29.5820045  , 820.3058    , 0.87        , 3           , 255         , 0           , 0
-0.117253646, 0.149239928 , -9.796619   , 0.000660414342, -9.519601E-05, 0.000935049145, -0.0143660782, -0.0131254019, 2.134509E-05, 918.4726    , 29.5820045  , 820.305847  , 0.88        , 3           , 255         , 0           , 0
-0.123676583, 0.151013047 , -9.785357   , -6.481192E-05, 2.46300478E-05, 6.02343061E-06, -0.0143667255, -0.0131251542, 2.140178E-05, 918.4726    , 29.5820045  , 820.3059    , 0.89        , 3           , 255         , 0           , 0
-0.126238078, 0.151992336 , -9.783714   , -0.0004937765, 0.000101080135, 0.0005991747, -0.01437174 , -0.013124058, 2.737875E-05, 918.4726    , 29.5820045  , 820.305969  , 0.9         , 3           , 255         , 0           , 0
-0.1285115  , 0.1477562   , -9.794291   , -0.000123793288, -0.000374022464, -0.000164632, -0.0144135226, -0.0130979307, 2.63175843E-05, 918.4726    , 29.5820045  , 820.3681    , 0.91        , 3           , 255         , 0           , 0
-0.134821624, 0.1373715   , -9.799665   , -0.000438387215, 0.000176747912, 0.000241377973, -0.014417937, -0.0130961277, 2.8705781E-05, 918.4726    , 29.5820045  , 820.3683    , 0.92        , 3           , 255         , 0           , 0
-0.122055948, 0.126190513 , -9.780713   , -0.000371702772, 0.00013980642, 0.0001317698, -0.01442167 , -0.0130947111, 3.0003268E-05, 918.53064   , 29.5845146  , 820.368469  , 0.93        , 3           , 255         , 0           , 0
-0.119730011, 0.133843154 , -9.785924   , -0.00037235592, 0.000378559751, 0.000623855565, -0.014425477, -0.013090835, 3.61869461E-05, 918.53064   , 29.5845146  , 820.368652  , 0.94        , 3           , 255         , 0           , 0
-0.118410431, 0.1336401   , -9.78602    , 0.000278837164, 0.000203549687, 0.000117634787, -0.0144227017, -0.0130887823, 3.73338771E-05, 918.53064   , 29.5845146  , 820.368835  , 0.95        , 3           , 255         , 0           , 0
-0.126168162, 0.119575754 , -9.783596   , -5.972972E-06, -0.00033922 , -0.0004733411, -0.0144227  , -0.0130922431, 3.26496E-05 , 918.53064   , 29.5845146  , 820.369     , 0.96        , 3           , 255         , 0           , 0
-0.12162447 , 0.127358079 , -9.77891    , -0.000160684256, 2.86416034E-05, 0.000428930158, -0.0144243641, -0.0130918948, 3.693458E-05, 918.53064   , 29.5845146  , 820.3692    , 0.97        , 3           , 255         , 0           , 0
-0.126589686, 0.125736386 , -9.787634   , -0.00047541922, -8.13484658E-05, 0.000640003069, -0.0144292014, -0.0130926166, 4.33460664E-05, 918.53064   , 29.5845146  , 820.3694    , 0.98        , 3           , 255         , 0           , 0
-0.1255525  , 0.134977654 , -9.780017   , -0.0003214394, -4.69209626E-05, 0.000467111124, -0.0144324759, -0.0130930189, 4.80237431E-05, 918.53064   , 29.5845146  , 820.369568  , 0.99        , 3           , 255         , 0           , 0
-0.128252715, 0.1283622   , -9.790708   , -0.000145507714, 0.000184269709, 0.0004255225, -0.0144339865, -0.0130911143, 5.2252195E-05, 918.53064   , 29.5845146  , 820.369751  , 1           , 3           , 0           , 6.02023649  , 100
-0.13318111 , 0.135160387 , -9.790587   , -0.0002382833, 8.731196E-05, 0.000149734333, -0.0143929711, -0.0130769964, 5.316908E-05, 918.53064   , 29.5845146  , 820.3575    , 1.01        , 3           , 1           , 0           , 0
-0.126984954, 0.148796111 , -9.793158   , -0.0002460718, 0.0006417398, 0.000906764064, -0.014395549, -0.013070452, 6.214396E-05, 918.53064   , 29.5845146  , 820.3576    , 1.02        , 3           , 2           , 0           , 0
-0.132698879, 0.142631128 , -9.789719   , 0.000547464 , -2.13773455E-05, 0.000160494819, -0.0143900951, -0.0130706411, 6.37519042E-05, 918.5047    , 29.58594    , 820.3577    , 1.03        , 3           , 3           , 0           , 0
-0.1287941  , 0.142336264 , -9.789228   , -0.000190360952, -0.000297851977, -0.0004900879, -0.0143919364, -0.0130736893, 5.88941075E-05, 918.5047    , 29.58594    , 820.357849  , 1.04        , 3           , 4           , 0           , 0
-0.115625426, 0.156422555 , -9.790885   , 0.0002348551, 9.522191E-06, -0.000155941321, -0.0143895661, -0.0130736167, 5.73333855E-05, 918.5047    , 29.58594    , 820.358     , 1.05        , 3           , 5           , 0           , 0
-0.11575003 , 0.151992947 , -9.796952   , 5.53499121E-05, 0.000104563078, 0.000168163373, -0.0143890353, -0.0130725475, 5.89999E-05 , 918.5047    , 29.58594    , 820.3581    , 1.06        , 3           , 6           , 0           , 0
-0.126643628, 0.153804779 , -9.797087   , 0.000356608332, -8.096977E-06, 0.000156030845, -0.01438549 , -0.0130726052, 6.05613131E-05, 918.5047    , 29.58594    , 820.3582    , 1.07        , 3           , 7           , 0           , 0
-0.119937204, 0.154299885 , -9.791008   , 0.000290273776, 0.00028300265, 0.000458498573, -0.0143826455, -0.0130697126, 6.51054E-05 , 918.5047    , 29.58594    , 820.358337  , 1.08        , 3           , 8           , 5           , 5
-0.1278533  , 0.160738051 , -9.78895    , -0.0005100372, 0.000119010074, -3.147463E-05, -0.0143877417, -0.0130685261, 6.477354E-05, 918.5047    , 29.58594    , 820.358459  , 1.09        , 3           , 9           , 5           , 0.1
-0.129961   , 0.152458027 , -9.785803   , 0.000212616578, -8.202734E-05, 8.87882E-05 , -0.0143856267, -0.0130693335, 6.567318E-05, 918.5047    , 29.58594    , 820.358643  , 1.1         , 3           , 10          , 0.1         , 0.1
-0.123688772, 0.150075927 , -9.790452   , -0.000244200783, -0.000102015561, -0.000128563726, -0.0144124432, -0.0130641386, 6.472092E-05, 918.5047    , 29.58594    , 820.3753    , 1.11        , 3           , 11          , 0.008522407 , 0.008522407
-0.129726112, 0.14852497  , -9.789212   , 0.00044406837, 0.0004148094, 0.000480100483, -0.0144080641, -0.0130599244, 6.946195E-05, 918.5047    , 29.58594    , 820.3755    , 1.12        , 3           , 12          , 0.174642846 , 0
-0.125225618, 0.141039252 , -9.789612   , 0.000302551285, 0.000877207844, -0.0005951106, -0.01440496 , -0.0130512379, 6.33847449E-05, 918.5537    , 29.5918427  , 820.3757    , 1.13        , 3           , 13          , 0           , 0
-0.125613853, 0.127284914 , -9.79867    , 4.71385E-05 , 2.02906085E-05, -0.000300366577, -0.01440445 , -0.0130510777, 6.03782828E-05, 918.5537    , 29.5918427  , 820.375854  , 1.14        , 3           , 14          , 8.848481E-05, -0.0005772707
-0.124791935, 0.121262074 , -9.79807    , 0.000213760621, 3.003556E-05, -0.000120180281, -0.0144022973, -0.0130507946, 5.91722055E-05, 918.5537    , 29.5918427  , 820.376038  , 1.15        , 3           , 15          , 0           , -0.000185488723
-0.13135846 , 0.124610007 , -9.784465   , -0.000357929, -3.20737E-05, 0.000194863125, -0.0144059025, -0.013051087, 6.112537E-05, 918.5537    , 29.5918427  , 820.3762    , 1.16        , 3           , 16          , 0           , 1.401298E-45
-0.129842341, 0.1275195   , -9.779705   , -0.000181789714, -6.558967E-05, -5.36480657E-05, -0.014407713, -0.0130517511, 6.059836E-05, 918.5537    , 29.5918427  , 820.3764    , 1.17        , 3           , 20          , 0           , 0
-0.126430124, 0.129443258 , -9.78259    , -0.0004556129, 0.000131306326, 0.000379560865, -0.0144123184, -0.0130503839, 6.43748863E-05, 918.5537    , 29.5918427  , 820.3766    , 1.18        , 3           , 21          , 0           , 0
-0.131622091, 0.1309301   , -9.784749   , -0.000153031826, -0.00030929147, 0.000123562335, -0.0144138662, -0.0130534582, 6.565503E-05, 918.5537    , 29.5918427  , 820.3768    , 1.19        , 3           , 22          , 0           , 0
-0.127483174, 0.121609189 , -9.796391   , -0.000422889978, 0.000334286626, -0.000109869667, -0.0144180786, -0.0130501315, 6.450818E-05, 918.5537    , 29.5918427  , 820.376953  , 1.2         , 3           , 40          , 0           , 0
-0.1218917  , 0.133176982 , -9.78826    , -0.000151703935, 0.000164747878, -0.000201654781, -0.0143917  , -0.0130478749, 6.210433E-05, 918.5537    , 29.5918427  , 820.3407    , 1.21        , 3           , 41          , 0           , 0
-0.126996443, 0.137378976 , -9.799797   , 6.336615E-05, -0.00023171294, 0.000246358744, -0.0143911  , -0.0130501557, 6.460117E-05, 918.5537    , 29.5918427  , 820.3408    , 1.22        , 3           , 42          , 0           , 0
-0.13305001 , 0.131987542 , -9.775675   , 0.000182588265, -0.000401637633, -0.000482967822, -0.0143892122, -0.01305424 , 5.98294973E-05, 918.505     , 29.5916386  , 820.340942  , 1.23        , 3           , 255         , 0           , 0
-0.129292682, 0.131744653 , -9.78220749 , 0.000228303572, -7.688627E-05, -0.0009172711, -0.0143868094, -0.01305514 , 5.06682482E-05, 918.505     , 29.5916386  , 820.341064  , 1.24        , 3           , 255         , 0           , 0
-0.1371544  , 0.137884185 , -9.788286   , -0.0003303454, 5.56436135E-05, -0.0007467296, -0.014390015, -0.0130546913, 4.319327E-05, 918.505     , 29.5916386  , 820.3412    , 1.25        , 3           , 255         , 0           , 0
-0.128636315, 0.15854682  , -9.790273   , 0.000109026158, 0.000371840957, -0.000385654566, -0.0143888742, -0.0130510284, 3.928337E-05, 918.505     , 29.5916386  , 820.3413    , 1.26        , 3           , 255         , 0           , 0
-0.121725895, 0.161712974 , -9.798979   , 0.0002585442, -0.000220885384, 0.000340432453, -0.0143863335, -0.0130531872, 4.27193336E-05, 918.505     , 29.5916386  , 820.341431  , 1.27        , 3           , 255         , 0           , 0
-0.1277516  , 0.160226345 , -9.79302    , 0.000190593448, 4.68522776E-05, 0.000227699231, -0.0143844588, -0.0130526861, 4.49894833E-05, 918.505     , 29.5916386  , 820.341553  , 1.28        , 3           , 255         , 0           , 0
-0.135105878, 0.167924881 , -9.789048   , 0.000436066446, -2.05482938E-05, -0.0004782619, -0.014380035, -0.0130529637, 4.021003E-05, 918.505     , 29.5916386  , 820.3417    , 1.29        , 3           , 255         , 0           , 0
-0.124427721, 0.163223773 , -9.79385948 , 0.00101689156, -0.0003192973, -0.00027008116, -0.0143698305, -0.0130561935, 3.755522E-05, 918.505     , 29.5916386  , 820.3418    , 1.3         , 3           , 255         , 0           , 0
-0.123863555, 0.156975582 , -9.792295   , 0.000818797969, -0.000622669933, 6.602784E-05, -0.0143832313, -0.0130646378, 3.858681E-05, 918.505     , 29.5916386  , 820.3596    , 1.31        , 3           , 255         , 0           , 0
-0.13298288 , 0.15322879  , -9.78245    , 0.000129589549, -0.000399656827, 0.000174711677, -0.0143819563, -0.0130686061, 4.03913255E-05, 918.505     , 29.5916386  , 820.3598    , 1.32        , 3           , 255         , 0           , 0
-0.12522015 , 0.14686884  , -9.786385   , 0.000147480576, 0.0003460142, -2.73348269E-05, -0.0143804792, -0.01306515 , 4.006824E-05, 918.597961  , 29.5940132  , 820.36      , 1.33        , 3           , 255         , 0           , 0
-0.125569373, 0.142442971 , -9.785556   , -0.000140296586, -0.000242669717, 6.21136E-05 , -0.0143818883, -0.0130675677, 4.072424E-05, 918.597961  , 29.5940132  , 820.360168  , 1.34        , 3           , 255         , 0           , 0
-0.119825318, 0.1461614   , -9.792272   , 8.21046E-05 , 0.000470471045, -0.0005483411, -0.0143809961, -0.0130629428, 3.517341E-05, 918.597961  , 29.5940132  , 820.360352  , 1.35        , 3           , 255         , 0           , 0
-0.125155956, 0.147822678 , -9.797866   , -0.000442947668, 5.008676E-05, -0.000443273166, -0.0143853687, -0.0130625051, 3.07336632E-05, 918.597961  , 29.5940132  , 820.360535  , 1.36        , 3           , 255         , 0           , 0
-0.118772306, 0.145445913 , -9.7875     , -0.0004949334, -0.0004240746, 0.000269075041, -0.0143903522, -0.0130667072, 3.34853175E-05, 918.597961  , 29.5940132  , 820.3607    , 1.37        , 3           , 255         , 0           , 0
-0.124863006, 0.133654982 , -9.787064   , 0.000427556224, -0.000314987556, 0.000296253158, -0.0143861156, -0.0130698141, 3.649304E-05, 918.597961  , 29.5940132  , 820.3609    , 1.38        , 3           , 255         , 0           , 0
-0.130691335, 0.137597591 , -9.79057    , 0.000366465538, -0.000106445921, 9.679819E-05, -0.0143824648, -0.0130708627, 3.747629E-05, 918.597961  , 29.5940132  , 820.3611    , 1.39        , 3           , 255         , 0           , 0
-0.12624076 , 0.132203788 , -9.795758   , -3.4531E-05 , -0.0001769964, 0.000104211431, -0.0143828243, -0.0130726174, 3.85438143E-05, 918.597961  , 29.5940132  , 820.361267  , 1.4         , 3           , 255         , 0           , 0
-0.132443815, 0.129796654 , -9.794039   , -4.72963438E-06, -4.79718437E-05, 0.000315093639, -0.0143927634, -0.013065598, 4.183021E-05, 918.597961  , 29.5940132  , 820.2809    , 1.41        , 3           , 255         , 0           , 0
-0.137271628, 0.125660419 , -9.800241   , 0.000289622345, 6.794027E-05, 0.000172562053, -0.0143898884, -0.0130648939, 4.354598E-05, 918.597961  , 29.5940132  , 820.280762  , 1.42        , 3           , 255         , 0           , 0
-0.126271889, 0.126555234 , -9.779234   , 0.000292386481, -7.200922E-05, 7.465491E-05, -0.0143869743, -0.0130656026, 4.430286E-05, 918.539063  , 29.59191    , 820.28064   , 1.43        , 3           , 255         , 0           , 0
-0.120942041, 0.135868028 , -9.794649   , 0.000408550375, -0.000192508451, 9.4313E-06  , -0.0143828923, -0.0130675286, 4.44248544E-05, 918.539063  , 29.59191    , 820.2805    , 1.44        , 3           , 255         , 0           , 0
-0.13001129 , 0.121293724 , -9.78899    , -0.000195619912, -0.0002922528, -0.000693862559, -0.0143847587, -0.0130705489, 3.75285563E-05, 918.539063  , 29.59191    , 820.2804    , 1.45        , 3           , 255         , 0           , 0
-0.12999779 , 0.124828413 , -9.790431   , -0.000469211955, 0.0004923293, 0.0004231945, -0.0143895047, -0.0130655654, 4.16894945E-05, 918.539063  , 29.59191    , 820.2803    , 1.46        , 3           , 255         , 0           , 0
-0.132743508, 0.132476524 , -9.786971   , -0.000272340578, -0.000106066407, 0.000362189952, -0.0143922744, -0.013066574, 4.53265E-05 , 918.539063  , 29.59191    , 820.280151  , 1.47        , 3           , 255         , 0           , 0
-0.132803917, 0.131737247 , -9.78898    , 0.000343028718, -0.000531574769, -0.000198648748, -0.0143888192, -0.0130719179, 4.34165922E-05, 918.539063  , 29.59191    , 820.28      , 1.48        , 3           , 255         , 0           , 0
-0.130483091, 0.1374459   , -9.789066   , 0.000364361971, -0.0001376174, -3.849526E-05, -0.01438517 , -0.0130733  , 4.305146E-05, 918.539063  , 29.59191    , 820.2799    , 1.49        , 3           , 255         , 0           , 0
-0.130715445, 0.142377526 , -9.791973   , -0.000377374381, 1.38153555E-05, -5.16129367E-05, -0.0143889366, -0.0130731687, 4.25333637E-05, 918.539063  , 29.59191    , 820.2798    , 1.5         , 3           , 255         , 0           , 0
-0.131240219, 0.139445022 , -9.794226   , -0.000276376, 0.00026521855, 0.000213160412, -0.0143650658, -0.0130768493, 4.42780547E-05, 918.539063  , 29.59191    , 820.2689    , 1.51        , 3           , 255         , 0           , 0
-0.1297658  , 0.143324569 , -9.791138   , 0.0003462709, 0.000207925681, -0.000178160146, -0.01436158 , -0.0130747948, 4.246666E-05, 918.539063  , 29.59191    , 820.268738  , 1.52        , 3           , 255         , 0           , 0
-0.134063482, 0.147024065 , -9.784541   , 0.000244441559, 0.000494174834, 1.835078E-05, -0.014359137, -0.0130698513, 4.25792E-05 , 918.4869    , 29.5945549  , 820.268555  , 1.53        , 3           , 255         , 0           , 0
-0.129526436, 0.152396649 , -9.782962   , 8.663519E-05, -0.0002555239, -7.98600959E-05, -0.0143582616, -0.013072418, 4.18173222E-05, 918.4869    , 29.5945549  , 820.2684    , 1.54        , 3           , 255         , 0           , 0
-0.131298974, 0.140065834 , -9.780271   , -0.000129019958, -0.000152467284, 0.0005821769, -0.0143596279, -0.0130738588, 4.76607347E-05, 918.4869    , 29.5945549  , 820.2682    , 1.55        , 3           , 255         , 0           , 0
-0.123417534, 0.148803219 , -9.786218   , -0.00044393132, 0.000291602773, 0.000370889844, -0.014364114, -0.0130708907, 5.13276E-05 , 918.4869    , 29.5945549  , 820.268     , 1.56        , 3           , 255         , 0           , 0
-0.121527955, 0.15509066  , -9.787715   , 6.415574E-05, -0.000123376609, -0.000118380238, -0.0143634574, -0.0130721414, 5.01615723E-05, 918.4869    , 29.5945549  , 820.2678    , 1.57        , 3           , 255         , 0           , 0
-0.12834838 , 0.154785991 , -9.787233   , 5.840436E-05, -0.000114818919, 0.0001656447, -0.0143628959, -0.0130732656, 5.18344423E-05, 918.4869    , 29.5945549  , 820.267639  , 1.58        , 3           , 255         , 0           , 0
-0.128386229, 0.1546193   , -9.787532   , 0.000361072773, -0.00013110385, 3.354036E-05, -0.0143592888, -0.0130745713, 5.218865E-05, 918.4869    , 29.5945549  , 820.267456  , 1.59        , 3           , 255         , 0           , 0
-0.117996931, 0.149984866 , -9.788867   , -1.78099071E-05, -3.206113E-05, -0.000471329578, -0.0143594053, -0.0130749606, 4.748016E-05, 918.4869    , 29.5945549  , 820.2673    , 1.6         , 3           , 255         , 0           , 0
-0.1245137  , 0.14595893  , -9.7865     , -0.000460271724, -5.7740428E-05, -0.000572754361, -0.0143920034, -0.013074168, 4.21281366E-05, 918.4869    , 29.5945549  , 820.3137    , 1.61        , 3           , 255         , 0           , 0
-0.129936844, 0.14578025  , -9.792229   , -0.000142689634, 0.00013329793, -9.979584E-05, -0.0143934172, -0.0130728511, 4.11110341E-05, 918.4869    , 29.5945549  , 820.3138    , 1.62        , 3           , 255         , 0           , 0
-0.12762107 , 0.1421684   , -9.78845    , 0.000302243745, 0.0005848253, 0.00040016498, -0.0143904453, -0.0130669447, 4.502836E-05, 918.5033    , 29.59503    , 820.313843  , 1.63        , 3           , 255         , 0           , 0
-0.122870661, 0.146753117 , -9.7834     , -0.000159619347, 0.00025129423, 0.0006668549, -0.01439213 , -0.013064336, 5.16604523E-05, 918.5033    , 29.59503    , 820.3139    , 1.64        , 3           , 255         , 0           , 0
-0.123840056, 0.14786692  , -9.791886   , -0.000218770991, 0.000109676563, 0.000230542908, -0.0143943457, -0.0130632073, 5.39499961E-05, 918.5033    , 29.59503    , 820.313965  , 1.65        , 3           , 255         , 0           , 0
-0.124475613, 0.142502218 , -9.786731   , 0.000341865962, -0.000112853362, 0.000131370514, -0.0143909464, -0.0130643165, 5.52798847E-05, 918.5033    , 29.59503    , 820.314     , 1.66        , 3           , 255         , 0           , 0
-0.122559451, 0.141180784 , -9.793836   , -7.517121E-05, -0.0004158388, 1.56440074E-05, -0.0143917007, -0.013068473, 5.54961625E-05, 918.5033    , 29.59503    , 820.3141    , 1.67        , 3           , 255         , 0           , 0
-0.1273239  , 0.140902832 , -9.796296   , -0.00038330385, 0.0001419606, 0.0004239948, -0.0143955871, -0.0130669922, 5.9715494E-05, 918.5033    , 29.59503    , 820.314148  , 1.68        , 3           , 255         , 0           , 0
-0.118818082, 0.141049683 , -9.791746   , -0.000286578928, 0.000149541127, -0.000107237196, -0.0143984379, -0.0130655132, 5.86216374E-05, 918.5033    , 29.59503    , 820.3142    , 1.69        , 3           , 255         , 0           , 0
-0.119922377, 0.13799201  , -9.787828   , -0.0005307114, 0.000369737449, 0.0002287492, -0.0144037744, -0.0130617842, 6.085579E-05, 918.5033    , 29.59503    , 820.3143    , 1.7         , 3           , 255         , 0           , 0
-0.130626217, 0.137777969 , -9.779219   , -0.000547070231, 0.0002513105, 0.000476965128, -0.0144152921, -0.0130494907, 6.566714E-05, 918.5033    , 29.59503    , 820.3386    , 1.71        , 3           , 255         , 0           , 0
-0.129875809, 0.134850428 , -9.79199    , 0.000274886639, 0.00022676232, -0.00050951005, -0.0144124767, -0.0130472956, 6.053957E-05, 918.5033    , 29.59503    , 820.3388    , 1.72        , 3           , 255         , 0           , 0
-0.12883167 , 0.132751614 , -9.783525   , 0.000169889361, 0.000120499259, -0.0007220479, -0.0144106848, -0.0130461948, 5.33020429E-05, 918.490234  , 29.59632    , 820.339     , 1.73        , 3           , 255         , 0           , 0
-0.1275523  , 0.136174351 , -9.784227   , 0.000772318454, -7.945637E-06, 0.000409721048, -0.0144030163, -0.013046219, 5.74002224E-05, 918.490234  , 29.59632    , 820.3392    , 1.74        , 3           , 255         , 0           , 0
-0.121318057, 0.132993951 , -9.78934    , 8.795452E-05, -0.000312726363, -2.02166848E-06, -0.0144021362, -0.0130493455, 5.7425048E-05, 918.490234  , 29.59632    , 820.3394    , 1.75        , 3           , 255         , 0           , 0
-0.119826928, 0.139216259 , -9.7866     , -0.0005581508, 0.000373896415, -0.000169418927, -0.0144076953, -0.01304563 , 5.56770756E-05, 918.490234  , 29.59632    , 820.339661  , 1.76        , 3           , 255         , 0           , 0
-0.130879521, 0.142597556 , -9.790635   , -0.000110854744, 0.0003868146, 9.87503154E-06, -0.0144088045, -0.0130417617, 5.57200874E-05, 918.490234  , 29.59632    , 820.3399    , 1.77        , 3           , 255         , 0           , 0
-0.131726831, 0.140525132 , -9.795393   , -9.899378E-05, -0.000321507629, -0.000326240232, -0.0144097526, -0.0130450232, 5.25041578E-05, 918.490234  , 29.59632    , 820.340149  , 1.78        , 3           , 255         , 0           , 0
-0.1228253  , 0.137894049 , -9.80421    , 0.000390031957, -0.0002060943, 0.000358453864, -0.0144058987, -0.0130470321, 5.61182278E-05, 918.490234  , 29.59632    , 820.3404    , 1.79        , 3           , 255         , 0           , 0
-0.128229022, 0.14154999  , -9.786351   , 0.000485327531, 0.000290575728, -0.0001718053, -0.0144010233, -0.0130441505, 5.43584028E-05, 918.490234  , 29.59632    , 820.340637  , 1.8         , 3           , 255         , 0           , 0
-0.139662772, 0.150667027 , -9.778146   , 0.0001671021, 0.000159495423, -0.000430389773, -0.0143901184, -0.0130410334, 4.99120542E-05, 918.490234  , 29.59632    , 820.3777    , 1.81        , 3           , 255         , 0           , 0
-0.137224033, 0.150015712 , -9.776743   , -0.0002708565, 3.13564669E-07, 0.000273262529, -0.014392863, -0.0130409915, 5.264451E-05, 918.490234  , 29.59632    , 820.3781    , 1.82        , 3           , 255         , 0           , 0
-0.127281472, 0.146345019 , -9.785693   , 0.000213338135, -0.0003227159, -0.00012397088, -0.0143907135, -0.0130442362, 5.14512976E-05, 918.4765    , 29.5989647  , 820.37854   , 1.83        , 3           , 255         , 0           , 0
-0.11709094 , 0.144638643 , -9.791742   , -0.000208930753, -0.00081999175, -0.0007276425, -0.0143927075, -0.013052538, 4.429319E-05, 918.4765    , 29.5989647  , 820.378967  , 1.84        , 3           , 255         , 0           , 0
-0.122879073, 0.142656639 , -9.779989   , -5.47044365E-05, -2.81634275E-05, -0.000174975488, -0.0143932318, -0.0130528444, 4.25475664E-05, 918.4765    , 29.5989647  , 820.3794    , 1.85        , 3           , 255         , 0           , 0
-0.115120865, 0.134960175 , -9.793514   , -0.000101597427, -5.30186226E-05, 8.681595E-05, -0.0143942591, -0.0130533623, 4.34233225E-05, 918.4765    , 29.5989647  , 820.3798    , 1.86        , 3           , 255         , 0           , 0
-0.122552909, 0.144208938 , -9.775601   , 0.000406613457, 7.55285146E-06, -1.910259E-05, -0.0143901911, -0.01305329 , 4.32312263E-05, 918.4765    , 29.5989647  , 820.380249  , 1.87        , 3           , 255         , 0           , 0
-0.133103833, 0.131274611 , -9.790077   , -6.180248E-05, 0.000538273132, -7.672736E-05, -0.0143907992, -0.01304792 , 4.23865276E-05, 918.4765    , 29.5989647  , 820.3807    , 1.88        , 3           , 255         , 0           , 0
-0.137191564, 0.133926466 , -9.788965   , -0.000157524424, 0.000138244242, 0.0005379338, -0.0143924449, -0.0130464593, 4.77457361E-05, 918.4765    , 29.5989647  , 820.3811    , 1.89        , 3           , 255         , 0           , 0
-0.129282191, 0.139924482 , -9.791591   , 0.0003392609, 0.000334459037, 0.000821552938, -0.0143891592, -0.013043   , 5.591278E-05, 918.4765    , 29.5989647  , 820.381531  , 1.9         , 3           , 255         , 0           , 0
-0.138418913, 0.145575836 , -9.787172   , 0.000173647408, 0.000139344513, -0.0006295138, -0.0143915173, -0.0130433226, 4.965235E-05, 918.4765    , 29.5989647  , 820.430664  , 1.91        , 3           , 255         , 0           , 0
-0.126462072, 0.152253062 , -9.784048   , -0.000351794879, 0.000278817082, -9.41801E-05, -0.0143950218, -0.0130405482, 4.86704557E-05, 918.4765    , 29.5989647  , 820.4314    , 1.92        , 3           , 255         , 0           , 0
-0.1315628  , 0.139115959 , -9.796957   , -7.010391E-05, -0.000191235857, -0.0004913063, -0.0143956589, -0.013042531, 4.378514E-05, 918.5151    , 29.5990334  , 820.4321    , 1.93        , 3           , 255         , 0           , 0
-0.129964888, 0.128975585 , -9.791445   , -7.316223E-05, -0.00035281654, -0.0005739987, -0.0143963173, -0.0130461389, 3.80961974E-05, 918.5151    , 29.5990334  , 820.432861  , 1.94        , 3           , 255         , 0           , 0
-0.126425773, 0.128003687 , -9.796139   , 0.000104160528, -0.000162782089, -0.000771974155, -0.0143951755, -0.0130478786, 3.04002242E-05, 918.5151    , 29.5990334  , 820.4336    , 1.95        , 3           , 255         , 0           , 0
-0.123700604, 0.1277363   , -9.791594   , 0.0002060189, -0.000341311155, -0.0004659628, -0.0143930558, -0.0130513571, 2.578993E-05, 918.5151    , 29.5990334  , 820.4343    , 1.96        , 3           , 255         , 0           , 0
-0.134195656, 0.128466338 , -9.781067   , -0.0001527971, 0.00045452136, -8.137779E-05, -0.014394572, -0.0130468244, 2.49107652E-05, 918.5151    , 29.5990334  , 820.435059  , 1.97        , 3           , 255         , 0           , 0
-0.126281589, 0.137356281 , -9.788816   , -0.000203327814, 9.400747E-05, 0.000298442465, -0.0143966442, -0.0130458418, 2.78815314E-05, 918.5151    , 29.5990334  , 820.4358    , 1.98        , 3           , 255         , 0           , 0
-0.126210883, 0.13617292  , -9.782967   , 0.00021689634, 0.000140753808, -0.0004761354, -0.0143944127, -0.0130445035, 2.31001286E-05, 918.5151    , 29.5990334  , 820.4365    , 1.99        , 3           , 255         , 0           , 0
-0.131185681, 0.141492575 , -9.786844   , 4.386164E-05, 7.22867E-05 , 0.0005206778, -0.014394043, -0.0130437063, 2.82962737E-05, 918.5151    , 29.5990334  , 820.437256  , 2           , 3           , 0           , 7.02023649  , 200
-0.130049258, 0.1382744   , -9.793898   , 0.000229907091, 3.03779962E-06, 0.00068789674, -0.0143801039, -0.0130481143, 3.50214723E-05, 918.5151    , 29.5990334  , 820.434753  , 2.01        , 3           , 1           , 0           , 0
-0.125801459, 0.139050275 , -9.7898     , -0.000389767752, 0.000311622483, -2.442766E-05, -0.0143839987, -0.0130450018, 3.47323876E-05, 918.5151    , 29.5990334  , 820.4355    , 2.02        , 3           , 2           , 0           , 0
-0.119916104, 0.14902088  , -9.790908   , -0.000399267476, -9.924825E-05, -0.000152400025, -0.0143879708, -0.013046016, 3.322272E-05, 918.5133    , 29.5989647  , 820.4362    , 2.03        , 3           , 3           , 0           , 0
-0.125883639, 0.142682731 , -9.784811   , -0.000464030076, 0.000205184973, -0.000391010049, -0.01439256 , -0.0130440211, 2.92832719E-05, 918.5133    , 29.5989647  , 820.436951  , 2.04        , 3           , 4           , 0           , 0
-0.128677636, 0.149517655 , -9.801049   , -0.00020891134, -0.000284195645, 0.00055346766, -0.01439472 , -0.0130467834, 3.48586145E-05, 918.5133    , 29.5989647  , 820.4377    , 2.05        , 3           , 5           , 0           , 0
-0.126103178, 0.1524131   , -9.789232   , 0.000549163669, 6.96065254E-05, -7.074338E-05, -0.0143892216, -0.013046097, 3.41411942E-05, 918.5133    , 29.5989647  , 820.4384    , 2.06        , 3           , 6           , 0           , 0
-0.135340139, 0.1440635   , -9.782667   , -2.40861409E-05, -5.442946E-05, 0.00031159597, -0.0143895037, -0.0130465962, 3.72648574E-05, 918.5133    , 29.5989647  , 820.439148  , 2.07        , 3           , 7           , 0           , 0
-0.133873284, 0.142930239 , -9.791036   , -4.83784024E-05, 0.000245947653, 0.000522086862, -0.0143900542, -0.0130440621, 4.2450105E-05, 918.5133    , 29.5989647  , 820.4399    , 2.08        , 3           , 8           , 5           , 5
-0.1296736  , 0.145074457 , -9.783608   , -0.000487066747, 0.000217439228, 0.0004938536, -0.0143949874, -0.0130418167, 4.73571235E-05, 918.5133    , 29.5989647  , 820.4406    , 2.09        , 3           , 9           , 5           , 0.1
-0.1268149  , 0.142718062 , -9.7930975  , 0.000155271948, -0.000171199208, -7.576958E-05, -0.0143934274, -0.01304354 , 4.662411E-05, 918.5133    , 29.5989647  , 820.441345  , 2.1         , 3           , 10          , 0.1         , 0.1
-0.118639372, 0.147914827 , -9.785934   , 0.000668292632, 0.000282697671, -4.318355E-05, -0.0143950805, -0.0130418036, 4.62604257E-05, 918.5133    , 29.5989647  , 820.440369  , 2.11        , 3           , 11          , 0.00736301159, 0.00736301066
-0.118494689, 0.152637869 , -9.786742   , 0.0001989484, 0.000117776275, 0.0003196846, -0.0143931331, -0.01304058 , 4.94401829E-05, 918.5133    , 29.5989647  , 820.4411    , 2.12        , 3           , 12          , 0.174643889 , 0
-0.13245675 , 0.146888435 , -9.781257   , -0.000181248237, -1.93105079E-05, 0.000880406355, -0.01439506 , -0.013040646, 5.82466419E-05, 918.5017    , 29.6005936  , 820.441833  , 2.13        , 3           , 13          , 0           , 0
-0.131265879, 0.140122563 , -9.78945    , 1.06891093E-07, -3.7086138E-05, 0.0001394194, -0.0143950768, -0.0130409962, 5.96461141E-05, 918.5017    , 29.6005936  , 820.442566  , 2.14        , 3           , 14          , 8.84997353E-05, -0.0005772781
-0.12184982 , 0.14714554  , -9.78394    , 0.0001465716, -0.000140681223, 0.0004530534, -0.0143936714, -0.0130423373, 6.419669E-05, 918.5017    , 29.6005936  , 820.4433    , 2.15        , 3           , 15          , 0           , -0.000185489
-0.123577535, 0.144356042 , -9.784035   , 4.76765053E-05, 0.0006534345, -0.0006494659, -0.0143931108, -0.0130359  , 5.76082675E-05, 918.5017    , 29.6005936  , 820.444031  , 2.16        , 3           , 16          , 0           , 1.401298E-45
-0.123057008, 0.149837732 , -9.783058   , 0.00021319493, 6.662181E-05, -0.000332134659, -0.0143909352, -0.0130352788, 5.4277476E-05, 918.5017    , 29.6005936  , 820.444763  , 2.17        , 3           , 20          , 0           , 0
-0.1227653  , 0.140106708 , -9.787055   , 0.0004232563, -0.000119613716, 0.000270060671, -0.01438674 , -0.0130364355, 5.69951844E-05, 918.5017    , 29.6005936  , 820.4455    , 2.18        , 3           , 21          , 0           , 0
-0.129565433, 0.132036477 , -9.779697   , 0.000244082359, 0.0003105537, -0.000374139, -0.0143842483, -0.0130333845, 5.32092781E-05, 918.5017    , 29.6005936  , 820.4462    , 2.19        , 3           , 22          , 0           , 0
-0.1296783  , 0.137481615 , -9.779295   , -0.0001881329, -0.00017787714, -2.503542E-05, -0.0143861268, -0.013035167, 5.29845274E-05, 918.5017    , 29.6005936  , 820.44696   , 2.2         , 3           , 40          , 0           , 0
-0.118766859, 0.137117147 , -9.786737   , -0.000460894371, 0.000430391636, 9.261712E-07, -0.0144044142, -0.0130195562, 5.310996E-05, 918.5017    , 29.6005936  , 820.459656  , 2.21        , 3           , 41          , 0           , 0
-0.126308411, 0.137756139 , -9.784561   , -0.000350633316, -0.000144269783, -0.00064028526, -0.0144078378, -0.013021091, 4.672817E-05, 918.5017    , 29.6005936  , 820.460449  , 2.22        , 3           , 42          , 0           , 0
-0.139027253, 0.134475753 , -9.79457    , -7.778304E-05, -6.768928E-05, 0.00046917022, -0.0144086769, -0.0130217  , 5.142942E-05, 918.493164  , 29.5999832  , 820.461243  , 2.23        , 3           , 255         , 0           , 0
-0.129976317, 0.139743537 , -9.79421    , -0.000251540478, 0.00011242347, 0.0005274771, -0.0144112594, -0.0130205  , 5.66877643E-05, 918.493164  , 29.5999832  , 820.462036  , 2.24        , 3           , 255         , 0           , 0
-0.127385348, 0.137507424 , -9.799182   , 1.08188106E-05, 0.00026385524, 0.000279016735, -0.0144111887, -0.0130178211, 5.94397861E-05, 918.493164  , 29.5999832  , 820.4628    , 2.25        , 3           , 255         , 0           , 0
-0.133633688, 0.128256142 , -9.786867   , 0.000187099387, -8.653733E-06, -0.000197478075, -0.0144092925, -0.0130179357, 5.74663354E-05, 918.493164  , 29.5999832  , 820.4636    , 2.26        , 3           , 255         , 0           , 0
-0.1267794  , 0.141235679 , -9.786504   , 0.000190896651, 0.0002975504, -2.39058427E-05, -0.01440738 , -0.0130149638, 5.7184403E-05, 918.493164  , 29.5999832  , 820.4644    , 2.27        , 3           , 255         , 0           , 0
-0.122087121, 0.142623931 , -9.790489   , 0.000154094159, 0.0002589944, 4.403293E-05, -0.0144058438, -0.0130123673, 5.75874074E-05, 918.493164  , 29.5999832  , 820.4653    , 2.28        , 3           , 255         , 0           , 0
-0.119500756, 0.136088848 , -9.775496   , 6.29231E-05 , -0.000250231766, 0.0008114422, -0.0144053195, -0.0130147533, 6.573752E-05, 918.493164  , 29.5999832  , 820.4661    , 2.29        , 3           , 255         , 0           , 0
-0.1327577  , 0.1367065   , -9.791979   , -0.000289948337, -2.67630676E-05, -0.000300030952, -0.0144081805, -0.0130150644, 6.27411937E-05, 918.493164  , 29.5999832  , 820.467     , 2.3         , 3           , 255         , 0           , 0
-0.129677966, 0.1426973   , -9.793313   , -0.000168319035, -0.0001459844, 0.0001611867, -0.01440063 , -0.0130168786, 6.425356E-05, 918.493164  , 29.5999832  , 820.488342  , 2.31        , 3           , 255         , 0           , 0
-0.131186   , 0.1442959   , -9.794012   , -0.000432330853, -0.000310570176, -0.000252079742, -0.014404919, -0.0130200181, 6.17776E-05 , 918.493164  , 29.5999832  , 820.4893    , 2.32        , 3           , 255         , 0           , 0
-0.126353368, 0.133882046 , -9.780852   , -0.000111408081, -3.76970274E-05, 0.000165308491, -0.0144060552, -0.013020372, 6.343604E-05, 918.502563  , 29.6031723  , 820.4903    , 2.33        , 3           , 255         , 0           , 0
-0.124260783, 0.140149757 , -9.79047    , -0.0003556257, 0.000332514959, -0.000203638789, -0.0144095849, -0.013017077, 6.135184E-05, 918.502563  , 29.6031723  , 820.4913    , 2.34        , 3           , 255         , 0           , 0
-0.119604729, 0.135612577 , -9.787574   , 0.0001638871, 0.000331726653, -0.000264527625, -0.0144079113, -0.0130137969, 5.86588831E-05, 918.502563  , 29.6031723  , 820.492249  , 2.35        , 3           , 255         , 0           , 0
-0.121775962, 0.127041891 , -9.787623   , -0.000191005471, 0.000389254827, 0.000124741346, -0.0144098373, -0.0130098872, 5.98501574E-05, 918.502563  , 29.6031723  , 820.4932    , 2.36        , 3           , 255         , 0           , 0
-0.1280177  , 0.134146661 , -9.792387   , 4.67228019E-05, 3.512844E-05, 0.000719161239, -0.0144094639, -0.0130094318, 6.703638E-05, 918.502563  , 29.6031723  , 820.4942    , 2.37        , 3           , 255         , 0           , 0
-0.126272038, 0.1404696   , -9.784407   , -7.465821E-05, 6.35045E-05 , 0.00102616719, -0.014410343, -0.0130086513, 7.728846E-05, 918.502563  , 29.6031723  , 820.4952    , 2.38        , 3           , 255         , 0           , 0
-0.129120037, 0.147939846 , -9.784757   , -7.241845E-05, -2.90399184E-05, 0.0004949603, -0.0144111337, -0.0130088711, 8.224205E-05, 918.502563  , 29.6031723  , 820.496155  , 2.39        , 3           , 255         , 0           , 0
-0.128327221, 0.136965036 , -9.789277   , -0.000173118315, -0.0004640816, 0.000288014562, -0.0144129014, -0.0130134672, 8.518894E-05, 918.502563  , 29.6031723  , 820.497131  , 2.4         , 3           , 255         , 0           , 0
-0.124468245, 0.143833667 , -9.783513   , -0.0003697589, 0.00036611082, -0.0004577436, -0.0144098923, -0.0130075393, 8.047248E-05, 918.502563  , 29.6031723  , 820.5024    , 2.41        , 3           , 255         , 0           , 0
-0.132290334, 0.140163213 , -9.782777   , 0.000319474231, -6.608263E-05, -0.000366320135, -0.01440665 , -0.0130082536, 7.681896E-05, 918.502563  , 29.6031723  , 820.503357  , 2.42        , 3           , 255         , 0           , 0
-0.135050178, 0.146910414 , -9.792715   , 0.0003291184, -0.000413493661, 0.0005966932, -0.0144034363, -0.0130123012, 8.284518E-05, 918.517761  , 29.6012726  , 820.504333  , 2.43        , 3           , 255         , 0           , 0
-0.121875986, 0.146223038 , -9.787175   , 0.000471252773, 4.56657144E-05, -0.000464193, -0.0143986633, -0.0130119156, 7.81969E-05 , 918.517761  , 29.6012726  , 820.5053    , 2.44        , 3           , 255         , 0           , 0
-0.125772148, 0.142144039 , -9.784925   , -0.000313946, 0.00036004596, -0.000213032632, -0.0144017767, -0.0130083449, 7.601481E-05, 918.517761  , 29.6012726  , 820.5063    , 2.45        , 3           , 255         , 0           , 0
-0.133930176, 0.143377066 , -9.791405   , 0.000124706741, 0.000238446984, 3.64260632E-06, -0.0144005287, -0.01300596 , 7.60169E-05 , 918.517761  , 29.6012726  , 820.507263  , 2.46        , 3           , 255         , 0           , 0
-0.1294026  , 0.148871824 , -9.78611    , -0.000301830762, -0.000117825868, 0.000303068868, -0.0144035863, -0.0130070951, 7.906444E-05, 918.517761  , 29.6012726  , 820.50824   , 2.47        , 3           , 255         , 0           , 0
-0.124231741, 0.144318849 , -9.793044   , 0.000187605125, -0.00020356226, 0.000172460816, -0.0144017339, -0.0130091049, 8.081829E-05, 918.517761  , 29.6012726  , 820.5092    , 2.48        , 3           , 255         , 0           , 0
-0.127564117, 0.148389339 , -9.794421   , -0.000490250066, 0.000450546475, 0.000215885811, -0.0144066634, -0.0130045693, 8.29121564E-05, 918.517761  , 29.6012726  , 820.510254  , 2.49        , 3           , 255         , 0           , 0
-0.128021523, 0.142662436 , -9.784937   , -0.000394311646, 0.000200564391, 1.94099266E-05, -0.0144106084, -0.0130025614, 8.307734E-05, 918.517761  , 29.6012726  , 820.5113    , 2.5         , 3           , 255         , 0           , 0
-0.121477164, 0.130887136 , -9.78639    , -0.0002721807, 0.000442060264, -0.0001503554, -0.0144224083, -0.0130003579, 8.162844E-05, 918.517761  , 29.6012726  , 820.4945    , 2.51        , 3           , 255         , 0           , 0
-0.123935126, 0.138559818 , -9.794358   , -8.492913E-05, -3.62179126E-05, -0.0005099062, -0.0144231915, -0.0130007928, 7.653482E-05, 918.517761  , 29.6012726  , 820.4954    , 2.52        , 3           , 255         , 0           , 0
-0.131958678, 0.148773968 , -9.767411   , -0.0001955461, 6.831641E-05, -0.0005776306, -0.0144250728, -0.0130001931, 7.07489162E-05, 918.5035    , 29.6036472  , 820.496338  , 2.53        , 3           , 255         , 0           , 0
-0.128887728, 0.148542672 , -9.788434   , -0.000359536847, 0.000436201983, -9.756058E-05, -0.0144286538, -0.0129958456, 6.971041E-05, 918.5035    , 29.6036472  , 820.497253  , 2.54        , 3           , 255         , 0           , 0
-0.132083863, 0.1428161   , -9.789034   , 0.000283224275, 0.000360921025, 0.000503659947, -0.0144258859, -0.0129921632, 7.469472E-05, 918.5035    , 29.6036472  , 820.498169  , 2.55        , 3           , 255         , 0           , 0
-0.1309705  , 0.1486133   , -9.796326   , 0.000186162026, -0.000195528613, -0.000385599531, -0.0144239757, -0.0129941748, 7.086709E-05, 918.5035    , 29.6036472  , 820.4991    , 2.56        , 3           , 255         , 0           , 0
-0.12257155 , 0.143404856 , -9.79082    , -6.23227E-05, 7.39721E-05 , -0.000369887945, -0.01442455 , -0.0129934885, 6.715771E-05, 918.5035    , 29.6036472  , 820.5       , 2.57        , 3           , 255         , 0           , 0
-0.133824676, 0.134094685 , -9.787931   , 5.596156E-05, -0.000411500165, -0.0003686441, -0.0144239431, -0.0129976561, 6.353078E-05, 918.5035    , 29.6036472  , 820.5009    , 2.58        , 3           , 255         , 0           , 0
-0.133660153, 0.138779491 , -9.788239   , -0.000140354081, -0.000332467142, -0.0001950305, -0.0144253215, -0.0130010089, 6.16285251E-05, 918.5035    , 29.6036472  , 820.501831  , 2.59        , 3           , 255         , 0           , 0
-0.1272217  , 0.141547859 , -9.78490448 , -7.94374937E-05, 0.000241277885, -0.000369151618, -0.0144260665, -0.01299865 , 5.790236E-05, 918.5035    , 29.6036472  , 820.502747  , 2.6         , 3           , 255         , 0           , 0
-0.127838567, 0.132406071 , -9.79542    , 0.0004339662, 0.0001987683, -0.0009998471, -0.0144226048, -0.0130005954, 4.78887741E-05, 918.5035    , 29.6036472  , 820.5059    , 2.61        , 3           , 255         , 0           , 0
-0.130110532, 0.129434735 , -9.79765    , -0.0005050773, 0.0008787588, -0.000672102266, -0.0144275678, -0.0129919033, 4.104129E-05, 918.5035    , 29.6036472  , 820.506836  , 2.62        , 3           , 255         , 0           , 0
-0.126069248, 0.134007782 , -9.77868    , -0.000286116323, 0.000396748132, -0.000329566945, -0.0144303832, -0.0129879853, 3.76885218E-05, 918.5205    , 29.6035786  , 820.507751  , 2.63        , 3           , 255         , 0           , 0
-0.131247252, 0.136557668 , -9.782526   , 0.00011967156, -0.0004145378, -0.000484664051, -0.0144291259, -0.0129921986, 3.29019E-05 , 918.5205    , 29.6035786  , 820.508667  , 2.64        , 3           , 255         , 0           , 0
-0.129652709, 0.142152756 , -9.790712   , -0.0002182771, 2.27532E-05 , -4.94381675E-05, -0.0144313015, -0.0129919788, 3.2404263E-05, 918.5205    , 29.6035786  , 820.5096    , 2.65        , 3           , 255         , 0           , 0
-0.132223636, 0.14936462  , -9.791806   , 0.00040470672, 9.028337E-05, -0.0002802087, -0.0144272195, -0.0129911164, 2.9589286E-05, 918.5205    , 29.6035786  , 820.5105    , 2.66        , 3           , 255         , 0           , 0
-0.133367375, 0.150155038 , -9.78814    , 0.000726976548, 0.0002968141, -4.20652068E-05, -0.014419945, -0.0129881566, 2.91258366E-05, 918.5205    , 29.6035786  , 820.5114    , 2.67        , 3           , 255         , 0           , 0
-0.121266887, 0.155241415 , -9.779819   , 0.000787645462, 0.00016239984, 0.000473082415, -0.0144121274, -0.0129864644, 3.38330356E-05, 918.5205    , 29.6035786  , 820.5123    , 2.68        , 3           , 255         , 0           , 0
-0.123848543, 0.1449039   , -9.788305   , 0.000169864827, 8.042302E-05, -0.000502482464, -0.0144103644, -0.0129857324, 2.879684E-05, 918.5205    , 29.6035786  , 820.513245  , 2.69        , 3           , 255         , 0           , 0
-0.126046866, 0.149941489 , -9.789442   , 0.000450612017, 0.000109996996, -3.31012416E-07, -0.01440586 , -0.0129846325, 2.877769E-05, 918.5205    , 29.6035786  , 820.51416   , 2.7         , 3           , 255         , 0           , 0
-0.131393224, 0.151119709 , -9.786416   , 0.000435043621, 0.0002909541, 0.000156767288, -0.0144041982, -0.0129839526, 3.03380348E-05, 918.5205    , 29.6035786  , 820.492249  , 2.71        , 3           , 255         , 0           , 0
-0.136309445, 0.153575614 , -9.789651   , 0.0005815145, -5.224196E-06, -0.0005041746, -0.0143983178, -0.0129840765, 2.52972713E-05, 918.5205    , 29.6035786  , 820.493042  , 2.72        , 3           , 255         , 0           , 0
-0.127938226, 0.146235675 , -9.795744   , 0.000417868869, 0.0003461775, 0.000344219 , -0.0143941827, -0.0129805682, 2.868947E-05, 918.5153    , 29.6051388  , 820.493835  , 2.73        , 3           , 255         , 0           , 0
-0.125573009, 0.142873421 , -9.786949   , 0.000131248235, -0.000116112118, 0.000453090324, -0.014392931, -0.0129816635, 3.32368945E-05, 918.5153    , 29.6051388  , 820.4946    , 2.74        , 3           , 255         , 0           , 0
-0.123322323, 0.135627776 , -9.787584   , -8.693331E-05, 0.00040813355, 0.000196083711, -0.0143938242, -0.0129775545, 3.51389E-05 , 918.5153    , 29.6051388  , 820.4954    , 2.75        , 3           , 255         , 0           , 0
-0.132316962, 0.138253719 , -9.793892   , -0.00014247217, -5.00248861E-05, -0.0002709326, -0.0143952128, -0.0129780928, 3.24369E-05 , 918.5153    , 29.6051388  , 820.4962    , 2.76        , 3           , 255         , 0           , 0
-0.125545382, 0.1440894   , -9.790608   , 0.000165790028, -0.000487177866, -0.000134002825, -0.01439354 , -0.0129829841, 3.116706E-05, 918.5153    , 29.6051388  , 820.497     , 2.77        , 3           , 255         , 0           , 0
-0.128583878, 0.14534156  , -9.78638    , -5.631727E-05, -0.000159714778, 0.000343756925, -0.0143941473, -0.0129845319, 3.46274646E-05, 918.5153    , 29.6051388  , 820.4978    , 2.78        , 3           , 255         , 0           , 0
-0.134282157, 0.133623511 , -9.78508949 , -6.575958E-05, -0.000280019827, 6.5516615E-05, -0.0143948141, -0.0129873212, 3.53229079E-05, 918.5153    , 29.6051388  , 820.4986    , 2.79        , 3           , 255         , 0           , 0
-0.131259084, 0.138481617 , -9.786982   , 5.92484939E-05, -0.000379397068, 0.000487511948, -0.0143942861, -0.0129910447, 4.025243E-05, 918.5153    , 29.6051388  , 820.4994    , 2.8         , 3           , 255         , 0           , 0
-0.127502188, 0.1381302   , -9.786175   , 0.0003057862, -0.000285384827, -0.0006879676, -0.0143953869, -0.01299943 , 3.34693323E-05, 918.5153    , 29.6051388  , 820.4866    , 2.81        , 3           , 255         , 0           , 0
-0.127326876, 0.1416512   , -9.789846   , -0.000227352954, 0.000414665643, -6.02455839E-05, -0.014397651, -0.0129952943, 3.28072165E-05, 918.5153    , 29.6051388  , 820.4873    , 2.82        , 3           , 255         , 0           , 0
-0.118221208, 0.147126883 , -9.782331   , -0.000801242131, 0.000123207574, -0.000202141891, -0.014405638, -0.012994092, 3.07681476E-05, 918.5024    , 29.6052074  , 820.488037  , 2.83        , 3           , 255         , 0           , 0
-0.134314463, 0.142426476 , -9.781596   , -0.000625717046, -0.000322858163, -7.971264E-05, -0.0144118844, -0.01299733 , 3.001758E-05, 918.5024    , 29.6052074  , 820.4888    , 2.84        , 3           , 255         , 0           , 0
-0.131664664, 0.131083325 , -9.786903   , -7.57206944E-05, 1.83873926E-05, -0.00032306998, -0.0144125968, -0.0129971933, 2.678438E-05, 918.5024    , 29.6052074  , 820.4895    , 2.85        , 3           , 255         , 0           , 0
-0.12133491 , 0.140836    , -9.779755   , 3.90583373E-05, 0.000255666877, 0.000305330177, -0.0144122466, -0.012994593, 2.98006926E-05, 918.5024    , 29.6052074  , 820.490234  , 2.86        , 3           , 255         , 0           , 0
-0.129015267, 0.142053157 , -9.796047   , 0.000204541546, -0.000292262819, 0.0003825996, -0.0144102527, -0.01299746 , 3.366863E-05, 918.5024    , 29.6052074  , 820.490967  , 2.87        , 3           , 255         , 0           , 0
-0.1278275  , 0.1350933   , -9.782947   , -3.493297E-05, -0.0004375808, -7.635476E-05, -0.0144105926, -0.0130018461, 3.296818E-05, 918.5024    , 29.6052074  , 820.4917    , 2.88        , 3           , 255         , 0           , 0
-0.120208718, 0.143776774 , -9.789878   , 0.0005591555, -0.000374264957, -0.0008253452, -0.0144048948, -0.0130057083, 2.4769015E-05, 918.5024    , 29.6052074  , 820.492432  , 2.89        , 3           , 255         , 0           , 0
-0.125761211, 0.138415918 , -9.788668   , 0.000895203557, -0.000162034237, -0.000711357745, -0.0143958507, -0.0130074294, 1.76790891E-05, 918.5024    , 29.6052074  , 820.493164  , 2.9         , 3           , 255         , 0           , 0
-0.1255986  , 0.142064452 , -9.782399   , 0.000834272243, -0.000204952084, 0.0004990929, -0.0143848574, -0.0130069507, 2.26639513E-05, 918.5024    , 29.6052074  , 820.499     , 2.91        , 3           , 255         , 0           , 0
-0.128804639, 0.145453453 , -9.777905   , 2.34609761E-05, -0.00035022042, -0.000427705119, -0.0143845668, -0.013010514, 1.84374621E-05, 918.5024    , 29.6052074  , 820.499756  , 2.92        , 3           , 255         , 0           , 0
-0.129783243, 0.145518661 , -9.782771   , -5.37910055E-05, -0.000205639866, -0.0007630499, -0.0143850064, -0.01301268 , 1.0836884E-05, 918.4698    , 29.6048679  , 820.5005    , 2.93        , 3           , 255         , 0           , 0
-0.134322092, 0.145533413 , -9.791678   , -6.583903E-05, -0.0001952186, 5.445721E-05, -0.0143856714, -0.0130146248, 1.14095146E-05, 918.4698    , 29.6048679  , 820.5012    , 2.94        , 3           , 255         , 0           , 0
-0.131015524, 0.145259529 , -9.792562   , -0.0004755438, -0.00016448641, 0.000122861384, -0.0143904435, -0.0130162518, 1.26617488E-05, 918.4698    , 29.6048679  , 820.501953  , 2.95        , 3           , 255         , 0           , 0
-0.130335838, 0.144972384 , -9.788345   , -0.000489903032, 2.2038992E-05, 5.568126E-05, -0.01439535 , -0.0130160237, 1.32153655E-05, 918.4698    , 29.6048679  , 820.5027    , 2.96        , 3           , 255         , 0           , 0
-0.140762135, 0.145948872 , -9.780048   , 0.000108482338, 0.000735637 , -1.410082E-05, -0.0143942609, -0.013008669, 1.29684631E-05, 918.4698    , 29.6048679  , 820.5034    , 2.97        , 3           , 255         , 0           , 0
-0.133752063, 0.1448358   , -9.786777   , 0.00034767433, 0.000311939657, -0.0007238496, -0.0143906893, -0.0130056581, 5.685389E-06, 918.4698    , 29.6048679  , 820.50415   , 2.98        , 3           , 255         , 0           , 0
-0.124710523, 0.141824752 , -9.791655   , 0.000154978683, 0.0004975316, -0.0004892544, -0.0143890763, -0.0130007518, 7.214795E-07, 918.4698    , 29.6048679  , 820.504944  , 2.99        , 3           , 255         , 0           , 0
-0.123012736, 0.137937531 , -9.789772   , 7.68211248E-05, 4.13127127E-05, 9.31355462E-05, -0.01438832 , -0.0130003253, 1.64684855E-06, 918.4698    , 29.6048679  , 820.505737  , 3           , 3           , 0           , 8.020237    , 300
-0.131338209, 0.1390245   , -9.78882    , 0.0003178142, 0.000126768631, -7.198745E-06, -0.0143933408, -0.0130064655, 1.663272E-06, 918.4698    , 29.6048679  , 820.555664  , 3.01        , 3           , 1           , 0           , 0
-0.12174435 , 0.1373243   , -9.78056049 , -3.95477655E-05, 0.000509600563, 0.00040223953, -0.01439379 , -0.0130013162, 5.612158E-06, 918.4698    , 29.6048679  , 820.556763  , 3.02        , 3           , 2           , 0           , 0
-0.131426677, 0.144281432 , -9.77857    , -6.331135E-05, -7.110782E-05, -0.0002979738, -0.0143943829, -0.0130020678, 2.64277833E-06, 918.51825   , 29.6062241  , 820.557861  , 3.03        , 3           , 3           , 0           , 0
-0.137821   , 0.137509778 , -9.78732    , -0.000483190146, 2.53358739E-05, -0.0005264014, -0.0143991467, -0.0130018909, -2.624645E-06, 918.51825   , 29.6062241  , 820.55896   , 3.04        , 3           , 4           , 0           , 0
-0.126707643, 0.137912065 , -9.788128   , 0.00030721206, 6.942183E-05, 0.00043606048, -0.014396131, -0.0130011346, 1.72577018E-06, 918.51825   , 29.6062241  , 820.560059  , 3.05        , 3           , 5           , 0           , 0
-0.125132173, 0.14072302  , -9.789463   , 0.000184147531, 1.49885891E-05, 5.434746E-05, -0.0143942973, -0.0130009772, 2.26706E-06 , 918.51825   , 29.6062241  , 820.561157  , 3.06        , 3           , 6           , 0           , 0
-0.1315254  , 0.1333398   , -9.790336   , -0.000188939535, -0.000224217714, -8.362961E-05, -0.0143961757, -0.01300323 , 1.46307866E-06, 918.51825   , 29.6062241  , 820.562256  , 3.07        , 3           , 7           , 0           , 0
-0.141017944, 0.142688066 , -9.793879   , -1.51106215E-05, -0.00038735097, -0.000578188861, -0.0143962521, -0.0130071882, -4.262784E-06, 918.51825   , 29.6062241  , 820.563354  , 3.08        , 3           , 8           , 5           , 5
-0.125171944, 0.1492723   , -9.789037   , 0.000417794 , -0.0004855104, -0.000775501831, -0.0143919736, -0.0130121522, -1.19475817E-05, 918.51825   , 29.6062241  , 820.564453  , 3.09        , 3           , 9           , 5           , 0.1
-0.122098938, 0.146355361 , -9.779574   , 0.0003498574, 0.0001649817, -0.000333963835, -0.0143884327, -0.0130105494, -1.53108067E-05, 918.51825   , 29.6062241  , 820.565552  , 3.1         , 3           , 10          , 0.1         , 0.1
-0.126982287, 0.144634351 , -9.785269   , 0.000198347421, 0.000341564417, 0.000165265636, -0.0143863009, -0.0130125266, -1.37095685E-05, 918.51825   , 29.6062241  , 820.5387    , 3.11        , 3           , 11          , 0.006488225 , 0.00648822263
-0.1271362  , 0.14556773  , -9.787218   , 6.38287747E-05, -7.203751E-05, -0.000176312038, -0.0143856406, -0.0130132716, -1.546224E-05, 918.51825   , 29.6062241  , 820.5396    , 3.12        , 3           , 12          , 0.174645633 , 0
-0.134304672, 0.140464529 , -9.78550148 , -0.000378242985, -0.000500721449, 0.000235507818, -0.0143894525, -0.0130182458, -1.303522E-05, 918.4889    , 29.6045971  , 820.5405    , 3.13        , 3           , 13          , 0           , 0
-0.135321856, 0.145656541 , -9.797567   , 0.0002444749, 5.27178054E-05, 0.0007031456, -0.0143871009, -0.0130176181, -6.01165857E-06, 918.4889    , 29.6045971  , 820.541443  , 3.14        , 3           , 14          , 8.85956251E-05, -0.0005772006
-0.122224912, 0.148318633 , -9.785089   , -0.0003457343, -0.000279962434, 0.0003668185, -0.0143906055, -0.0130203655, -2.30334149E-06, 918.4889    , 29.6045971  , 820.542358  , 3.15        , 3           , 15          , 0           , -0.000185489145
-0.129966572, 0.14761588  , -9.781373   , -0.000150033156, -0.000220625137, -2.2768596E-05, -0.0143921021, -0.0130225746, -2.49926325E-06, 918.4889    , 29.6045971  , 820.5433    , 3.16        , 3           , 16          , 0           , 1.401298E-45
-0.134814724, 0.137423888 , -9.789334   , -3.507499E-05, -0.000242857786, -0.0005481882, -0.0143923825, -0.0130250817, -7.945954E-06, 918.4889    , 29.6045971  , 820.5442    , 3.17        , 3           , 20          , 0           , 0
-0.12751174 , 0.148673609 , -9.788215   , 0.00072932383, -0.000367111934, 0.000546513242, -0.0143851629, -0.0130286748, -2.42824376E-06, 918.4889    , 29.6045971  , 820.5451    , 3.18        , 3           , 21          , 0           , 0
-0.130259037, 0.13854149  , -9.78847    , 0.0003601149, 9.08105E-05 , 0.000228133576, -0.0143815912, -0.0130277323, -1.60070115E-07, 918.4889    , 29.6045971  , 820.546     , 3.19        , 3           , 22          , 0           , 0
-0.12552169 , 0.133812577 , -9.782787   , -0.000166353449, 0.000203076575, -0.000353861367, -0.0143832089, -0.0130257523, -3.72773138E-06, 918.4889    , 29.6045971  , 820.546936  , 3.2         , 3           , 40          , 0           , 0
-0.126720309, 0.133800656 , -9.786445   , -0.0005196947, -4.64362674E-05, 0.00013412883, -0.0143936072, -0.0130307535, -2.31225567E-06, 918.4889    , 29.6045971  , 820.5641    , 3.21        , 3           , 41          , 0           , 0
-0.133799791, 0.141035825 , -9.791708   , -0.00012866738, -0.000223981973, 0.0005481568, -0.0143949632, -0.0130329132, 3.20130039E-06, 918.4889    , 29.6045971  , 820.5651    , 3.22        , 3           , 42          , 0           , 0
-0.130271509, 0.141620561 , -9.785454   , 0.000115339768, 8.88698851E-05, 0.000274077873, -0.0143938465, -0.0130319856, 5.92916467E-06, 918.564148  , 29.606699   , 820.566162  , 3.23        , 3           , 255         , 0           , 0
-0.121613696, 0.145406514 , -9.778946   , 0.00046073267, 0.000251340854, 0.000357565 , -0.0143892867, -0.0130294207, 9.468499E-06, 918.564148  , 29.606699   , 820.5672    , 3.24        , 3           , 255         , 0           , 0
-0.125411958, 0.137010068 , -9.782967   , -1.98953057E-06, -0.0001306546, -0.000196781417, -0.01438928 , -0.0130307553, 7.51956259E-06, 918.564148  , 29.606699   , 820.568237  , 3.25        , 3           , 255         , 0           , 0
-0.134699687, 0.1335748   , -9.78858    , -0.000301951775, -0.000171529478, 6.58618E-05 , -0.014392308, -0.0130324615, 8.202847E-06, 918.564148  , 29.606699   , 820.5693    , 3.26        , 3           , 255         , 0           , 0
-0.132680684, 0.141351983 , -9.782568   , 3.18636012E-06, -0.000357177865, -0.0002877323, -0.01439224 , -0.0130360741, 5.377055E-06, 918.564148  , 29.606699   , 820.5703    , 3.27        , 3           , 255         , 0           , 0
-0.120965421, 0.132938966 , -9.789564   , -0.0003400668, 1.93191227E-06, -0.0005792811, -0.0143955629, -0.0130361384, -4.15783546E-07, 918.564148  , 29.606699   , 820.57135   , 3.28        , 3           , 255         , 0           , 0
-0.122869775, 0.135898754 , -9.792452   , 6.196471E-05, -0.00014140713, 0.000483596843, -0.0143950069, -0.0130374841, 4.440327E-06, 918.564148  , 29.606699   , 820.5724    , 3.29        , 3           , 255         , 0           , 0
-0.125663817, 0.143075913 , -9.78605652 , -5.89844858E-05, 0.0002856565, 0.000109873858, -0.0143956114, -0.0130346119, 5.49789729E-06, 918.564148  , 29.606699   , 820.5734    , 3.3         , 3           , 255         , 0           , 0
-0.123431608, 0.142036    , -9.785563   , -0.000278321735, -7.138355E-05, 0.000129158128, -0.0143928379, -0.0130351325, 6.72704164E-06, 918.564148  , 29.606699   , 820.4796    , 3.31        , 3           , 255         , 0           , 0
-0.124003388, 0.134989634 , -9.784983   , 0.000267630734, 0.0002775005, -8.608034E-05, -0.0143901492, -0.0130323693, 5.82634E-06 , 918.564148  , 29.606699   , 820.480042  , 3.32        , 3           , 255         , 0           , 0
-0.130416   , 0.139424324 , -9.784139   , 0.0008262407, -2.77113286E-05, -0.000776762958, -0.0143817868, -0.0130327605, -1.93695178E-06, 918.4965    , 29.6064281  , 820.480469  , 3.33        , 3           , 255         , 0           , 0
-0.120961167, 0.13861838  , -9.794383   , 0.0005433076, 0.000293944031, -0.0006719625, -0.0143762669, -0.0130299171, -8.698549E-06, 918.4965    , 29.6064281  , 820.4809    , 3.34        , 3           , 255         , 0           , 0
-0.123527385, 0.131484613 , -9.788538   , 0.0004414246, 0.000223195471, -0.0005717699, -0.0143717779, -0.0130277677, -1.44480855E-05, 918.4965    , 29.6064281  , 820.4813    , 3.35        , 3           , 255         , 0           , 0
-0.1319811  , 0.139014736 , -9.7932415  , -0.00015143874, -0.0001496611, 0.000132470173, -0.014373309, -0.0130292457, -1.3101926E-05, 918.4965    , 29.6064281  , 820.48175   , 3.36        , 3           , 255         , 0           , 0
-0.136302978, 0.133595973 , -9.790491   , -0.000156156413, -0.0001244839, 0.0005980404, -0.01437495 , -0.0130304042, -7.103888E-06, 918.4965    , 29.6064281  , 820.4822    , 3.37        , 3           , 255         , 0           , 0
-0.131578565, 0.136958152 , -9.796181   , -0.0003771722, -0.000472743064, -0.000269837154, -0.0143786874, -0.0130351707, -9.73417445E-06, 918.4965    , 29.6064281  , 820.4826    , 3.38        , 3           , 255         , 0           , 0
-0.131143838, 0.141225889 , -9.792532   , -0.000176272646, -0.0006287701, -0.000270767021, -0.014380415, -0.0130414972, -1.23513037E-05, 918.4965    , 29.6064281  , 820.483032  , 3.39        , 3           , 255         , 0           , 0
-0.137139589, 0.144316316 , -9.788702   , -0.000409147877, -0.000286790484, 0.00013088921, -0.0143845249, -0.0130443443, -1.10012243E-05, 918.4965    , 29.6064281  , 820.483459  , 3.4         , 3           , 255         , 0           , 0
-0.127032727, 0.148566216 , -9.789963   , -0.000558424741, -0.00039525656, 0.000512773229, -0.014385826, -0.0130507387, -5.87358727E-06, 918.4965    , 29.6064281  , 820.498657  , 3.41        , 3           , 255         , 0           , 0
-0.125522763, 0.137527034 , -9.790119   , -0.0004176476, -0.000401089841, -1.61755161E-05, -0.0143900011, -0.0130547509, -5.97762164E-06, 918.4965    , 29.6064281  , 820.4992    , 3.42        , 3           , 255         , 0           , 0
-0.13177982 , 0.1517453   , -9.792322   , -0.000500535651, -0.0003186713, 0.00043195812, -0.0143950619, -0.0130578754, -1.61237324E-06, 918.500732  , 29.6069031  , 820.499756  , 3.43        , 3           , 255         , 0           , 0
-0.125829428, 0.147382423 , -9.792161   , -0.000698808057, 6.745703E-05, 0.000123874343, -0.0144020664, -0.0130571816, -3.83395644E-07, 918.500732  , 29.6069031  , 820.5003    , 3.44        , 3           , 255         , 0           , 0
-0.124671444, 0.139760673 , -9.791232   , 8.110801E-07, 7.435231E-05, 1.34838047E-07, -0.014402058, -0.0130564384, -3.92753321E-07, 918.500732  , 29.6069031  , 820.500854  , 3.45        , 3           , 255         , 0           , 0
-0.123774454, 0.142470151 , -9.788832   , 0.000147376326, 0.000170639833, 0.00016167252, -0.014400606, -0.013054708, 1.19933293E-06, 918.500732  , 29.6069031  , 820.5014    , 3.46        , 3           , 255         , 0           , 0
-0.122810446, 0.149050757 , -9.788728   , -0.00029311073, 0.000387028733, 0.000404177525, -0.0144035872, -0.0130507816, 5.18518755E-06, 918.500732  , 29.6069031  , 820.501953  , 3.47        , 3           , 255         , 0           , 0
-0.1288977  , 0.14364855  , -9.785787   , 0.000665065949, 0.000163658726, -0.000159221832, -0.0143969161, -0.0130491694, 3.56947362E-06, 918.500732  , 29.6069031  , 820.5025    , 3.48        , 3           , 255         , 0           , 0
-0.127710447, 0.14773941  , -9.786042   , 0.0005021842, 9.350601E-05, 0.0004370344, -0.0143919522, -0.0130481711, 7.926171E-06, 918.500732  , 29.6069031  , 820.503052  , 3.49        , 3           , 255         , 0           , 0
-0.1283232  , 0.136351019 , -9.78023    , 4.17366828E-05, 0.000219202426, 0.00113039522, -0.014391683, -0.0130458148, 1.91980926E-05, 918.500732  , 29.6069031  , 820.5036    , 3.5         , 3           , 255         , 0           , 0
-0.128287449, 0.140365675 , -9.78011    , 6.35131146E-05, -0.000144731952, 0.0006241342, -0.0143976016, -0.0130449282, 2.5544432E-05, 918.500732  , 29.6069031  , 820.5101    , 3.51        , 3           , 255         , 0           , 0
-0.130592346, 0.138688728 , -9.78793049 , -0.000423185236, -0.000242627168, -0.0005337065, -0.0144017655, -0.0130474316, 2.02425272E-05, 918.500732  , 29.6069031  , 820.5107    , 3.52        , 3           , 255         , 0           , 0
-0.12379314 , 0.1369358   , -9.782303   , -0.000486306031, 0.00011706003, -0.0005743449, -0.0144065525, -0.0130463447, 1.44824762E-05, 918.5282    , 29.60887    , 820.5113    , 3.53        , 3           , 255         , 0           , 0
-0.1300196  , 0.138970941 , -9.78928852 , -0.000304229528, -0.000213053892, 7.75431E-05 , -0.0144096054, -0.0130484644, 1.528856E-05, 918.5282    , 29.60887    , 820.5119    , 3.54        , 3           , 255         , 0           , 0
-0.136510536, 0.1420366   , -9.782762   , -0.0002625589, -0.000163870864, 7.9878344E-05, -0.01441224 , -0.01305009 , 1.61109165E-05, 918.5282    , 29.60887    , 820.5125    , 3.55        , 3           , 255         , 0           , 0
-0.1314034  , 0.148006976 , -9.791086   , -0.000457776245, -0.000129323278, 0.0006821086, -0.014416907, -0.0130512854, 2.2950353E-05, 918.5282    , 29.60887    , 820.5131    , 3.56        , 3           , 255         , 0           , 0
-0.123927847, 0.141194582 , -9.783426   , -0.000212231273, -0.000132314977, 1.8360719E-05, -0.0144190323, -0.0130526051, 2.31530212E-05, 918.5282    , 29.60887    , 820.513733  , 3.57        , 3           , 255         , 0           , 0
-0.129970118, 0.139722213 , -9.784177   , -0.000138456584, 0.0003427908, -0.000434593763, -0.01442036 , -0.01304924 , 1.87578444E-05, 918.5282    , 29.60887    , 820.514343  , 3.58        , 3           , 255         , 0           , 0
-0.130835965, 0.1442112   , -9.780245   , 0.000195447356, 0.0008137547, -0.0006530159, -0.01441832 , -0.0130411992, 1.21106523E-05, 918.5282    , 29.60887    , 820.514954  , 3.59        , 3           , 255         , 0           , 0
-0.121914349, 0.140169337 , -9.781167   , -0.00021063516, 0.000196451874, -0.000446927035, -0.0144203687, -0.0130392974, 7.61325646E-06, 918.5282    , 29.60887    , 820.515564  , 3.6         , 3           , 255         , 0           , 0
-0.118693031, 0.1389943   , -9.786621   , -0.0001303241, -9.965181E-05, -9.413765E-05, -0.0144217154, -0.0130435778, 6.687029E-06, 918.5282    , 29.60887    , 820.480957  , 3.61        , 3           , 255         , 0           , 0
-0.129437044, 0.136792108 , -9.787101   , 0.000228292789, 8.202408E-05, 0.0003494888, -0.0144194784, -0.013042707, 1.01699252E-05, 918.5282    , 29.60887    , 820.4813    , 3.62        , 3           , 255         , 0           , 0
-0.130734086, 0.1423058   , -9.784485   , 0.000543463451, 0.0003417737, 0.0005777269, -0.0144141177, -0.0130392062, 1.58976691E-05, 918.529968  , 29.6093445  , 820.4817    , 3.63        , 3           , 255         , 0           , 0
-0.130796477, 0.134414718 , -9.788534   , 9.554067E-05, 0.000201818155, -0.000112302165, -0.0144131482, -0.0130372047, 1.47456121E-05, 918.529968  , 29.6093445  , 820.482056  , 3.64        , 3           , 255         , 0           , 0
-0.130295649, 0.134676188 , -9.788905   , 0.000355707249, 0.000108410983, -0.000584063469, -0.014409516, -0.0130362073, 8.88961E-06 , 918.529968  , 29.6093445  , 820.4824    , 3.65        , 3           , 255         , 0           , 0
-0.126965448, 0.137705341 , -9.78718    , 0.00018361384, -2.773595E-07, 7.717308E-05, -0.0144076888, -0.0130361971, 9.66135E-06 , 918.529968  , 29.6093445  , 820.4828    , 3.66        , 3           , 255         , 0           , 0
-0.131184369, 0.141340226 , -9.793869   , 9.107415E-05, -0.000103508763, 0.000384043582, -0.0144068282, -0.0130371777, 1.35165319E-05, 918.529968  , 29.6093445  , 820.483154  , 3.67        , 3           , 255         , 0           , 0
-0.129057214, 0.135166422 , -9.791639   , 0.000483782438, 8.4317E-05  , 0.000140152959, -0.01440201 , -0.0130363135, 1.4905856E-05, 918.529968  , 29.6093445  , 820.4835    , 3.68        , 3           , 255         , 0           , 0
-0.127555385, 0.137347579 , -9.785265   , 4.68242943E-05, 0.000428535015, -0.000290675176, -0.0144015029, -0.0130320694, 1.19375145E-05, 918.529968  , 29.6093445  , 820.4839    , 3.69        , 3           , 255         , 0           , 0
-0.129604131, 0.1417528   , -9.786161   , -0.000237497545, 0.000229559169, -0.00014646331, -0.0144038592, -0.013029797, 1.0439886E-05, 918.529968  , 29.6093445  , 820.484253  , 3.7         , 3           , 255         , 0           , 0
-0.124781944, 0.14275375  , -9.78277    , 0.000129165041, 0.00028120185, 0.000182275136, -0.0143968193, -0.0130285118, 1.214686E-05, 918.529968  , 29.6093445  , 820.451538  , 3.71        , 3           , 255         , 0           , 0
-0.144699976, 0.150378421 , -9.793203   , 0.000283301 , -0.0002569176, -0.0002826928, -0.0143939489, -0.01303112 , 9.357036E-06, 918.529968  , 29.6093445  , 820.4517    , 3.72        , 3           , 255         , 0           , 0
-0.13320151 , 0.141704857 , -9.78266    , 0.000301313761, 8.884992E-05, -0.000285953662, -0.0143908979, -0.0130302729, 6.48484047E-06, 918.574     , 29.6100922  , 820.4519    , 3.73        , 3           , 255         , 0           , 0
-0.123913273, 0.147645488 , -9.783934   , 0.000360009348, 0.000106167077, -5.76239981E-05, -0.0143872928, -0.01302922 , 5.89335E-06 , 918.574     , 29.6100922  , 820.4521    , 3.74        , 3           , 255         , 0           , 0
-0.130018592, 0.140605167 , -9.788596   , -0.000122173355, -0.000118721335, 9.02989559E-05, -0.0143885259, -0.013030394, 6.813378E-06, 918.574     , 29.6100922  , 820.4523    , 3.75        , 3           , 255         , 0           , 0
-0.118559279, 0.142686233 , -9.792041   , -0.0005700171, -5.38164168E-05, -0.0005251987, -0.0143941557, -0.0130310087, 1.56936812E-06, 918.574     , 29.6100922  , 820.452454  , 3.76        , 3           , 255         , 0           , 0
-0.124181584, 0.143192858 , -9.787974   , -0.000287567033, -0.000119965232, -0.0003006949, -0.0143969934, -0.013032251, -1.42018382E-06, 918.574     , 29.6100922  , 820.452637  , 3.77        , 3           , 255         , 0           , 0
-0.127462626, 0.143030882 , -9.791887   , -0.000118039461, 6.036472E-05, 0.000137282841, -0.0143981911, -0.013031628, -5.61096734E-08, 918.574     , 29.6100922  , 820.4528    , 3.78        , 3           , 255         , 0           , 0
