Acc X       , Acc Y       , Acc Z       , Gyro X      , Gyro Y      , Gyro Z      , Euler X     , Euler Y     , Euler Z     , Pres X      , Pres Y      , Pres Z      , Time        , Status      , LowRate X   , LowRate Y   , LowRate Z    
-0.0924425945, -0.09169201 , -9.788037   , 0           , 0           , 0           , 0.009367488 , -0.00944375247, 0           , 919.0612    , 33.1417427  , 815.4832    , 0           , 2           , 0           , 5.52123165  , 0
-0.098859   , -0.105070308, -9.798475   , -2.32179E-05, 3.890443E-05, 0.000178587987, 0.009367207 , -0.009443163, 1.78948176E-06, 919.0612    , 33.1417427  , 815.4832    , 0.01        , 3           , 1           , 0           , 0
-0.0988573357, -0.0970795155, -9.788889   , -0.000307591661, -0.0002218795, -0.000413337257, 0.009364169 , -0.009445345, -2.364573E-06, 919.0612    , 33.1417427  , 815.4832    , 0.02        , 3           , 2           , 0           , 0
-0.09291667 , -0.104725406, -9.8007555  , 0.000358958379, -0.000208338737, 9.247569E-05, 0.00936775  , -0.009447437, -1.45934564E-06, 919.0229    , 32.7018547  , 815.4832    , 0.03        , 3           , 3           , 0           , 0
-0.09700159 , -0.09161767 , -9.80423    , 0.000182119809, -9.79140459E-05, 0.0005465909, 0.009369519 , -0.009448468, 3.997262E-06, 919.0229    , 32.7018547  , 815.4832    , 0.04        , 3           , 4           , 0           , 0
-0.0992792845, -0.08755545 , -9.79251    , 0.0004227861, -4.95073036E-05, -0.000178598159, 0.009373762 , -0.009448945, 2.206689E-06, 919.0229    , 32.7018547  , 815.4832    , 0.05        , 3           , 5           , 0           , 0
-0.0873886  , -0.09115781 , -9.780321   , 2.449323E-05, 0.0001718355, -0.0002025798, 0.009374025 , -0.009447208, 1.97045367E-07, 919.0229    , 32.7018547  , 815.4832    , 0.06        , 3           , 6           , 0           , 0
-0.09017341 , -0.09144454 , -9.786539   , 0.0003447315, 0.0001233848, 0.000108563836, 0.009377462 , -0.009445984, 1.29422506E-06, 919.0229    , 32.7018547  , 815.4832    , 0.07        , 3           , 7           , 0           , 0
-0.09926782 , -0.102413759, -9.797967   , 0.000565428869, -0.000211724822, 0.000940182 , 0.009383026 , -0.009448191, 1.0675968E-05, 919.0229    , 32.7018547  , 815.4832    , 0.08        , 3           , 8           , 5           , 5
-0.09496243 , -0.102422357, -9.800801   , 0.0002616839, -4.243206E-05, -2.73325641E-05, 0.009385644 , -0.009448611, 1.03986695E-05, 919.0229    , 32.7018547  , 815.4832    , 0.09        , 3           , 9           , 5           , 0.1
-0.09115625 , -0.0945953  , -9.808728   , 0.000317994 , -0.0001913598, -0.000316794147, 0.009388855 , -0.009450495, 7.2128405E-06, 919.0229    , 32.7018547  , 815.4832    , 0.1         , 3           , 10          , 0.1         , 0.1
-0.08743685 , -0.08684279 , -9.799116   , 6.26093242E-05, 2.99174135E-05, -0.000487331068, 0.009407019 , -0.009458618, 2.176995E-06, 919.0229    , 32.7018547  , 815.829468  , 0.11        , 3           , 11          , 0.0109544508, 0.0109544508
-0.09300284 , -0.09252131 , -9.788374   , 0.00040435532, -0.00024657647, -0.0005453134, 0.009411116 , -0.009461033, -3.29921249E-06, 919.0229    , 32.7018547  , 815.829468  , 0.12        , 3           , 12          , 0.174642488 , 0
-0.0858550146, -0.09355052 , -9.799524   , 0.0007086573, -0.000141177617, -0.000234616571, 0.009418225 , -0.009462424, -5.65860955E-06, 919.0064    , 32.7390327  , 815.829468  , 0.13        , 3           , 13          , 0           , 0
-0.08996332 , -0.09907495 , -9.808165   , 7.775577E-05, 1.40962075E-05, -7.041914E-05, 0.00941901  , -0.009462276, -6.36145842E-06, 919.0064    , 32.7390327  , 815.829468  , 0.14        , 3           , 14          , -0.0003596159, -0.000125800958
-0.10087736 , -0.0921307355, -9.800635   , -2.483229E-05, 0.000127065388, 0.000489608268, 0.009418714 , -0.009461051, -1.45352487E-06, 919.0064    , 32.7390327  , 815.829468  , 0.15        , 3           , 15          , 0           , -8.376607E-05
-0.104132056, -0.09259153 , -9.786394   , 0.000434829068, -8.26689356E-05, 0.000401683443, 0.009423025 , -0.009461915, 2.55541636E-06, 919.0064    , 32.7390327  , 815.8295    , 0.16        , 3           , 16          , 0           , 1.401298E-45
-0.103490591, -0.09583212 , -9.783114   , 0.00018473652, 0.000133629685, -7.57412636E-07, 0.009424871 , -0.00946058 , 2.56043654E-06, 919.0064    , 32.7390327  , 815.8296    , 0.17        , 3           , 20          , 0           , 0
-0.09589355 , -0.09108503 , -9.792006   , 0.0002505933, 7.050625E-05, -0.000445929181, 0.00942742  , -0.009459831, -1.89210277E-06, 919.0064    , 32.7390327  , 815.829651  , 0.18        , 3           , 21          , 0           , 0
-0.08871061 , -0.09504555 , -9.796974   , 0.000123014135, 6.52385643E-06, -0.0005225515, 0.0094287   , -0.009459717, -7.116878E-06, 919.0064    , 32.7390327  , 815.8297    , 0.19        , 3           , 22          , 0           , 0
-0.101314545, -0.09596641 , -9.79768848 , 0.0003571862, 0.000140708769, -7.296954E-05, 0.009432279 , -0.009458303, -7.83329E-06, 919.0064    , 32.7390327  , 815.8298    , 0.2         , 3           , 40          , 0           , 0
-0.09039276 , -0.09150884 , -9.800103   , 0.000200429611, -0.000285720744, 8.087755E-05, 0.009438531 , -0.009469606, -7.0917863E-06, 919.0064    , 32.7390327  , 815.903931  , 0.21        , 3           , 41          , 0           , 0
-0.0891641751, -0.08871959 , -9.791368   , 0.000586927636, 0.000279709144, 0.0004837843, 0.009444353 , -0.009466854, -2.22764879E-06, 919.0064    , 32.7390327  , 815.904     , 0.22        , 3           , 42          , 0           , 0
-0.0935041  , -0.09297081 , -9.795732   , 0.0003595852, 3.01620021E-05, 0.000391900248, 0.009447912 , -0.009466589, 1.69410441E-06, 919.045166  , 32.7667122  , 815.904053  , 0.23        , 3           , 255         , 0           , 0
-0.09483662 , -0.09353704 , -9.801006   , 0.000860753353, -0.000342037558, -3.759819E-05, 0.009456523 , -0.00947000552, 1.2857995E-06, 919.045166  , 32.7667122  , 815.9041    , 0.24        , 3           , 255         , 0           , 0
-0.09665073 , -0.09115085 , -9.805084   , 0.00062425097, 5.25521245E-05, 0.000333652773, 0.009462735 , -0.009469512, 4.62721073E-06, 919.045166  , 32.7667122  , 815.9042    , 0.25        , 3           , 255         , 0           , 0
-0.08945322 , -0.08479055 , -9.794833   , -0.000188845966, 0.00014468297, 0.0006525973, 0.009460784 , -0.009468127, 1.11667132E-05, 919.045166  , 32.7667122  , 815.904236  , 0.26        , 3           , 255         , 0           , 0
-0.0955026448, -0.09127351 , -9.799346   , 0.000175058056, -0.000276444218, 3.40654951E-05, 0.009462532 , -0.009470895, 1.14812046E-05, 919.045166  , 32.7667122  , 815.9043    , 0.27        , 3           , 255         , 0           , 0
-0.09887622 , -0.1003546  , -9.804633   , 8.504241E-05, 7.185402E-05, -0.000196869325, 0.009463401 , -0.009470158, 9.519358E-06, 919.045166  , 32.7667122  , 815.904358  , 0.28        , 3           , 255         , 0           , 0
-0.09029853 , -0.105185129, -9.801951   , -0.000406099076, 3.12157936E-05, -7.04581762E-05, 0.009459346 , -0.009469839, 8.81775E-06 , 919.045166  , 32.7667122  , 815.9044    , 0.29        , 3           , 255         , 0           , 0
-0.0775895044, -0.09572502 , -9.787304   , -0.0007409467, 0.000346261339, -6.339949E-05, 0.009451944 , -0.009466371, 8.216507E-06, 919.045166  , 32.7667122  , 815.9045    , 0.3         , 3           , 255         , 0           , 0
-0.09305056 , -0.08437659 , -9.798761   , -4.98590525E-05, -0.000148247607, -0.000650727656, 0.009453907 , -0.009464406, 1.67266853E-06, 919.045166  , 32.7667122  , 815.812134  , 0.31        , 3           , 255         , 0           , 0
-0.0947255  , -0.0953946263, -9.801494   , 0.000197769477, -0.000304026617, -4.7378504E-05, 0.009455888 , -0.009467442, 1.17015747E-06, 919.045166  , 32.7667122  , 815.8122    , 0.32        , 3           , 255         , 0           , 0
-0.093092   , -0.0887368  , -9.793717   , 0.0004282388, 0.000138737945, 0.000161187185, 0.009460154 , -0.009466071, 2.79511187E-06, 919.077759  , 32.77994    , 815.812256  , 0.33        , 3           , 255         , 0           , 0
-0.09624001 , -0.0920413  , -9.796987   , 0.0003774606, 0.000414759183, 0.0001075863, 0.009463919 , -0.009461933, 3.91018375E-06, 919.077759  , 32.77994    , 815.8123    , 0.34        , 3           , 255         , 0           , 0
-0.09906323 , -0.09466558 , -9.796576   , 0.000234732244, 0.00022968938, 5.25520227E-05, 0.009466261 , -0.009459641, 4.45743672E-06, 919.077759  , 32.77994    , 815.8124    , 0.35        , 3           , 255         , 0           , 0
-0.09972792 , -0.09622823 , -9.78751    , 8.21658759E-05, 0.000318250677, -0.000121716323, 0.009467093 , -0.009456447, 3.270431E-06, 919.077759  , 32.77994    , 815.812439  , 0.36        , 3           , 255         , 0           , 0
-0.0881158262, -0.09468937 , -9.789393   , 4.52412642E-05, -0.000240301742, 2.2525157E-05, 0.009467544 , -0.009458852, 3.47292644E-06, 919.077759  , 32.77994    , 815.8125    , 0.37        , 3           , 255         , 0           , 0
-0.08066253 , -0.08820269 , -9.803503   , -0.000179588154, -0.000270590826, 0.000276310078, 0.009465722 , -0.0094615845, 6.21034042E-06, 919.077759  , 32.77994    , 815.812561  , 0.38        , 3           , 255         , 0           , 0
-0.0830083  , -0.0873469561, -9.804851   , -0.000623770757, 2.52916E-05 , 0.000466764235, 0.00945944  , -0.009461376, 1.0880256E-05, 919.077759  , 32.77994    , 815.8126    , 0.39        , 3           , 255         , 0           , 0
-0.0955925062, -0.0936757252, -9.80604    , 0.000117423871, 0.0003019392, 0.000353732234, 0.009460581 , -0.009458389, 1.444605E-05, 919.077759  , 32.77994    , 815.8127    , 0.4         , 3           , 255         , 0           , 0
-0.104666576, -0.09586866 , -9.792662   , 0.000556050043, 0.00014574395, -0.000383548148, 0.009462721 , -0.00945583 , 1.06571433E-05, 919.077759  , 32.77994    , 815.6911    , 0.41        , 3           , 255         , 0           , 0
-0.103377149, -0.09518848 , -9.797292   , 0.000875851 , -0.000325418921, 0.000132805377, 0.009471466 , -0.009459098, 1.19543438E-05, 919.077759  , 32.77994    , 815.691162  , 0.42        , 3           , 255         , 0           , 0
-0.10400454 , -0.0983357057, -9.803502   , -2.804803E-05, -0.0007116693, 0.00020201088, 0.009471168 , -0.009466234, 1.39070007E-05, 919.02655   , 32.7924232  , 815.6912    , 0.43        , 3           , 255         , 0           , 0
-0.103075504, -0.0919960141, -9.795018   , -0.00011707173, -0.000474346045, 0.000109187007, 0.009469986 , -0.009470987, 1.495392E-05, 919.02655   , 32.7924232  , 815.6913    , 0.44        , 3           , 255         , 0           , 0
-0.09826605 , -0.08882876 , -9.796417   , 5.325317E-05, 6.21151339E-05, -0.0004650429, 0.009470563 , -0.009470321, 1.03094826E-05, 919.02655   , 32.7924232  , 815.691345  , 0.45        , 3           , 255         , 0           , 0
-0.09465112 , -0.08234848 , -9.791693   , 0.000216211716, -2.35748012E-05, 0.0001074184, 0.009472715 , -0.009470568, 1.138141E-05, 919.02655   , 32.7924232  , 815.6914    , 0.46        , 3           , 255         , 0           , 0
-0.0983385444, -0.08987094 , -9.795843   , -0.000231621583, -0.000114576978, 0.000165813573, 0.009470384 , -0.009471729, 1.30286444E-05, 919.02655   , 32.7924232  , 815.691467  , 0.47        , 3           , 255         , 0           , 0
-0.0913462862, -0.08964688 , -9.802029   , -0.0002547469, -0.000135753653, 0.0005400153, 0.009467784 , -0.00947313849, 1.84158089E-05, 919.02655   , 32.7924232  , 815.6915    , 0.48        , 3           , 255         , 0           , 0
-0.0851757154, -0.09073438 , -9.794931   , -6.26807741E-05, -0.000229185971, 0.000542072346, 0.009467107 , -0.009475481, 2.38147E-05 , 919.02655   , 32.7924232  , 815.6916    , 0.49        , 3           , 255         , 0           , 0
-0.08521935 , -0.0952227563, -9.790795   , -0.000118498428, -5.98699262E-06, 0.000809339457, 0.009465846 , -0.009475617, 3.190733E-05, 919.02655   , 32.7924232  , 815.69165   , 0.5         , 3           , 255         , 0           , 0
-0.08945682 , -0.08802048 , -9.796846   , -0.000156425027, 0.0004224633, 0.0009959372, 0.009461195 , -0.009483916, 4.19348144E-05, 919.02655   , 32.7924232  , 815.7132    , 0.51        , 3           , 255         , 0           , 0
-0.08283021 , -0.08958318 , -9.793336   , -7.252238E-05, 0.000210020284, -1.15399453E-05, 0.009460472 , -0.009481814, 4.18392847E-05, 919.02655   , 32.7924232  , 815.7133    , 0.52        , 3           , 255         , 0           , 0
-0.08498212 , -0.09096638 , -9.799373   , 0.000174617453, 0.000341288338, -1.11231348E-05, 0.009462219 , -0.00947839953, 4.17603333E-05, 919.0522    , 32.80328    , 815.71344   , 0.53        , 3           , 255         , 0           , 0
-0.09064315 , -0.101736829, -9.797894   , 0.000211537874, 0.000202898707, 0.00016499011, 0.00946432  , -0.009476387, 4.34293943E-05, 919.0522    , 32.80328    , 815.713562  , 0.54        , 3           , 255         , 0           , 0
-0.09076142 , -0.09882999 , -9.792592   , -0.000186757272, 0.000220870657, -0.000136722127, 0.009462465 , -0.009474165, 4.2083102E-05, 919.0522    , 32.80328    , 815.7137    , 0.55        , 3           , 255         , 0           , 0
-0.08954109 , -0.09209973 , -9.801574   , -0.000163244054, 0.000102109756, -0.00015148145, 0.009460846 , -0.00947313 , 4.057799E-05, 919.0522    , 32.80328    , 815.7138    , 0.56        , 3           , 255         , 0           , 0
-0.0838817954, -0.100147292, -9.799486   , 0.000568632735, 0.000294578145, 0.000685259758, 0.00946646649, -0.00947024953, 4.74582957E-05, 919.0522    , 32.80328    , 815.7139    , 0.57        , 3           , 255         , 0           , 0
-0.08964308 , -0.09427938 , -9.79056    , 0.000347191119, 0.00034756877, 0.000200090173, 0.009469921 , -0.009466793, 4.949205E-05, 919.0522    , 32.80328    , 815.71405   , 0.58        , 3           , 255         , 0           , 0
-0.09613758 , -0.0888881  , -9.78507    , 0.000480573566, 7.241374E-05, 0.000412296038, 0.009474688 , -0.009466108, 5.362177E-05, 919.0522    , 32.80328    , 815.7142    , 0.59        , 3           , 255         , 0           , 0
-0.09714977 , -0.08927712 , -9.803612   , 2.16788321E-05, 3.994295E-05, 5.263728E-05, 0.0094749   , -0.009465714, 5.415191E-05, 919.0522    , 32.80328    , 815.7143    , 0.6         , 3           , 255         , 0           , 0
-0.09956564 , -0.08381714 , -9.802443   , -0.000426587038, 0.000169060484, 0.000218369561, 0.009472647 , -0.009454078, 5.63323374E-05, 919.0522    , 32.80328    , 815.6886    , 0.61        , 3           , 255         , 0           , 0
-0.100591995, -0.08165927 , -9.803699   , 0.000251985155, 0.000448993 , 0.000422799669, 0.009475127 , -0.009449629, 6.06027534E-05, 919.0522    , 32.80328    , 815.6887    , 0.62        , 3           , 255         , 0           , 0
-0.103926   , -0.0908884555, -9.800512   , -0.000117236894, 0.000183884462, -0.000286739349, 0.009473982 , -0.009447763, 5.77528554E-05, 918.9934    , 32.8040237  , 815.688843  , 0.63        , 3           , 255         , 0           , 0
-0.0922381058, -0.09103902 , -9.794578   , 0.00015776098, -0.000145264392, -0.000747576531, 0.009475631 , -0.009449145, 5.02635157E-05, 918.9934    , 32.8040237  , 815.688965  , 0.64        , 3           , 255         , 0           , 0
-0.0923176855, -0.09982318 , -9.79822    , 0.000766675861, 0.000258782238, -0.00042995275, 0.009483338 , -0.009446518, 4.59886141E-05, 918.9934    , 32.8040237  , 815.6891    , 0.65        , 3           , 255         , 0           , 0
-0.100204587, -0.09069995 , -9.791399   , -0.000304884015, 1.27765816E-07, 0.000244453928, 0.009480266 , -0.009446539, 4.84331067E-05, 918.9934    , 32.8040237  , 815.6892    , 0.66        , 3           , 255         , 0           , 0
-0.08968657 , -0.09810415 , -9.801308   , -0.000211272709, -0.000100313206, 0.0003221553, 0.009478124 , -0.009447573, 5.164507E-05, 918.9934    , 32.8040237  , 815.689331  , 0.67        , 3           , 255         , 0           , 0
-0.0853888243, -0.103194676, -9.800586   , 9.3980605E-05, 2.04374373E-06, 0.000543253263, 0.009479011 , -0.00944760349, 5.70776574E-05, 918.9934    , 32.8040237  , 815.689453  , 0.68        , 3           , 255         , 0           , 0
-0.08746035 , -0.09009018 , -9.801668   , -0.000221101363, 0.000236217544, -1.42836725E-05, 0.009476802 , -0.00944524 , 5.695722E-05, 918.9934    , 32.8040237  , 815.6896    , 0.69        , 3           , 255         , 0           , 0
-0.0914375  , -0.09154367 , -9.801661   , 0.000333702017, -0.0002943891, 7.135441E-05, 0.009480132 , -0.00944819 , 5.76428465E-05, 918.9934    , 32.8040237  , 815.6897    , 0.7         , 3           , 255         , 0           , 0
-0.0957758054, -0.0986153856, -9.790796   , 0.0003316905, -3.09071766E-05, -0.000206591547, 0.009481497 , -0.00945255 , 5.559269E-05, 918.9934    , 32.8040237  , 815.751953  , 0.71        , 3           , 255         , 0           , 0
-0.100262068, -0.0928007  , -9.799987   , 0.000450298772, 0.000345533539, 0.0008072332, 0.009485922 , -0.009449172, 6.36976E-05 , 918.9934    , 32.8040237  , 815.752136  , 0.72        , 3           , 255         , 0           , 0
-0.09455179 , -0.08780057 , -9.797576   , 0.000434000744, 0.000126980653, 0.000116081043, 0.00949025247, -0.009447913, 6.487042E-05, 919.0605    , 32.8119621  , 815.7523    , 0.73        , 3           , 255         , 0           , 0
-0.09740067 , -0.09170085 , -9.800253   , -0.000662879669, 0.000277568732, 0.000145516518, 0.009483609 , -0.00944515 , 6.635189E-05, 919.0605    , 32.8119621  , 815.7525    , 0.74        , 3           , 255         , 0           , 0
-0.09105355 , -0.08894996 , -9.788743   , -0.000736742164, 2.88877491E-05, 0.000610946969, 0.009476185 , -0.00944491848, 7.246395E-05, 919.0605    , 32.8119621  , 815.7527    , 0.75        , 3           , 255         , 0           , 0
-0.0836567059, -0.08792026 , -9.78902    , -0.000348979, 0.000150423875, -0.000213897045, 0.009472716 , -0.009443394, 7.03392943E-05, 919.0605    , 32.8119621  , 815.752869  , 0.76        , 3           , 255         , 0           , 0
-0.0887810141, -0.09157445 , -9.794774   , -2.80198E-05, 3.9399456E-05, -0.0003308708, 0.009472466 , -0.009442968, 6.70344E-05 , 919.0605    , 32.8119621  , 815.753052  , 0.77        , 3           , 255         , 0           , 0
-0.09812392 , -0.08512545 , -9.798434   , -0.0002458511, -0.0004198572, -0.000186351841, 0.009470025 , -0.009447149, 6.51311639E-05, 919.0605    , 32.8119621  , 815.753235  , 0.78        , 3           , 255         , 0           , 0
-0.08863841 , -0.0911443  , -9.804696   , -0.000273271842, 4.664083E-05, 0.000450584 , 0.00946725  , -0.009446724, 6.964131E-05, 919.0605    , 32.8119621  , 815.7534    , 0.79        , 3           , 255         , 0           , 0
-0.09349566 , -0.101081766, -9.801249   , 2.2928667E-05, -7.000161E-05, 0.0005280494, 0.009467429 , -0.009447474, 7.491504E-05, 919.0605    , 32.8119621  , 815.7536    , 0.8         , 3           , 255         , 0           , 0
-0.0978606045, -0.100029446, -9.799767   , -0.000401706377, -0.000538279, 0.000627113 , 0.009460054 , -0.009454678, 8.116627E-05, 919.0605    , 32.8119621  , 815.7173    , 0.81        , 3           , 255         , 0           , 0
-0.100548483, -0.08972865 , -9.802526   , -0.000687564258, -8.59001448E-05, -0.000406955456, 0.009453219 , -0.009455498, 7.708868E-05, 919.0605    , 32.8119621  , 815.717468  , 0.82        , 3           , 255         , 0           , 0
-0.09010639 , -0.0885422  , -9.79653    , -0.000250915182, 7.886901E-05, 0.000475765235, 0.009450665 , -0.009454754, 8.185367E-05, 919.0637    , 32.81366    , 815.717651  , 0.83        , 3           , 255         , 0           , 0
-0.0878147259, -0.091942355, -9.787419   , 0.000156271155, -0.000188373626, 0.0002900591, 0.0094522   , -0.009456665, 8.473639E-05, 919.0637    , 32.81366    , 815.717834  , 0.84        , 3           , 255         , 0           , 0
-0.09376182 , -0.09425269 , -9.78741    , -0.0002792045, 0.000207532576, 0.000461258023, 0.009449365 , -0.009454633, 8.936847E-05, 919.0637    , 32.81366    , 815.718     , 0.85        , 3           , 255         , 0           , 0
-0.09046406 , -0.0934996456, -9.799214   , 4.558693E-05, 0.000189997285, 0.0002530015, 0.009449796 , -0.009452757, 9.191638E-05, 919.0637    , 32.81366    , 815.7182    , 0.86        , 3           , 255         , 0           , 0
-0.090961054, -0.08451391 , -9.803208   , 0.000106110616, -0.000293019926, -6.54221149E-05, 0.009450862 , -0.009455682, 9.123449E-05, 919.0637    , 32.81366    , 815.7184    , 0.87        , 3           , 255         , 0           , 0
-0.08805899 , -0.09913615 , -9.804789   , -0.000136198883, 0.0004699367, -0.00029351993, 0.00944952853, -0.009450954, 8.834378E-05, 919.0637    , 32.81366    , 815.718567  , 0.88        , 3           , 255         , 0           , 0
-0.08473179 , -0.0924415  , -9.796105   , 2.19765352E-05, 0.000202172829, -0.000261697773, 0.00944977347, -0.009448908, 8.57459745E-05, 919.0637    , 32.81366    , 815.71875   , 0.89        , 3           , 255         , 0           , 0
-0.08073544 , -0.0965415  , -9.789305   , -0.000225203, 0.000166884391, 0.000210533355, 0.0094475   , -0.009447259, 8.786701E-05, 919.0637    , 32.81366    , 815.718933  , 0.9         , 3           , 255         , 0           , 0
-0.0849802047, -0.100362048, -9.777634   , 0.000220343063, 0.000483778917, -0.000244712224, 0.009451006 , -0.009436681, 8.545358E-05, 919.0637    , 32.81366    , 815.686035  , 0.91        , 3           , 255         , 0           , 0
-0.0852896944, -0.08725523 , -9.787787   , -5.9872953E-05, 0.00025437423, -0.0001087272, 0.009450418 , -0.009434128, 8.439038E-05, 919.0637    , 32.81366    , 815.686157  , 0.92        , 3           , 255         , 0           , 0
-0.0961362347, -0.08553134 , -9.798998   , 0.00022674544, -0.0001277749, -0.0003956984, 0.009452723 , -0.009435367, 8.042141E-05, 919.0532    , 32.81332    , 815.6863    , 0.93        , 3           , 255         , 0           , 0
-0.09932141 , -0.08482506 , -9.809097   , 0.00053554523, -0.0001907348, -0.0004341516, 0.009458119 , -0.009437234, 7.606198E-05, 919.0532    , 32.81332    , 815.6864    , 0.94        , 3           , 255         , 0           , 0
-0.09676335 , -0.079651244, -9.811063   , 0.000371616246, -0.000203473057, 0.00022480925, 0.009461814 , -0.00943929 , 7.829076E-05, 919.0532    , 32.81332    , 815.6865    , 0.95        , 3           , 255         , 0           , 0
-0.09594686 , -0.08967765 , -9.798302   , -0.0006014579, 0.000168381463, 0.0002642378, 0.009455774 , -0.00943763 , 8.09489939E-05, 919.0532    , 32.81332    , 815.686646  , 0.96        , 3           , 255         , 0           , 0
-0.102265194, -0.08119347 , -9.79620552 , 8.52448E-05 , 0.000150937427, -0.0005663155, 0.00945668  , -0.009436068, 7.5300246E-05, 919.0532    , 32.81332    , 815.686768  , 0.97        , 3           , 255         , 0           , 0
-0.09535886 , -0.09095071 , -9.793753   , 0.000192545558, 0.000419891934, 0.000130632136, 0.009458592 , -0.009431882, 7.664626E-05, 919.0532    , 32.81332    , 815.6869    , 0.98        , 3           , 255         , 0           , 0
-0.09701793 , -0.09304775 , -9.796039   , 0.000787154539, 0.000270218879, 0.000246977375, 0.00946643949, -0.009429202, 7.914154E-05, 919.0532    , 32.81332    , 815.687     , 0.99        , 3           , 255         , 0           , 0
-0.104834124, -0.09611271 , -9.800336   , 0.0003040391, 0.000107151449, -0.000198254013, 0.009469498 , -0.009428112, 7.71692E-05 , 919.0532    , 32.81332    , 815.687134  , 1           , 3           , 0           , 6.52123642  , 100
-0.0979323238, -0.094118014, -9.782622   , 0.000502214534, -0.000137720825, -0.0001289798, 0.009464716 , -0.009437992, 7.59590548E-05, 919.0532    , 32.81332    , 815.6714    , 1.01        , 3           , 1           , 0           , 0
-0.08577009 , -0.100896277, -9.788986   , -0.000449106854, -7.212351E-06, 0.000104650855, 0.00946021453, -0.009438073, 7.700486E-05, 919.0532    , 32.81332    , 815.6715    , 1.02        , 3           , 2           , 0           , 0
-0.08307504 , -0.100503445, -9.788991   , -0.000879617466, 9.62113045E-05, -0.0001471832, 0.009451431 , -0.009437099, 7.55421643E-05, 919.0585    , 32.8161     , 815.671631  , 1.03        , 3           , 3           , 0           , 0
-0.09076978 , -0.0981539041, -9.79586    , 0.000124898259, 2.68204967E-05, 0.000238731416, 0.009452658 , -0.009436853, 7.793195E-05, 919.0585    , 32.8161     , 815.671753  , 1.04        , 3           , 4           , 0           , 0
-0.08879832 , -0.08721172 , -9.801027   , -0.00012510785, 0.00106096128, -0.000191758852, 0.009451425 , -0.009426226, 7.611469E-05, 919.0585    , 32.8161     , 815.6719    , 1.05        , 3           , 5           , 0           , 0
-0.09189282 , -0.08668663 , -9.804548   , 1.762982E-05, -9.58534656E-08, 0.00030792813, 0.009451572 , -0.009426257, 7.919388E-05, 919.0585    , 32.8161     , 815.672     , 1.06        , 3           , 6           , 0           , 0
-0.09450438 , -0.09232697 , -9.801748   , -2.14177126E-05, -0.000133123118, 0.000163225224, 0.009451343 , -0.009427603, 8.08135E-05 , 919.0585    , 32.8161     , 815.6721    , 1.07        , 3           , 7           , 0           , 0
-0.09907613 , -0.100172915, -9.802755   , -0.000287403353, 0.000441923272, 0.000757175731, 0.009448395 , -0.009423256, 8.842682E-05, 919.0585    , 32.8161     , 815.672241  , 1.08        , 3           , 8           , 5           , 5
-0.102566287, -0.0948101059, -9.80006    , -0.000235298474, -7.252746E-05, 0.000119003656, 0.009446031 , -0.009423993, 8.96099955E-05, 919.0585    , 32.8161     , 815.672363  , 1.09        , 3           , 9           , 5           , 0.1
-0.08782307 , -0.092699565, -9.798458   , 0.000131842549, 0.000159306044, -8.29139753E-06, 0.009447351 , -0.009422399, 8.954213E-05, 919.0585    , 32.8161     , 815.6725    , 1.1         , 3           , 10          , 0.1         , 0.1
-0.09604568 , -0.08519475 , -9.799909   , 0.000111412228, 0.000190363528, 4.38731659E-05, 0.009453994 , -0.009420063, 8.99467341E-05, 919.0585    , 32.8161     , 815.6534    , 1.11        , 3           , 11          , 0.009477264 , 0.009477264
-0.103034653, -0.07981288 , -9.79895    , -1.90193532E-06, 9.36841461E-05, -0.00043919115, 0.009454017 , -0.00941908453, 8.556379E-05, 919.0585    , 32.8161     , 815.653442  , 1.12        , 3           , 12          , 0.174642846 , 0
-0.09650557 , -0.0889871642, -9.79109    , 0.0002642783, 0.000224850024, 0.000363464846, 0.009456625 , -0.00941687 , 8.9219604E-05, 919.0455    , 32.81834    , 815.6535    , 1.13        , 3           , 13          , 0           , 0
-0.08663437 , -0.09923546 , -9.792437   , 0.000704997336, 0.000154296169, 0.000244048657, 0.009463651 , -0.00941535 , 9.16746139E-05, 919.0455    , 32.81834    , 815.653564  , 1.14        , 3           , 14          , -0.0003596086, -0.000125793129
-0.08297907 , -0.09970957 , -9.795159   , -0.00039954143, -5.70935663E-05, -4.65256671E-05, 0.00945966  , -0.009415916, 9.12039759E-05, 919.0455    , 32.81834    , 815.6536    , 1.15        , 3           , 15          , 0           , -8.37662E-05
-0.08388306 , -0.101595484, -9.800251   , -6.06692047E-05, 6.6438E-05  , 0.000238381384, 0.009459032 , -0.00941527449, 9.3594E-05  , 919.0455    , 32.81834    , 815.653748  , 1.16        , 3           , 16          , 0           , 1.401298E-45
-0.0836731344, -0.09455798 , -9.796818   , -0.000103481492, 0.000752555556, 0.000169284031, 0.009457979 , -0.009407765, 9.53579947E-05, 919.0455    , 32.81834    , 815.6539    , 1.17        , 3           , 20          , 0           , 0
-0.07647903 , -0.096930176, -9.79699    , -0.0005369395, 0.0004495662, 6.17739061E-05, 0.009452605 , -0.009403277, 9.601822E-05, 919.0455    , 32.81834    , 815.654     , 1.18        , 3           , 21          , 0           , 0
-0.08005854 , -0.09682884 , -9.793747   , -0.000480749033, 0.000496059656, 0.000233912491, 0.009447775 , -0.009398338, 9.840417E-05, 919.0455    , 32.81834    , 815.6541    , 1.19        , 3           , 22          , 0           , 0
-0.09676541 , -0.09394876 , -9.791786   , -0.0001390061, 0.0001107176, 0.000151835062, 0.00944637  , -0.009397246, 9.993294E-05, 919.0455    , 32.81834    , 815.654236  , 1.2         , 3           , 40          , 0           , 0
-0.106041193, -0.0915094241, -9.806604   , 0.000257266744, 0.000109589731, 0.000351669732, 0.009451529 , -0.009386641, 0.000103435326, 919.0455    , 32.81834    , 815.651245  , 1.21        , 3           , 41          , 0           , 0
-0.1022437  , -0.09838295 , -9.798006   , 0.000883693167, -5.61338966E-05, -0.000194336608, 0.009460383 , -0.009387182, 0.0001014867, 919.0455    , 32.81834    , 815.651367  , 1.22        , 3           , 42          , 0           , 0
-0.0970893353, -0.09676646 , -9.795488   , -8.08044861E-05, 0.000154985275, -4.67098362E-05, 0.009459578 , -0.009385629, 0.000101034282, 919.064331  , 32.8213234  , 815.6515    , 1.23        , 3           , 255         , 0           , 0
-0.10066092 , -0.09399891 , -9.796105   , 0.000363759318, -0.000295746344, 0.000350647228, 0.00946318451, -0.009388619, 0.00010451267, 919.064331  , 32.8213234  , 815.6516    , 1.24        , 3           , 255         , 0           , 0
-0.09796281 , -0.0990182  , -9.80335    , 0.000554572267, -3.19729443E-05, 0.000162084587, 0.009468714 , -0.009388954, 0.000106130443, 919.064331  , 32.8213234  , 815.651733  , 1.25        , 3           , 255         , 0           , 0
-0.08922968 , -0.09172131 , -9.795833   , 0.00013479832, 0.000124186758, -0.000480309216, 0.009470106 , -0.009387667, 0.000101339225, 919.064331  , 32.8213234  , 815.651855  , 1.26        , 3           , 255         , 0           , 0
-0.08537345 , -0.08540774 , -9.791277   , 0.000123550359, 3.05066351E-06, 0.000394481176, 0.009471305 , -0.009387674, 0.000105284227, 919.064331  , 32.8213234  , 815.652     , 1.27        , 3           , 255         , 0           , 0
-0.09144523 , -0.094417   , -9.80529    , -9.206589E-05, -0.000185663754, -0.000159985066, 0.009470399 , -0.009389515, 0.00010366684, 919.064331  , 32.8213234  , 815.6521    , 1.28        , 3           , 255         , 0           , 0
-0.0943291038, -0.09692309 , -9.799304   , -1.80512143E-05, 0.0002890107, -4.901566E-05, 0.00947022252, -0.00938662048, 0.000103204075, 919.064331  , 32.8213234  , 815.6522    , 1.29        , 3           , 255         , 0           , 0
-0.0885928944, -0.088545   , -9.785811   , 0.000142609526, 0.000150063745, 6.4302556E-05, 0.009471643 , -0.009385126, 0.0001038613, 919.064331  , 32.8213234  , 815.652344  , 1.3         , 3           , 255         , 0           , 0
-0.088968426, -0.0801782757, -9.778361   , 1.51899294E-05, 0.0002827489, -0.000376988319, 0.009473917 , -0.009389784, 0.000100098696, 919.064331  , 32.8213234  , 815.629944  , 1.31        , 3           , 255         , 0           , 0
-0.0952185839, -0.0821149945, -9.788105   , -9.246307E-05, -8.258324E-05, -6.386629E-05, 0.009472998 , -0.009390604, 9.945222E-05, 919.064331  , 32.8213234  , 815.629944  , 1.32        , 3           , 255         , 0           , 0
-0.09878063 , -0.0899145454, -9.80175    , 8.949789E-05, -8.713892E-05, -9.217873E-05, 0.009473902 , -0.009391466, 9.852221E-05, 919.0554    , 32.8201027  , 815.63      , 1.33        , 3           , 255         , 0           , 0
-0.102556005, -0.08556841 , -9.801825   , -5.934137E-05, 0.0004676835, 0.0006152314, 0.00947325  , -0.009386849, 0.00010471866, 919.0554    , 32.8201027  , 815.630066  , 1.34        , 3           , 255         , 0           , 0
-0.100526944, -0.08172296 , -9.799945   , -0.00030172267, 0.000640974729, -0.000467708975, 0.009470277 , -0.009380395, 0.0001001024, 919.0554    , 32.8201027  , 815.6301    , 1.35        , 3           , 255         , 0           , 0
-0.0993288  , -0.0873219147, -9.79747    , 0.000205827324, -0.000168065453, -0.000317237776, 0.009472365 , -0.009382045, 9.691418E-05, 919.0554    , 32.8201027  , 815.6302    , 1.36        , 3           , 255         , 0           , 0
-0.09050111 , -0.0865161  , -9.80548    , 0.000136429822, -0.000282604044, -0.0006188312, 0.009473787 , -0.009384812, 9.069926E-05, 919.0554    , 32.8201027  , 815.630249  , 1.37        , 3           , 255         , 0           , 0
-0.0922364444, -0.08972381 , -9.801209   , -0.0001164205, -0.00011882541, -2.46338459E-05, 0.009472624 , -0.009385998, 9.044166E-05, 919.0554    , 32.8201027  , 815.6303    , 1.38        , 3           , 255         , 0           , 0
-0.09319628 , -0.08740791 , -9.79807949 , -0.000453421148, -0.000112662965, -4.347603E-06, 0.009468092 , -0.009387123, 9.038752E-05, 919.0554    , 32.8201027  , 815.6304    , 1.39        , 3           , 255         , 0           , 0
-0.0973322541, -0.08656486 , -9.794241   , -0.000605743437, 3.36538869E-05, -0.00030330164, 0.009462062 , -0.009386757, 8.735777E-05, 919.0554    , 32.8201027  , 815.630432  , 1.4         , 3           , 255         , 0           , 0
-0.09388207 , -0.09779675 , -9.799086   , 0.000194055829, -0.000162796059, 0.000152424036, 0.009447168 , -0.009397744, 8.902463E-05, 919.0554    , 32.8201027  , 815.6197    , 1.41        , 3           , 255         , 0           , 0
-0.09535093 , -0.09311546 , -9.798441   , 0.000123084887, -8.674199E-05, 0.000199995091, 0.00944838  , -0.00939863 , 9.10163362E-05, 919.0554    , 32.8201027  , 815.6197    , 1.42        , 3           , 255         , 0           , 0
-0.09527639 , -0.08690964 , -9.797294   , 0.000420653669, 0.0001261548, -4.43564859E-05, 0.009452591 , -0.009397363, 9.05847E-05 , 919.0579    , 32.8209877  , 815.6197    , 1.43        , 3           , 255         , 0           , 0
-0.100869931, -0.102874085, -9.791962   , 0.0005374636, -3.26006266E-05, 0.0006083241, 0.009457908 , -0.009397748, 9.66647E-05 , 919.0579    , 32.8209877  , 815.6197    , 1.44        , 3           , 255         , 0           , 0
-0.0912436843, -0.0927926451, -9.791128   , 0.0009496435, -0.000301439577, 0.000540315057, 0.009467352 , -0.009400811, 0.0001020392, 919.0579    , 32.8209877  , 815.6197    , 1.45        , 3           , 255         , 0           , 0
-0.09574988 , -0.08772006 , -9.800992   , -0.000181330135, 8.66030459E-05, -0.000799723, 0.009465613 , -0.009399869, 9.405038E-05, 919.0579    , 32.8209877  , 815.6197    , 1.46        , 3           , 255         , 0           , 0
-0.100802884, -0.08687248 , -9.799677   , -0.0005277356, -0.0002472468, -0.0008546501, 0.009460417 , -0.00940226 , 8.54807E-05 , 919.0579    , 32.8209877  , 815.6197    , 1.47        , 3           , 255         , 0           , 0
-0.0976908058, -0.08139775 , -9.803055   , 0.000283910718, -0.000172407075, -0.0005462931, 0.009463307 , -0.009403933, 8.00016E-05 , 919.0579    , 32.8209877  , 815.6197    , 1.48        , 3           , 255         , 0           , 0
-0.09093769 , -0.08734223 , -9.80176449 , 0.000322806241, -0.000204427459, 0.000439774769, 0.0094664935, -0.009406016, 8.437989E-05, 919.0579    , 32.8209877  , 815.6197    , 1.49        , 3           , 255         , 0           , 0
-0.09093178 , -0.102527618, -9.802      , 0.00016469165, -1.86705438E-06, 0.0006526783, 0.009468079 , -0.009406096, 9.09063237E-05, 919.0579    , 32.8209877  , 815.6197    , 1.5         , 3           , 255         , 0           , 0
-0.09231219 , -0.10058713 , -9.788597   , 0.0005428763, -3.615045E-06, -3.5809433E-05, 0.009471845 , -0.009412737, 9.056357E-05, 919.0579    , 32.8209877  , 815.6072    , 1.51        , 3           , 255         , 0           , 0
-0.09465425 , -0.0900035352, -9.801817   , -7.526728E-05, 6.64829859E-05, 0.000749033759, 0.009471022 , -0.009412142, 9.806003E-05, 919.0579    , 32.8209877  , 815.6072    , 1.52        , 3           , 255         , 0           , 0
-0.08972462 , -0.0802238062, -9.783506   , 0.0004582674, 0.0002248151, 0.000225052 , 0.009475583 , -0.009409917, 0.000100331774, 919.0476    , 32.82119    , 815.6072    , 1.53        , 3           , 255         , 0           , 0
-0.0921684355, -0.0927975  , -9.78925    , 0.000388064422, 0.000260557 , -0.000132053217, 0.009479478 , -0.0094073  , 9.903597E-05, 919.0476    , 32.82119    , 815.6072    , 1.54        , 3           , 255         , 0           , 0
-0.100466236, -0.0845116451, -9.790903   , 9.77069139E-05, 0.000520812231, -0.00089338253, 0.009480539 , -0.009402009, 9.01517342E-05, 919.0476    , 32.82119    , 815.6072    , 1.55        , 3           , 255         , 0           , 0
-0.101133093, -0.09594128 , -9.791946   , -0.000106492022, 0.0005397676, -0.000129531516, 0.009479485 , -0.009396596, 8.890762E-05, 919.0476    , 32.82119    , 815.6072    , 1.56        , 3           , 255         , 0           , 0
-0.08434681 , -0.09072454 , -9.790454   , 0.000218253292, -0.000132347617, -0.000727722247, 0.00948173553, -0.009397851, 8.16180254E-05, 919.0476    , 32.82119    , 815.6072    , 1.57        , 3           , 255         , 0           , 0
-0.100104831, -0.09801045 , -9.797435   , -0.000417793577, -0.000242070862, -9.525501E-05, 0.009477567 , -0.0094002625, 8.064254E-05, 919.0476    , 32.82119    , 815.6072    , 1.58        , 3           , 255         , 0           , 0
-0.0986979753, -0.08685582 , -9.797862   , -0.000263465161, -0.000322102627, 0.0007834846, 0.00947486  , -0.00940355752, 8.84466644E-05, 919.0476    , 32.82119    , 815.6072    , 1.59        , 3           , 255         , 0           , 0
-0.08812182 , -0.087013036, -9.7980175  , 9.360985E-06, -2.00413924E-05, 0.0002915254, 0.009474926 , -0.009403785, 9.135994E-05, 919.0476    , 32.82119    , 815.6072    , 1.6         , 3           , 255         , 0           , 0
-0.0893492252, -0.0932913  , -9.791822   , -1.63614459E-05, -3.7287522E-05, 0.00010415107, 0.009468508 , -0.009410118, 9.245664E-05, 919.0476    , 32.82119    , 815.6069    , 1.61        , 3           , 255         , 0           , 0
-0.09752767 , -0.09270443 , -9.791633   , -0.000116513722, -0.000301165157, 0.000151486311, 0.009467328 , -0.009413144, 9.394297E-05, 919.0476    , 32.82119    , 815.6069    , 1.62        , 3           , 255         , 0           , 0
-0.102039076, -0.09550033 , -9.789919   , 2.2375345E-05, 0.000249512144, 0.0006255108, 0.009467493 , -0.009410708, 0.000100221514, 919.0423    , 32.82404    , 815.6069    , 1.63        , 3           , 255         , 0           , 0
-0.100192547, -0.104534224, -9.788919   , 0.000514068 , 9.464832E-05, -2.45737538E-05, 0.009472636 , -0.00940976 , 9.998476E-05, 919.0423    , 32.82404    , 815.6069    , 1.64        , 3           , 255         , 0           , 0
-0.09876845 , -0.0998656154, -9.798538   , -9.232492E-06, -1.23413338E-06, 0.000378814031, 0.009472508 , -0.009409809, 0.000103772676, 919.0423    , 32.82404    , 815.6069    , 1.65        , 3           , 255         , 0           , 0
-0.0884961039, -0.0942576155, -9.800299   , -0.0003724262, -2.62967078E-05, 0.000250364246, 0.009468759 , -0.009410095, 0.000106273765, 919.0423    , 32.82404    , 815.6069    , 1.66        , 3           , 255         , 0           , 0
-0.09437682 , -0.09198506 , -9.787663   , -0.000401080673, 7.057523E-05, 8.357866E-05, 0.009464743 , -0.009409397, 0.000107116211, 919.0423    , 32.82404    , 815.6069    , 1.67        , 3           , 255         , 0           , 0
-0.085851796, -0.0869571939, -9.797075   , 0.00043806812, -7.116169E-05, -0.000159892341, 0.009469137 , -0.009410094, 0.000105510589, 919.0423    , 32.82404    , 815.6069    , 1.68        , 3           , 255         , 0           , 0
-0.09176527 , -0.0887044445, -9.790876   , 3.83190345E-05, -0.000148974024, 0.0001092731, 0.009469508 , -0.009411593, 0.0001065892, 919.0423    , 32.82404    , 815.6069    , 1.69        , 3           , 255         , 0           , 0
-0.09469419 , -0.0870629  , -9.794899   , 0.000124914091, 0.000138579562, 0.000280397042, 0.009470731 , -0.009410234, 0.000109406217, 919.0423    , 32.82404    , 815.6069    , 1.7         , 3           , 255         , 0           , 0
-0.0875098854, -0.0871387  , -9.791108   , -0.0006903852, 0.000415078248, 0.000226467731, 0.009465779 , -0.009412014, 0.000111691581, 919.0423    , 32.82404    , 815.6128    , 1.71        , 3           , 255         , 0           , 0
-0.0881786  , -0.09265812 , -9.79188    , 1.95087632E-05, -0.000101279962, 0.0008120412, 0.00946589652, -0.009413104, 0.000119802193, 919.0423    , 32.82404    , 815.612854  , 1.72        , 3           , 255         , 0           , 0
-0.0815328  , -0.0948742256, -9.795765   , 0.000604087953, 6.8195106E-05, 0.0002739579, 0.009471912 , -0.009412448, 0.000122548154, 919.0776    , 32.82438    , 815.6129    , 1.73        , 3           , 255         , 0           , 0
-0.090476796, -0.09195994 , -9.789049   , 5.54844446E-05, 0.000188142527, -0.000235393236, 0.009472489 , -0.009410544, 0.000120212106, 919.0776    , 32.82438    , 815.613     , 1.74        , 3           , 255         , 0           , 0
-0.0859842151, -0.09913901 , -9.785061   , 0.0004942791, -0.000240609617, -2.65729323E-05, 0.009477434 , -0.009412948, 0.000119923585, 919.0776    , 32.82438    , 815.613037  , 1.75        , 3           , 255         , 0           , 0
-0.08423425 , -0.104567811, -9.792435   , 0.000419789285, -0.000165170335, -0.0004457148, 0.009481674 , -0.009414558, 0.000115450886, 919.0776    , 32.82438    , 815.6131    , 1.76        , 3           , 255         , 0           , 0
-0.0913597345, -0.09901333 , -9.79404    , -0.000113003276, -0.0003728845, -0.000104477447, 0.009480554 , -0.009418275, 0.000114370778, 919.0776    , 32.82438    , 815.613159  , 1.77        , 3           , 255         , 0           , 0
-0.0906110555, -0.100819409, -9.792262   , 6.345729E-05, -0.000190601844, -0.00041372038, 0.009481227 , -0.009420142, 0.000110215617, 919.0776    , 32.82438    , 815.6132    , 1.78        , 3           , 255         , 0           , 0
-0.09040695 , -0.09879364 , -9.792053   , 0.000176652233, 0.000212379557, 0.000320218562, 0.009482964 , -0.009418048, 0.000113437854, 919.0776    , 32.82438    , 815.6133    , 1.79        , 3           , 255         , 0           , 0
-0.08849835 , -0.0891992  , -9.792801   , -7.12462061E-05, -0.000150159743, -0.0002653855, 0.009482276 , -0.009419525, 0.000110769819, 919.0776    , 32.82438    , 815.613342  , 1.8         , 3           , 255         , 0           , 0
-0.101622857, -0.09848426 , -9.802542   , 2.40716618E-05, 7.06629944E-05, -0.000150540989, 0.009491671 , -0.009405886, 0.000109185181, 919.0776    , 32.82438    , 815.5783    , 1.81        , 3           , 255         , 0           , 0
-0.102457941, -0.0844579041, -9.799556   , -0.0006541628, 3.43489955E-05, -0.000169146952, 0.009485145 , -0.009405527, 0.000107497013, 919.0776    , 32.82438    , 815.5782    , 1.82        , 3           , 255         , 0           , 0
-0.09365709 , -0.08555105 , -9.788655   , -0.0006013199, -1.975111E-05, -0.0004163674, 0.009479172 , -0.009405685, 0.000103331571, 919.010254  , 32.8253975  , 815.578064  , 1.83        , 3           , 255         , 0           , 0
-0.0837547  , -0.09300707 , -9.791946   , -0.0002583813, 0.0001403502, 9.284548E-05, 0.00947658  , -0.009404292, 0.000104273306, 919.010254  , 32.8253975  , 815.577942  , 1.84        , 3           , 255         , 0           , 0
-0.08990055 , -0.08670113 , -9.788128   , 0.000124046725, 0.0004913093, 0.000232657243, 0.009477797 , -0.0093994  , 0.000106646366, 919.010254  , 32.8253975  , 815.5778    , 1.85        , 3           , 255         , 0           , 0
-0.08736702 , -0.08529149 , -9.785623   , -0.0006854401, 0.000132830857, -0.000444848469, 0.009470984 , -0.00939803 , 0.000102210579, 919.010254  , 32.8253975  , 815.5777    , 1.86        , 3           , 255         , 0           , 0
-0.09964003 , -0.09811644 , -9.782349   , -0.0006260289, 8.205467E-05, 5.45555667E-05, 0.009464718 , -0.009397214, 0.000102763894, 919.010254  , 32.8253975  , 815.5776    , 1.87        , 3           , 255         , 0           , 0
-0.0982734  , -0.099931024, -9.793783   , -0.000175459369, -6.2293926E-05, -0.000132858288, 0.009462977 , -0.009397824, 0.000101429468, 919.010254  , 32.8253975  , 815.577454  , 1.88        , 3           , 255         , 0           , 0
-0.1024315  , -0.0965234041, -9.798467   , 0.000187795216, -0.000133756737, -3.85545718E-07, 0.009464854 , -0.009399162, 0.000101412945, 919.010254  , 32.8253975  , 815.577332  , 1.89        , 3           , 255         , 0           , 0
-0.101377331, -0.09018446 , -9.807058   , 0.000125339226, 4.19416974E-05, 0.000185454235, 0.009466089 , -0.00939876 , 0.000103271414, 919.010254  , 32.8253975  , 815.5772    , 1.9         , 3           , 255         , 0           , 0
-0.09490753 , -0.0902884752, -9.799048   , -0.000294925732, 0.000189102459, 0.000284412934, 0.009460632 , -0.009406773, 0.0001061567, 919.010254  , 32.8253975  , 815.6244    , 1.91        , 3           , 255         , 0           , 0
-0.0919616  , -0.08863731 , -9.787569   , -0.000232305232, -0.000263585971, 0.000340203842, 0.009458276 , -0.009409441, 0.000109533728, 919.010254  , 32.8253975  , 815.6245    , 1.92        , 3           , 255         , 0           , 0
-0.0897731259, -0.087386176, -9.789337   , -5.12823754E-05, -8.220639E-06, -7.635594E-06, 0.009457763 , -0.009409523, 0.0001094566, 919.0466    , 32.82628    , 815.624634  , 1.93        , 3           , 255         , 0           , 0
-0.08481514 , -0.07894436 , -9.797415   , -0.000245381118, 9.03635E-05 , 0.000351623516, 0.009455277 , -0.009408652, 0.00011298131, 919.0466    , 32.82628    , 815.624756  , 1.94        , 3           , 255         , 0           , 0
-0.08468141 , -0.08879502 , -9.797659   , 0.000101126323, -7.8416575E-05, 0.000341739244, 0.00945625547, -0.009409469, 0.000116391187, 919.0466    , 32.82628    , 815.6249    , 1.95        , 3           , 255         , 0           , 0
-0.0906253457, -0.09287065 , -9.789142   , 0.000109460962, -7.68723839E-05, 0.000621643849, 0.009457292 , -0.009410296, 0.000122600191, 919.0466    , 32.82628    , 815.625     , 1.96        , 3           , 255         , 0           , 0
-0.0945852846, -0.0935797244, -9.789561   , 0.0005382332, 0.000148316147, 0.0011858592, 0.009462562 , -0.009408926, 0.0001344725, 919.0466    , 32.82628    , 815.6252    , 1.97        , 3           , 255         , 0           , 0
-0.08989942 , -0.09307523 , -9.788773   , 7.109699E-05, 0.000149154948, 0.000356591481, 0.009463239 , -0.009407469, 0.000138052434, 919.0466    , 32.82628    , 815.625366  , 1.98        , 3           , 255         , 0           , 0
-0.0952062458, -0.08993201 , -9.791986   , -0.000145125232, -0.0003318893, -0.000500855269, 0.009461835 , -0.009410739, 0.000133012611, 919.0466    , 32.82628    , 815.625549  , 1.99        , 3           , 255         , 0           , 0
-0.09176387 , -0.08655287 , -9.797468   , -0.000274862366, -0.000159019779, 0.000250737678, 0.009459062 , -0.009412352, 0.000135504888, 919.0466    , 32.82628    , 815.625732  , 2           , 3           , 0           , 7.52123642  , 200
-0.103999421, -0.09759946 , -9.808832   , -0.000173186272, 1.48439722E-06, 0.0003309783, 0.009447852 , -0.009408883, 0.0001389036, 919.0466    , 32.82628    , 815.624756  , 2.01        , 3           , 1           , 0           , 0
-0.102492034, -0.0877307653, -9.798875   , 0.0001059568, 0.000394853065, 0.00120644  , 0.009448798 , -0.0094050495, 0.000151005021, 919.0466    , 32.82628    , 815.624939  , 2.02        , 3           , 2           , 0           , 0
-0.08921625 , -0.0911222845, -9.797819   , 0.0006940515, -5.19128953E-05, 6.763589E-05, 0.009455732 , -0.009405574, 0.000151676446, 919.059937  , 32.82377    , 815.6251    , 2.03        , 3           , 3           , 0           , 0
-0.0947814956, -0.09713848 , -9.794362   , -0.000327028829, 9.61217447E-05, -0.000116755029, 0.009452474 , -0.00940460153, 0.000150518012, 919.059937  , 32.82377    , 815.6253    , 2.04        , 3           , 4           , 0           , 0
-0.08958714 , -0.0862021  , -9.804144   , -0.0003881652, -8.189601E-05, -0.0006497162, 0.009448653 , -0.009405358, 0.000144013291, 919.059937  , 32.82377    , 815.6255    , 2.05        , 3           , 5           , 0           , 0
-0.09528722 , -0.08506086 , -9.801359   , -0.000109221961, -8.92130338E-05, -0.000172186672, 0.00944757648, -0.009406233, 0.000142283039, 919.059937  , 32.82377    , 815.6257    , 2.06        , 3           , 6           , 0           , 0
-0.08600144 , -0.0897064358, -9.79793549 , 0.000830699748, -0.000366435852, -0.000299342821, 0.009455911 , -0.009409868, 0.000139255048, 919.059937  , 32.82377    , 815.625854  , 2.07        , 3           , 7           , 0           , 0
-0.099156104, -0.0882926  , -9.795447   , -0.0001370786, -0.000177709255, 0.000174444387, 0.009454524 , -0.009411661, 0.000140982651, 919.059937  , 32.82377    , 815.626038  , 2.08        , 3           , 8           , 5           , 5
-0.09187362 , -0.09327809 , -9.790384   , -0.000326759618, 0.0004465452, 0.0007665928, 0.009451184 , -0.00940727 , 0.000148690611, 919.059937  , 32.82377    , 815.6262    , 2.09        , 3           , 9           , 5           , 0.1
-0.0915891454, -0.107425071, -9.79807    , 0.000110114022, -0.00020820582, 0.000396087184, 0.009452247 , -0.009409388, 0.000152631692, 919.059937  , 32.82377    , 815.6264    , 2.1         , 3           , 10          , 0.1         , 0.1
-0.09564213 , -0.0949605256, -9.79625    , -0.000336568075, 0.000354684249, -0.000119468532, 0.009448452 , -0.009409804, 0.0001514747, 919.059937  , 32.82377    , 815.6086    , 2.11        , 3           , 11          , 0.008361628 , 0.008361627
-0.101440586, -0.0895411745, -9.794924   , -0.0005433932, 9.66089356E-05, -0.00092931703, 0.009443106 , -0.0094087515, 0.0001421909, 919.059937  , 32.82377    , 815.608643  , 2.12        , 3           , 12          , 0.174643889 , 0
-0.09307998 , -0.0936338156, -9.789695   , -6.35258039E-06, 0.000164315483, -7.43062556E-05, 0.00944305  , -0.009407099, 0.000141463344, 919.0354    , 32.82302    , 815.6087    , 2.13        , 3           , 13          , 0           , 0
-0.0956186354, -0.0924749449, -9.79383    , 0.0008452595, 9.534859E-06, 0.000434683636, 0.009451461 , -0.009407045, 0.000145810947, 919.0354    , 32.82302    , 815.608765  , 2.14        , 3           , 14          , -0.000359564874, -0.000125746126
-0.0987610742, -0.103641212, -9.788679   , 0.0004352204, -0.0002273708, -0.000154741938, 0.009455827 , -0.009409305, 0.000144242091, 919.0354    , 32.82302    , 815.6088    , 2.15        , 3           , 15          , 0           , -8.376705E-05
-0.091715835, -0.0862091556, -9.793009   , -0.000171480089, 0.000106446707, -0.000371064758, 0.009454149 , -0.009408205, 0.0001405416, 919.0354    , 32.82302    , 815.6089    , 2.16        , 3           , 16          , 0           , 1.401298E-45
-0.100863636, -0.08729045 , -9.786707   , -0.000461537653, 3.815803E-06, 8.183601E-05, 0.009449526 , -0.009408174, 0.0001413603, 919.0354    , 32.82302    , 815.608948  , 2.17        , 3           , 20          , 0           , 0
-0.0900863558, -0.09281694 , -9.796687   , -3.191756E-05, 9.398967E-05, 0.0011899583, 0.00944909453, -0.009407347, 0.000153268484, 919.0354    , 32.82302    , 815.609     , 2.18        , 3           , 21          , 0           , 0
-0.09141825 , -0.101389334, -9.795568   , -2.170913E-05, 0.00029157786, 0.0006191512, 0.009448819 , -0.009404489, 0.000159487376, 919.0354    , 32.82302    , 815.6091    , 2.19        , 3           , 22          , 0           , 0
-0.09444282 , -0.097178854, -9.792709   , -0.00022992483, -0.000116699885, -7.42814445E-05, 0.009446525 , -0.009405647, 0.000158733586, 919.0354    , 32.82302    , 815.609131  , 2.2         , 3           , 40          , 0           , 0
-0.0920703  , -0.0994377062, -9.795823   , 0.000198830036, 0.000139409109, -0.000451087, 0.009451883 , -0.009412131, 0.000154204681, 919.0354    , 32.82302    , 815.6243    , 2.21        , 3           , 41          , 0           , 0
-0.09150413 , -0.0980324149, -9.792124   , 0.000297968683, -0.000120630066, 0.0001581994, 0.009454846 , -0.009413353, 0.00015577524, 919.0354    , 32.82302    , 815.6245    , 2.22        , 3           , 42          , 0           , 0
-0.0864597  , -0.097365   , -9.789125   , 1.2337201E-05, 0.000202039053, 0.0005921061, 0.009454913 , -0.009411389, 0.000161715245, 919.067566  , 32.82519    , 815.6247    , 2.23        , 3           , 255         , 0           , 0
-0.08619663 , -0.09595509 , -9.787729   , -0.000309003721, 0.000640266342, 0.0003913621, 0.009451787 , -0.009405023, 0.0001656893, 919.067566  , 32.82519    , 815.6249    , 2.24        , 3           , 255         , 0           , 0
-0.101481989, -0.09650269 , -9.790312   , -0.0002847753, 0.000315556128, -8.38352062E-05, 0.009448946 , -0.009401861, 0.0001648808, 919.067566  , 32.82519    , 815.625061  , 2.25        , 3           , 255         , 0           , 0
-0.09165369 , -0.09128965 , -9.798837   , -0.00028576082, 6.753084E-05, -6.0606E-05 , 0.009446094 , -0.009401179, 0.00016428114, 919.067566  , 32.82519    , 815.625244  , 2.26        , 3           , 255         , 0           , 0
-0.09280081 , -0.08772784 , -9.796057   , 0.000248258351, -0.000140801261, -0.000468344515, 0.009448621 , -0.009402543, 0.0001595845, 919.067566  , 32.82519    , 815.6254    , 2.27        , 3           , 255         , 0           , 0
-0.0848160163, -0.08111753 , -9.798143   , 0.000280344568, 6.510688E-05, -0.0005086234, 0.009451474 , -0.009401844, 0.000154504552, 919.067566  , 32.82519    , 815.6256    , 2.28        , 3           , 255         , 0           , 0
-0.09981157 , -0.0876598358, -9.804846   , 0.000287385134, -0.0001505204, -0.000321997417, 0.009454378 , -0.009403319, 0.000151270418, 919.067566  , 32.82519    , 815.6258    , 2.29        , 3           , 255         , 0           , 0
-0.09773519 , -0.0884867758, -9.799669   , -2.25550612E-05, -8.22771544E-05, -0.000268898963, 0.009454179 , -0.009404117, 0.00014857373, 919.067566  , 32.82519    , 815.626     , 2.3         , 3           , 255         , 0           , 0
-0.0955909342, -0.0852203444, -9.796415   , -0.000153949542, -7.619377E-05, -0.000446769176, 0.009452242 , -0.009405542, 0.000144103076, 919.067566  , 32.82519    , 815.597534  , 2.31        , 3           , 255         , 0           , 0
-0.09333877 , -0.09030938 , -9.788536   , 0.000211262522, -0.0003268724, 0.000428675616, 0.009454314 , -0.009408851, 0.000148358828, 919.067566  , 32.82519    , 815.597534  , 2.32        , 3           , 255         , 0           , 0
-0.106358409, -0.0868821144, -9.806295   , 0.000341044 , 4.71894236E-05, 0.0005119815, 0.009457675 , -0.009408427, 0.000153482979, 919.037     , 32.8260078  , 815.597534  , 2.33        , 3           , 255         , 0           , 0
-0.0958894044, -0.0923758  , -9.805609   , 0.000360390375, -0.0002779002, 0.000197241345, 0.00946126  , -0.009411225, 0.000155429065, 919.037     , 32.8260078  , 815.597534  , 2.34        , 3           , 255         , 0           , 0
-0.09226284 , -0.0989676341, -9.798441   , 2.68844014E-05, 4.18472337E-06, 0.0004982395, 0.009461483 , -0.00941123 , 0.000160411728, 919.037     , 32.8260078  , 815.597534  , 2.35        , 3           , 255         , 0           , 0
-0.09629995 , -0.09783231 , -9.792148   , -0.0005164287, 0.00053177157, 0.0007791666, 0.009456243 , -0.009405986, 0.0001682535, 919.037     , 32.8260078  , 815.597534  , 2.36        , 3           , 255         , 0           , 0
-0.09626827 , -0.09533776 , -9.793945   , 0.000131009918, -5.82380744E-05, 0.000561905035, 0.009457501 , -0.0094066225, 0.00017386688, 919.037     , 32.8260078  , 815.597534  , 2.37        , 3           , 255         , 0           , 0
-0.0818315  , -0.0926623  , -9.795908   , 7.535156E-05, -0.00035814938, 0.00031461037, 0.009458224 , -0.009410233, 0.000176979069, 919.037     , 32.8260078  , 815.597534  , 2.38        , 3           , 255         , 0           , 0
-0.09526333 , -0.09035827 , -9.7926     , -0.000298746862, 0.000411941233, 0.00115595316, 0.009455129 , -0.009406222, 0.000188577251, 919.037     , 32.8260078  , 815.597534  , 2.39        , 3           , 255         , 0           , 0
-0.09421822 , -0.09595366 , -9.791872   , -0.00016100111, 5.31822734E-05, 0.0005148817, 0.009453471 , -0.009405739, 0.000193730957, 919.037     , 32.8260078  , 815.597534  , 2.4         , 3           , 255         , 0           , 0
-0.0866931453, -0.08994265 , -9.792044   , 2.34425534E-05, 0.000283596455, -0.000112893722, 0.009453528 , -0.009407765, 0.000192630643, 919.037     , 32.8260078  , 815.613     , 2.41        , 3           , 255         , 0           , 0
-0.09954699 , -0.09557606 , -9.796929   , 0.000151297165, 0.0006236576, 0.000365661632, 0.009455004 , -0.009401565, 0.000196346155, 919.037     , 32.8260078  , 815.6131    , 2.42        , 3           , 255         , 0           , 0
-0.110684678, -0.103068613, -9.792142   , -6.185833E-05, -0.0003564025, 0.000860534259, 0.009454305 , -0.00940521 , 0.000204917582, 919.041138  , 32.82777    , 815.6132    , 2.43        , 3           , 255         , 0           , 0
-0.106562458, -0.0952758938, -9.792526   , 0.000616931356, -0.000477522175, 0.0008333393, 0.009460396 , -0.009410061, 0.000213205611, 919.041138  , 32.82777    , 815.613342  , 2.44        , 3           , 255         , 0           , 0
-0.107200086, -0.09070081 , -9.79402    , 0.000252836384, 0.000292838551, 0.0009807455, 0.009462832 , -0.009407226, 0.000223040464, 919.041138  , 32.82777    , 815.613464  , 2.45        , 3           , 255         , 0           , 0
-0.103962615, -0.0978912562, -9.793969   , -0.000250071054, -1.31936977E-05, 0.001276782 , 0.009460212 , -0.009407478, 0.000235806714, 919.041138  , 32.82777    , 815.6136    , 2.46        , 3           , 255         , 0           , 0
-0.09232829 , -0.09082108 , -9.800951   , -0.000334850629, -0.000201819319, 0.0011478964, 0.009456753 , -0.009409605, 0.00024726626, 919.041138  , 32.82777    , 815.6137    , 2.47        , 3           , 255         , 0           , 0
-0.08901457 , -0.08662064 , -9.790639   , -7.63362041E-05, 0.0001928539, 0.000353861018, 0.00945595652, -0.009407709, 0.000250823 , 919.041138  , 32.82777    , 815.613831  , 2.48        , 3           , 255         , 0           , 0
-0.08877976 , -0.100531355, -9.795815   , -0.000164094672, 6.158123E-05, 0.0006882269, 0.009454251 , -0.009407159, 0.000257710955, 919.041138  , 32.82777    , 815.613953  , 2.49        , 3           , 255         , 0           , 0
-0.0853410661, -0.09684919 , -9.795202   , -0.000314844947, 0.000409386 , 0.00012181465, 0.009451091 , -0.009403079, 0.000258967775, 919.041138  , 32.82777    , 815.6141    , 2.5         , 3           , 255         , 0           , 0
-0.09286177 , -0.09218018 , -9.791403   , 6.710281E-05, 0.000457753253, -0.0007019092, 0.009456139 , -0.00940864 , 0.0002519515, 919.041138  , 32.82777    , 815.6217    , 2.51        , 3           , 255         , 0           , 0
-0.0878616944, -0.09306996 , -9.79910851 , -0.0004956927, 0.000197315792, -0.000394059054, 0.009451221 , -0.009406629, 0.000248029653, 919.041138  , 32.82777    , 815.6219    , 2.52        , 3           , 255         , 0           , 0
-0.0928843245, -0.0885004  , -9.799904   , -4.57608548E-05, 4.91504179E-05, -0.000368319859, 0.009450799 , -0.009406103, 0.000244351162, 919.0768    , 32.82743    , 815.6221    , 2.53        , 3           , 255         , 0           , 0
-0.09900105 , -0.09554176 , -9.7866     , 0.000545387855, -8.20164E-05, 0.000479447481, 0.009456206 , -0.009406969, 0.000249137782, 919.0768    , 32.82743    , 815.622253  , 2.54        , 3           , 255         , 0           , 0
-0.1052022  , -0.0875666  , -9.789839   , 0.000237205357, -9.366716E-05, 0.000280091073, 0.009458552 , -0.009407932, 0.00025192977, 919.0768    , 32.82743    , 815.622437  , 2.55        , 3           , 255         , 0           , 0
-0.106660381, -0.0878394842, -9.793254   , 0.000332024938, -0.000163966077, 0.0001434884, 0.009461859 , -0.009409585, 0.0002533491, 919.0768    , 32.82743    , 815.6226    , 2.56        , 3           , 255         , 0           , 0
-0.102336727, -0.100238428, -9.790837   , 0.000121391131, -8.068919E-05, -6.125294E-06, 0.009463073 , -0.009410392, 0.0002532802, 919.0768    , 32.82743    , 815.6228    , 2.57        , 3           , 255         , 0           , 0
-0.105664812, -0.0955398753, -9.790374   , 0.000373855029, -2.370507E-06, -0.000235307933, 0.0094668325, -0.00941039249, 0.00025092694, 919.0768    , 32.82743    , 815.623     , 2.58        , 3           , 255         , 0           , 0
-0.09756537 , -0.0836207  , -9.797801   , 0.000391244743, -0.000357965531, -0.000165922043, 0.009470761 , -0.009413956, 0.000249233854, 919.0768    , 32.82743    , 815.623169  , 2.59        , 3           , 255         , 0           , 0
-0.08750596 , -0.0830569342, -9.796339   , 0.000422276382, -0.000268142729, 5.13689956E-05, 0.009474979 , -0.009416642, 0.000249722129, 919.0768    , 32.82743    , 815.623352  , 2.6         , 3           , 255         , 0           , 0
-0.09821578 , -0.092447184, -9.799268   , -0.000204004929, 0.000421619276, 6.89998051E-05, 0.009468744 , -0.009424735, 0.000250491517, 919.0768    , 32.82743    , 815.581543  , 2.61        , 3           , 255         , 0           , 0
-0.100913748, -0.09530615 , -9.79334    , -0.000296435726, 0.000132323781, -8.80648658E-05, 0.009465788 , -0.009423403, 0.000249623437, 919.0768    , 32.82743    , 815.5815    , 2.62        , 3           , 255         , 0           , 0
-0.09545475 , -0.09960679 , -9.796446   , 0.000117763906, -2.4327368E-05, -0.000263736525, 0.009466989 , -0.009423622, 0.000246983836, 919.0929    , 32.82465    , 815.5814    , 2.63        , 3           , 255         , 0           , 0
-0.090341866, -0.100643657, -9.796127   , -0.0004221507, -0.0001756585, -0.0006433098, 0.009462828 , -0.009425318, 0.000240534282, 919.0929    , 32.82465    , 815.58136   , 2.64        , 3           , 255         , 0           , 0
-0.09204577 , -0.09959145 , -9.793445   , -0.000566999952, 0.0003361641, 0.00117785682, 0.009457045 , -0.00942206848, 0.000252344384, 919.0929    , 32.82465    , 815.5813    , 2.65        , 3           , 255         , 0           , 0
-0.09432399 , -0.09685315 , -9.797224   , 9.29503E-05 , 0.000238381515, 0.0006675883, 0.009457912 , -0.009419748, 0.000259042572, 919.0929    , 32.82465    , 815.581238  , 2.66        , 3           , 255         , 0           , 0
-0.09526623 , -0.08933643 , -9.80112648 , -0.0003711995, -0.000119447592, 0.000251462 , 0.009454177 , -0.009420966, 0.0002615459, 919.0929    , 32.82465    , 815.5812    , 2.67        , 3           , 255         , 0           , 0
-0.09214769 , -0.09506874 , -9.796297   , 0.0004279416, 0.000260705478, -0.000382143015, 0.009458492 , -0.009418322, 0.000257749169, 919.0929    , 32.82465    , 815.5811    , 2.68        , 3           , 255         , 0           , 0
-0.104149178, -0.100064769, -9.794622   , 0.0007172695, -0.000129167485, -0.000761061, 0.00946573447, -0.00941954 , 0.000250126526, 919.0929    , 32.82465    , 815.581055  , 2.69        , 3           , 255         , 0           , 0
-0.101167582, -0.09055785 , -9.797453   , 0.000214947708, -0.000419035845, 0.000708512671, 0.009467817 , -0.009423797, 0.0002571718, 919.0929    , 32.82465    , 815.581     , 2.7         , 3           , 255         , 0           , 0
-0.096299015, -0.08990179 , -9.79793    , -0.000187765138, 2.447539E-05, 0.0005986291, 0.009471696 , -0.009430846, 0.0002631055, 919.0929    , 32.82465    , 815.5223    , 2.71        , 3           , 255         , 0           , 0
-0.0943875462, -0.09526459 , -9.792574   , -0.000129055377, -0.000157501912, 8.837094E-05, 0.009470397 , -0.009432429, 0.000263974245, 919.0929    , 32.82465    , 815.521851  , 2.72        , 3           , 255         , 0           , 0
-0.09652661 , -0.09393008 , -9.800465   , -4.4643617E-05, -1.56131864E-06, -0.000170430532, 0.009469967 , -0.009432429, 0.000262269779, 919.0797    , 32.825058   , 815.5214    , 2.73        , 3           , 255         , 0           , 0
-0.09278907 , -0.0868300647, -9.798675   , 0.000338001526, 0.000173674169, 0.000253254228, 0.009473323 , -0.009430716, 0.000264818751, 919.0797    , 32.825058   , 815.521     , 2.74        , 3           , 255         , 0           , 0
-0.08718831 , -0.09101054 , -9.797045   , 0.0009380478, 0.000228904275, 0.000473404769, 0.009482658 , -0.009428469, 0.000269574375, 919.0797    , 32.825058   , 815.520569  , 2.75        , 3           , 255         , 0           , 0
-0.09029454 , -0.0894348547, -9.805134   , 0.000120430777, 0.000534941559, -0.000262712827, 0.009483886 , -0.009423096, 0.000266998017, 919.0797    , 32.825058   , 815.520142  , 2.76        , 3           , 255         , 0           , 0
-0.100406386, -0.08624568 , -9.797075   , -0.000109965651, -0.000454914349, -8.873314E-05, 0.009482794 , -0.009427636, 0.0002660676, 919.0797    , 32.825058   , 815.5197    , 2.77        , 3           , 255         , 0           , 0
-0.09522913 , -0.09418327 , -9.794466   , 0.000403261947, -0.000442129385, 0.000390896515, 0.009486792 , -0.009432094, 0.000269934477, 919.0797    , 32.825058   , 815.5193    , 2.78        , 3           , 255         , 0           , 0
-0.08880924 , -0.09483378 , -9.791716   , -0.000292109, -0.0002113876, 0.000151166372, 0.009483856 , -0.009434221, 0.000271426077, 919.0797    , 32.825058   , 815.51886   , 2.79        , 3           , 255         , 0           , 0
-0.08407875 , -0.09588041 , -9.795705   , -0.0004430509, 0.000456390553, -0.00089283596, 0.009479507 , -0.009429574, 0.0002625412, 919.0797    , 32.825058   , 815.518433  , 2.8         , 3           , 255         , 0           , 0
-0.0994264  , -0.086758   , -9.791727   , -0.000218299072, 0.0005069023, 5.68805262E-07, 0.009475426 , -0.009424868, 0.000262612826, 919.0797    , 32.825058   , 815.4863    , 2.81        , 3           , 255         , 0           , 0
-0.09111444 , -0.08604963 , -9.797842   , 0.000406235748, -0.000269500073, -2.29837242E-05, 0.009479488 , -0.00942756049, 0.000262357469, 919.0797    , 32.825058   , 815.4857    , 2.82        , 3           , 255         , 0           , 0
-0.08101841 , -0.09395807 , -9.798068   , 0.000533312152, -0.0003341598, 0.0009969255, 0.00948473  , -0.009430994, 0.000272294768, 918.9774    , 32.82675    , 815.4851    , 2.83        , 3           , 255         , 0           , 0
-0.08633994 , -0.09154027 , -9.79231    , -0.000416795752, -4.59339062E-05, 0.00104504672, 0.00948046148, -0.009431554, 0.0002827406, 918.9774    , 32.82675    , 815.4845    , 2.84        , 3           , 255         , 0           , 0
-0.09549056 , -0.08221662 , -9.792879   , -8.97834252E-05, 9.237787E-05, 0.000116047515, 0.00947955251, -0.009430641, 0.000283909816, 918.9774    , 32.82675    , 815.4839    , 2.85        , 3           , 255         , 0           , 0
-0.0958854  , -0.0938073546, -9.796711   , 4.438791E-05, -0.000343906519, 0.000140736258, 0.009479985 , -0.009434094, 0.0002852845, 918.9774    , 32.82675    , 815.4833    , 2.86        , 3           , 255         , 0           , 0
-0.09945032 , -0.08432197 , -9.800994   , -0.00021211119, 0.000276198843, -0.0001559728, 0.00947788  , -0.00943131652, 0.000283751026, 918.9774    , 32.82675    , 815.482666  , 2.87        , 3           , 255         , 0           , 0
-0.0973126  , -0.09223282 , -9.794792   , -9.828375E-05, 0.000514065148, -0.00131186808, 0.009477018 , -0.009426053, 0.000270681339, 918.9774    , 32.82675    , 815.482056  , 2.88        , 3           , 255         , 0           , 0
-0.092303656, -0.0948184952, -9.791669   , 0.000354382268, 9.989663E-05, -0.000251601683, 0.009480586 , -0.009425029, 0.000268174917, 918.9774    , 32.82675    , 815.481445  , 2.89        , 3           , 255         , 0           , 0
-0.09586851 , -0.0905702859, -9.78931    , 0.0009639341, -0.00027930137, 0.000155585134, 0.009490211 , -0.009427834, 0.0002697042, 918.9774    , 32.82675    , 815.480835  , 2.9         , 3           , 255         , 0           , 0
-0.0962073  , -0.09148002 , -9.798695   , 0.0006930847, -0.000144714839, 0.00036738842, 0.009490843 , -0.009431336, 0.000273423357, 918.9774    , 32.82675    , 815.597168  , 2.91        , 3           , 255         , 0           , 0
-0.0998518  , -0.08934549 , -9.798848   , -7.807769E-05, 0.000180738454, 0.000130158791, 0.009490049 , -0.009429541, 0.000274742051, 918.9774    , 32.82675    , 815.597351  , 2.92        , 3           , 255         , 0           , 0
-0.0978383645, -0.09254976 , -9.812052   , 0.000533538871, 9.83384E-05 , -0.000216078886, 0.00949540548, -0.009428537, 0.000272590667, 919.0609    , 32.8260078  , 815.597534  , 2.93        , 3           , 255         , 0           , 0
-0.0801036954, -0.09561426 , -9.796774   , -5.06907527E-05, 0.000213116538, -0.000181380485, 0.009494916 , -0.00942639 , 0.000270797143, 919.0609    , 32.8260078  , 815.5977    , 2.94        , 3           , 255         , 0           , 0
-0.08819652 , -0.0907795  , -9.783755   , 5.58433821E-05, 0.00037898196, 0.000422377634, 0.009495435 , -0.009422639, 0.000275056838, 919.0609    , 32.8260078  , 815.5979    , 2.95        , 3           , 255         , 0           , 0
-0.09315687 , -0.09088179 , -9.790247   , 0.000554672035, 0.0004668062, 0.00102974125, 0.009500883 , -0.009418069, 0.000285398244, 919.0609    , 32.8260078  , 815.5981    , 2.96        , 3           , 255         , 0           , 0
-0.0988363  , -0.09470587 , -9.795015   , 0.000150942418, 0.000302699162, 0.0006300977, 0.009502333 , -0.009415103, 0.0002917279, 919.0609    , 32.8260078  , 815.598267  , 2.97        , 3           , 255         , 0           , 0
-0.0963816643, -0.0921218246, -9.794143   , -8.4047264E-05, 0.000209021469, -0.000605315145, 0.00950155  , -0.00941295549, 0.000285694725, 919.0609    , 32.8260078  , 815.59845   , 2.98        , 3           , 255         , 0           , 0
-0.0966071039, -0.08927973 , -9.802145   , -0.000123520644, 0.000438342715, -0.000141302473, 0.00950032752, -0.009408558, 0.000284323381, 919.0609    , 32.8260078  , 815.598633  , 2.99        , 3           , 255         , 0           , 0
-0.09080213 , -0.09457462 , -9.800814   , -0.000334990531, 0.000202920972, 0.000713708345, 0.0094969105, -0.009406597, 0.000291479577, 919.0609    , 32.8260078  , 815.5988    , 3           , 3           , 0           , 8.521236    , 300
-0.09346274 , -0.09111891 , -9.801247   , -0.000102538732, 0.000220664864, 0.00115793024, 0.009494319 , -0.009406879, 0.000303093257, 919.0609    , 32.8260078  , 815.5816    , 3.01        , 3           , 1           , 0           , 0
-0.09121058 , -0.0943313  , -9.793047   , 0.000142463774, 0.0002387634, 0.000516452 , 0.009495693 , -0.009404538, 0.000308280258, 919.0609    , 32.8260078  , 815.581665  , 3.02        , 3           , 2           , 0           , 0
-0.09413843 , -0.088956   , -9.79598    , 0.000261043024, -0.000229084137, -0.0007659069, 0.009498377 , -0.009406758, 0.0003005996, 919.0552    , 32.82648    , 815.5817    , 3.03        , 3           , 3           , 0           , 0
-0.0980377  , -0.09422147 , -9.795202   , 0.000313099648, 3.42507628E-05, 0.000144837948, 0.00950149447, -0.009406429, 0.0003020512, 919.0552    , 32.82648    , 815.5818    , 3.04        , 3           , 4           , 0           , 0
-0.0970651656, -0.08913465 , -9.791905   , -3.70676862E-05, 0.0005462164, 0.000874688558, 0.009501041 , -0.009401051, 0.000310849748, 919.0552    , 32.82648    , 815.581848  , 3.05        , 3           , 5           , 0           , 0
-0.09885938 , -0.08268043 , -9.794749   , 0.000205218923, 0.000248728466, 0.000488868 , 0.009503047 , -0.00939860847, 0.000315761921, 919.0552    , 32.82648    , 815.5819    , 3.06        , 3           , 6           , 0           , 0
-0.09042394 , -0.0922546759, -9.790275   , 0.000117408083, 0.000271863217, -0.000101878781, 0.00950423  , -0.009395881, 0.000314769015, 919.0552    , 32.82648    , 815.582     , 3.07        , 3           , 7           , 0           , 0
-0.0925663  , -0.09962902 , -9.793481   , 0.000303994777, -0.000149050175, 0.000456238049, 0.009507226 , -0.009397415, 0.000319317071, 919.0552    , 32.82648    , 815.582031  , 3.08        , 3           , 8           , 5           , 5
-0.0943174  , -0.09635715 , -9.794474   , 7.326764E-05, -0.000158598, 0.000469953346, 0.009507914 , -0.009399045, 0.000324001419, 919.0552    , 32.82648    , 815.5821    , 3.09        , 3           , 9           , 5           , 0.1
-0.09060785 , -0.104596592, -9.799144   , -0.0002894034, 9.113937E-06, 0.0001220582, 0.00950501  , -0.009398966, 0.000325222849, 919.0552    , 32.82648    , 815.582153  , 3.1         , 3           , 10          , 0.1         , 0.1
-0.08716005 , -0.102705993, -9.795155   , -0.0004299436, 0.0002987879, -0.000600763829, 0.009501247 , -0.009399515, 0.000319239247, 919.0552    , 32.82648    , 815.5752    , 3.11        , 3           , 11          , 0.0076175197, 0.007617517
-0.0964176357, -0.08904366 , -9.808184   , 0.000109927845, 0.000266344578, -0.000276966544, 0.009502371 , -0.009396826, 0.000316494959, 919.0552    , 32.82648    , 815.575256  , 3.12        , 3           , 12          , 0.174645633 , 0
-0.09194459 , -0.0947675  , -9.789273   , -0.000161442673, 7.938001E-05, -0.0003511851, 0.009500789 , -0.009395998, 0.0003129907, 919.021667  , 32.8244476  , 815.5753    , 3.13        , 3           , 13          , 0           , 0
-0.09600274 , -0.0985219255, -9.79988    , -0.000138646108, 6.502306E-05, -0.000161489908, 0.009499419 , -0.009395333, 0.000311382028, 919.021667  , 32.8244476  , 815.5754    , 3.14        , 3           , 14          , -0.000359556056, -0.000125556326
-0.09432654 , -0.0930977  , -9.79760551 , 0.00034760937, 0.0005910783, 0.001377909 , 0.009502765 , -0.009389553, 0.0003252169, 919.021667  , 32.8244476  , 815.575439  , 3.15        , 3           , 15          , 0           , -8.376892E-05
-0.09849037 , -0.09508952 , -9.798009   , -0.000198218215, -1.20791519E-05, 0.000418836018, 0.009500744 , -0.009389713, 0.000329404051, 919.021667  , 32.8244476  , 815.5755    , 3.16        , 3           , 16          , 0           , 1.401298E-45
-0.09445645 , -0.09140717 , -9.797231   , -0.000223119685, -0.0005915708, 0.0002017378, 0.009498493 , -0.009395647, 0.000331365183, 919.021667  , 32.8244476  , 815.575562  , 3.17        , 3           , 20          , 0           , 0
-0.09210815 , -0.0801319852, -9.792753   , 5.956393E-05, -0.000737826, -0.000434055517, 0.009499129 , -0.009402983, 0.000326954643, 919.021667  , 32.8244476  , 815.5756    , 3.18        , 3           , 21          , 0           , 0
-0.09400359 , -0.07744001 , -9.792075   , 0.000269427372, 1.27047315E-05, -0.000182476419, 0.009501842 , -0.009402839, 0.0003251311, 919.021667  , 32.8244476  , 815.5757    , 3.19        , 3           , 22          , 0           , 0
-0.09774468 , -0.0838149  , -9.802707   , 0.000154511145, 6.421925E-05, 0.000365804357, 0.009503352 , -0.009402231, 0.000328795169, 919.021667  , 32.8244476  , 815.575745  , 3.2         , 3           , 40          , 0           , 0
-0.096399866, -0.07430859 , -9.80596    , 0.0008241581, 0.000305980648, -0.000413579, 0.009507715 , -0.009402663, 0.000324725435, 919.021667  , 32.8244476  , 815.6175    , 3.21        , 3           , 41          , 0           , 0
-0.08684762 , -0.09449263 , -9.802701   , 0.000544078648, 0.000288766663, -0.000412698428, 0.009513196 , -0.009399736, 0.000320626015, 919.021667  , 32.8244476  , 815.6178    , 3.22        , 3           , 42          , 0           , 0
-0.09545802 , -0.106531933, -9.791445   , 5.02623734E-05, -9.530719E-06, -0.000470363069, 0.009513742 , -0.009399787, 0.000315921585, 919.0286    , 32.82899    , 815.6181    , 3.23        , 3           , 255         , 0           , 0
-0.09450314 , -0.08507906 , -9.79246    , 0.0003278896, -0.0001559211, -0.000312674674, 0.00951705  , -0.009401316, 0.0003127801, 919.0286    , 32.82899    , 815.618469  , 3.24        , 3           , 255         , 0           , 0
-0.08848922 , -0.096119   , -9.790307   , 0.0007678773, 0.00017430805, -0.000405422528, 0.009524767 , -0.009399535, 0.000308742543, 919.0286    , 32.82899    , 815.618835  , 3.25        , 3           , 255         , 0           , 0
-0.08634988 , -0.0986640751, -9.790038   , -8.001368E-05, 0.0007649168, -4.15417962E-05, 0.009523972 , -0.00939188153, 0.00030840002, 919.0286    , 32.82899    , 815.6192    , 3.26        , 3           , 255         , 0           , 0
-0.09376986 , -0.09693996 , -9.791131   , -6.610586E-05, 0.000306681148, 0.0007252064, 0.009523241 , -0.009388884, 0.0003156811, 919.0286    , 32.82899    , 815.619568  , 3.27        , 3           , 255         , 0           , 0
-0.09738089 , -0.09638157 , -9.793054   , 0.0002085501, 0.0004203749, 0.000689272361, 0.009525262 , -0.009384747, 0.0003226137, 919.0286    , 32.82899    , 815.619934  , 3.28        , 3           , 255         , 0           , 0
-0.09008392 , -0.08674319 , -9.794649   , 0.000161642762, 3.8821192E-05, 0.0006363201, 0.009526819 , -0.00938442 , 0.000328980415, 919.0286    , 32.82899    , 815.6203    , 3.29        , 3           , 255         , 0           , 0
-0.0982815847, -0.0814946741, -9.801437   , -0.000166555779, -7.090875E-05, 0.000161680451, 0.009525138 , -0.009385143, 0.000330590439, 919.0286    , 32.82899    , 815.620667  , 3.3         , 3           , 255         , 0           , 0
-0.09338347 , -0.08798554 , -9.806238   , -0.0002890217, 0.000156452428, 8.352556E-05, 0.009519462 , -0.009384757, 0.000331466668, 919.0286    , 32.82899    , 815.6461    , 3.31        , 3           , 255         , 0           , 0
-0.09525322 , -0.0904650241, -9.803581   , 0.000226300312, 4.43741665E-05, -0.000969438232, 0.009521815 , -0.009384222, 0.0003217768, 919.0286    , 32.82899    , 815.6466    , 3.32        , 3           , 255         , 0           , 0
-0.0831116  , -0.08543519 , -9.786136   , -0.000137407274, -0.000235403364, 0.000516972854, 0.009520392 , -0.009386625, 0.000326923939, 919.027161  , 32.82648    , 815.6471    , 3.33        , 3           , 255         , 0           , 0
-0.07940619 , -0.0911441147, -9.792046   , 0.000299472653, -1.70390122E-05, 0.000332202471, 0.009523355 , -0.009386826, 0.000330244249, 919.027161  , 32.82648    , 815.6476    , 3.34        , 3           , 255         , 0           , 0
-0.09206766 , -0.09098841 , -9.800822   , 0.00019684252, -6.917416E-05, -9.57929E-05, 0.009525333 , -0.00938751 , 0.000329279748, 919.027161  , 32.82648    , 815.6481    , 3.35        , 3           , 255         , 0           , 0
-0.08284674 , -0.0995281339, -9.801755   , -0.000477430818, -0.0002574068, 2.83612935E-05, 0.009520556 , -0.009390086, 0.000329538831, 919.027161  , 32.82648    , 815.64856   , 3.36        , 3           , 255         , 0           , 0
-0.08229964 , -0.09097151 , -9.804544   , 2.49815057E-05, -7.94847438E-05, -0.0002578205, 0.00952083  , -0.009390856, 0.000326953159, 919.027161  , 32.82648    , 815.6491    , 3.37        , 3           , 255         , 0           , 0
-0.08711024 , -0.08257811 , -9.794072   , -1.469432E-05, 0.000297171617, -0.0003119399, 0.009520711 , -0.00938785449, 0.000323862128, 919.027161  , 32.82648    , 815.649658  , 3.38        , 3           , 255         , 0           , 0
-0.0973109454, -0.08900124 , -9.793558   , -0.000118212367, -0.000398808334, -0.000526701, 0.00951958  , -0.009391792, 0.0003185573, 919.027161  , 32.82648    , 815.6502    , 3.39        , 3           , 255         , 0           , 0
-0.0971332043, -0.09113084 , -9.797223   , -0.000252196158, -0.0003898968, -0.00033213 , 0.009517091 , -0.009395658, 0.000315199 , 919.027161  , 32.82648    , 815.650757  , 3.4         , 3           , 255         , 0           , 0
-0.0864669457, -0.08888863 , -9.798119   , 0.00016753556, -6.88283E-05, 0.000170098123, 0.0095137395, -0.009391957, 0.000316940423, 919.027161  , 32.82648    , 815.674     , 3.41        , 3           , 255         , 0           , 0
-0.0918877  , -0.0971890539, -9.804291   , 1.98794E-05 , 2.13544263E-05, 0.00078344607, 0.009513865 , -0.009391818, 0.0003247767, 919.027161  , 32.82648    , 815.6747    , 3.42        , 3           , 255         , 0           , 0
-0.09846141 , -0.09127083 , -9.793151   , 0.000691268942, -0.000206769313, 0.000358558376, 0.009520741 , -0.00939392 , 0.000328342518, 919.027344  , 32.82614    , 815.675354  , 3.43        , 3           , 255         , 0           , 0
-0.08993061 , -0.091041714, -9.80105    , 4.92808758E-05, 2.691894E-05, 9.886171E-05, 0.009521225 , -0.00939366 , 0.000329333736, 919.027344  , 32.82614    , 815.676     , 3.44        , 3           , 255         , 0           , 0
-0.09295634 , -0.09438994 , -9.792446   , 0.000536806649, -0.000354085525, 0.0005495153, 0.009526542 , -0.009397253, 0.000334794982, 919.027344  , 32.82614    , 815.6767    , 3.45        , 3           , 255         , 0           , 0
-0.0945008844, -0.0951914  , -9.800825   , 0.0007463264, -0.000247449672, 0.0005288727, 0.009533956 , -0.009399777, 0.000340059982, 919.027344  , 32.82614    , 815.677368  , 3.46        , 3           , 255         , 0           , 0
-0.09305008 , -0.08759143 , -9.799122   , -0.000172512257, -0.0005443147, 0.0005132545, 0.00953218248, -0.009405269, 0.0003451405, 919.027344  , 32.82614    , 815.67804   , 3.47        , 3           , 255         , 0           , 0
-0.0897017345, -0.09556158 , -9.799481   , -0.000460882962, -3.880952E-06, 0.000603008 , 0.00952751748, -0.009405366, 0.00035117002, 919.027344  , 32.82614    , 815.6787    , 3.48        , 3           , 255         , 0           , 0
-0.0883646458, -0.101799771, -9.793533   , -0.000165548408, 0.00052304595, 0.000704405364, 0.009525796 , -0.009400202, 0.000358263671, 919.027344  , 32.82614    , 815.6794    , 3.49        , 3           , 255         , 0           , 0
-0.089425005, -0.09154098 , -9.784572   , 8.20301939E-05, 0.000924233464, -0.0004684907, 0.009526661 , -0.009390917, 0.000353666954, 919.027344  , 32.82614    , 815.680054  , 3.5         , 3           , 255         , 0           , 0
-0.0919961855, -0.09798814 , -9.795671   , 0.000109813642, -0.0001058067, 0.0005595508, 0.009527918 , -0.009391121, 0.000359250233, 919.027344  , 32.82614    , 815.6987    , 3.51        , 3           , 255         , 0           , 0
-0.0840160251, -0.09564481 , -9.792844   , -7.496434E-05, 0.000113547139, 0.000212085957, 0.009527148 , -0.009390005, 0.000361381826, 919.027344  , 32.82614    , 815.6995    , 3.52        , 3           , 255         , 0           , 0
-0.08869694 , -0.09503873 , -9.791437   , -0.0004753295, 0.000361645 , 6.983828E-05, 0.009522387 , -0.009386396, 0.0003621147, 919.0238    , 32.83035    , 815.7003    , 3.53        , 3           , 255         , 0           , 0
-0.0915267244, -0.0944057852, -9.793119   , -5.534009E-05, 0.000368867477, 0.000832406862, 0.009521754 , -0.009382787, 0.000370473659, 919.0238    , 32.83035    , 815.7011    , 3.54        , 3           , 255         , 0           , 0
-0.09787132 , -0.094982326, -9.795706   , 2.68924341E-05, 8.627577E-05, 0.0003150163, 0.009521995 , -0.009381955, 0.000373631978, 919.0238    , 32.83035    , 815.7019    , 3.55        , 3           , 255         , 0           , 0
-0.08968962 , -0.09406698 , -9.79431248 , -0.000180835981, 0.000304162852, 0.0006497896, 0.009520124 , -0.009378977, 0.000380158715, 919.0238    , 32.83035    , 815.7027    , 3.56        , 3           , 255         , 0           , 0
-0.0911003053, -0.09982995 , -9.794507   , 6.738413E-05, 0.0001272626, 0.000313832832, 0.009520767 , -0.009377733, 0.00038330903, 919.0238    , 32.83035    , 815.7035    , 3.57        , 3           , 255         , 0           , 0
-0.09424909 , -0.09629615 , -9.796907   , -0.000139369251, 0.000262505375, 8.34442253E-05, 0.009519366 , -0.009375115, 0.000384168467, 919.0238    , 32.83035    , 815.7043    , 3.58        , 3           , 255         , 0           , 0
-0.104750216, -0.09604655 , -9.796453   , -0.000147823856, 5.700026E-05, 0.000415321847, 0.00951785  , -0.009374584, 0.000388327026, 919.0238    , 32.83035    , 815.7051    , 3.59        , 3           , 255         , 0           , 0
-0.0944915637, -0.09618418 , -9.797222   , -4.429341E-06, 2.968579E-05, 0.000457304937, 0.009517763 , -0.009374331, 0.000392902759, 919.0238    , 32.83035    , 815.7059    , 3.6         , 3           , 255         , 0           , 0
-0.08881669 , -0.0934921652, -9.802025   , 0.000150889871, -3.357872E-05, -0.000149588828, 0.00952405948, -0.009376258, 0.000391358946, 919.0238    , 32.83035    , 815.7262    , 3.61        , 3           , 255         , 0           , 0
-0.09550588 , -0.102865   , -9.802659   , -0.0004322841, 5.366227E-05, 0.000300270971, 0.009519708 , -0.009375748, 0.000394366682, 919.0238    , 32.83035    , 815.7272    , 3.62        , 3           , 255         , 0           , 0
-0.0951471254, -0.09545325 , -9.791589   , 4.69971274E-05, -0.000441781769, 0.000483228039, 0.009520134 , -0.009380213, 0.000399156765, 919.0572    , 32.82709    , 815.728149  , 3.63        , 3           , 255         , 0           , 0
-0.088964276, -0.09427363 , -9.80171    , 2.339366E-06, -6.44433458E-05, -0.000386614, 0.009520193 , -0.00938082 , 0.000395284616, 919.0572    , 32.82709    , 815.7291    , 3.64        , 3           , 255         , 0           , 0
-0.09364017 , -0.09894874 , -9.799181   , -1.40425691E-05, -0.000235860862, 6.944455E-05, 0.009520046 , -0.009383185, 0.000395956566, 919.0572    , 32.82709    , 815.7301    , 3.65        , 3           , 255         , 0           , 0
-0.08565437 , -0.09421336 , -9.793654   , 0.0003313757, -0.000447038445, -0.000149528016, 0.009523375 , -0.00938764 , 0.000394418719, 919.0572    , 32.82709    , 815.7311    , 3.66        , 3           , 255         , 0           , 0
-0.08627074 , -0.08743462 , -9.808744   , 0.000276647974, -0.000109740969, 0.0005763459, 0.009526088 , -0.009388791, 0.000400171557, 919.0572    , 32.82709    , 815.732056  , 3.67        , 3           , 255         , 0           , 0
-0.0994022861, -0.101632319, -9.807124   , 3.4089142E-05, -0.00042451045, 0.0007251052, 0.009526361 , -0.009393105, 0.000407382 , 919.0572    , 32.82709    , 815.733032  , 3.68        , 3           , 255         , 0           , 0
-0.108174346, -0.0837831348, -9.795936   , -0.0005644999, 0.000495623564, 0.0005882904, 0.009520659 , -0.009388205, 0.000413311936, 919.0572    , 32.82709    , 815.734     , 3.69        , 3           , 255         , 0           , 0
-0.10386689 , -0.08341933 , -9.790335   , -1.54807349E-05, -0.0001464367, 0.000451322179, 0.009520462 , -0.009389712, 0.000417811156, 919.0572    , 32.82709    , 815.735     , 3.7         , 3           , 255         , 0           , 0
-0.09471989 , -0.09968899 , -9.792435   , 0.0007571918, -0.000145809157, 0.0004217777, 0.009528332 , -0.009394624, 0.000422011683, 919.0572    , 32.82709    , 815.7035    , 3.71        , 3           , 255         , 0           , 0
-0.0880792663, -0.0840819  , -9.795337   , 0.0008266843, 0.000192880965, 0.0003399853, 0.009536567 , -0.009392728, 0.00042542984, 919.0572    , 32.82709    , 815.7043    , 3.72        , 3           , 255         , 0           , 0
-0.0923553854, -0.0840318948, -9.803223   , 0.000248727651, 0.000710182241, 0.0003849492, 0.009539018 , -0.009385663, 0.000429346954, 919.0493    , 32.8238335  , 815.7051    , 3.73        , 3           , 255         , 0           , 0
-0.0952210948, -0.0907156244, -9.790613   , 0.00027815107, -3.41559062E-05, -0.000214144413, 0.009541819 , -0.009385984, 0.000427202263, 919.0493    , 32.8238335  , 815.7059    , 3.74        , 3           , 255         , 0           , 0
-0.081151   , -0.0936562  , -9.791491   , -0.0003485156, 1.55730231E-05, 0.000211724575, 0.009538314 , -0.009385849, 0.000429320964, 919.0493    , 32.8238335  , 815.706665  , 3.75        , 3           , 255         , 0           , 0
-0.08241117 , -0.09460823 , -9.790114   , 2.742873E-05, -2.5846326E-05, 0.000493532862, 0.009538542 , -0.009386155, 0.000434253656, 919.0493    , 32.8238335  , 815.707458  , 3.76        , 3           , 255         , 0           , 0
-0.0941631645, -0.09677313 , -9.799826   , 3.86012834E-06, 7.178941E-05, 1.34507864E-05, 0.009538578 , -0.009385439, 0.000434395 , 919.0493    , 32.8238335  , 815.708252  , 3.77        , 3           , 255         , 0           , 0
-0.09343953 , -0.09153422 , -9.806971   , -0.000155094633, -0.000343442836, 0.00022996738, 0.009537007 , -0.009388894, 0.0004366619, 919.0493    , 32.8238335  , 815.709045  , 3.78        , 3           , 255         , 0           , 0
-0.0892442241, -0.09508787 , -9.794781   , 0.0003536262, -0.000163531091, 0.000118286393, 0.009540531 , -0.00939054 , 0.0004378291, 919.0493    , 32.8238335  , 815.709839  , 3.79        , 3           , 255         , 0           , 0
-0.09369125 , -0.09605168 , -9.789252   , 0.000358919235, -0.00017578296, 0.0005873296, 0.009544064 , -0.009392353, 0.000443685421, 919.0493    , 32.8238335  , 815.710632  , 3.8         , 3           , 255         , 0           , 0
-0.09527137 , -0.092188254, -9.788646   , -5.149393E-05, -0.000328596681, -0.0001302739, 0.00954223  , -0.009393205, 0.000442363875, 919.0493    , 32.8238335  , 815.693359  , 3.81        , 3           , 255         , 0           , 0
-0.09453829 , -0.0889270157, -9.792301   , 0.000149121115, -0.000160573909, -0.000176624162, 0.009543736 , -0.009394795, 0.000440582342, 919.0493    , 32.8238335  , 815.694031  , 3.82        , 3           , 255         , 0           , 0
-0.09412038 , -0.07927762 , -9.802055   , 0.000211425708, -0.000124760685, 0.000324016146, 0.009545821 , -0.00939607248, 0.0004438105, 919.0386    , 32.82553    , 815.6947    , 3.83        , 3           , 255         , 0           , 0
-0.09115036 , -0.08694519 , -9.805015   , 0.0003372798, 0.000218934525, 5.58667671E-06, 0.009549192 , -0.009393884, 0.000443887257, 919.0386    , 32.82553    , 815.6954    , 3.84        , 3           , 255         , 0           , 0
-0.0971806049, -0.08974453 , -9.793597   , 0.0008220514, -0.000402799458, 0.000244069408, 0.009557389 , -0.009397936, 0.00044628937, 919.0386    , 32.82553    , 815.696045  , 3.85        , 3           , 255         , 0           , 0
-0.101475455, -0.09121544 , -9.794277   , -4.590678E-05, -5.043701E-05, 0.000517017732, 0.009556881 , -0.009398489, 0.000451454573, 919.0386    , 32.82553    , 815.6967    , 3.86        , 3           , 255         , 0           , 0
-0.08783552 , -0.09496911 , -9.788837   , 2.10019061E-06, 0.000111601759, 2.57814281E-05, 0.009556901 , -0.009397376, 0.000451723026, 919.0386    , 32.82553    , 815.6974    , 3.87        , 3           , 255         , 0           , 0
-0.08255124 , -0.100171387, -9.78758    , 0.000249723031, 3.596337E-05, 0.000175360416, 0.00955938  , -0.009397032, 0.000453480054, 919.0386    , 32.82553    , 815.698059  , 3.88        , 3           , 255         , 0           , 0
-0.0913750157, -0.0892268345, -9.798535   , -1.76677713E-05, -5.10261743E-05, -0.000398293138, 0.00955924  , -0.009397505, 0.000449492334, 919.0386    , 32.82553    , 815.6987    , 3.89        , 3           , 255         , 0           , 0
-0.08815971 , -0.0882387757, -9.798523   , -5.230418E-05, -1.12022244E-05, 0.0005498489, 0.009558665 , -0.009397669, 0.000454989582, 919.0386    , 32.82553    , 815.6994    , 3.9         , 3           , 255         , 0           , 0
-0.08435127 , -0.08994031 , -9.792125   , -0.000221320166, 0.000449483719, -0.0004714584, 0.009550763 , -0.00939365849, 0.000450371968, 919.0386    , 32.82553    , 815.6991    , 3.91        , 3           , 255         , 0           , 0
-0.0933477059, -0.09130504 , -9.79233    , -0.0004680852, -0.000100309917, -0.0006443694, 0.009546142 , -0.009394599, 0.0004439189, 919.0386    , 32.82553    , 815.699768  , 3.92        , 3           , 255         , 0           , 0
-0.091701664, -0.08694856 , -9.794925   , -0.0004116438, -0.000176270085, -0.000163720979, 0.00954204  , -0.009396346, 0.000442264922, 919.026855  , 32.82241    , 815.700439  , 3.93        , 3           , 255         , 0           , 0
-0.09706712 , -0.08863129 , -9.79261    , 0.00038285504, 0.000212157654, 0.0001630556, 0.009545853 , -0.00939424 , 0.000443915662, 919.026855  , 32.82241    , 815.7011    , 3.94        , 3           , 255         , 0           , 0
-0.104835749, -0.0885862038, -9.799688   , 0.000248103432, 0.0003880046, -0.000381842954, 0.00954837  , -0.00939032249, 0.000440134434, 919.026855  , 32.82241    , 815.7018    , 3.95        , 3           , 255         , 0           , 0
-0.102566004, -0.0881001949, -9.791258   , -8.642921E-05, 0.0002046849, 0.0005828501, 0.00954745151, -0.009388332, 0.000445982383, 919.026855  , 32.82241    , 815.702454  , 3.96        , 3           , 255         , 0           , 0
-0.100469694, -0.09056594 , -9.793348   , -0.000120319804, -4.633557E-05, 0.000128270622, 0.009546236 , -0.009388807, 0.000447260623, 919.026855  , 32.82241    , 815.7031    , 3.97        , 3           , 255         , 0           , 0
-0.09738219 , -0.08634696 , -9.791842   , -0.000253322854, -0.0001893972, -2.043583E-05, 0.009543705 , -0.009390699, 0.000447038183, 919.026855  , 32.82241    , 815.7038    , 3.98        , 3           , 255         , 0           , 0
-0.09466617 , -0.08909628 , -9.791428   , 6.479453E-05, 0.000242686612, 1.41042256E-05, 0.009544351 , -0.00938827451, 0.0004472024, 919.026855  , 32.82241    , 815.704468  , 3.99        , 3           , 255         , 0           , 0
-0.0970829  , -0.09517407 , -9.792605   , 2.77393265E-05, 9.484514E-05, -0.000275839237, 0.009544655 , -0.0093873  , 0.0004444531, 919.026855  , 32.82241    , 815.705139  , 4           , 3           , 0           , 9.521236    , 400
-0.09614657 , -0.0919301659, -9.796763   , 0.000149159634, 0.0001127497, 0.000398643344, 0.009538799 , -0.009394121, 0.000448518927, 919.026855  , 32.82241    , 815.720642  , 4.01        , 3           , 1           , 0           , 0
-0.09118748 , -0.09032433 , -9.798055   , 4.943213E-05, -0.0007700146, 0.0009537837, 0.009539203 , -0.009401914, 0.000457983027, 919.026855  , 32.82241    , 815.721436  , 4.02        , 3           , 2           , 0           , 0
-0.09354889 , -0.08506499 , -9.789918   , 0.00029224623, -3.23218119E-05, 0.000761438 , 0.0095420545, -0.009402307, 0.0004655941, 919.04895   , 32.8279724  , 815.7222    , 4.03        , 3           , 3           , 0           , 0
-0.08195881 , -0.08757377 , -9.79389    , 0.000402682 , 0.000320058723, 0.000384473271, 0.009546045 , -0.009399143, 0.0004694692, 919.04895   , 32.8279724  , 815.723     , 4.04        , 3           , 4           , 0           , 0
-0.0889832154, -0.09085454 , -9.801257   , -0.000100152451, -9.27764049E-05, -1.52571374E-05, 0.009545045 , -0.009400069, 0.000469307852, 919.04895   , 32.8279724  , 815.7238    , 4.05        , 3           , 5           , 0           , 0
-0.09467797 , -0.0941771939, -9.797088   , -8.19083361E-05, 0.000382718863, -0.000133191861, 0.009544239 , -0.009396228, 0.000468012469, 919.04895   , 32.8279724  , 815.7246    , 4.06        , 3           , 6           , 0           , 0
