Acc X       , Acc Y       , Acc Z       , Gyro X      , Gyro Y      , Gyro Z      , Euler X     , Euler Y     , Euler Z     , Pres X      , Pres Y      , Pres Z      , Time        , Status      , LowRate X   , LowRate Y   , LowRate Z    
-0.152476981, -9.788695   , -0.0867596641, 0           , 0           , 0           , 1.56193328  , -0.0155749731, 0           , 923.127563  , 30.7026863  , 778.9109    , 0           , 2           , 0           , 5.45923138  , 0
-0.151148319, -9.782192   , -0.07703621 , 0.0010923529, -0.0002483019, 0.000135514536, 1.56194413  , -0.0155764157, -2.470633E-06, 923.127563  , 30.7026863  , 778.9109    , 0.01        , 3           , 1           , 0           , 0
-0.150549009, -9.77731    , -0.07437054 , 0.0005399197, -0.0002241832, -0.000281970133, 1.56194961  , -0.0155736152, -4.73728142E-06, 923.127563  , 30.7026863  , 778.9109    , 0.02        , 3           , 2           , 0           , 0
-0.1453944  , -9.796211   , -0.09036494 , 0.0005062034, 0.0003506554, 0.000442896737, 1.56195462  , -0.0155780138, -1.19130618E-06, 923.0823    , 30.2703972  , 778.9109    , 0.03        , 3           , 3           , 0           , 0
-0.145444483, -9.804466   , -0.08949004 , -0.000403206272, 0.000372749055, 0.000507745368, 1.56195056  , -0.0155830579, 2.58054229E-06, 923.0823    , 30.2703972  , 778.9109    , 0.04        , 3           , 4           , 0           , 0
-0.150101036, -9.814791   , -0.08764168 , 0.000118344411, 0.000104643754, 3.26304871E-05, 1.56195176  , -0.0155833755, 3.63027061E-06, 923.0823    , 30.2703972  , 778.9109    , 0.05        , 3           , 5           , 0           , 0
-0.1521501  , -9.811537   , -0.08885614 , 0.000283088331, 2.30353326E-05, 0.00014716055, 1.56195462  , -0.0155848442, 3.87290947E-06, 923.0823    , 30.2703972  , 778.9109    , 0.06        , 3           , 6           , 0           , 0
-0.157421485, -9.782172   , -0.08069943 , 0.0007446393, -0.000108799373, 0.0001266381, 1.561962    , -0.015586121, 2.796636E-06, 923.0823    , 30.2703972  , 778.9109    , 0.07        , 3           , 7           , 0           , 0
-0.141263977, -9.773317   , -0.07728416 , -2.56212952E-05, -0.000464348763, -0.0001281115, 1.56196177  , -0.0155848814, -1.85821432E-06, 923.0823    , 30.2703972  , 778.9109    , 0.08        , 3           , 8           , 5           , 5
-0.1422301  , -9.793795   , -0.08065013 , -6.616241E-05, -8.31284E-05, 0.000176155649, 1.561961    , -0.01558665 , -2.67322048E-06, 923.0823    , 30.2703972  , 778.9109    , 0.09        , 3           , 9           , 5           , 0.1
-0.147990212, -9.800995   , -0.0885660052, -3.553336E-05, -7.19613163E-05, -0.000251936639, 1.5619607   , -0.0155841364, -3.41510918E-06, 923.0823    , 30.2703972  , 778.9109    , 0.1         , 3           , 10          , 0.1         , 0.1
-0.158852264, -9.796245   , -0.098005116, 0.000215586915, -2.79519E-05, -0.000321864733, 1.561975    , -0.0155643374, -3.912495E-06, 923.0823    , 30.2703972  , 779.3153    , 0.11        , 3           , 11          , 0.0109544508, 0.0109544508
-0.16467683 , -9.791723   , -0.08482595 , -9.5074065E-06, 0.000249990029, -0.000577301136, 1.56197488  , -0.0155585427, -1.46281923E-06, 923.0823    , 30.2703972  , 779.3153    , 0.12        , 3           , 12          , 0.174642488 , 0
-0.155801982, -9.78340149 , -0.08748801 , -0.000266985444, 0.000321589527, -0.0006770971, 1.56197214  , -0.0155517459, 1.69334908E-06, 923.0528    , 30.30961    , 779.3153    , 0.13        , 3           , 13          , 0           , 0
-0.140301064, -9.788198   , -0.08887465 , -5.36843436E-06, 0.000677815056, -7.773488E-06, 1.561972    , -0.015551609, 8.470472E-06, 923.0528    , 30.30961    , 779.3153    , 0.14        , 3           , 14          , 0.000480630435, 0.0007702359
-0.141990066, -9.798328   , -0.08961605 , 0.00017684669, -0.000401583442, 0.000307979732, 1.56197393  , -0.0155547252, 4.48206629E-06, 923.0528    , 30.30961    , 779.3153    , 0.15        , 3           , 15          , 0           , 0.000273267244
-0.156830981, -9.808868   , -0.08707369 , 0.000455271453, -0.000336329744, 0.000359842 , 1.56197846  , -0.0155583508, 1.15032265E-06, 923.0528    , 30.30961    , 779.3153    , 0.16        , 3           , 16          , 0           , 1.401298E-45
-0.1577043  , -9.799077   , -0.08524887 , 0.000165053993, 6.06562826E-05, -8.281792E-05, 1.56198025  , -0.0155575173, 1.75016714E-06, 923.0528    , 30.30961    , 779.3153    , 0.17        , 3           , 20          , 0           , 0
-0.166470081, -9.784563   , -0.07962258 , 0.000336382422, -0.0002213245, -0.000194491353, 1.56198359  , -0.0155555941, -4.806206E-07, 923.0528    , 30.30961    , 779.315369  , 0.18        , 3           , 21          , 0           , 0
-0.161683723, -9.781149   , -0.08280483 , -0.0004756779, -0.000347821042, 0.000257794483, 1.56197882  , -0.0155582  , -3.936246E-06, 923.0528    , 30.30961    , 779.3154    , 0.19        , 3           , 22          , 0           , 0
-0.163737372, -9.784968   , -0.07957454 , -0.0007173929, -0.0003014186, 0.000116384268, 1.56197166  , -0.015559392, -6.939192E-06, 923.0528    , 30.30961    , 779.3155    , 0.2         , 3           , 40          , 0           , 0
-0.153422967, -9.806086   , -0.09151728 , -0.00105854939, 0.000199763919, -0.000245908566, 1.56196141  , -0.0155760664, -4.96874372E-06, 923.0528    , 30.30961    , 779.4492    , 0.21        , 3           , 41          , 0           , 0
-0.152890265, -9.804907   , -0.08635072 , 8.839584E-05, 0.000287753879, -0.000398185279, 1.56196225  , -0.01557206 , -2.12600185E-06, 923.0528    , 30.30961    , 779.4493    , 0.22        , 3           , 42          , 0           , 0
-0.147812143, -9.790376   , -0.08235706 , -0.000245697651, -0.000121278339, -0.000242372393, 1.56195974  , -0.01556965 , -3.359222E-06, 923.042542  , 30.3357983  , 779.449341  , 0.23        , 3           , 255         , 0           , 0
-0.145809442, -9.786542   , -0.0836362  , -0.000140163669, 0.000211679609, -0.000704843435, 1.56195831  , -0.0155625828, -1.30447529E-06, 923.042542  , 30.3357983  , 779.4494    , 0.24        , 3           , 255         , 0           , 0
-0.154152781, -9.78828    , -0.0828756541, -0.000144867256, 4.52265376E-05, -3.97376425E-05, 1.56195688  , -0.0155621814, -8.559892E-07, 923.042542  , 30.3357983  , 779.449463  , 0.25        , 3           , 255         , 0           , 0
-0.1562602  , -9.793625   , -0.0791095346, -0.000364084844, -0.000265224022, -0.0001826251, 1.56195319  , -0.01556038 , -3.52408529E-06, 923.042542  , 30.3357983  , 779.4495    , 0.26        , 3           , 255         , 0           , 0
-0.159513965, -9.793536   , -0.08697944 , -0.000203490432, 0.0002096647, 3.3069955E-05, 1.56195128  , -0.01556069 , -1.42463057E-06, 923.042542  , 30.3357983  , 779.4496    , 0.27        , 3           , 255         , 0           , 0
-0.150005445, -9.799089   , -0.0763122737, 5.91937E-05 , -0.000131133362, 0.0005132825, 1.56195176  , -0.0155658359, -2.69138263E-06, 923.042542  , 30.3357983  , 779.449646  , 0.28        , 3           , 255         , 0           , 0
-0.147461176, -9.799494   , -0.07730429 , -0.000178221584, 0.0001365763, 0.000493845 , 1.56195     , -0.01557076 , -1.28025829E-06, 923.042542  , 30.3357983  , 779.4497    , 0.29        , 3           , 255         , 0           , 0
-0.145542189, -9.801542   , -0.083389245, 1.82027579E-05, -5.506398E-05, 0.000105816027, 1.56195009  , -0.0155718233, -1.821888E-06, 923.042542  , 30.3357983  , 779.449768  , 0.3         , 3           , 255         , 0           , 0
-0.148672551, -9.796336   , -0.08556314 , -0.000129077729, -0.000581817934, 3.587667E-05, 1.56195986  , -0.015568614, -7.80869E-06, 923.042542  , 30.3357983  , 779.524536  , 0.31        , 3           , 255         , 0           , 0
-0.155395016, -9.797333   , -0.08317001 , 0.000222540228, 0.000231274345, 0.000162618031, 1.561962    , -0.01557022 , -5.481498E-06, 923.042542  , 30.3357983  , 779.5246    , 0.32        , 3           , 255         , 0           , 0
-0.165722892, -9.788897   , -0.0864154249, 6.565824E-05, 9.004952E-05, 9.240856E-05, 1.5619626   , -0.015571136, -4.57334863E-06, 923.0835    , 30.3502483  , 779.524658  , 0.33        , 3           , 255         , 0           , 0
-0.1616081  , -9.794605   , -0.09214187 , -0.000475130975, 9.9161E-05  , -0.00107055856, 1.561958    , -0.0155604221, -3.67637585E-06, 923.0835    , 30.3502483  , 779.5247    , 0.34        , 3           , 255         , 0           , 0
-0.152300149, -9.796951   , -0.08687455 , -0.000435359, -3.51739582E-05, -0.0009272385, 1.56195354  , -0.0155511582, -4.109957E-06, 923.0835    , 30.3502483  , 779.5248    , 0.35        , 3           , 255         , 0           , 0
-0.144068524, -9.791999   , -0.08714505 , 8.980074E-05, -5.064759E-05, -0.000144307938, 1.56195438  , -0.0155497165, -4.628767E-06, 923.0835    , 30.3502483  , 779.524841  , 0.36        , 3           , 255         , 0           , 0
-0.143794626, -9.805871   , -0.08401576 , 0.00042654312, 6.82581449E-05, -0.00070968084, 1.56195855  , -0.0155426171, -4.00843055E-06, 923.0835    , 30.3502483  , 779.5249    , 0.37        , 3           , 255         , 0           , 0
-0.171244264, -9.801013   , -0.08129838 , 0.000552409736, 0.000129367283, -0.000145846818, 1.56196415  , -0.0155411456, -2.72910461E-06, 923.0835    , 30.3502483  , 779.524963  , 0.38        , 3           , 255         , 0           , 0
-0.1786236  , -9.79257    , -0.0948820859, 0.000115902978, -0.000483780343, 0.0005732569, 1.56196547  , -0.0155469179, -7.51575135E-06, 923.0835    , 30.3502483  , 779.525     , 0.39        , 3           , 255         , 0           , 0
-0.171656221, -9.790407   , -0.0957497954, 0.000251171528, -0.000443505123, -3.528979E-05, 1.561968    , -0.0155466078, -1.19535716E-05, 923.0835    , 30.3502483  , 779.5251    , 0.4         , 3           , 255         , 0           , 0
-0.150855511, -9.790478   , -0.0878681242, -0.000471542764, -0.000361878629, -0.000204242824, 1.56195986  , -0.0155658135, -1.55386733E-05, 923.0835    , 30.3502483  , 779.46936   , 0.41        , 3           , 255         , 0           , 0
-0.147420824, -9.793665   , -0.08253207 , 0.000473265158, -0.0007074667, -0.000270556775, 1.56196463  , -0.0155631732, -2.26366737E-05, 923.0835    , 30.3502483  , 779.4694    , 0.42        , 3           , 255         , 0           , 0
-0.138063163, -9.80126    , -0.07309509 , 0.000117709074, -0.000100451754, 0.000671944465, 1.56196582  , -0.0155698983, -2.35816187E-05, 923.0838    , 30.3619175  , 779.4695    , 0.43        , 3           , 255         , 0           , 0
-0.141085029, -9.79776    , -0.07679642 , 0.000558535336, 0.000461340533, 0.0004938819, 1.56197143  , -0.0155747961, -1.89244438E-05, 923.0838    , 30.3619175  , 779.469543  , 0.44        , 3           , 255         , 0           , 0
-0.143628165, -9.793012   , -0.08213146 , 0.000120231445, 0.0001536163, 0.0007945305, 1.56197262  , -0.0155827282, -1.73181852E-05, 923.0838    , 30.3619175  , 779.4696    , 0.45        , 3           , 255         , 0           , 0
-0.165452316, -9.785805   , -0.08921538 , 4.441585E-05, -0.0008565347, 0.000555482 , 1.56197309  , -0.015588358, -2.58347663E-05, 923.0838    , 30.3619175  , 779.469666  , 0.46        , 3           , 255         , 0           , 0
-0.177700952, -9.802836   , -0.09185843 , 0.000368982466, -0.000524268951, -0.000137368159, 1.56197691  , -0.01558703 , -3.10899268E-05, 923.0838    , 30.3619175  , 779.4697    , 0.47        , 3           , 255         , 0           , 0
-0.1641179  , -9.794887   , -0.09237771 , 0.00015710984, -8.58129351E-05, -0.000238096443, 1.56197846  , -0.015584657, -3.196874E-05, 923.0838    , 30.3619175  , 779.4698    , 0.48        , 3           , 255         , 0           , 0
-0.144265026, -9.795126   , -0.08445684 , 0.000103654427, -1.27502135E-05, -0.000699426, 1.56197941  , -0.0155776646, -3.215828E-05, 923.0838    , 30.3619175  , 779.469849  , 0.49        , 3           , 255         , 0           , 0
-0.141683266, -9.799154   , -0.08595812 , -0.0004994463, -0.00022808183, -0.0007662743, 1.56197441  , -0.0155700231, -3.45064254E-05, 923.0838    , 30.3619175  , 779.4699    , 0.5         , 3           , 255         , 0           , 0
-0.146746546, -9.799242   , -0.08143048 , -0.000235584012, -0.000601649, -0.0002925323, 1.56197774  , -0.0155635066, -4.06348045E-05, 923.0838    , 30.3619175  , 779.4356    , 0.51        , 3           , 255         , 0           , 0
-0.1573896  , -9.800024   , -0.08593912 , 0.000186415447, -0.0002902997, 0.000398831646, 1.56197953  , -0.0155675206, -4.35026959E-05, 923.0838    , 30.3619175  , 779.435669  , 0.52        , 3           , 255         , 0           , 0
-0.157704741, -9.796699   , -0.0850209743, -0.000226530508, -0.0004624292, 0.00147371111, 1.56197739  , -0.0155822961, -4.799735E-05, 923.0628    , 30.37189    , 779.4357    , 0.53        , 3           , 255         , 0           , 0
-0.151984349, -9.797266   , -0.08700606 , 0.000313162862, 0.0003713179, 0.000269212382, 1.56198049  , -0.0155849559, -4.42595E-05, 923.0628    , 30.37189    , 779.4358    , 0.54        , 3           , 255         , 0           , 0
-0.152332664, -9.799075   , -0.09288046 , 0.00014777988, -0.000111201836, 0.00048392624, 1.561982    , -0.0155898053, -4.53301836E-05, 923.0628    , 30.37189    , 779.4359    , 0.55        , 3           , 255         , 0           , 0
-0.153571621, -9.798986   , -0.08273207 , 0.0008703011, 0.000232230464, 0.000899756444, 1.56199074  , -0.0155987805, -4.292849E-05, 923.0628    , 30.37189    , 779.436035  , 0.56        , 3           , 255         , 0           , 0
-0.167485863, -9.793302   , -0.07848614 , 0.000933694129, -3.42966523E-05, 0.000600239262, 1.56200016  , -0.0156047856, -4.32181623E-05, 923.0628    , 30.37189    , 779.436157  , 0.57        , 3           , 255         , 0           , 0
-0.15632835 , -9.78599548 , -0.08280972 , -0.000156638911, -0.0002959415, 0.000344159635, 1.56199861  , -0.015608253, -4.6147532E-05, 923.0628    , 30.37189    , 779.4363    , 0.58        , 3           , 255         , 0           , 0
-0.161065847, -9.791933   , -0.0903910846, -0.000643516541, 0.000202162773, 0.000410674867, 1.56199217  , -0.0156123387, -4.4089993E-05, 923.0628    , 30.37189    , 779.4364    , 0.59        , 3           , 255         , 0           , 0
-0.163178712, -9.801137   , -0.08949441 , -2.88377632E-05, -0.00022484886, 4.249529E-05, 1.56199181  , -0.0156127848, -4.633429E-05, 923.0628    , 30.37189    , 779.4365    , 0.6         , 3           , 255         , 0           , 0
-0.152990788, -9.810287   , -0.08283126 , -4.08560736E-05, -0.000147479586, -0.000285354763, 1.56199372  , -0.0156212114, -4.786837E-05, 923.0628    , 30.37189    , 779.446533  , 0.61        , 3           , 255         , 0           , 0
-0.131423548, -9.7962265  , -0.08575482 , 0.000164596044, -0.000435832742, -0.000371890346, 1.56199539  , -0.0156175308, -5.22596238E-05, 923.0628    , 30.37189    , 779.446655  , 0.62        , 3           , 255         , 0           , 0
-0.1362396  , -9.793848   , -0.07854705 , 0.000366150256, -0.00045984803, -8.40203E-05, 1.5619992   , -0.01561673 , -5.68651121E-05, 923.0189    , 30.3750782  , 779.4468    , 0.63        , 3           , 255         , 0           , 0
-0.150117546, -9.791923   , -0.09036278 , 1.38446048E-05, -0.0002564506, 0.0008991505, 1.56199932  , -0.0156257432, -5.9350652E-05, 923.0189    , 30.3750782  , 779.4469    , 0.64        , 3           , 255         , 0           , 0
-0.15647164 , -9.792652   , -0.08176405 , 0.000305287744, 3.70905036E-06, 0.00056349067, 1.56200242  , -0.01563138 , -5.92640354E-05, 923.0189    , 30.3750782  , 779.447     , 0.65        , 3           , 255         , 0           , 0
-0.165716767, -9.79059    , -0.07670121 , 0.000402006 , -0.0003637676, 0.0008875119, 1.56200647  , -0.0156402811, -6.2824E-05 , 923.0189    , 30.3750782  , 779.447144  , 0.66        , 3           , 255         , 0           , 0
-0.160465568, -9.780359   , -0.07864414 , -0.000118989788, -0.00022330886, 0.000386344764, 1.56200528  , -0.0156441666, -6.502266E-05, 923.0189    , 30.3750782  , 779.447266  , 0.67        , 3           , 255         , 0           , 0
-0.153186277, -9.799501   , -0.0848523  , -0.0006403122, 0.0002631368, 6.171383E-05, 1.56199884  , -0.01564476 , -6.23857559E-05, 923.0189    , 30.3750782  , 779.4474    , 0.68        , 3           , 255         , 0           , 0
-0.139707372, -9.791128   , -0.0747794062, 0.000196330511, 6.106921E-05, 0.000211129809, 1.56200087  , -0.0156468656, -6.175704E-05, 923.0189    , 30.3750782  , 779.4475    , 0.69        , 3           , 255         , 0           , 0
-0.145719558, -9.786276   , -0.07729984 , -0.000143499143, -0.000151913846, -0.0004743912, 1.56199944  , -0.0156421326, -6.33181262E-05, 923.0189    , 30.3750782  , 779.447632  , 0.7         , 3           , 255         , 0           , 0
-0.151576728, -9.79156    , -0.08654932 , -0.000198633992, 0.000219968962, -0.000142602, 1.56201386  , -0.0156279244, -6.138724E-05, 923.0189    , 30.3750782  , 779.515137  , 0.71        , 3           , 255         , 0           , 0
-0.153760314, -9.800324   , -0.09163456 , -0.000440768257, 0.0001365458, -0.000244293857, 1.56200945  , -0.0156254675, -6.00436433E-05, 923.0189    , 30.3750782  , 779.5153    , 0.72        , 3           , 255         , 0           , 0
-0.162990436, -9.807698   , -0.08965713 , 0.0005091863, -1.24555663E-05, 0.000143960468, 1.56201458  , -0.01562691 , -6.01554166E-05, 923.088867  , 30.3786068  , 779.5155    , 0.73        , 3           , 255         , 0           , 0
-0.14966172 , -9.799509   , -0.08021597 , -0.000129909167, 8.494774E-05, 0.00124331075, 1.56201315  , -0.0156393331, -5.919652E-05, 923.088867  , 30.3786068  , 779.5157    , 0.74        , 3           , 255         , 0           , 0
-0.151465416, -9.79531    , -0.07975681 , -0.000466851576, -0.000166374026, 0.00076447  , 1.5620085   , -0.0156469923, -6.07920738E-05, 923.088867  , 30.3786068  , 779.515869  , 0.75        , 3           , 255         , 0           , 0
-0.135545433, -9.785383   , -0.08200585 , -0.0001689384, -0.000269330863, 0.000122838072, 1.56200683  , -0.0156482439, -6.347461E-05, 923.088867  , 30.3786068  , 779.516052  , 0.76        , 3           , 255         , 0           , 0
-0.145155266, -9.785652   , -0.08201947 , 0.0003384437, 0.000192836218, -0.000229296944, 1.56201017  , -0.0156459343, -6.156563E-05, 923.088867  , 30.3786068  , 779.516235  , 0.77        , 3           , 255         , 0           , 0
-0.1532722  , -9.787343   , -0.09495342 , -0.0005895251, 0.000183432829, -7.895628E-05, 1.56200433  , -0.01564513 , -5.9738617E-05, 923.088867  , 30.3786068  , 779.5164    , 0.78        , 3           , 255         , 0           , 0
-0.161546379, -9.796601   , -0.0976089  , -0.000190655381, 1.79745257E-07, 0.0008855145, 1.56200242  , -0.01565398 , -5.96589925E-05, 923.088867  , 30.3786068  , 779.5166    , 0.79        , 3           , 255         , 0           , 0
-0.168178633, -9.804727   , -0.09002815 , 0.000136433315, -0.000314381177, 0.000360216247, 1.56200373  , -0.01565761 , -6.277139E-05, 923.088867  , 30.3786068  , 779.5168    , 0.8         , 3           , 255         , 0           , 0
-0.159345642, -9.794052   , -0.0715960562, -0.000256120053, -7.702218E-05, 5.39860048E-05, 1.56199741  , -0.0156583171, -6.34769458E-05, 923.088867  , 30.3786068  , 779.4812    , 0.81        , 3           , 255         , 0           , 0
-0.157144487, -9.781701   , -0.06629904 , 0.000130180211, -0.0003947562, 0.000192680774, 1.56199884  , -0.0156602748, -6.740763E-05, 923.088867  , 30.3786068  , 779.4813    , 0.82        , 3           , 255         , 0           , 0
-0.152950019, -9.79099751 , -0.06296571 , -0.000486807, -3.45095759E-06, 0.000101145561, 1.561994    , -0.0156612862, -6.743323E-05, 923.0642    , 30.3836937  , 779.481445  , 0.83        , 3           , 255         , 0           , 0
-0.14592728 , -9.793985   , -0.07995376 , -0.00012762082, 7.956772E-05, -0.000185538869, 1.56199265  , -0.0156594254, -6.665362E-05, 923.0642    , 30.3836937  , 779.4816    , 0.84        , 3           , 255         , 0           , 0
-0.157074973, -9.805468   , -0.0874376446, -0.000357512617, 0.000241027738, -3.70036869E-05, 1.561989    , -0.0156590343, -6.424725E-05, 923.0642    , 30.3836937  , 779.4818    , 0.85        , 3           , 255         , 0           , 0
-0.169267237, -9.803769   , -0.086586   , 0.000554488739, 7.217936E-05, -3.579918E-05, 1.56199455  , -0.015658671, -6.352864E-05, 923.0642    , 30.3836937  , 779.482     , 0.86        , 3           , 255         , 0           , 0
-0.150579736, -9.783539   , -0.0728411749, -0.00023390312, -0.000653414056, 0.0008311727, 1.56199229  , -0.015667038, -6.99891E-05, 923.0642    , 30.3836937  , 779.4822    , 0.87        , 3           , 255         , 0           , 0
-0.146471426, -9.791992   , -0.08167628 , -0.000181323, -9.85194347E-05, -0.0003296756, 1.5619905   , -0.01566375 , -7.100297E-05, 923.0642    , 30.3836937  , 779.482361  , 0.88        , 3           , 255         , 0           , 0
-0.15064466 , -9.794775   , -0.08601947 , 8.849974E-05, -0.000269306183, -0.000479433278, 1.56199121  , -0.0156589821, -7.373811E-05, 923.0642    , 30.3836937  , 779.482544  , 0.89        , 3           , 255         , 0           , 0
-0.158909962, -9.799416   , -0.08428035 , 0.000589892967, 5.468825E-05, -0.00090721203, 1.56199718  , -0.0156499054, -7.32709959E-05, 923.0642    , 30.3836937  , 779.4827    , 0.9         , 3           , 255         , 0           , 0
-0.155061573, -9.789881   , -0.08233784 , 0.0002518986, -2.94673955E-05, -0.0006094212, 1.56202424  , -0.0156481  , -7.400264E-05, 923.0642    , 30.3836937  , 779.482666  , 0.91        , 3           , 255         , 0           , 0
-0.163768679, -9.800587   , -0.0949545354, -0.00024668948, 0.00059362594, 0.00019914977, 1.56202161  , -0.01565004 , -6.804843E-05, 923.0642    , 30.3836937  , 779.482849  , 0.92        , 3           , 255         , 0           , 0
-0.146366388, -9.782182   , -0.09765425 , -0.000194009335, 9.875983E-05, -0.0006738296, 1.56201971  , -0.015643293, -6.711932E-05, 923.087341  , 30.3837624  , 779.483032  , 0.93        , 3           , 255         , 0           , 0
-0.143025   , -9.800196   , -0.0950429142, 0.000116237788, 0.0001277912, -0.00105244061, 1.56202078  , -0.0156327561, -6.59336E-05, 923.087341  , 30.3837624  , 779.4832    , 0.94        , 3           , 255         , 0           , 0
-0.118149146, -9.833605   , -0.0986863  , 4.763878E-05, -0.000301721651, -0.0006334201, 1.56202137  , -0.015626451, -6.900686E-05, 923.087341  , 30.3837624  , 779.4834    , 0.95        , 3           , 255         , 0           , 0
-0.0413705  , -9.858647   , -0.106177256, 0.000620121253, -0.000123885577, -0.000139671465, 1.56202757  , -0.0156250652, -7.025871E-05, 923.087341  , 30.3837624  , 779.4836    , 0.96        , 3           , 255         , 0           , 0
-0.0585761368, -9.75572    , -0.100681022, 0.00366659625, 7.883052E-05, 0.00159048277, 1.56206429  , -0.0156409666, -6.933007E-05, 923.087341  , 30.3837624  , 779.483765  , 0.97        , 3           , 255         , 0           , 0
-0.266223818, -9.724802   , -0.08889198 , 0.000186836463, 0.0006219158, 0.000510229031, 1.56206608  , -0.0156460125, -6.30671057E-05, 923.087341  , 30.3837624  , 779.483948  , 0.98        , 3           , 255         , 0           , 0
-0.330120474, -9.788238   , -0.126619309, -0.000709091662, -4.61874879E-05, 0.00112321787, 1.562059    , -0.0156572461, -6.343131E-05, 923.087341  , 30.3837624  , 779.484131  , 0.99        , 3           , 255         , 0           , 0
-0.2605698  , -9.80137    , -0.100826457, -0.00236284733, -0.000298016646, -0.000189225771, 1.56203532  , -0.01565538 , -6.64272739E-05, 923.087341  , 30.3837624  , 779.4843    , 1           , 3           , 0           , 6.459236    , 100
-0.131432071, -9.82679    , -0.109564349, -0.0006041508, -0.000377186458, -0.0006344686, 1.561991    , -0.015693   , -6.965428E-05, 923.087341  , 30.3837624  , 779.45874   , 1.01        , 3           , 1           , 0           , 0
-0.09594581 , -9.832689   , -0.06458863 , 0.000853496836, -0.000231530459, -0.000743708457, 1.56199956  , -0.0156855825, -7.20354947E-05, 923.087341  , 30.3837624  , 779.458862  , 1.02        , 3           , 2           , 0           , 0
-0.07018247 , -9.764768   , -0.0375332162, 0.00151267915, -4.66733472E-05, 0.000138197327, 1.56201458  , -0.0156869683, -7.249003E-05, 923.0883    , 30.3893929  , 779.459     , 1.03        , 3           , 3           , 0           , 0
-0.09344151 , -9.734803   , -0.004506237, -0.000271382334, 0.000327375426, 0.000616543344, 1.56201184  , -0.0156931076, -6.916201E-05, 923.0883    , 30.3893929  , 779.4591    , 1.04        , 3           , 4           , 0           , 0
-0.123270966, -9.810583   , -0.06116692 , -0.00154844439, 0.000382097147, -0.000510441256, 1.56199646  , -0.0156879667, -6.538596E-05, 923.0883    , 30.3893929  , 779.4592    , 1.05        , 3           , 5           , 0           , 0
-0.19866927 , -9.84997    , -0.08545599 , 0.0007260152, -0.0004258753, 0.000596111931, 1.56200373  , -0.0156939663, -6.959187E-05, 923.0883    , 30.3893929  , 779.459351  , 1.06        , 3           , 6           , 0           , 0
-0.208179548, -9.8171     , -0.0845836252, 0.0012260098, 0.000176832371, -9.67184E-05, 1.56201589  , -0.0156929847, -6.783192E-05, 923.0883    , 30.3893929  , 779.4595    , 1.07        , 3           , 7           , 0           , 0
-0.169193938, -9.761977   , -0.07224812 , 0.000150028558, 0.000434097776, -0.000374657364, 1.56201744  , -0.0156892017, -6.352495E-05, 923.0883    , 30.3893929  , 779.4596    , 1.08        , 3           , 8           , 5           , 5
-0.107279137, -9.770212   , -0.08927323 , -0.0007231328, 0.000677316159, -0.0007945439, 1.56201     , -0.015681196, -5.68213945E-05, 923.0883    , 30.3893929  , 779.4597    , 1.09        , 3           , 9           , 5           , 0.1
-0.1579694  , -9.768336   , -0.06684528 , 0.0001991961, 0.0005388951, 0.0009897989, 1.56201208  , -0.0156910457, -5.134548E-05, 923.0883    , 30.3893929  , 779.459839  , 1.1         , 3           , 10          , 0.1         , 0.1
-0.1769233  , -9.824644   , -0.08934142 , -0.00234225579, 0.000333378266, -0.0009875147, 1.56204259  , -0.0156283751, -4.89409322E-05, 923.0883    , 30.3893929  , 779.4371    , 1.11        , 3           , 11          , 0.009349376 , 0.009349376
-0.174873829, -9.840352   , -0.105172768, -0.000100774836, 0.000268525153, 0.000236778753, 1.56204152  , -0.015630722, -4.62351E-05, 923.0883    , 30.3893929  , 779.4372    , 1.12        , 3           , 12          , 0.174642846 , 0
-0.15876478 , -9.791672   , -0.106951788, 0.0008853818, -0.00053362886, 0.00040663837, 1.56205046  , -0.015634831, -5.15359134E-05, 923.0637    , 30.3876972  , 779.4373    , 1.13        , 3           , 13          , 0           , 0
-0.168872625, -9.747643   , -0.08266162 , 0.0008075241, -0.000308579445, 0.0003149637, 1.56205857  , -0.0156380069, -5.459429E-05, 923.0637    , 30.3876972  , 779.437439  , 1.14        , 3           , 14          , 0.0004805661, 0.0007702369
-0.151939362, -9.779791   , -0.08834493 , -0.001229343, -0.00038295798, -0.000596373633, 1.56204629  , -0.0156320781, -5.84760455E-05, 923.0637    , 30.3876972  , 779.437561  , 1.15        , 3           , 15          , 0           , 0.0002732746
-0.1328127  , -9.825979   , -0.08891598 , -0.0004992134, -0.00035057796, -0.0004899892, 1.5620414   , -0.01562721 , -6.202481E-05, 923.0637    , 30.3876972  , 779.4377    , 1.16        , 3           , 16          , 0           , 1.401298E-45
-0.121101618, -9.828646   , -0.08908093 , -0.0003792136, 0.000247067946, -0.00121636922, 1.56203759  , -0.0156150246, -5.96603459E-05, 923.0637    , 30.3876972  , 779.4378    , 1.17        , 3           , 20          , 0           , 0
-0.115842089, -9.812197   , -0.08657022 , 0.00151474366, 0.000114072056, 3.10915348E-05, 1.56205261  , -0.0156153236, -5.85160851E-05, 923.0637    , 30.3876972  , 779.4379    , 1.18        , 3           , 21          , 0           , 0
-0.162140936, -9.772147   , -0.08573936 , 0.00109476259, -0.0003181909, 0.0008217618, 1.56206357  , -0.0156235695, -6.162756E-05, 923.0637    , 30.3876972  , 779.438049  , 1.19        , 3           , 22          , 0           , 0
-0.176660627, -9.752386   , -0.07583277 , -0.00040108143, -8.949079E-06, 0.000312432181, 1.56205964  , -0.015626695, -6.168903E-05, 923.0637    , 30.3876972  , 779.4382    , 1.2         , 3           , 40          , 0           , 0
-0.169422328, -9.78526    , -0.09349646 , -0.00160078041, -1.53378933E-05, -0.000178145536, 1.56203437  , -0.0156266671, -6.171371E-05, 923.0637    , 30.3876972  , 779.443665  , 1.21        , 3           , 41          , 0           , 0
-0.138426244, -9.838402   , -0.106133439, -0.000274642865, -0.000281458953, -0.000131212117, 1.56203163  , -0.01562538 , -6.453922E-05, 923.0637    , 30.3876972  , 779.4438    , 1.22        , 3           , 42          , 0           , 0
-0.144147247, -9.811878   , -0.09989531 , 0.00163377577, -0.000333884527, -0.000358808553, 1.562048    , -0.0156218223, -6.790963E-05, 923.0775    , 30.39231    , 779.4439    , 1.23        , 3           , 255         , 0           , 0
-0.138816133, -9.773832   , -0.0872320756, 0.0005150635, -5.17019653E-05, -0.0003438851, 1.56205308  , -0.0156183895, -6.845683E-05, 923.0775    , 30.39231    , 779.444031  , 1.24        , 3           , 255         , 0           , 0
-0.14317441 , -9.772898   , -0.0830756947, -0.000357344165, 0.000306637725, 2.92089535E-05, 1.56204951  , -0.015618654, -6.538821E-05, 923.0775    , 30.39231    , 779.444153  , 1.25        , 3           , 255         , 0           , 0
-0.164980173, -9.786499   , -0.08631941 , -0.00109347515, -0.000173989742, 0.001182085 , 1.56203866  , -0.01563049 , -6.70243E-05, 923.0775    , 30.39231    , 779.4443    , 1.26        , 3           , 255         , 0           , 0
-0.1876164  , -9.807482   , -0.088424325, -0.0007180991, 0.0002000038, 0.000153667788, 1.56203139  , -0.0156320073, -6.50105358E-05, 923.0775    , 30.39231    , 779.4444    , 1.27        , 3           , 255         , 0           , 0
-0.173870116, -9.823515   , -0.09473517 , 0.000109765155, 0.000491485349, -0.000752338732, 1.56203246  , -0.0156244421, -6.016147E-05, 923.0775    , 30.39231    , 779.4445    , 1.28        , 3           , 255         , 0           , 0
-0.133358687, -9.795074   , -0.08637932 , 0.000450990279, -2.48478027E-05, 0.000102427293, 1.562037    , -0.0156254675, -6.04013221E-05, 923.0775    , 30.39231    , 779.444641  , 1.29        , 3           , 255         , 0           , 0
-0.116604425, -9.772881   , -0.0798535  , 0.000275065016, 0.000180242816, 0.000472290936, 1.56203973  , -0.0156301763, -5.85575435E-05, 923.0775    , 30.39231    , 779.444763  , 1.3         , 3           , 255         , 0           , 0
-0.130181834, -9.782733   , -0.08491242 , -0.0005559672, -0.000415155577, -0.000176105183, 1.56202316  , -0.0156239728, -6.25534E-05, 923.0775    , 30.39231    , 779.4354    , 1.31        , 3           , 255         , 0           , 0
-0.170778111, -9.817682   , -0.09112617 , -0.0003152943, -3.28196329E-05, 0.000342179526, 1.56202     , -0.0156273972, -6.285193E-05, 923.0775    , 30.39231    , 779.435547  , 1.32        , 3           , 255         , 0           , 0
-0.185924381, -9.824163   , -0.0835763961, 0.000552509329, -0.000409841276, 2.45444244E-06, 1.56202555  , -0.0156274568, -6.695071E-05, 923.1099    , 30.392107   , 779.435669  , 1.33        , 3           , 255         , 0           , 0
-0.185039669, -9.785728   , -0.07242483 , -0.000136795948, 6.428978E-06, -0.0015260228, 1.56202412  , -0.015612199, -6.701915E-05, 923.1099    , 30.392107   , 779.4358    , 1.34        , 3           , 255         , 0           , 0
-0.160774559, -9.770625   , -0.06658286 , -0.0002824276, -4.04633465E-05, -0.000602421642, 1.56202137  , -0.0156061789, -6.74769544E-05, 923.1099    , 30.392107   , 779.4359    , 1.35        , 3           , 255         , 0           , 0
-0.124842763, -9.776892   , -0.06707617 , -0.00145925535, 0.0002829178, -0.0008064129, 1.56200671  , -0.0155980894, -6.47189663E-05, 923.1099    , 30.392107   , 779.436035  , 1.36        , 3           , 255         , 0           , 0
-0.1270833  , -9.79987049 , -0.07510789 , -0.001951402, 0.000180950155, -0.0001571158, 1.56198728  , -0.0155965025, -6.292409E-05, 923.1099    , 30.392107   , 779.436157  , 1.37        , 3           , 255         , 0           , 0
-0.138165236, -9.818891   , -0.0949080437, -0.00062927563, 0.000323872257, -0.000921485247, 1.561981    , -0.0155872656, -5.976696E-05, 923.1099    , 30.392107   , 779.4363    , 1.38        , 3           , 255         , 0           , 0
-0.1695035  , -9.806712   , -0.09244444 , 0.000681043137, 5.7755562E-05, -0.000860480242, 1.56198788  , -0.0155786537, -5.926539E-05, 923.1099    , 30.392107   , 779.4364    , 1.39        , 3           , 255         , 0           , 0
-0.183624536, -9.773935   , -0.0844442844, -0.000170933141, 0.000100380508, 0.0001008618, 1.56198609  , -0.0155796539, -5.82524481E-05, 923.1099    , 30.392107   , 779.4365    , 1.4         , 3           , 255         , 0           , 0
-0.176621675, -9.758759   , -0.06869248 , -0.0008091913, -0.000282041641, -0.000213180436, 1.56198907  , -0.0155884661, -6.126239E-05, 923.1099    , 30.392107   , 779.3946    , 1.41        , 3           , 255         , 0           , 0
-0.153807953, -9.780522   , -0.07737911 , -0.002264277, -0.00037349583, -0.000709987769, 1.5619663   , -0.0155814  , -6.50598449E-05, 923.1099    , 30.392107   , 779.394531  , 1.42        , 3           , 255         , 0           , 0
-0.138352469, -9.769019   , -0.08681449 , -0.002032728, -0.000115758681, -0.00151464227, 1.561946    , -0.0155662643, -6.635033E-05, 923.112244  , 30.3920383  , 779.3945    , 1.43        , 3           , 255         , 0           , 0
-0.129017547, -9.78687    , -0.0883613452, -0.00275005028, -0.000127425476, -0.00189508114, 1.56191862  , -0.0155473268, -6.779311E-05, 923.112244  , 30.3920383  , 779.3944    , 1.44        , 3           , 255         , 0           , 0
-0.134562418, -9.773529   , -0.08835696 , -0.003305132, -7.328548E-05, -0.00172343419, 1.56188548  , -0.0155301  , -6.867935E-05, 923.112244  , 30.3920383  , 779.394348  , 1.45        , 3           , 255         , 0           , 0
-0.1490077  , -9.794873   , -0.100591108, -0.00354818767, -0.000170900486, -0.001493106, 1.56185007  , -0.0155151831, -7.052125E-05, 923.112244  , 30.3920383  , 779.3943    , 1.46        , 3           , 255         , 0           , 0
-0.172475964, -9.870559   , -0.102863051, -0.00224847067, -0.000395102339, 0.000202914787, 1.56182754  , -0.0155172488, -7.445377E-05, 923.112244  , 30.3920383  , 779.3942    , 1.47        , 3           , 255         , 0           , 0
-0.193902284, -9.8676815  , -0.09262108 , -0.00019209765, -0.000217395253, 0.000484801218, 1.56182575  , -0.0155221159, -7.658443E-05, 923.112244  , 30.3920383  , 779.3942    , 1.48        , 3           , 255         , 0           , 0
-0.177085981, -9.820255   , -0.06411781 , 0.0013853698, -0.000237896631, -0.00105120218, 1.5618397   , -0.0155116254, -7.90573758E-05, 923.112244  , 30.3920383  , 779.3942    , 1.49        , 3           , 255         , 0           , 0
-0.1466848  , -9.75888252 , -0.0494252332, 0.000708412263, 6.15272438E-06, -0.000970038, 1.56184673  , -0.0155019248, -7.908345E-05, 923.112244  , 30.3920383  , 779.3942    , 1.5         , 3           , 255         , 0           , 0
-0.127223581, -9.75149    , -0.04825097 , -0.0005754069, -1.18592288E-06, 0.000104777951, 1.56185162  , -0.0155128213, -7.924973E-05, 923.112244  , 30.3920383  , 779.3538    , 1.51        , 3           , 255         , 0           , 0
-0.12370646 , -9.782673   , -0.06709099 , -0.00115032634, -0.00027941732, -0.000211027393, 1.56184     , -0.015510736, -8.206313E-05, 923.112244  , 30.3920383  , 779.353638  , 1.52        , 3           , 255         , 0           , 0
-0.137058347, -9.846323   , -0.09552508 , -0.0004925533, 0.00017300027, -6.90967E-05, 1.56183517  , -0.015510032, -8.03394942E-05, 923.099365  , 30.3959732  , 779.353455  , 1.53        , 3           , 255         , 0           , 0
-0.158218965, -9.844107   , -0.09823595 , 0.00230627274, -0.000119867153, 0.000444666337, 1.56185818  , -0.0155144855, -8.149822E-05, 923.099365  , 30.3959732  , 779.3533    , 1.54        , 3           , 255         , 0           , 0
-0.175535768, -9.781344   , -0.0844985  , 0.0028884043, -0.000195614586, 0.000284098933, 1.561887    , -0.0155173456, -8.342955E-05, 923.099365  , 30.3959732  , 779.3531    , 1.55        , 3           , 255         , 0           , 0
-0.177132756, -9.727836   , -0.07459155 , 0.0008613534, 5.85307134E-05, -0.000390411355, 1.56189573  , -0.0155134378, -8.28795237E-05, 923.099365  , 30.3959732  , 779.3529    , 1.56        , 3           , 255         , 0           , 0
-0.15329212 , -9.74436    , -0.0729947239, -0.00162308058, -2.62315152E-05, -0.0008860795, 1.5618794   , -0.0155045809, -8.322089E-05, 923.099365  , 30.3959732  , 779.3527    , 1.57        , 3           , 255         , 0           , 0
-0.142758608, -9.810662   , -0.0943592042, -0.0009115207, 0.000342763262, -0.000152826455, 1.56187034  , -0.0155030219, -7.980671E-05, 923.099365  , 30.3959732  , 779.352539  , 1.58        , 3           , 255         , 0           , 0
-0.136408687, -9.827985   , -0.100245379, -0.00017397583, 0.000155280635, -0.000413789356, 1.56186855  , -0.0154988719, -7.82907955E-05, 923.099365  , 30.3959732  , 779.352356  , 1.59        , 3           , 255         , 0           , 0
-0.1512486  , -9.809454   , -0.114848576, 0.0008167789, -0.000203371164, -0.0006587695, 1.56187677  , -0.0154923024, -8.038325E-05, 923.099365  , 30.3959732  , 779.3522    , 1.6         , 3           , 255         , 0           , 0
-0.166132241, -9.773222   , -0.106449142, 0.000966620049, -0.000214250351, 0.000313117955, 1.56189287  , -0.0154852672, -8.259588E-05, 923.099365  , 30.3959732  , 779.329041  , 1.61        , 3           , 255         , 0           , 0
-0.172016   , -9.760287   , -0.108265661, -0.000304675952, 0.000148012943, 0.0003792191, 1.56188977  , -0.0154890465, -8.10827551E-05, 923.099365  , 30.3959732  , 779.328735  , 1.62        , 3           , 255         , 0           , 0
-0.164873332, -9.79272652 , -0.111881152, -0.0008539371, 5.4912E-05  , -0.000202912619, 1.56188118  , -0.0154870125, -8.055231E-05, 923.1022    , 30.3991623  , 779.3284    , 1.63        , 3           , 255         , 0           , 0
-0.150755256, -9.810432   , -0.118475094, 0.000133040245, 4.169607E-05, -0.000242659356, 1.56188262  , -0.0154845808, -8.015738E-05, 923.1022    , 30.3991623  , 779.3281    , 1.64        , 3           , 255         , 0           , 0
-0.152139157, -9.794778   , -0.11163862 , 0.000367987668, 7.5355E-05  , 0.000729190069, 1.56188631  , -0.0154918665, -7.933912E-05, 923.1022    , 30.3991623  , 779.3278    , 1.65        , 3           , 255         , 0           , 0
-0.150867522, -9.773469   , -0.0973090455, 0.00042756513, 1.43825309E-05, 0.0005902912, 1.56189048  , -0.0154977692, -7.914212E-05, 923.1022    , 30.3991623  , 779.3275    , 1.66        , 3           , 255         , 0           , 0
-0.157549992, -9.776921   , -0.09419644 , -0.000381735241, -0.000466276251, 0.000429766224, 1.56188667  , -0.0155021083, -8.376623E-05, 923.1022    , 30.3991623  , 779.3272    , 1.67        , 3           , 255         , 0           , 0
-0.150480479, -9.791359   , -0.101750731, -0.00066188944, -0.000556985149, 0.000151261891, 1.56188011  , -0.01550367 , -8.93236356E-05, 923.1022    , 30.3991623  , 779.3269    , 1.68        , 3           , 255         , 0           , 0
-0.1504446  , -9.80666351 , -0.0898722559, -0.000210473227, -0.0003170309, -8.621083E-05, 1.56187809  , -0.0155028366, -9.250123E-05, 923.1022    , 30.3991623  , 779.3266    , 1.69        , 3           , 255         , 0           , 0
-0.14316377 , -9.805924   , -0.08448198 , 6.435689E-05, -0.0005575678, 0.000107127562, 1.5618788   , -0.0155039569, -9.806749E-05, 923.1022    , 30.3991623  , 779.3263    , 1.7         , 3           , 255         , 0           , 0
-0.149361536, -9.793933   , -0.0705989152, -6.12163858E-05, -0.0003630064, -3.80980782E-06, 1.56182277  , -0.0155193051, -0.000100837126, 923.1022    , 30.3991623  , 779.302551  , 1.71        , 3           , 255         , 0           , 0
-0.1541737  , -9.776474   , -0.06672303 , -0.000462706346, -0.000100253848, -0.000123206613, 1.56181812  , -0.0155180814, -0.000101850521, 923.1022    , 30.3991623  , 779.3021    , 1.72        , 3           , 255         , 0           , 0
-0.157935336, -9.795551   , -0.06528524 , -0.0005924919, 0.000342308951, -0.0002708694, 1.56181216  , -0.0155153424, -9.84521757E-05, 923.0734    , 30.3999767  , 779.3017    , 1.73        , 3           , 255         , 0           , 0
-0.165401429, -9.803609   , -0.06416837 , 3.760055E-05, 0.000387084146, -1.32824352E-05, 1.5618124   , -0.0155151747, -9.4583E-05 , 923.0734    , 30.3999767  , 779.3013    , 1.74        , 3           , 255         , 0           , 0
-0.164403751, -9.79972    , -0.0659465641, 5.401668E-05, -4.65448829E-05, -0.000114364084, 1.561813    , -0.0155140348, -9.505897E-05, 923.0734    , 30.3999767  , 779.300842  , 1.75        , 3           , 255         , 0           , 0
-0.157581419, -9.800141   , -0.06577873 , 0.000440380682, -6.902829E-05, -0.000122420126, 1.56181741  , -0.0155128166, -9.575987E-05, 923.0734    , 30.3999767  , 779.3004    , 1.76        , 3           , 255         , 0           , 0
-0.139624715, -9.794235   , -0.06441797 , 0.000661245664, 0.000401957484, -0.0006938294, 1.561824    , -0.0155058419, -9.18022E-05, 923.0734    , 30.3999767  , 779.3       , 1.77        , 3           , 255         , 0           , 0
-0.133257017, -9.794761   , -0.06772383 , 0.0002720589, 0.000155307876, -0.000697108568, 1.56182659  , -0.01549886 , -9.031142E-05, 923.0734    , 30.3999767  , 779.299561  , 1.78        , 3           , 255         , 0           , 0
-0.136149019, -9.802896   , -0.08107443 , 0.000284123031, 1.3007666E-06, -0.0003675553, 1.56182945  , -0.0154951848, -9.033051E-05, 923.0734    , 30.3999767  , 779.299133  , 1.79        , 3           , 255         , 0           , 0
-0.147089839, -9.811313   , -0.08704744 , 0.00023552755, 0.000118677854, -5.236111E-05, 1.56183183  , -0.01549465 , -8.91485251E-05, 923.0734    , 30.3999767  , 779.2987    , 1.8         , 3           , 255         , 0           , 0
-0.160876185, -9.789373   , -0.0959419161, 0.00109675864, -0.000464999583, -4.55785339E-05, 1.56187832  , -0.01549127 , -9.435291E-05, 923.0734    , 30.3999767  , 779.310242  , 1.81        , 3           , 255         , 0           , 0
-0.16579169 , -9.769004   , -0.08825068 , 0.0003804899, -7.14372145E-05, 0.0003133171, 1.56188214  , -0.0154944109, -9.5039366E-05, 923.0734    , 30.3999767  , 779.309937  , 1.82        , 3           , 255         , 0           , 0
-0.160774231, -9.77784252 , -0.0902883038, 8.152306E-05, -8.87471251E-05, -0.000192903739, 1.561883    , -0.01549249 , -9.594379E-05, 923.026733  , 30.3961773  , 779.309631  , 1.83        , 3           , 255         , 0           , 0
-0.144291252, -9.789752   , -0.09416337 , -0.0007823392, -5.44854556E-05, -0.000694948132, 1.5618751   , -0.0154855447, -9.655155E-05, 923.026733  , 30.3961773  , 779.3093    , 1.84        , 3           , 255         , 0           , 0
-0.1384441  , -9.802691   , -0.09964903 , 4.12025838E-06, 0.000152897323, -0.0005679921, 1.5618751   , -0.0154798515, -9.507289E-05, 923.026733  , 30.3961773  , 779.309     , 1.85        , 3           , 255         , 0           , 0
-0.137638941, -9.80938148 , -0.09089478 , 0.00039955994, -3.96735268E-05, 0.000431610621, 1.56187916  , -0.0154841729, -9.543241E-05, 923.026733  , 30.3961773  , 779.3087    , 1.86        , 3           , 255         , 0           , 0
-0.143147334, -9.795358   , -0.106106721, 0.000937192 , 0.000345126726, -5.003449E-05, 1.56188858  , -0.01548364 , -9.198473E-05, 923.026733  , 30.3961773  , 779.3084    , 1.87        , 3           , 255         , 0           , 0
-0.153210685, -9.786535   , -0.107549652, 0.0001263624, 0.000242346548, 0.000195554952, 1.56188977  , -0.0154855745, -8.954483E-05, 923.026733  , 30.3961773  , 779.3081    , 1.88        , 3           , 255         , 0           , 0
-0.160915524, -9.788928   , -0.104265079, -0.0005230144, -0.000197682763, 0.000126238156, 1.56188452  , -0.0154868541, -9.15101555E-05, 923.026733  , 30.3961773  , 779.3078    , 1.89        , 3           , 255         , 0           , 0
-0.16306524 , -9.797686   , -0.09563778 , 4.20263677E-05, -5.05186035E-05, -1.24679063E-05, 1.561885    , -0.0154867331, -9.201686E-05, 923.026733  , 30.3961773  , 779.3075    , 1.9         , 3           , 255         , 0           , 0
-0.149313644, -9.798633   , -0.08965406 , -8.538438E-05, 0.000324801251, -0.000134997157, 1.5618552   , -0.01548889 , -8.833444E-05, 923.026733  , 30.3961773  , 779.3727    , 1.91        , 3           , 255         , 0           , 0
-0.140518546, -9.785881   , -0.0862122551, 0.0007263343, -0.0003300889, -0.000419248245, 1.56186247  , -0.015484727, -9.167363E-05, 923.026733  , 30.3961773  , 779.372742  , 1.92        , 3           , 255         , 0           , 0
-0.138429314, -9.783786   , -0.0828500241, 0.0005110592, -9.28517E-05, -4.58023424E-05, 1.56186759  , -0.015484279, -9.260552E-05, 923.0869    , 30.3971939  , 779.3728    , 1.93        , 3           , 255         , 0           , 0
-0.14288798 , -9.787025   , -0.0824367851, -0.000417693635, -0.000220289687, -0.000232854509, 1.56186342  , -0.0154819693, -9.482931E-05, 923.0869    , 30.3971939  , 779.372864  , 1.94        , 3           , 255         , 0           , 0
-0.152284116, -9.796614   , -0.08785867 , -0.000149350992, 7.894647E-06, 4.752798E-05, 1.56186187  , -0.0154824452, -9.474641E-05, 923.0869    , 30.3971939  , 779.3729    , 1.95        , 3           , 255         , 0           , 0
-0.1549099  , -9.795698   , -0.08214589 , 0.000244761875, 3.262912E-05, 0.000797841349, 1.56186438  , -0.0154904174, -9.434871E-05, 923.0869    , 30.3971939  , 779.373     , 1.96        , 3           , 255         , 0           , 0
-0.158205658, -9.800525   , -0.07776257 , 0.00042090565, -0.000160643074, 0.0005175824, 1.56186855  , -0.0154956086, -9.590933E-05, 923.0869    , 30.3971939  , 779.373047  , 1.97        , 3           , 255         , 0           , 0
-0.156053513, -9.794141   , -0.06324316 , 0.0004658433, -0.000487036654, -0.000363453815, 1.56187332  , -0.0154920174, -0.000100812875, 923.0869    , 30.3971939  , 779.3731    , 1.98        , 3           , 255         , 0           , 0
-0.148543745, -9.786871   , -0.06939717 , -1.0569056E-05, 1.13294809E-05, -0.000104290317, 1.56187308  , -0.0154909743, -0.000100708086, 923.0869    , 30.3971939  , 779.373169  , 1.99        , 3           , 255         , 0           , 0
-0.154293209, -9.791463   , -0.07255098 , -0.000245456671, 0.000298417464, -0.0005166472, 1.56187069  , -0.0154857831, -9.776986E-05, 923.0869    , 30.3971939  , 779.3732    , 2           , 3           , 0           , 7.459236    , 200
-0.151415676, -9.796791   , -0.08245421 , 7.741054E-05, 0.000178413291, 0.000103029481, 1.56189227  , -0.0154814441, -9.62995837E-05, 923.0869    , 30.3971939  , 779.360352  , 2.01        , 3           , 1           , 0           , 0
-0.1655841  , -9.793883   , -0.08376905 , -5.1729905E-05, -0.000256480358, 2.84588023E-05, 1.56189191  , -0.0154817505, -9.886243E-05, 923.0869    , 30.3971939  , 779.360352  , 2.02        , 3           , 2           , 0           , 0
-0.162648946, -9.78645    , -0.0907102153, -2.00537615E-05, -0.000365900458, -7.38335075E-06, 1.56189167  , -0.0154817095, -0.000102521568, 923.062134  , 30.3966522  , 779.360352  , 2.03        , 3           , 3           , 0           , 0
-0.149467662, -9.797473   , -0.08407704 , 0.0001438118, -0.000249837234, 0.0005008209, 1.56189322  , -0.0154867405, -0.00010497636, 923.062134  , 30.3966522  , 779.360352  , 2.04        , 3           , 4           , 0           , 0
-0.1437138  , -9.7998     , -0.08034298 , -2.47689313E-05, -0.000113387767, 0.0002727336, 1.561893    , -0.0154894749, -0.000106086183, 923.062134  , 30.3966522  , 779.360352  , 2.05        , 3           , 5           , 0           , 0
-0.14553827 , -9.795826   , -0.08833848 , -9.68115637E-05, 5.194702E-05, 0.000145869941, 1.561892    , -0.0154909287, -0.0001055534, 923.062134  , 30.3966522  , 779.360352  , 2.06        , 3           , 6           , 0           , 0
-0.152344137, -9.802463   , -0.0905834362, 0.00016927172, 0.000197606452, -0.000492017367, 1.56189358  , -0.0154859917, -0.000103620674, 923.062134  , 30.3966522  , 779.360352  , 2.07        , 3           , 7           , 0           , 0
-0.146869913, -9.800298   , -0.101462424, 0.000311366224, 0.000321234518, -1.79716153E-07, 1.56189668  , -0.0154859619, -0.000100408615, 923.062134  , 30.3966522  , 779.360352  , 2.08        , 3           , 8           , 5           , 5
-0.154506   , -9.787712   , -0.105393484, 0.0003781126, 5.141768E-05, -0.000133980808, 1.5619005   , -0.0154846162, -9.990657E-05, 923.062134  , 30.3966522  , 779.360352  , 2.09        , 3           , 9           , 5           , 0.1
-0.147072747, -9.791249   , -0.09923206 , 2.85350834E-05, -0.000441396725, 0.000386020954, 1.56190085  , -0.0154885137, -0.000104287123, 923.062134  , 30.3966522  , 779.360352  , 2.1         , 3           , 10          , 0.1         , 0.1
-0.148422837, -9.790941   , -0.09642234 , 0.000103090628, -0.00014438451, -0.000253291772, 1.561895    , -0.0154863708, -0.000105647014, 923.062134  , 30.3966522  , 779.3792    , 2.11        , 3           , 11          , 0.00825409  , 0.008254087
-0.149633124, -9.79476452 , -0.09038848 , -3.0803E-05 , 0.00064371957, -0.0005617152, 1.56189466  , -0.015480699, -9.926014E-05, 923.062134  , 30.3966522  , 779.379333  , 2.12        , 3           , 12          , 0.174643889 , 0
-0.146342769, -9.792793   , -0.08992812 , -0.0002956086, 0.0004574299, -0.000125304767, 1.56189167  , -0.0154794045, -9.4697054E-05, 923.048462  , 30.4006538  , 779.379456  , 2.13        , 3           , 13          , 0           , 0
-0.159427524, -9.794757   , -0.08982505 , 0.00020901594, 1.41111086E-05, -0.000362203515, 1.5618937   , -0.0154757816, -9.45880747E-05, 923.048462  , 30.4006538  , 779.3796    , 2.14        , 3           , 14          , 0.000480618939, 0.000770236365
-0.15544267 , -9.794909   , -0.0869925  , 0.000152972731, -2.76666833E-06, -0.000703554833, 1.56189525  , -0.0154687483, -9.467794E-05, 923.048462  , 30.4006538  , 779.3797    , 2.15        , 3           , 15          , 0           , 0.0002732406
-0.1522362  , -9.790587   , -0.08998309 , -0.000632558833, 0.0004085817, -0.0005647512, 1.56188881  , -0.0154630654, -9.06425E-05, 923.048462  , 30.4006538  , 779.3799    , 2.16        , 3           , 16          , 0           , 1.401298E-45
-0.14101541 , -9.798891   , -0.08644235 , -0.0002600939, 0.000261261826, -0.000287707371, 1.56188631  , -0.0154601643, -8.80563748E-05, 923.048462  , 30.4006538  , 779.380066  , 2.17        , 3           , 20          , 0           , 0
-0.149041221, -9.806707   , -0.08612255 , 0.000161441887, 0.0001969795, 0.00037408137, 1.561888    , -0.0154638877, -8.605379E-05, 923.048462  , 30.4006538  , 779.380249  , 2.18        , 3           , 21          , 0           , 0
-0.146784112, -9.799726   , -0.08167293 , 0.0001489486, 0.000242500333, -0.000149387663, 1.56188941  , -0.0154623725, -8.364277E-05, 923.048462  , 30.4006538  , 779.380432  , 2.19        , 3           , 22          , 0           , 0
-0.15382041 , -9.794763   , -0.08489664 , 0.00022463096, 0.000461675 , -0.000363624655, 1.56189156  , -0.0154586947, -7.905778E-05, 923.048462  , 30.4006538  , 779.3806    , 2.2         , 3           , 40          , 0           , 0
-0.1597428  , -9.794939   , -0.07451408 , 5.751924E-05, 0.000193356071, -8.8432E-05 , 1.56189     , -0.0154551947, -7.710037E-05, 923.048462  , 30.4006538  , 779.414551  , 2.21        , 3           , 41          , 0           , 0
-0.152067572, -9.792758   , -0.0822955742, 6.6900684E-05, -0.000105984625, -0.0003908435, 1.56189084  , -0.0154512934, -7.819526E-05, 923.048462  , 30.4006538  , 779.4149    , 2.22        , 3           , 42          , 0           , 0
-0.1538896  , -9.797627   , -0.08330446 , -9.222381E-05, 3.72493523E-05, -0.00035893335, 1.56188989  , -0.0154477023, -7.785482E-05, 923.0721    , 30.3984165  , 779.4153    , 2.23        , 3           , 255         , 0           , 0
-0.139396623, -9.809242   , -0.0875641257, 1.73044973E-05, 3.84012237E-05, -6.71192538E-07, 1.56189     , -0.015447692, -7.747107E-05, 923.0721    , 30.3984165  , 779.415649  , 2.24        , 3           , 255         , 0           , 0
-0.145912379, -9.798314   , -0.08971767 , 0.000353187148, -0.000100879173, -0.000260568, 1.56189358  , -0.0154450936, -7.8502635E-05, 923.0721    , 30.3984165  , 779.416     , 2.25        , 3           , 255         , 0           , 0
-0.141923755, -9.790403   , -0.08396982 , 0.000515965 , 5.12035331E-05, 5.55919542E-05, 1.56189883  , -0.015445645, -7.798615E-05, 923.0721    , 30.3984165  , 779.4164    , 2.26        , 3           , 255         , 0           , 0
-0.147038728, -9.798154   , -0.08664869 , 3.27341259E-05, -0.000278925931, 0.0007000145, 1.56189919  , -0.0154526681, -8.07134056E-05, 923.0721    , 30.3984165  , 779.416748  , 2.27        , 3           , 255         , 0           , 0
-0.154687732, -9.791074   , -0.0892347246, -0.0003559402, 0.000114560884, 0.000333001633, 1.56189561  , -0.0154559882, -7.9538404E-05, 923.0721    , 30.3984165  , 779.4171    , 2.28        , 3           , 255         , 0           , 0
-0.153050631, -9.789162   , -0.09586821 , 0.0006646107, 0.0006956815, 0.000225172174, 1.56190217  , -0.0154581778, -7.256149E-05, 923.0721    , 30.3984165  , 779.4175    , 2.29        , 3           , 255         , 0           , 0
-0.152671173, -9.798364   , -0.0868208  , 0.000438476622, -0.000139934942, -0.000210331869, 1.56190658  , -0.015456087, -7.39796E-05, 923.0721    , 30.3984165  , 779.417847  , 2.3         , 3           , 255         , 0           , 0
-0.147986859, -9.793305   , -0.08587445 , 0.000149376167, -0.0003547616, -0.000104784034, 1.56191051  , -0.0154526569, -7.757307E-05, 923.0721    , 30.3984165  , 779.4173    , 2.31        , 3           , 255         , 0           , 0
-0.149333015, -9.791555   , -0.09627268 , 9.089301E-05, -0.000259331428, -0.000458927185, 1.56191134  , -0.0154480943, -8.020622E-05, 923.0721    , 30.3984165  , 779.417664  , 2.32        , 3           , 255         , 0           , 0
-0.149544686, -9.804922   , -0.0864520445, -0.0004263931, 7.7075616E-05, 0.000794487831, 1.56190717  , -0.0154560311, -7.936562E-05, 923.0756    , 30.3998413  , 779.418     , 2.33        , 3           , 255         , 0           , 0
-0.146980613, -9.804717   , -0.09437345 , -7.32406625E-06, 8.23107548E-05, 0.000487180485, 1.56190717  , -0.0154608944, -7.849939E-05, 923.0756    , 30.3998413  , 779.418457  , 2.34        , 3           , 255         , 0           , 0
-0.15550755 , -9.798357   , -0.09129164 , 0.000309897063, -0.000469453662, 0.000660316669, 1.56191015  , -0.0154675394, -8.313467E-05, 923.0756    , 30.3998413  , 779.4189    , 2.35        , 3           , 255         , 0           , 0
-0.1531005  , -9.791784   , -0.0864158943, 0.0006619039, -0.000378289464, 0.0007905877, 1.56191683  , -0.0154754771, -8.684693E-05, 923.0756    , 30.3998413  , 779.4193    , 2.36        , 3           , 255         , 0           , 0
-0.152742475, -9.788759   , -0.0839207  , 0.00060663966, -0.000196435489, -0.000135028109, 1.56192291  , -0.0154741472, -8.882295E-05, 923.0756    , 30.3998413  , 779.419739  , 2.37        , 3           , 255         , 0           , 0
-0.150900364, -9.793924   , -0.08404751 , 0.000501688453, 1.85983372E-05, -0.0002618163, 1.56192791  , -0.0154715264, -8.866041E-05, 923.0756    , 30.3998413  , 779.420166  , 2.38        , 3           , 255         , 0           , 0
-0.142817512, -9.79425    , -0.08525763 , 4.757254E-05, 0.000595056335, -0.000695370371, 1.56192839  , -0.01546452 , -8.277096E-05, 923.0756    , 30.3998413  , 779.4206    , 2.39        , 3           , 255         , 0           , 0
-0.150606364, -9.791544   , -0.0850095153, -5.26521471E-05, 0.000319186831, 2.30431324E-05, 1.5619278   , -0.0154647222, -7.957706E-05, 923.0756    , 30.3998413  , 779.421     , 2.4         , 3           , 255         , 0           , 0
-0.14613077 , -9.79315    , -0.07941268 , 0.000236993015, 0.000112371228, 4.53889661E-05, 1.56192863  , -0.015462203, -7.842441E-05, 923.0756    , 30.3998413  , 779.4154    , 2.41        , 3           , 255         , 0           , 0
-0.139993265, -9.790252   , -0.08501487 , 0.000160133 , 0.00033446023, 0.000819214969, 1.5619303   , -0.015470366, -7.500698E-05, 923.0756    , 30.3998413  , 779.4158    , 2.42        , 3           , 255         , 0           , 0
-0.140767351, -9.799919   , -0.0840110257, 0.000460082432, 0.0003375691, 0.000309422467, 1.56193483  , -0.0154734273, -7.16035356E-05, 923.0671    , 30.39923    , 779.416138  , 2.43        , 3           , 255         , 0           , 0
-0.151425391, -9.797247   , -0.08646858 , 0.0006264668, 0.000111633446, 0.000111131143, 1.561941    , -0.015474529, -7.047836E-05, 923.0671    , 30.39923    , 779.4165    , 2.44        , 3           , 255         , 0           , 0
-0.148102567, -9.7936     , -0.08762136 , 0.000237744884, 3.6401907E-06, 0.0005565237, 1.56194341  , -0.0154800937, -7.039268E-05, 923.0671    , 30.39923    , 779.4169    , 2.45        , 3           , 255         , 0           , 0
-0.145258352, -9.798837   , -0.0884197354, -0.000129647844, 5.78071922E-05, 0.0001751656, 1.5619421   , -0.01548184 , -6.979889E-05, 923.0671    , 30.39923    , 779.417236  , 2.46        , 3           , 255         , 0           , 0
-0.162890434, -9.796407   , -0.0848401338, 0.0007763944, 0.000235065876, 0.00044836392, 1.56194973  , -0.0154863028, -6.740837E-05, 923.0671    , 30.39923    , 779.4176    , 2.47        , 3           , 255         , 0           , 0
-0.1486927  , -9.801408   , -0.0870786458, 0.000191340048, -0.0003092116, 0.000250063924, 1.56195164  , -0.0154888313, -7.047838E-05, 923.0671    , 30.39923    , 779.417969  , 2.48        , 3           , 255         , 0           , 0
-0.1520885  , -9.796701   , -0.09897065 , 0.000354817137, -0.0003127599, 0.0001099247, 1.56195521  , -0.0154899573, -7.359589E-05, 923.0671    , 30.39923    , 779.418335  , 2.49        , 3           , 255         , 0           , 0
-0.148407891, -9.793871   , -0.0908728  , 0.000134031929, 2.41446542E-05, 0.0006485919, 1.56195652  , -0.01549644 , -7.32969056E-05, 923.0671    , 30.39923    , 779.4187    , 2.5         , 3           , 255         , 0           , 0
-0.1501394  , -9.792551   , -0.09179475 , 0.00040525684, -3.65312444E-05, 0.000145786908, 1.56195974  , -0.0154920453, -7.363594E-05, 923.0671    , 30.39923    , 779.4247    , 2.51        , 3           , 255         , 0           , 0
-0.149846464, -9.799698   , -0.08731375 , 0.000299336243, 0.0001382585, 0.000560640066, 1.56196284  , -0.01549764 , -7.220433E-05, 923.0671    , 30.39923    , 779.4251    , 2.52        , 3           , 255         , 0           , 0
-0.155757159, -9.795095   , -0.08641609 , 0.000267275638, -3.32162017E-06, -0.000311967451, 1.56196547  , -0.01549452 , -7.226441E-05, 923.0492    , 30.4001789  , 779.425537  , 2.53        , 3           , 255         , 0           , 0
-0.154697925, -9.793554   , -0.0937921256, 0.000876241247, -3.725366E-05, 0.0001681055, 1.56197417  , -0.0154962037, -7.26230137E-05, 923.0492    , 30.4001789  , 779.425964  , 2.54        , 3           , 255         , 0           , 0
-0.15922904 , -9.794588   , -0.09974732 , -2.84686976E-05, 0.0005109646, 0.0008125137, 1.56197381  , -0.0155042838, -6.744145E-05, 923.0492    , 30.4001789  , 779.4264    , 2.55        , 3           , 255         , 0           , 0
-0.152273417, -9.80183    , -0.09948249 , 8.238174E-05, 0.000607246242, 0.0005471945, 1.56197464  , -0.0155097023, -6.13205339E-05, 923.0492    , 30.4001789  , 779.4268    , 2.56        , 3           , 255         , 0           , 0
-0.148884073, -9.790666   , -0.0949713  , -0.000714877329, 0.000332158117, 0.000548441545, 1.56196749  , -0.0155151561, -5.795154E-05, 923.0492    , 30.4001789  , 779.427246  , 2.57        , 3           , 255         , 0           , 0
-0.150657743, -9.785942   , -0.0973168239, -0.000241165864, 5.946256E-05, -0.000272123172, 1.56196511  , -0.015512431, -5.73814978E-05, 923.0492    , 30.4001789  , 779.4277    , 2.58        , 3           , 255         , 0           , 0
-0.15255259 , -9.793096   , -0.09058207 , -7.60568946E-05, -0.000191355008, 0.000186600839, 1.56196439  , -0.0155143123, -5.92783726E-05, 923.0492    , 30.4001789  , 779.4281    , 2.59        , 3           , 255         , 0           , 0
-0.1586062  , -9.797621   , -0.08892258 , 0.000152598921, -0.000274124846, 0.00026416732, 1.561966    , -0.0155169787, -6.199583E-05, 923.0492    , 30.4001789  , 779.4285    , 2.6         , 3           , 255         , 0           , 0
-0.153487459, -9.804383   , -0.0796962157, 0.000319609157, -0.0002466236, 0.000153924222, 1.56195641  , -0.015521287, -6.42499E-05, 923.0492    , 30.4001789  , 779.4576    , 2.61        , 3           , 255         , 0           , 0
-0.1531978  , -9.79362    , -0.0885005  , 0.000268295145, -0.0003564985, 0.0002739403, 1.56195915  , -0.0155240549, -6.779076E-05, 923.0492    , 30.4001789  , 779.4582    , 2.62        , 3           , 255         , 0           , 0
-0.152444467, -9.783539   , -0.0827772  , -0.000167513528, -0.00017821003, -0.000435761351, 1.56195748  , -0.0155197131, -6.961171E-05, 923.078369  , 30.4029617  , 779.4588    , 2.63        , 3           , 255         , 0           , 0
-0.149096578, -9.791417   , -0.08330361 , -0.000147518091, 0.000158033276, -0.000118713404, 1.56195593  , -0.0155185116, -6.80422454E-05, 923.078369  , 30.4029617  , 779.4594    , 2.64        , 3           , 255         , 0           , 0
-0.148532659, -9.80045    , -0.08232038 , -0.0002096667, 0.000122023281, -0.0003230447, 1.5619539   , -0.01551527 , -6.6851404E-05, 923.078369  , 30.4029617  , 779.46      , 2.65        , 3           , 255         , 0           , 0
-0.150317073, -9.801251   , -0.08244763 , 0.000176285015, 0.000460696581, -0.000185588942, 1.56195557  , -0.0155133745, -6.22612861E-05, 923.078369  , 30.4029617  , 779.4607    , 2.66        , 3           , 255         , 0           , 0
-0.145962074, -9.793655   , -0.0864562541, 6.835759E-05, 0.000286215974, -0.00111259881, 1.56195629  , -0.0155022247, -5.94977064E-05, 923.078369  , 30.4029617  , 779.461365  , 2.67        , 3           , 255         , 0           , 0
-0.143746719, -9.790773   , -0.07705398 , 0.000211039121, -9.228225E-05, -0.00119445147, 1.56195843  , -0.0154902879, -6.0526E-05 , 923.078369  , 30.4029617  , 779.462036  , 2.68        , 3           , 255         , 0           , 0
-0.153028414, -9.788417   , -0.07921834 , 0.00022717609, -9.002915E-05, -0.0003787387, 1.5619607   , -0.01548651 , -6.1460225E-05, 923.078369  , 30.4029617  , 779.4627    , 2.69        , 3           , 255         , 0           , 0
-0.1475414  , -9.79486752 , -0.0939428657, 0.00050556974, -5.69485128E-05, 0.000122246915, 1.5619657   , -0.015487737, -6.2019084E-05, 923.078369  , 30.4029617  , 779.4634    , 2.7         , 3           , 255         , 0           , 0
-0.1533689  , -9.79436    , -0.09017388 , 0.000401182275, 0.0003292447, 0.000246794254, 1.56197572  , -0.0154857961, -5.87967879E-05, 923.078369  , 30.4029617  , 779.448     , 2.71        , 3           , 255         , 0           , 0
-0.147590324, -9.792548   , -0.0832354054, -0.000440089265, 0.00058548915, 0.0003703116, 1.56197119  , -0.015489446, -5.29091922E-05, 923.078369  , 30.4029617  , 779.448547  , 2.72        , 3           , 255         , 0           , 0
-0.143659592, -9.790697   , -0.08692042 , -3.51110939E-05, -0.000133202935, -0.000556521, 1.561971    , -0.0154838916, -5.42909765E-05, 923.1277    , 30.4030285  , 779.4491    , 2.73        , 3           , 255         , 0           , 0
-0.14657785 , -9.794511   , -0.09509654 , 0.0002376911, -0.00014565431, -0.000421559758, 1.56197333  , -0.0154796895, -5.578406E-05, 923.1277    , 30.4030285  , 779.449646  , 2.74        , 3           , 255         , 0           , 0
-0.153074741, -9.79616    , -0.09179486 , -0.000480608, 0.000468355778, -0.0005918627, 1.56196845  , -0.0154737318, -5.11529652E-05, 923.1277    , 30.4030285  , 779.4502    , 2.75        , 3           , 255         , 0           , 0
-0.160066232, -9.799026   , -0.09328832 , -0.000303250243, 0.000320779451, -0.000378433557, 1.56196535  , -0.01546992 , -4.79786322E-05, 923.1277    , 30.4030285  , 779.450745  , 2.76        , 3           , 255         , 0           , 0
-0.154777557, -9.800646   , -0.08962594 , 0.0005916502, 0.000234697538, -0.00015462024, 1.56197131  , -0.0154683534, -4.564586E-05, 923.1277    , 30.4030285  , 779.4513    , 2.77        , 3           , 255         , 0           , 0
-0.153031617, -9.795012   , -0.0891912952, 4.14691749E-06, -3.074546E-05, 0.0003681652, 1.56197131  , -0.0154720368, -4.59211E-05, 923.1277    , 30.4030285  , 779.451843  , 2.78        , 3           , 255         , 0           , 0
-0.149511188, -9.797955   , -0.09426019 , -0.000296242943, 9.54647E-05 , -0.000441277138, 1.56196833  , -0.0154676177, -4.500549E-05, 923.1277    , 30.4030285  , 779.4524    , 2.79        , 3           , 255         , 0           , 0
-0.13923727 , -9.792608   , -0.09542688 , 0.0007328337, 0.0003633657, -0.0007273826, 1.5619756   , -0.0154603114, -4.14357673E-05, 923.1277    , 30.4030285  , 779.452942  , 2.8         , 3           , 255         , 0           , 0
-0.1481595  , -9.787709   , -0.08707017 , 0.000186480553, 0.000126425934, 0.000535556 , 1.56196964  , -0.0154629536, -4.00022946E-05, 923.1277    , 30.4030285  , 779.3703    , 2.81        , 3           , 255         , 0           , 0
-0.156941444, -9.799339   , -0.09251641 , -7.550357E-05, 0.000311342475, 0.000301754015, 1.56196892  , -0.0154659441, -3.686243E-05, 923.1277    , 30.4030285  , 779.370361  , 2.82        , 3           , 255         , 0           , 0
-0.148532927, -9.792519   , -0.0885842443, -0.0005015364, -0.00032965673, 0.0007426683, 1.56196392  , -0.0154733965, -4.009265E-05, 923.0333    , 30.4021473  , 779.3704    , 2.83        , 3           , 255         , 0           , 0
-0.144656032, -9.791838   , -0.08417033 , 0.000133595167, 9.33095E-05 , 0.0007475724, 1.56196523  , -0.0154808648, -3.90932255E-05, 923.0333    , 30.4021473  , 779.3705    , 2.84        , 3           , 255         , 0           , 0
-0.1452094  , -9.794777   , -0.0829487  , 0.0005656226, 0.000181674957, 0.000473694963, 1.56197083  , -0.0154855866, -3.723455E-05, 923.0333    , 30.4021473  , 779.370544  , 2.85        , 3           , 255         , 0           , 0
-0.142258391, -9.800695   , -0.07824886 , 0.000201648712, 0.000222052855, 0.000282053748, 1.56197286  , -0.0154883843, -3.49893344E-05, 923.0333    , 30.4021473  , 779.3706    , 2.86        , 3           , 255         , 0           , 0
-0.15403606 , -9.801789   , -0.0755831152, -0.000298358325, 0.0009084115, -0.0006327193, 1.56196976  , -0.0154819759, -2.59600056E-05, 923.0333    , 30.4021473  , 779.370667  , 2.87        , 3           , 255         , 0           , 0
-0.154160842, -9.792321   , -0.0793165  , -0.000167298509, 0.0003377726, -3.8027938E-06, 1.561968    , -0.0154819116, -2.25830863E-05, 923.0333    , 30.4021473  , 779.3707    , 2.88        , 3           , 255         , 0           , 0
-0.160095453, -9.7981     , -0.0823794156, -0.000126382947, -0.000127827167, -0.00041061535, 1.56196678  , -0.0154778166, -2.38973425E-05, 923.0333    , 30.4021473  , 779.3708    , 2.89        , 3           , 255         , 0           , 0
-0.154977053, -9.797433   , -0.0795294344, -0.000154735841, -3.92399961E-05, 0.00024359129, 1.56196523  , -0.0154802557, -2.426805E-05, 923.0333    , 30.4021473  , 779.37085   , 2.9         , 3           , 255         , 0           , 0
-0.150826544, -9.792732   , -0.07652001 , 0.000268358417, -7.878436E-05, 0.000585073431, 1.56197393  , -0.0154847568, -2.50965641E-05, 923.0333    , 30.4021473  , 779.4309    , 2.91        , 3           , 255         , 0           , 0
-0.1489924  , -9.792169   , -0.07888321 , -0.000101559534, -4.95965942E-05, -0.000106079446, 1.561973    , -0.0154836979, -2.5601872E-05, 923.0333    , 30.4021473  , 779.431335  , 2.92        , 3           , 255         , 0           , 0
-0.153814167, -9.795176   , -0.0824448541, -0.000238519453, -5.32766E-05, 0.000303982524, 1.56197059  , -0.0154867424, -2.61081059E-05, 923.0739    , 30.4019432  , 779.431763  , 2.93        , 3           , 255         , 0           , 0
-0.1552266  , -9.794307   , -0.08972317 , 0.0001167501, 0.000374827243, 0.000401136815, 1.56197178  , -0.01549072 , -2.23246188E-05, 923.0739    , 30.4019432  , 779.4322    , 2.94        , 3           , 255         , 0           , 0
-0.14446792 , -9.79435    , -0.09121812 , 0.0005211462, -0.000119369011, 0.0006942686, 1.561977    , -0.0154976742, -2.3457711E-05, 923.0739    , 30.4019432  , 779.4326    , 2.95        , 3           , 255         , 0           , 0
-0.146619722, -9.796254   , -0.09731116 , 0.0007573217, -0.000422839279, 0.000211827486, 1.56198466  , -0.0154998284, -2.76668652E-05, 923.0739    , 30.4019432  , 779.433044  , 2.96        , 3           , 255         , 0           , 0
-0.155545264, -9.799527   , -0.0917027444, -4.126539E-05, -0.0003378354, -6.82246173E-06, 1.5619843   , -0.01549979 , -3.1046573E-05, 923.0739    , 30.4019432  , 779.4335    , 2.97        , 3           , 255         , 0           , 0
-0.147995383, -9.796347   , -0.09738223 , -0.000363786181, 0.0004676417, 0.000569804048, 1.56198061  , -0.0155054461, -2.63200127E-05, 923.0739    , 30.4019432  , 779.4339    , 2.98        , 3           , 255         , 0           , 0
-0.141320854, -9.79550648 , -0.0966354162, 0.000327287329, 0.000138428353, -0.000222350733, 1.56198382  , -0.0155032109, -2.49549958E-05, 923.0739    , 30.4019432  , 779.4343    , 2.99        , 3           , 255         , 0           , 0
-0.152435645, -9.791705   , -0.08814542 , 0.000484378921, -6.77866046E-05, 0.000795071363, 1.56198871  , -0.0155111682, -2.556369E-05, 923.0739    , 30.4019432  , 779.434753  , 3           , 3           , 0           , 8.459236    , 300
-0.148518518, -9.792608   , -0.0902939  , 0.00066590996, 0.000317463127, 0.0004514162, 1.56199074  , -0.0155119812, -2.227852E-05, 923.0739    , 30.4019432  , 779.4292    , 3.01        , 3           , 1           , 0           , 0
-0.145539373, -9.795679   , -0.09629074 , 0.00033667768, 0.000600472267, 0.000115286879, 1.56199408  , -0.0155130811, -1.6263315E-05, 923.0739    , 30.4019432  , 779.4296    , 3.02        , 3           , 2           , 0           , 0
-0.154487818, -9.794491   , -0.0992016  , -8.82025051E-05, 0.0004369538, 0.0001794555, 1.56199312  , -0.0155148366, -1.18781218E-05, 923.1071    , 30.4038429  , 779.430054  , 3.03        , 3           , 3           , 0           , 0
-0.152032167, -9.795176   , -0.09095932 , 1.319393E-06, 0.000136968214, 0.000223625364, 1.56199312  , -0.0155170625, -1.04888868E-05, 923.1071    , 30.4038429  , 779.4305    , 3.04        , 3           , 4           , 0           , 0
-0.151344329, -9.797684   , -0.0913564339, 0.00017261054, -0.000151440792, 0.0005640235, 1.56199491  , -0.0155227156, -1.19535689E-05, 923.1071    , 30.4038429  , 779.4309    , 3.05        , 3           , 5           , 0           , 0
-0.150728062, -9.801252   , -0.09080795 , 1.061504E-06, -0.000161031261, 5.82539651E-05, 1.56199491  , -0.0155233117, -1.35584314E-05, 923.1071    , 30.4038429  , 779.431335  , 3.06        , 3           , 6           , 0           , 0
-0.153689533, -9.791456   , -0.0840168148, 2.1761487E-05, 0.000124333077, -5.690541E-05, 1.561995    , -0.0155227315, -1.2320088E-05, 923.1071    , 30.4038429  , 779.431763  , 3.07        , 3           , 7           , 0           , 0
-0.144525245, -9.785576   , -0.08280129 , -0.000111678586, 0.000581425556, -0.0007222154, 1.56199372  , -0.0155154578, -6.56894326E-06, 923.1071    , 30.4038429  , 779.4322    , 3.08        , 3           , 8           , 5           , 5
-0.149727777, -9.801374   , -0.07717242 , 0.000258355372, 6.27964037E-05, 0.000146571256, 1.56199634  , -0.0155169191, -5.927651E-06, 923.1071    , 30.4038429  , 779.4326    , 3.09        , 3           , 9           , 5           , 0.1
-0.1533582  , -9.802561   , -0.07972993 , -6.96360657E-05, -4.91374522E-05, 0.000222385657, 1.56199563  , -0.0155191468, -6.399888E-06, 923.1071    , 30.4038429  , 779.433044  , 3.1         , 3           , 10          , 0.1         , 0.1
-0.156951949, -9.794572   , -0.08841874 , 0.000252567 , 0.000325875 , 7.40116229E-06, 1.56199491  , -0.0155164571, -3.08863764E-06, 923.1071    , 30.4038429  , 779.380859  , 3.11        , 3           , 11          , 0.0075560417, 0.00755603751
-0.150236487, -9.789479   , -0.08541493 , -0.000297142833, 0.000115556875, 0.000158337876, 1.56199181  , -0.0155180274, -1.91829E-06, 923.1071    , 30.4038429  , 779.381     , 3.12        , 3           , 12          , 0.174645633 , 0
-0.151114061, -9.794714   , -0.0803882  , 0.0003774314, 0.000253313454, -9.058743E-05, 1.56199551  , -0.0155171016, 6.068297E-07, 923.040161  , 30.4018764  , 779.3811    , 3.13        , 3           , 13          , 0           , 0
-0.149052456, -9.789118   , -0.08008449 , -0.0002514745, 0.0003291245, 0.000150257722, 1.561993    , -0.0155185731, 3.911095E-06, 923.040161  , 30.4018764  , 779.3812    , 3.14        , 3           , 14          , 0.00048069586, 0.00077023427
-0.152083546, -9.790794   , -0.08842312 , 0.0001815994, 1.71501888E-05, -0.000258622546, 1.56199479  , -0.0155159859, 4.05965829E-06, 923.040161  , 30.4018764  , 779.381348  , 3.15        , 3           , 15          , 0           , 0.000273341866
-0.154295951, -9.798506   , -0.0899385959, -0.0002785755, 0.000287169241, -0.0005969602, 1.561992    , -0.015509991, 6.87957663E-06, 923.040161  , 30.4018764  , 779.3815    , 3.16        , 3           , 16          , 0           , 1.401298E-45
-0.150408745, -9.790219   , -0.08755283 , -0.000228437653, 5.73784346E-05, -8.656083E-05, 1.56198978  , -0.015509123, 7.4458876E-06, 923.040161  , 30.4018764  , 779.3816    , 3.17        , 3           , 20          , 0           , 0
-0.1527951  , -9.797628   , -0.09172429 , 0.000343723921, -0.0004973402, -0.000108709763, 1.56199312  , -0.015508078, 2.463179E-06, 923.040161  , 30.4018764  , 779.3817    , 3.18        , 3           , 21          , 0           , 0
-0.146499842, -9.795236   , -0.08621664 , -0.000128987915, -3.25412257E-05, -1.99839124E-05, 1.56199181  , -0.0155078815, 2.1357796E-06, 923.040161  , 30.4018764  , 779.381836  , 3.19        , 3           , 22          , 0           , 0
-0.16568312 , -9.793601   , -0.09370894 , 6.25820248E-05, -0.000279832981, -1.39483891E-05, 1.56199253  , -0.015507766, -6.63647143E-07, 923.040161  , 30.4018764  , 779.381958  , 3.2         , 3           , 40          , 0           , 0
-0.1463152  , -9.798155   , -0.09475172 , 0.0006963572, 0.000240184541, -5.7561585E-05, 1.56199753  , -0.0155089218, 1.7613429E-06, 923.040161  , 30.4018764  , 779.431641  , 3.21        , 3           , 41          , 0           , 0
-0.148620814, -9.790687   , -0.09374568 , -7.571501E-05, 0.00020381686, -0.0004994468, 1.5619967   , -0.01550391 , 3.75600962E-06, 923.040161  , 30.4018764  , 779.432068  , 3.22        , 3           , 42          , 0           , 0
-0.155334622, -9.798584   , -0.08904427 , -0.000486840639, 0.000335380028, -0.00027402307, 1.56199181  , -0.0155011425, 7.085888E-06, 923.0871    , 30.4058113  , 779.4325    , 3.23        , 3           , 255         , 0           , 0
-0.154642284, -9.797067   , -0.09444986 , -0.000548977638, 0.000261980633, 0.0004550488, 1.56198633  , -0.0155056687, 9.746065E-06, 923.0871    , 30.4058113  , 779.4329    , 3.24        , 3           , 255         , 0           , 0
-0.144988373, -9.794986   , -0.0988548249, -0.0002497652, -3.617024E-07, 6.39229256E-05, 1.56198382  , -0.0155063076, 9.747929E-06, 923.0871    , 30.4058113  , 779.43335   , 3.25        , 3           , 255         , 0           , 0
-0.1568877  , -9.79854    , -0.0932023749, 7.20119E-05 , 5.1604E-06  , -0.000404900347, 1.56198442  , -0.0155022591, 9.76469346E-06, 923.0871    , 30.4058113  , 779.4338    , 3.26        , 3           , 255         , 0           , 0
-0.154669032, -9.795664   , -0.0899875  , 0.000122501166, 0.000358965655, -0.000100169549, 1.56198561  , -0.0155012272, 1.33455933E-05, 923.0871    , 30.4058113  , 779.4342    , 3.27        , 3           , 255         , 0           , 0
-0.149968386, -9.790655   , -0.08242655 , 0.0005366801, -0.000468887738, 4.336267E-05, 1.5619911   , -0.0155017013, 8.659547E-06, 923.0871    , 30.4058113  , 779.434631  , 3.28        , 3           , 255         , 0           , 0
-0.1536151  , -9.790357   , -0.07626655 , -0.0003813454, -0.000339304184, 0.000441507145, 1.56198716  , -0.0155061455, 5.305917E-06, 923.0871    , 30.4058113  , 779.435059  , 3.29        , 3           , 255         , 0           , 0
-0.145464972, -9.783877   , -0.08669737 , -8.497038E-06, 0.000107272004, 0.0012302401, 1.561987    , -0.0155184371, 6.48744344E-06, 923.0871    , 30.4058113  , 779.4355    , 3.3         , 3           , 255         , 0           , 0
-0.163211614, -9.793688   , -0.0789435953, 0.00050317205, 4.34342073E-05, 0.00038343863, 1.56198549  , -0.0155207729, 7.057016E-06, 923.0871    , 30.4058113  , 779.411     , 3.31        , 3           , 255         , 0           , 0
-0.1538266  , -9.80057049 , -0.08087663 , -0.000605958048, 0.000108001404, -4.10135835E-05, 1.56197941  , -0.0155203538, 8.133754E-06, 923.0871    , 30.4058113  , 779.4113    , 3.32        , 3           , 255         , 0           , 0
-0.1588673  , -9.791895   , -0.08075311 , -0.0003449838, -9.734096E-05, -0.0002142124, 1.561976    , -0.0155182229, 7.14130965E-06, 923.0542    , 30.404047   , 779.4116    , 3.33        , 3           , 255         , 0           , 0
-0.153037459, -9.784042   , -0.08212643 , -6.409024E-05, 2.811721E-06, 0.000126956846, 1.56197536  , -0.0155194895, 7.180897E-06, 923.0542    , 30.404047   , 779.4119    , 3.34        , 3           , 255         , 0           , 0
-0.152246013, -9.789124   , -0.07864577 , -0.0005704006, 0.000354877615, 0.000374911673, 1.56196952  , -0.0155232074, 1.07636615E-05, 923.0542    , 30.404047   , 779.412231  , 3.35        , 3           , 255         , 0           , 0
-0.150835127, -9.796908   , -0.08825312 , -0.000257463136, 0.00023369462, 0.000101000274, 1.561967    , -0.0155241974, 1.31090137E-05, 923.0542    , 30.404047   , 779.412537  , 3.36        , 3           , 255         , 0           , 0
-0.153933764, -9.799314   , -0.0864294  , -0.000247295917, 0.0003014048, 0.0004231177, 1.56196439  , -0.0155284014, 1.61603948E-05, 923.0542    , 30.404047   , 779.412842  , 3.37        , 3           , 255         , 0           , 0
-0.1522966  , -9.793054   , -0.09229206 , 0.00023527036, 0.000509744335, -0.0007460901, 1.56196678  , -0.0155208949, 2.119154E-05, 923.0542    , 30.404047   , 779.413147  , 3.38        , 3           , 255         , 0           , 0
-0.153501332, -9.791273   , -0.09057592 , -0.000373444956, 0.000176946574, -0.000266668067, 1.56196308  , -0.0155182136, 2.29375146E-05, 923.0542    , 30.404047   , 779.413452  , 3.39        , 3           , 255         , 0           , 0
-0.153139487, -9.79925251 , -0.088438   , -0.000448007777, 0.00013798452, -3.64791922E-05, 1.56195855  , -0.0155178392, 2.43141712E-05, 923.0542    , 30.404047   , 779.413757  , 3.4         , 3           , 255         , 0           , 0
-0.148285627, -9.799623   , -0.0875218958, 0.000121007615, 0.000281283 , -2.41966336E-06, 1.5619626   , -0.015522101, 2.70814689E-05, 923.0542    , 30.404047   , 779.439     , 3.41        , 3           , 255         , 0           , 0
-0.155741155, -9.791879   , -0.08691116 , 0.000558500236, -0.000147844141, -7.878123E-05, 1.56196821  , -0.01552133 , 2.55962914E-05, 923.0542    , 30.404047   , 779.4395    , 3.42        , 3           , 255         , 0           , 0
-0.144319445, -9.790894   , -0.09070965 , 0.000303838926, 4.39396244E-05, -0.000434974616, 1.56197119  , -0.015516975, 2.599774E-05, 923.0878    , 30.4053364  , 779.44      , 3.43        , 3           , 255         , 0           , 0
-0.14564991 , -9.799264   , -0.08897706 , -0.0003885621, 0.0005260291, -0.000842574635, 1.56196725  , -0.0155085046, 3.11835029E-05, 923.0878    , 30.4053364  , 779.4405    , 3.44        , 3           , 255         , 0           , 0
-0.144531161, -9.802721   , -0.08816948 , -0.00038388517, 0.000179614814, -0.0004551913, 1.56196332  , -0.0155039364, 3.29392533E-05, 923.0878    , 30.4053364  , 779.441     , 3.45        , 3           , 255         , 0           , 0
-0.146366164, -9.799234   , -0.08546344 , 0.000433829962, -0.00023117807, -0.0006385349, 1.56196773  , -0.0154975746, 3.05701433E-05, 923.0878    , 30.4053364  , 779.441467  , 3.46        , 3           , 255         , 0           , 0
-0.1541817  , -9.805681   , -0.0900838152, 0.000342187064, 0.000202934316, -0.000563721638, 1.56197119  , -0.0154919187, 3.254944E-05, 923.0878    , 30.4053364  , 779.441956  , 3.47        , 3           , 255         , 0           , 0
-0.146636859, -9.799207   , -0.08969912 , 0.00034414907, 0.000171161664, -0.00025631336, 1.56197464  , -0.0154893408, 3.42381281E-05, 923.0878    , 30.4053364  , 779.442444  , 3.48        , 3           , 255         , 0           , 0
-0.152519941, -9.79556    , -0.085310325, -6.681762E-05, -8.955173E-05, 0.000184298551, 1.56197393  , -0.0154911922, 3.335932E-05, 923.0878    , 30.4053364  , 779.442932  , 3.49        , 3           , 255         , 0           , 0
-0.1550056  , -9.788561   , -0.08203795 , -0.0002851568, -0.00013444887, 0.0004474342, 1.56197107  , -0.0154956765, 3.20543841E-05, 923.0878    , 30.4053364  , 779.4434    , 3.5         , 3           , 255         , 0           , 0
-0.1557929  , -9.789226   , -0.08482447 , 0.00060592033, -0.000105181243, -0.000591799, 1.56197572  , -0.0154860513, 3.097205E-05, 923.0878    , 30.4053364  , 779.4169    , 3.51        , 3           , 255         , 0           , 0
-0.153113768, -9.794279   , -0.08469302 , 0.0005785844, 0.0003092786, 6.793378E-05, 1.56198144  , -0.0154867033, 3.40714E-05 , 923.0878    , 30.4053364  , 779.4172    , 3.52        , 3           , 255         , 0           , 0
-0.148245737, -9.806146   , -0.0875541  , 7.243434E-05, 0.000187113008, 4.614261E-05, 1.561982    , -0.0154871484, 3.594684E-05, 923.084351  , 30.4047928  , 779.4175    , 3.53        , 3           , 255         , 0           , 0
-0.156544536, -9.789476   , -0.08062385 , 0.000119307748, -3.87841719E-05, -4.19258431E-05, 1.56198323  , -0.0154867321, 3.555471E-05, 923.084351  , 30.4047928  , 779.4178    , 3.54        , 3           , 255         , 0           , 0
-0.161701173, -9.788843   , -0.08367544 , 8.033207E-05, 0.000283258734, 0.0006399992, 1.56198406  , -0.0154931042, 3.84440245E-05, 923.084351  , 30.4047928  , 779.4181    , 3.55        , 3           , 255         , 0           , 0
-0.155380666, -9.79586    , -0.08463487 , 0.000245860923, 0.000125621853, -0.000119233708, 1.56198657  , -0.0154919  , 3.96888863E-05, 923.084351  , 30.4047928  , 779.4184    , 3.56        , 3           , 255         , 0           , 0
-0.157791629, -9.785298   , -0.08811871 , 0.000153442117, 5.583826E-05, 0.0007111816, 1.56198812  , -0.0154990079, 4.031016E-05, 923.084351  , 30.4047928  , 779.4187    , 3.57        , 3           , 255         , 0           , 0
-0.1514025  , -9.78549    , -0.08269096 , -6.71024E-05, 0.000156699447, 0.0005938003, 1.5619874   , -0.0155049311, 4.19294556E-05, 923.084351  , 30.4047928  , 779.419     , 3.58        , 3           , 255         , 0           , 0
-0.159198031, -9.790675   , -0.08650979 , 0.00063377386, 0.000134379079, 0.0004969735, 1.56199372  , -0.01550989 , 4.33168279E-05, 923.084351  , 30.4047928  , 779.4193    , 3.59        , 3           , 255         , 0           , 0
-0.1549442  , -9.797524   , -0.0888200849, 0.00014787211, 2.26063421E-05, 0.000356293225, 1.56199527  , -0.0155134518, 4.357344E-05, 923.084351  , 30.4047928  , 779.4196    , 3.6         , 3           , 255         , 0           , 0
-0.145386785, -9.791778   , -0.08650955 , -0.0007019705, -7.018022E-05, -0.000674614043, 1.56199026  , -0.0155137824, 4.27803352E-05, 923.084351  , 30.4047928  , 779.401     , 3.61        , 3           , 255         , 0           , 0
-0.15301834 , -9.78813    , -0.08261805 , 0.000304587738, -9.815226E-05, 6.619943E-05, 1.56199336  , -0.0155144529, 4.180466E-05, 923.084351  , 30.4047928  , 779.4012    , 3.62        , 3           , 255         , 0           , 0
-0.1587529  , -9.799426   , -0.08842428 , 0.000206410448, 0.000280293229, -0.000369074143, 1.56199539  , -0.0155107407, 4.45752048E-05, 923.1012    , 30.4071674  , 779.4014    , 3.63        , 3           , 255         , 0           , 0
-0.154204175, -9.794436   , -0.08970742 , -6.351597E-05, -0.000156657887, 0.000314263947, 1.56199467  , -0.0155138969, 4.303647E-05, 923.1012    , 30.4071674  , 779.4017    , 3.64        , 3           , 255         , 0           , 0
-0.145920768, -9.794164   , -0.09240326 , -0.000166433718, -0.000524920644, 0.000173545122, 1.561993    , -0.0155156786, 3.780321E-05, 923.1012    , 30.4071674  , 779.4019    , 3.65        , 3           , 255         , 0           , 0
-0.151481   , -9.804959   , -0.08774791 , 0.000322833279, -0.0003362882, 3.319842E-05, 1.56199622  , -0.015516039, 3.44435248E-05, 923.1012    , 30.4071674  , 779.402161  , 3.66        , 3           , 255         , 0           , 0
-0.15820086 , -9.79955    , -0.0907113552, 5.52009442E-06, -0.0002442295, -3.89928318E-05, 1.56199622  , -0.015515672, 3.1997577E-05, 923.1012    , 30.4071674  , 779.4024    , 3.67        , 3           , 255         , 0           , 0
-0.160913825, -9.789613   , -0.08864007 , 0.000231850339, -2.38580978E-05, 0.000111428584, 1.56199861  , -0.0155167887, 3.176891E-05, 923.1012    , 30.4071674  , 779.402649  , 3.68        , 3           , 255         , 0           , 0
-0.1560121  , -9.794561   , -0.08418466 , 0.00100666285, 8.72573E-05 , -0.0004456492, 1.56200874  , -0.0155123239, 3.26030058E-05, 923.1012    , 30.4071674  , 779.4029    , 3.69        , 3           , 255         , 0           , 0
-0.155882448, -9.798742   , -0.0851041  , -0.000160427677, 0.00024318177, -0.0003142393, 1.56200707  , -0.01550916 , 3.500704E-05, 923.1012    , 30.4071674  , 779.403137  , 3.7         , 3           , 255         , 0           , 0
-0.164267659, -9.801773   , -0.0789391249, 0.000401598722, -0.000104210281, -0.00105120218, 1.562009    , -0.015501664, 3.390515E-05, 923.1012    , 30.4071674  , 779.3631    , 3.71        , 3           , 255         , 0           , 0
-0.162635922, -9.79038048 , -0.08611036 , 0.0005423557, -7.424265E-05, 0.0002925985, 1.56201434  , -0.0155046  , 3.31888732E-05, 923.1012    , 30.4071674  , 779.3631    , 3.72        , 3           , 255         , 0           , 0
-0.157884941, -9.794734   , -0.0823779851, -9.096693E-07, -4.49680374E-05, -0.000214487634, 1.56201434  , -0.0155024594, 3.27203634E-05, 923.034546  , 30.4053364  , 779.3631    , 3.73        , 3           , 255         , 0           , 0
-0.149384737, -9.795069   , -0.08771409 , 0.000525686657, -0.000240015681, -0.000301303429, 1.56201959  , -0.015499467, 3.02939752E-05, 923.034546  , 30.4053364  , 779.3631    , 3.74        , 3           , 255         , 0           , 0
-0.153420657, -9.790738   , -0.0803927556, -0.000106518244, -7.489044E-05, -0.0006547596, 1.56201851  , -0.0154929245, 2.94873516E-05, 923.034546  , 30.4053364  , 779.3631    , 3.75        , 3           , 255         , 0           , 0
-0.1563286  , -9.795955   , -0.08463269 , -0.000229970348, -9.90104745E-05, 0.000220231013, 1.56201613  , -0.0154951364, 2.85167971E-05, 923.034546  , 30.4053364  , 779.3631    , 3.76        , 3           , 255         , 0           , 0
-0.150439709, -9.788198   , -0.08468713 , 0.000133394 , 0.00023629528, 0.000481854251, 1.56201756  , -0.0154999327, 3.09222269E-05, 923.034546  , 30.4053364  , 779.3631    , 3.77        , 3           , 255         , 0           , 0
-0.145612165, -9.783417   , -0.09353378 , -0.000161978329, 0.0004305886, 0.000282646273, 1.56201577  , -0.015502722, 3.525293E-05, 923.034546  , 30.4053364  , 779.3631    , 3.78        , 3           , 255         , 0           , 0
-0.1485563  , -9.79452    , -0.09087377 , 0.000275281869, 5.84107474E-05, 0.000359754777, 1.56201851  , -0.015506315, 3.5868612E-05, 923.034546  , 30.4053364  , 779.3631    , 3.79        , 3           , 255         , 0           , 0
-0.153736085, -9.785985   , -0.0868668  , -5.17356966E-05, 0.00021177344, 0.0006454189, 1.562018    , -0.0155127505, 3.804258E-05, 923.034546  , 30.4053364  , 779.3631    , 3.8         , 3           , 255         , 0           , 0
-0.155052945, -9.79028    , -0.08644505 , -0.000185412151, -5.962793E-06, 0.000210915343, 1.56201661  , -0.0155195165, 3.79922931E-05, 923.034546  , 30.4053364  , 779.4235    , 3.81        , 3           , 255         , 0           , 0
-0.154223159, -9.796793   , -0.0827444643, 0.000526026939, -0.000164042809, 8.2933635E-05, 1.56202185  , -0.0155203613, 3.63599574E-05, 923.034546  , 30.4053364  , 779.4239    , 3.82        , 3           , 255         , 0           , 0
-0.147389933, -9.794479   , -0.09275327 , 0.000767748337, 0.000111137284, 0.0005285192, 1.5620296   , -0.0155256363, 3.7517726E-05, 923.1068    , 30.4070988  , 779.424255  , 3.83        , 3           , 255         , 0           , 0
-0.147013217, -9.791159   , -0.0901646  , -6.093009E-05, 6.523344E-05, -9.348063E-06, 1.56202888  , -0.0155255366, 3.81692662E-05, 923.1068    , 30.4070988  , 779.4246    , 3.84        , 3           , 255         , 0           , 0
-0.151762784, -9.782849   , -0.09264387 , 5.06741344E-05, -0.0001280692, -0.000269040378, 1.56202936  , -0.0155228572, 3.68647925E-05, 923.1068    , 30.4070988  , 779.425     , 3.85        , 3           , 255         , 0           , 0
-0.151379585, -9.788893   , -0.08152749 , 0.000315198966, 0.000132422312, -0.0003335415, 1.56203258  , -0.01551951 , 3.8159018E-05, 923.1068    , 30.4070988  , 779.425354  , 3.86        , 3           , 255         , 0           , 0
-0.1482197  , -9.794003   , -0.0899630859, 0.0008837518, -0.0002467574, 0.000115267496, 1.5620414   , -0.0155206844, 3.57018944E-05, 923.1068    , 30.4070988  , 779.4257    , 3.87        , 3           , 255         , 0           , 0
-0.1520602  , -9.796243   , -0.0874311  , 0.000445504847, 3.42556741E-05, 0.000562192465, 1.56204593  , -0.0155263012, 3.60931E-05 , 923.1068    , 30.4070988  , 779.4261    , 3.88        , 3           , 255         , 0           , 0
-0.1452887  , -9.798601   , -0.0856134742, 0.000521673239, 0.0001310145, -0.000654674135, 1.562051    , -0.0155197447, 3.73468029E-05, 923.1068    , 30.4070988  , 779.426453  , 3.89        , 3           , 255         , 0           , 0
-0.144868568, -9.792906   , -0.08008424 , 0.000129411579, 0.0004417312, 0.000106100517, 1.56205249  , -0.0155207673, 4.17729862E-05, 923.1068    , 30.4070988  , 779.4268    , 3.9         , 3           , 255         , 0           , 0
-0.150442272, -9.794975   , -0.07936849 , -8.02196737E-05, -1.92772713E-05, 0.00024706847, 1.56204963  , -0.0155191077, 4.16332732E-05, 923.1068    , 30.4070988  , 779.375549  , 3.91        , 3           , 255         , 0           , 0
-0.153009847, -9.798543   , -0.08098596 , 0.000216719229, 0.000103448227, -0.0005015478, 1.56205177  , -0.0155140832, 4.26238548E-05, 923.1068    , 30.4070988  , 779.3756    , 3.92        , 3           , 255         , 0           , 0
-0.154498652, -9.794901   , -0.0810675845, 9.02368338E-05, -8.959533E-05, -0.000402010075, 1.56205261  , -0.0155100729, 4.16933435E-05, 923.1003    , 30.4083881  , 779.3757    , 3.93        , 3           , 255         , 0           , 0
-0.147643641, -9.794296   , -0.0825514048, 0.0002938409, 2.985762E-05, -0.0009057488, 1.56205559  , -0.0155010149, 4.19131538E-05, 923.1003    , 30.4083881  , 779.375732  , 3.94        , 3           , 255         , 0           , 0
