Acc X       , Acc Y       , Acc Z       , Gyro X      , Gyro Y      , Gyro Z      , Euler X     , Euler Y     , Euler Z     , Pres X      , Pres Y      , Pres Z      , Time        , Status      , LowRate X   , LowRate Y   , LowRate Z    
-0.13750419 , 0.157146066 , -9.783518   , 0           , 0           , 0           , -0.0160609465, -0.0140519394, 0           , 921.2088    , 32.86542    , 796.152039  , 0           , 2           , 0           , 5.01123142  , 0
-0.144839332, 0.158787251 , -9.787964   , 0.000161098142, 0.000123768346, 0.0004662358, -0.0160596073, -0.0140509633, 4.64221375E-06, 921.2088    , 32.86542    , 796.152039  , 0.01        , 3           , 1           , 0           , 0
-0.144087464, 0.15943107  , -9.78447151 , 0.000576431863, -0.000102262828, 2.58209184E-05, -0.0160538461, -0.0140519822, 4.916843E-06, 921.2088    , 32.86542    , 796.152039  , 0.02        , 3           , 2           , 0           , 0
-0.145353764, 0.156865209 , -9.793393   , -0.000380027457, 7.803086E-05, -0.00013987688, -0.01605763 , -0.0140512232, 3.505619E-06, 921.1628    , 32.433      , 796.152039  , 0.03        , 3           , 3           , 0           , 0
-0.138140529, 0.153786466 , -9.793454   , -4.878454E-05, 6.754801E-05, 0.000118581353, -0.0160581321, -0.0140505293, 4.68051849E-06, 921.1628    , 32.433      , 796.152039  , 0.04        , 3           , 4           , 0           , 0
-0.1393865  , 0.155253723 , -9.793448   , -0.000395220239, -0.000386532745, 0.000728791347, -0.016062187, -0.0140542788, 1.20300992E-05, 921.1628    , 32.433      , 796.152039  , 0.05        , 3           , 5           , 0           , 0
-0.142316028, 0.1656312   , -9.788662   , -0.000446873717, -0.00043051492, -0.000209303835, -0.0160666276, -0.0140586151, 1.00063253E-05, 921.1628    , 32.433      , 796.152039  , 0.06        , 3           , 6           , 0           , 0
-0.139939517, 0.163276    , -9.790178   , -1.14584109E-05, -0.0004469104, 0.0003775517, -0.0160667952, -0.014063024, 1.38534388E-05, 921.1628    , 32.433      , 796.152039  , 0.07        , 3           , 7           , 0           , 0
-0.140221   , 0.1604698   , -9.79927    , -2.48018769E-05, -0.000100094592, 0.0007491048, -0.0160671473, -0.0140639041, 2.13601616E-05, 921.1628    , 32.433      , 796.152039  , 0.08        , 3           , 8           , 5           , 5
-0.1377391  , 0.157772124 , -9.788281   , 0.0004286756, -7.353956E-07, 0.000367463479, -0.0160629135, -0.0140638519, 2.50347111E-05, 921.1628    , 32.433      , 796.152039  , 0.09        , 3           , 9           , 5           , 0.1
-0.141346216, 0.14454037  , -9.790995   , 5.338725E-05, 4.59583243E-05, -0.000354120421, -0.0160623286, -0.01406345 , 2.14863121E-05, 921.1628    , 32.433      , 796.152039  , 0.1         , 3           , 10          , 0.1         , 0.1
-0.135352582, 0.152653247 , -9.801268   , -2.86821742E-05, -0.000150947715, -0.0001064801, -0.01606401 , -0.01408142 , 2.046566E-05, 921.1628    , 32.433      , 796.564331  , 0.11        , 3           , 11          , 0.0109544508, 0.0109544508
-0.139000461, 0.165734619 , -9.800898   , 0.0001137979, -0.000237231725, 2.68097938E-05, -0.0160628762, -0.0140837869, 2.07718567E-05, 921.1628    , 32.433      , 796.564331  , 0.12        , 3           , 12          , 0.174642488 , 0
-0.139633939, 0.159664616 , -9.787493   , 4.85277269E-05, -0.0004682116, -0.0002924478, -0.01606235 , -0.0140885152, 1.79227372E-05, 921.163     , 32.4710579  , 796.564331  , 0.13        , 3           , 13          , 0           , 0
-0.1402906  , 0.160744354 , -9.7973     , -0.0002346483, -0.000287994277, -8.00096459E-05, -0.0160646867, -0.0140914069, 1.71689426E-05, 921.163     , 32.4710579  , 796.564331  , 0.14        , 3           , 14          , -0.0008977623, -0.00113047194
-0.138805777, 0.158239245 , -9.798628   , -2.13798485E-05, 0.000129751279, -0.0006479389, -0.0160648078, -0.0140902139, 1.06690477E-05, 921.163     , 32.4710579  , 796.564331  , 0.15        , 3           , 15          , 0           , -0.000232378385
-0.141503245, 0.15885441  , -9.791893   , 0.0003909943, -0.000176131609, -0.000412055466, -0.01606084 , -0.0140920412, 6.577013E-06, 921.163     , 32.4710579  , 796.564331  , 0.16        , 3           , 16          , 0           , 1.401298E-45
-0.13827309 , 0.163264543 , -9.792803   , -0.000291595061, 0.000131545938, 1.23216741E-05, -0.0160637535, -0.0140907243, 6.67909035E-06, 921.163     , 32.4710579  , 796.564331  , 0.17        , 3           , 20          , 0           , 0
-0.134887844, 0.164473444 , -9.791676   , 0.0001875317, 0.0001223759, 0.00117242872, -0.0160620417, -0.0140893143, 1.83830616E-05, 921.163     , 32.4710579  , 796.5644    , 0.18        , 3           , 21          , 0           , 0
-0.147668839, 0.164229721 , -9.796233   , -4.1591702E-05, 0.0006256288, 0.000528341741, -0.0160625316, -0.0140829729, 2.35657E-05 , 921.163     , 32.4710579  , 796.564453  , 0.19        , 3           , 22          , 0           , 0
-0.142683432, 0.161725178 , -9.787575   , -0.000263961439, 0.0002822915, 0.000292322773, -0.01606521 , -0.0140801044, 2.64434238E-05, 921.163     , 32.4710579  , 796.5645    , 0.2         , 3           , 40          , 0           , 0
-0.140725851, 0.146111727 , -9.795433   , -0.000279929664, -0.000433783745, -0.000136877, -0.0160800312, -0.0140903844, 2.53140588E-05, 921.163     , 32.4710579  , 796.5646    , 0.21        , 3           , 41          , 0           , 0
-0.128380239, 0.149148881 , -9.793582   , 0.000111047586, -0.0003547899, -0.000391392125, -0.0160788652, -0.0140939951, 2.14574029E-05, 921.163     , 32.4710579  , 796.564636  , 0.22        , 3           , 42          , 0           , 0
-0.134419   , 0.154882744 , -9.791658   , -0.000207723875, 0.000197975547, -0.000245964155, -0.0160809085, -0.0140920551, 1.89660623E-05, 921.2132    , 32.49643    , 796.5647    , 0.23        , 3           , 255         , 0           , 0
-0.1311582  , 0.1512743   , -9.789073   , 7.95779051E-05, -8.842326E-06, -0.0002236056, -0.0160800833, -0.01409218 , 1.67315557E-05, 921.2132    , 32.49643    , 796.564758  , 0.24        , 3           , 255         , 0           , 0
-0.14021948 , 0.149341315 , -9.79305    , 0.00016835623, 0.0003246356, 0.00106193265, -0.0160785448, -0.0140887639, 2.72980924E-05, 921.2132    , 32.49643    , 796.5648    , 0.25        , 3           , 255         , 0           , 0
-0.139898449, 0.159368187 , -9.796802   , -0.000170078652, 0.000349665643, 0.0007484481, -0.01608035 , -0.0140851475, 3.472593E-05, 921.2132    , 32.49643    , 796.5649    , 0.26        , 3           , 255         , 0           , 0
-0.14157702 , 0.162235513 , -9.791068   , 0.000256629137, -0.000217996538, 0.000322976848, -0.0160778277, -0.0140872756, 3.799057E-05, 921.2132    , 32.49643    , 796.564941  , 0.27        , 3           , 255         , 0           , 0
-0.139658451, 0.159130856 , -9.789984   , -0.000169353152, 0.0001849347, -0.000401783938, -0.0160794649, -0.0140854912, 3.394321E-05, 921.2132    , 32.49643    , 796.565     , 0.28        , 3           , 255         , 0           , 0
-0.150690332, 0.160503656 , -9.793501   , -2.23530224E-05, 0.000199522474, -8.395832E-05, -0.0160796773, -0.01408351 , 3.30716E-05 , 921.2132    , 32.49643    , 796.565063  , 0.29        , 3           , 255         , 0           , 0
-0.1441384  , 0.164273784 , -9.789201   , -0.0006472574, -0.000278593274, 0.000231401384, -0.0160861816, -0.0140862558, 3.54302938E-05, 921.2132    , 32.49643    , 796.5651    , 0.3         , 3           , 255         , 0           , 0
-0.13976641 , 0.167342842 , -9.779579   , -0.000439327559, 2.70666787E-05, -0.000148049978, -0.0160836447, -0.0140900845, 3.38482E-05 , 921.2132    , 32.49643    , 796.4134    , 0.31        , 3           , 255         , 0           , 0
-0.140031144, 0.158313781 , -9.790504   , 0.00030681293, -1.21294288E-05, 0.00023992981, -0.016080616, -0.0140901674, 3.62493229E-05, 921.2132    , 32.49643    , 796.413452  , 0.32        , 3           , 255         , 0           , 0
-0.13637352 , 0.15794915  , -9.79226    , 3.93795781E-05, 0.000273043464, -0.00027252885, -0.016080182, -0.0140874805, 3.348029E-05, 921.146667  , 32.5116272  , 796.4135    , 0.33        , 3           , 255         , 0           , 0
-0.137740076, 0.15710406  , -9.788785   , -0.000103290658, 0.000242160342, -0.0009745201, -0.0160810761, -0.0140852174, 2.36966716E-05, 921.146667  , 32.5116272  , 796.4136    , 0.34        , 3           , 255         , 0           , 0
-0.144236714, 0.154560715 , -9.793066   , 0.00014817511, -0.000191754545, -0.001006761, -0.0160794519, -0.0140872952, 1.36604458E-05, 921.146667  , 32.5116272  , 796.413635  , 0.35        , 3           , 255         , 0           , 0
-0.135978252, 0.148060426 , -9.79198551 , 0.0002898795, -0.0004421852, 0.0006559649, -0.0160766467, -0.0140916109, 2.02908268E-05, 921.146667  , 32.5116272  , 796.4137    , 0.36        , 3           , 255         , 0           , 0
-0.140510082, 0.1642342   , -9.795248   , -0.0005467797, 3.43024731E-05, 8.92386161E-05, -0.0160821266, -0.0140912542, 2.11776423E-05, 921.146667  , 32.5116272  , 796.413757  , 0.37        , 3           , 255         , 0           , 0
-0.151254758, 0.153450951 , -9.789947   , -0.000328770839, 0.000452409731, 0.000240996189, -0.0160854459, -0.0140866917, 2.35147E-05 , 921.146667  , 32.5116272  , 796.4138    , 0.38        , 3           , 255         , 0           , 0
-0.14397721 , 0.1513683   , -9.786384   , -3.802462E-05, 0.0005030687, 0.0007542795, -0.016085932, -0.0140815424, 3.097617E-05, 921.146667  , 32.5116272  , 796.4139    , 0.39        , 3           , 255         , 0           , 0
-0.142392814, 0.158386827 , -9.790907   , 0.000281117624, 0.0005711121, 0.0011211473, -0.0160832759, -0.0140756518, 4.20951546E-05, 921.146667  , 32.5116272  , 796.41394   , 0.4         , 3           , 255         , 0           , 0
-0.145006433, 0.167238474 , -9.793947   , -5.893421E-05, 0.0006081358, -0.000303192879, -0.0160822738, -0.0140838921, 3.894375E-05, 921.146667  , 32.5116272  , 796.4892    , 0.41        , 3           , 255         , 0           , 0
-0.135142475, 0.156104535 , -9.798381   , -0.000247246353, -0.000334968441, -0.000196565539, -0.0160847176, -0.0140872719, 3.70320777E-05, 921.146667  , 32.5116272  , 796.489258  , 0.42        , 3           , 255         , 0           , 0
-0.137402862, 0.155334383 , -9.795552   , -7.749471E-05, -0.000206910423, 8.560346E-05, -0.0160855055, -0.0140893273, 3.792134E-05, 921.1435    , 32.5216     , 796.4893    , 0.43        , 3           , 255         , 0           , 0
-0.144065082, 0.1671733   , -9.789119   , -2.182729E-06, 0.000122087193, -0.000253277656, -0.0160854887, -0.0140881464, 3.536906E-05, 921.1435    , 32.5216     , 796.4894    , 0.44        , 3           , 255         , 0           , 0
-0.145740658, 0.166303366 , -9.782819   , 0.000197425543, 0.000295770529, 2.54280167E-06, -0.0160835143, -0.0140851894, 3.5346915E-05, 921.1435    , 32.5216     , 796.489441  , 0.45        , 3           , 255         , 0           , 0
-0.138614818, 0.154131323 , -9.789755   , -0.000166065409, 0.0006164031, -0.000171895823, -0.0160851516, -0.014079053, 3.35289078E-05, 921.1435    , 32.5216     , 796.4895    , 0.46        , 3           , 255         , 0           , 0
-0.134580776, 0.156863376 , -9.796617   , -9.712006E-06, -0.000156974653, 0.000198001653, -0.0160852745, -0.0140805915, 3.55340635E-05, 921.1435    , 32.5216     , 796.489563  , 0.47        , 3           , 255         , 0           , 0
-0.137132451, 0.163817152 , -9.789961   , -0.000450860942, -2.02402E-05, -7.429016E-05, -0.0160897728, -0.0140808066, 3.47944624E-05, 921.1435    , 32.5216     , 796.4896    , 0.48        , 3           , 255         , 0           , 0
-0.14147003 , 0.15224576  , -9.787113   , -2.8974493E-05, 2.15529E-05 , 0.0002813176, -0.0160901025, -0.0140805459, 3.76040152E-05, 921.1435    , 32.5216     , 796.4897    , 0.49        , 3           , 255         , 0           , 0
-0.139786661, 0.154948488 , -9.789937   , 0.0004640504, -7.08327862E-05, 0.0008780048, -0.0160855856, -0.014081114, 4.639497E-05, 921.1435    , 32.5216     , 796.489746  , 0.5         , 3           , 255         , 0           , 0
-0.130272776, 0.157502875 , -9.798279   , 0.000167599355, -8.986739E-05, -0.0004972377, -0.0160909519, -0.0140893031, 4.15375325E-05, 921.1435    , 32.5216     , 796.5412    , 0.51        , 3           , 255         , 0           , 0
-0.130127683, 0.157304287 , -9.79224    , -0.00027566927, 0.00011843536, 0.000273467449, -0.0160937477, -0.0140880747, 4.42529927E-05, 921.1435    , 32.5216     , 796.5413    , 0.52        , 3           , 255         , 0           , 0
-0.138833016, 0.147084922 , -9.789007   , -4.40132571E-05, 0.00028204103, -3.99501732E-05, -0.01609418 , -0.0140852621, 4.38081042E-05, 921.2199    , 32.52967    , 796.541443  , 0.53        , 3           , 255         , 0           , 0
-0.140319869, 0.158324629 , -9.786992   , 0.0002378358, 0.000211202656, 0.000178109083, -0.0160918254, -0.0140831247, 4.55551126E-05, 921.2199    , 32.52967    , 796.541565  , 0.54        , 3           , 255         , 0           , 0
-0.135206714, 0.152286783 , -9.79495049 , 0.0004611671, 0.000100902747, 0.000233992832, -0.0160872452, -0.014082076, 4.78786678E-05, 921.2199    , 32.52967    , 796.5417    , 0.55        , 3           , 255         , 0           , 0
-0.144040182, 0.159624189 , -9.787872   , -0.00016661163, 0.000167577 , -0.000248375873, -0.0160888769, -0.01408044 , 4.536808E-05, 921.2199    , 32.52967    , 796.5418    , 0.56        , 3           , 255         , 0           , 0
-0.142777845, 0.151913285 , -9.797403   , -0.000431125285, 0.000233045663, -0.0001110045, -0.01609317 , -0.0140781272, 4.422059E-05, 921.2199    , 32.52967    , 796.541931  , 0.57        , 3           , 255         , 0           , 0
-0.139711618, 0.158252746 , -9.796619   , 0.000111576577, 0.000373768271, 0.000207070319, -0.0160920843, -0.0140743563, 4.62310272E-05, 921.2199    , 32.52967    , 796.542053  , 0.58        , 3           , 255         , 0           , 0
-0.149957925, 0.154886574 , -9.791452   , 5.0603936E-05, 0.000359383528, -0.0004604481, -0.01609151 , -0.0140708368, 4.156898E-05, 921.2199    , 32.52967    , 796.5422    , 0.59        , 3           , 255         , 0           , 0
-0.146886781, 0.154179752 , -9.789883   , -0.000236538239, -0.000452234177, -0.0003986989, -0.0160938222, -0.0140754227, 3.7654987E-05, 921.2199    , 32.52967    , 796.5423    , 0.6         , 3           , 255         , 0           , 0
-0.142757386, 0.159680918 , -9.787764   , -2.55132327E-05, -0.0003304655, 0.0004163077, -0.01608607 , -0.0140849194, 4.17573865E-05, 921.2199    , 32.52967    , 796.457     , 0.61        , 3           , 255         , 0           , 0
-0.139480233, 0.1664955   , -9.791808   , -0.000202594849, -0.000142116216, -0.0003809242, -0.0160880424, -0.0140864011, 3.797123E-05, 921.2199    , 32.52967    , 796.457031  , 0.62        , 3           , 255         , 0           , 0
-0.152337551, 0.164804146 , -9.797409   , -0.000115873816, 0.000207840931, 8.7729306E-05, -0.016089214, -0.0140843093, 3.8815022E-05, 921.223938  , 32.5352364  , 796.4571    , 0.63        , 3           , 255         , 0           , 0
-0.146196842, 0.154159948 , -9.789011   , -0.000162475917, 6.370107E-05, -0.0004961676, -0.0160907675, -0.0140837524, 3.384337E-05, 921.223938  , 32.5352364  , 796.457153  , 0.64        , 3           , 255         , 0           , 0
-0.136909246, 0.163241237 , -9.79       , -1.95123721E-05, 0.000176358328, 0.000105751649, -0.0160909779, -0.0140819717, 3.48724534E-05, 921.223938  , 32.5352364  , 796.4572    , 0.65        , 3           , 255         , 0           , 0
-0.143819571, 0.162246376 , -9.788405   , -0.000371428381, 6.300432E-05, 7.08500738E-06, -0.0160946939, -0.0140813412, 3.493316E-05, 921.223938  , 32.5352364  , 796.4573    , 0.66        , 3           , 255         , 0           , 0
-0.133768082, 0.149178818 , -9.792508   , -0.0003722299, 0.0002849878, 0.000202262847, -0.0160984416, -0.0140784588, 3.69098E-05 , 921.223938  , 32.5352364  , 796.457336  , 0.67        , 3           , 255         , 0           , 0
-0.146629572, 0.144095972 , -9.785334   , 0.000299263629, -1.53385336E-05, 3.790637E-05, -0.0160954539, -0.0140786059, 3.72913055E-05, 921.223938  , 32.5352364  , 796.4574    , 0.68        , 3           , 255         , 0           , 0
-0.1321672  , 0.153101355 , -9.783362   , 0.0002953916, -4.68181679E-05, 0.000126310129, -0.0160925183, -0.0140790539, 3.85618732E-05, 921.223938  , 32.5352364  , 796.4575    , 0.69        , 3           , 255         , 0           , 0
-0.13224414 , 0.153233588 , -9.784385   , 0.000244279334, -0.000323675224, 5.763398E-05, -0.0160900839, -0.0140822809, 3.91902577E-05, 921.223938  , 32.5352364  , 796.457642  , 0.7         , 3           , 255         , 0           , 0
-0.136611015, 0.141058221 , -9.785977   , 0.00018844119, -0.000203769421, 0.0005286053, -0.0160861686, -0.0140957395, 4.44791076E-05, 921.223938  , 32.5352364  , 796.389954  , 0.71        , 3           , 255         , 0           , 0
-0.138382822, 0.155090049 , -9.785963   , 0.0004938952, -1.27215171E-05, -0.000322444859, -0.016081186, -0.0140959211, 4.12568879E-05, 921.223938  , 32.5352364  , 796.39      , 0.72        , 3           , 255         , 0           , 0
-0.138133824, 0.156140432 , -9.790327   , -0.000314218923, 0.000284938316, -0.000314878445, -0.0160842817, -0.0140931215, 3.806245E-05, 921.187866  , 32.5361862  , 796.3901    , 0.73        , 3           , 255         , 0           , 0
-0.133243516, 0.153783739 , -9.790049   , -0.0004814564, 0.000126010156, 0.000399016426, -0.0160891544, -0.0140917981, 4.20321267E-05, 921.187866  , 32.5361862  , 796.390137  , 0.74        , 3           , 255         , 0           , 0
-0.1430066  , 0.155172154 , -9.791617   , -0.0002670429, -0.0003243822, -0.000128607062, -0.016091805, -0.0140950605, 4.07983243E-05, 921.187866  , 32.5361862  , 796.3902    , 0.75        , 3           , 255         , 0           , 0
-0.136409119, 0.159099743 , -9.791422   , -0.000310917851, 7.09786545E-05, 0.000254144077, -0.016094951, -0.0140943108, 4.33282075E-05, 921.187866  , 32.5361862  , 796.390259  , 0.76        , 3           , 255         , 0           , 0
-0.135127172, 0.160234883 , -9.791479   , -0.000345095526, 0.000215678709, -0.000465981575, -0.0160983335, -0.0140922293, 3.863394E-05, 921.187866  , 32.5361862  , 796.3903    , 0.77        , 3           , 255         , 0           , 0
-0.144637823, 0.160255238 , -9.796434   , -0.0004751474, -0.0001122657, -0.000179157068, -0.01610306 , -0.0140933814, 3.68605542E-05, 921.187866  , 32.5361862  , 796.3904    , 0.78        , 3           , 255         , 0           , 0
-0.1347112  , 0.15865244  , -9.781376   , -0.000895326259, 0.000121513032, -0.000966715859, -0.016111875, -0.0140923243, 2.71743447E-05, 921.187866  , 32.5361862  , 796.390442  , 0.79        , 3           , 255         , 0           , 0
-0.132197946, 0.148970932 , -9.781476   , -0.000190868624, 0.0001279863, 0.0003705895, -0.0161138345, -0.0140909832, 3.085941E-05, 921.187866  , 32.5361862  , 796.3905    , 0.8         , 3           , 255         , 0           , 0
-0.1441364  , 0.152698964 , -9.782869   , -0.000143187062, 0.000347815338, 0.000226069082, -0.0161040835, -0.01408437 , 3.290593E-05, 921.187866  , 32.5361862  , 796.3836    , 0.81        , 3           , 255         , 0           , 0
-0.139792547, 0.153337032 , -9.792597   , -3.299676E-05, 6.343122E-05, 0.00055424025, -0.01610449 , -0.0140836462, 3.84378145E-05, 921.187866  , 32.5361862  , 796.383667  , 0.82        , 3           , 255         , 0           , 0
-0.128132731, 0.151782513 , -9.790751   , 0.0001109498, 4.163012E-06, -0.000127007821, -0.0161033627, -0.0140836248, 3.71671158E-05, 921.1986    , 32.5422249  , 796.3837    , 0.83        , 3           , 255         , 0           , 0
-0.14341411 , 0.147032291 , -9.792452   , 0.000393256836, 0.000299868872, -0.000117716278, -0.016099412, -0.0140806455, 3.59417536E-05, 921.1986    , 32.5422249  , 796.3838    , 0.84        , 3           , 255         , 0           , 0
-0.142190084, 0.157255083 , -9.791801   , -0.000165224716, 0.000393584953, 0.000345590059, -0.0161011126, -0.0140766539, 3.933409E-05, 921.1986    , 32.5422249  , 796.38385   , 0.85        , 3           , 255         , 0           , 0
-0.132334158, 0.158855736 , -9.797286   , 0.000607914641, 0.000372797658, 3.02593835E-05, -0.01609504 , -0.0140729249, 3.957666E-05, 921.1986    , 32.5422249  , 796.3839    , 0.86        , 3           , 255         , 0           , 0
-0.138611257, 0.151118234 , -9.788832   , 0.000268161821, 0.0004133305, 0.000833511469, -0.0160924718, -0.0140686557, 4.78447728E-05, 921.1986    , 32.5422249  , 796.384     , 0.87        , 3           , 255         , 0           , 0
-0.136370569, 0.155849576 , -9.783903   , 3.91487265E-05, 1.72981527E-06, 0.000743843848, -0.0160921831, -0.0140685178, 5.52825149E-05, 921.1986    , 32.5422249  , 796.384033  , 0.88        , 3           , 255         , 0           , 0
-0.143216684, 0.151089057 , -9.7946     , -0.0003202585, 5.08215744E-05, 0.0005018435, -0.0160954576, -0.0140679292, 6.0292492E-05, 921.1986    , 32.5422249  , 796.3841    , 0.89        , 3           , 255         , 0           , 0
-0.145160466, 0.162581787 , -9.789387   , -1.90694118E-06, 3.79433623E-05, -0.0001660915, -0.0160954539, -0.0140675772, 5.86255628E-05, 921.1986    , 32.5422249  , 796.384155  , 0.9         , 3           , 255         , 0           , 0
-0.148415878, 0.1601495   , -9.783307   , -0.000118902186, -0.000238181441, -0.000520463334, -0.01608457 , -0.0140751321, 5.32906524E-05, 921.1986    , 32.5422249  , 796.3661    , 0.91        , 3           , 255         , 0           , 0
-0.140701488, 0.158853024 , -9.790892   , -0.000295476872, -0.000331574, -0.000238087334, -0.0160874911, -0.0140784867, 5.09632519E-05, 921.1986    , 32.5422249  , 796.36615   , 0.92        , 3           , 255         , 0           , 0
-0.133486837, 0.149845883 , -9.791412   , -0.000430095, 0.0001284983, 3.23812565E-05, -0.0160917938, -0.0140771959, 5.12663719E-05, 921.188     , 32.5461578  , 796.3662    , 0.93        , 3           , 255         , 0           , 0
-0.1383492  , 0.152101666 , -9.78792    , -0.0001772492, -0.000242442009, -0.0006070699, -0.0160934813, -0.014079717, 4.5235025E-05, 921.188     , 32.5461578  , 796.3663    , 0.94        , 3           , 255         , 0           , 0
-0.137925461, 0.155189663 , -9.7889185  , -0.0001699247, -9.39003658E-05, 0.000237461893, -0.0160952155, -0.0140806194, 4.76246278E-05, 921.188     , 32.5461578  , 796.366333  , 0.95        , 3           , 255         , 0           , 0
-0.137282938, 0.170433223 , -9.789537   , -0.00032991718, 4.157878E-05, 0.000155762187, -0.0160985347, -0.014080178, 4.91754763E-05, 921.188     , 32.5461578  , 796.3664    , 0.96        , 3           , 255         , 0           , 0
-0.144528776, 0.160652831 , -9.782312   , -0.0005625447, -8.421601E-06, 0.000105618194, -0.0161041748, -0.0140802441, 5.02329458E-05, 921.188     , 32.5461578  , 796.366455  , 0.97        , 3           , 255         , 0           , 0
-0.136080831, 0.148833022 , -9.78823    , -0.000397032, 0.000201157411, -0.0003488179, -0.0161080938, -0.0140782883, 4.67125537E-05, 921.188     , 32.5461578  , 796.3665    , 0.98        , 3           , 255         , 0           , 0
-0.143239453, 0.154028386 , -9.795782   , -0.0003112806, 0.00024103839, -0.000331898744, -0.01611116 , -0.0140759321, 4.33549176E-05, 921.188     , 32.5461578  , 796.3666    , 0.99        , 3           , 255         , 0           , 0
-0.133154377, 0.162164345 , -9.7976675  , -4.2219297E-05, -2.06881668E-06, 0.000136086339, -0.0161116011, -0.01407593 , 4.47160346E-05, 921.188     , 32.5461578  , 796.366638  , 1           , 3           , 0           , 6.011236    , 100
-0.135205984, 0.150611341 , -9.80248    , 0.0003799664, 0.000134647358, 0.000162080425, -0.0161065869, -0.0140797123, 4.62976568E-05, 921.188     , 32.5461578  , 796.363464  , 1.01        , 3           , 1           , 0           , 0
-0.136990383, 0.154960081 , -9.794179   , 0.000318163948, 0.000181052776, 0.000347231951, -0.0161034558, -0.014077846, 4.97406181E-05, 921.188     , 32.5461578  , 796.3635    , 1.02        , 3           , 2           , 0           , 0
-0.140967011, 0.150963187 , -9.786876   , 4.923658E-05, 0.000291362521, -0.000563564943, -0.016102884, -0.0140750231, 4.405838E-05, 921.271     , 32.5490761  , 796.3636    , 1.03        , 3           , 3           , 0           , 0
-0.132544309, 0.1551815   , -9.800229   , -3.929151E-05, -0.000464132056, -0.000667127, -0.0161031839, -0.014079771, 3.74622141E-05, 921.271     , 32.5490761  , 796.363647  , 1.04        , 3           , 4           , 0           , 0
-0.139548391, 0.16043286  , -9.790353   , -0.000156249269, -0.000333208125, -0.000682120444, -0.01610465 , -0.0140832132, 3.06950351E-05, 921.271     , 32.5490761  , 796.3637    , 1.05        , 3           , 5           , 0           , 0
-0.144572943, 0.1596343   , -9.79285    , 0.00048565038, -0.00011779042, -0.00012927386, -0.0160997771, -0.0140844118, 2.94213478E-05, 921.271     , 32.5490761  , 796.3638    , 1.06        , 3           , 6           , 0           , 0
-0.140106156, 0.148689568 , -9.792438   , 0.001046414 , 4.15432733E-05, -0.0008002682, -0.0160892028, -0.0140841259, 2.14124047E-05, 921.271     , 32.5490761  , 796.363831  , 1.07        , 3           , 7           , 0           , 0
-0.130662531, 0.147176385 , -9.784773   , 0.0003666553, 0.000103750266, 0.0007014004, -0.0160856321, -0.0140829748, 2.84093512E-05, 921.271     , 32.5490761  , 796.3639    , 1.08        , 3           , 8           , 5           , 5
-0.137085348, 0.143874317 , -9.781864   , -0.0003764237, 4.26108E-05 , -0.000360091915, -0.0160893481, -0.0140826069, 2.4801775E-05, 921.271     , 32.5490761  , 796.363953  , 1.09        , 3           , 9           , 5           , 0.1
-0.132469833, 0.144853264 , -9.7944355  , -0.0006994979, -0.000286896946, -0.000242291921, -0.0160963088, -0.0140855154, 2.24251526E-05, 921.271     , 32.5490761  , 796.364     , 1.1         , 3           , 10          , 0.1         , 0.1
-0.141349033, 0.147473365 , -9.806689   , -0.000179463823, 6.78217039E-05, 0.000438457384, -0.0160807185, -0.0140821766, 2.65528852E-05, 921.271     , 32.5490761  , 796.273743  , 1.11        , 3           , 11          , 0.009057134 , 0.009057134
-0.145170465, 0.139999047 , -9.789824   , 0.000445053622, 1.35421287E-05, 0.000559529639, -0.0160763469, -0.01408195 , 3.21456973E-05, 921.271     , 32.5490761  , 796.27356   , 1.12        , 3           , 12          , 0.174642846 , 0
-0.1432097  , 0.157514483 , -9.783122   , 0.00118614407, 0.000211718376, 0.000388462271, -0.0160645377, -0.0140797729, 3.599609E-05, 921.1673    , 32.5491447  , 796.273438  , 1.13        , 3           , 13          , 0           , 0
-0.145080566, 0.165199533 , -9.779162   , 1.73587468E-05, 0.000340450439, 0.0003066974, -0.0160644054, -0.0140763177, 3.900821E-05, 921.1673    , 32.5491447  , 796.2733    , 1.14        , 3           , 14          , -0.000897812133, -0.00113044353
-0.14909035 , 0.164371222 , -9.784727   , -0.0002816909, 0.000162168115, -0.000266407646, -0.0160671864, -0.0140747391, 3.63182226E-05, 921.1673    , 32.5491447  , 796.2732    , 1.15        , 3           , 15          , 0           , -0.000232377235
-0.149774849, 0.1658331   , -9.79068851 , -6.628118E-05, 0.000135671929, -0.000541893765, -0.016067775, -0.01407347 , 3.08777926E-05, 921.1673    , 32.5491447  , 796.2731    , 1.16        , 3           , 16          , 0           , 1.401298E-45
-0.145893484, 0.167323545 , -9.799372   , -0.000138106814, 0.000378701661, 0.000136491726, -0.016069172, -0.0140696606, 3.218178E-05, 921.1673    , 32.5491447  , 796.272949  , 1.17        , 3           , 20          , 0           , 0
-0.143351987, 0.1676858   , -9.79382    , -0.000393781869, 0.0004187239, 4.66238562E-05, -0.016073117, -0.0140654668, 3.258071E-05, 921.1673    , 32.5491447  , 796.2728    , 1.18        , 3           , 21          , 0           , 0
-0.141098022, 0.1653426   , -9.792272   , -0.000461183547, -0.000129848835, 0.0006839747, -0.0160778258, -0.0140666552, 3.94409471E-05, 921.1673    , 32.5491447  , 796.2727    , 1.19        , 3           , 22          , 0           , 0
-0.131014675, 0.16865167  , -9.788165   , -0.000227351382, -0.000138686271, 3.13613127E-05, -0.016080102, -0.0140680363, 3.977683E-05, 921.1673    , 32.5491447  , 796.2726    , 1.2         , 3           , 40          , 0           , 0
-0.133430764, 0.164574891 , -9.803794   , -1.50285778E-05, -0.000279672327, -8.785896E-05, -0.0160911679, -0.0140879247, 3.90972345E-05, 921.1673    , 32.5491447  , 796.3012    , 1.21        , 3           , 41          , 0           , 0
-0.140266135, 0.154198959 , -9.796049   , -3.03013367E-05, 0.000109159737, -0.00024271736, -0.016091438, -0.0140868723, 3.665264E-05, 921.1673    , 32.5491447  , 796.301147  , 1.22        , 3           , 42          , 0           , 0
-0.140819639, 0.157446489 , -9.793813   , 0.00033182  , -0.000208343379, 8.866377E-05, -0.0160881337, -0.0140889408, 3.75727541E-05, 921.178162  , 32.5505     , 796.3011    , 1.23        , 3           , 255         , 0           , 0
-0.142262667, 0.158538118 , -9.783326   , 0.000164374185, -0.000272385776, -0.0008996804, -0.016086366, -0.01409181 , 2.86202667E-05, 921.178162  , 32.5505     , 796.301     , 1.24        , 3           , 255         , 0           , 0
-0.144555956, 0.158265874 , -9.778676   , -0.0002574445, 0.0001010953, -0.000438646559, -0.0160888787, -0.01409087 , 2.42177648E-05, 921.178162  , 32.5505     , 796.300964  , 1.25        , 3           , 255         , 0           , 0
-0.13221553 , 0.151141375 , -9.788217   , -0.000315960671, 3.29602044E-05, -0.00060611486, -0.01609195 , -0.0140906377, 1.8151648E-05, 921.178162  , 32.5505     , 796.3009    , 1.26        , 3           , 255         , 0           , 0
-0.127968937, 0.156669766 , -9.798844   , -0.000617870537, 0.000105792424, -0.0006279774, -0.0160980374, -0.0140896793, 1.18551816E-05, 921.178162  , 32.5505     , 796.300842  , 1.27        , 3           , 255         , 0           , 0
-0.135910764, 0.157669947 , -9.800624   , -8.029904E-05, 0.000121109304, 0.000427849329, -0.0160989  , -0.0140883988, 1.61139378E-05, 921.178162  , 32.5505     , 796.3008    , 1.28        , 3           , 255         , 0           , 0
-0.141394541, 0.1453675   , -9.795378   , 1.05589861E-05, 0.00015883887, 0.000139082433, -0.0160988122, -0.0140867895, 1.747911E-05, 921.178162  , 32.5505     , 796.3007    , 1.29        , 3           , 255         , 0           , 0
-0.141469076, 0.152043149 , -9.779235   , 0.000423856429, -7.72575149E-05, 5.528702E-05, -0.0160945859, -0.0140875522, 1.80443913E-05, 921.178162  , 32.5505     , 796.300659  , 1.3         , 3           , 255         , 0           , 0
-0.13399896 , 0.158255234 , -9.786581   , -5.0450908E-05, -0.00027626846, 0.000301600929, -0.0160897635, -0.0140903322, 2.10290182E-05, 921.178162  , 32.5505     , 796.315     , 1.31        , 3           , 255         , 0           , 0
-0.139436573, 0.15896742  , -9.782961   , -0.000383045175, -0.0003545509, -0.000280172273, -0.01609355 , -0.0140939234, 1.82844942E-05, 921.178162  , 32.5505     , 796.315     , 1.32        , 3           , 255         , 0           , 0
-0.1427426  , 0.160255045 , -9.804262   , 0.00023766153, 0.000197028858, 0.0005558033, -0.0160912517, -0.0140918642, 2.38105076E-05, 921.1927    , 32.55206    , 796.315     , 1.33        , 3           , 255         , 0           , 0
-0.153494254, 0.158396453 , -9.800244   , 2.21293885E-06, 0.0005382754, 0.0003993932, -0.0160912834, -0.0140864179, 2.77176023E-05, 921.1927    , 32.55206    , 796.315     , 1.34        , 3           , 255         , 0           , 0
-0.144283265, 0.153050289 , -9.782069   , 0.000170615618, 0.000127246953, 3.05466674E-05, -0.0160895828, -0.0140851429, 2.80025724E-05, 921.1927    , 32.55206    , 796.315     , 1.35        , 3           , 255         , 0           , 0
-0.136333078, 0.159138113 , -9.783209   , -0.000191088533, 0.000193055952, 4.68079961E-05, -0.0160914976, -0.0140832039, 2.843957E-05, 921.1927    , 32.55206    , 796.315     , 1.36        , 3           , 255         , 0           , 0
-0.139862567, 0.1587216   , -9.789909   , -0.000167110935, 0.0003975383, -0.000183194657, -0.0160931423, -0.0140792578, 2.6543752E-05, 921.1927    , 32.55206    , 796.315     , 1.37        , 3           , 255         , 0           , 0
-0.145339653, 0.1618858   , -9.79433    , -0.0006145723, -5.51989069E-05, 0.000181764815, -0.0160993133, -0.0140797812, 2.83701829E-05, 921.1927    , 32.55206    , 796.315     , 1.38        , 3           , 255         , 0           , 0
-0.149273247, 0.159402341 , -9.799435   , -0.0005203112, -0.000149782747, -0.000182651434, -0.01610449 , -0.0140813086, 2.65678773E-05, 921.1927    , 32.55206    , 796.315     , 1.39        , 3           , 255         , 0           , 0
-0.146744162, 0.169699878 , -9.789664   , 0.000177785987, 0.0003660496, -0.0003381956, -0.0161026642, -0.0140777016, 2.3127157E-05, 921.1927    , 32.55206    , 796.315063  , 1.4         , 3           , 255         , 0           , 0
-0.139397487, 0.162161678 , -9.781634   , 0.000582461 , 0.000198518857, 0.0001390689, -0.016102979, -0.0140900491, 2.45720184E-05, 921.1927    , 32.55206    , 796.313049  , 1.41        , 3           , 255         , 0           , 0
-0.127784282, 0.162491843 , -9.783279   , 0.000464623125, 0.000264361268, 0.000461911521, -0.016098395, -0.0140873343, 2.91483229E-05, 921.1927    , 32.55206    , 796.313049  , 1.42        , 3           , 255         , 0           , 0
-0.13871935 , 0.1475823   , -9.795584   , -0.0005316305, 0.000294294674, 0.000318391481, -0.0161037557, -0.01408434 , 3.22846681E-05, 921.2173    , 32.55199    , 796.313049  , 1.43        , 3           , 255         , 0           , 0
-0.133233115, 0.142807141 , -9.802798   , -0.0003386879, 0.000100973994, 0.0008831222, -0.0161072649, -0.014083189, 4.10991343E-05, 921.2173    , 32.55199    , 796.313049  , 1.44        , 3           , 255         , 0           , 0
-0.131911308, 0.1451317   , -9.794027   , 0.000475980632, -9.77029558E-05, 0.00140265888, -0.0161027033, -0.0140839424, 5.514068E-05, 921.2173    , 32.55199    , 796.313049  , 1.45        , 3           , 255         , 0           , 0
-0.145844862, 0.150522083 , -9.782591   , 0.001035696 , -0.000103022787, 0.0009815835, -0.016092483, -0.0140848123, 6.49725553E-05, 921.2173    , 32.55199    , 796.3131    , 1.46        , 3           , 255         , 0           , 0
-0.146209165, 0.1581891   , -9.778244   , 0.000446498219, 0.000191236148, 0.000477684778, -0.0160880852, -0.0140828229, 6.971838E-05, 921.2173    , 32.55199    , 796.3132    , 1.47        , 3           , 255         , 0           , 0
-0.140462488, 0.162778586 , -9.783749   , 0.000244364841, -0.000134635251, 0.00105621479, -0.0160857886, -0.014084   , 8.030159E-05, 921.2173    , 32.55199    , 796.313232  , 1.48        , 3           , 255         , 0           , 0
-0.144096822, 0.156673178 , -9.781207   , -0.000199463451, -0.000260828645, 0.000596915139, -0.0160878673, -0.01408651 , 8.63123641E-05, 921.2173    , 32.55199    , 796.3133    , 1.49        , 3           , 255         , 0           , 0
-0.136791736, 0.160133258 , -9.788112   , 8.261006E-05, 0.000250385376, 0.0003241217, -0.0160870869, -0.0140839554, 8.951313E-05, 921.2173    , 32.55199    , 796.313354  , 1.5         , 3           , 255         , 0           , 0
-0.136664122, 0.157085747 , -9.797186   , -0.000185529585, 0.000112104928, -9.907482E-05, -0.0160780177, -0.0140851261, 8.835071E-05, 921.2173    , 32.55199    , 796.2856    , 1.51        , 3           , 255         , 0           , 0
-0.131814569, 0.160231918 , -9.797396   , -0.000190392137, -5.738542E-05, 3.37262027E-05, -0.016079925, -0.0140856942, 8.86971757E-05, 921.2173    , 32.55199    , 796.2855    , 1.52        , 3           , 255         , 0           , 0
-0.140463158, 0.160525769 , -9.799474   , 5.428499E-05, -7.800059E-06, 0.0002056596, -0.0160794128, -0.0140857389, 9.075492E-05, 921.169434  , 32.553688   , 796.285461  , 1.53        , 3           , 255         , 0           , 0
-0.1301995  , 0.161984354 , -9.79041    , -0.000176686444, 2.96755461E-05, 0.0008342832, -0.0160812978, -0.0140853077, 9.909251E-05, 921.169434  , 32.553688   , 796.2854    , 1.54        , 3           , 255         , 0           , 0
-0.141816288, 0.1520351   , -9.784344   , -0.00055789575, -0.000261319452, 2.22584786E-05, -0.0160868764, -0.0140879164, 9.935711E-05, 921.169434  , 32.553688   , 796.285339  , 1.55        , 3           , 255         , 0           , 0
-0.146435   , 0.145572513 , -9.78908348 , -8.88115E-05, -0.000240435125, 0.000462122844, -0.0160878319, -0.0140902475, 0.00010401677, 921.169434  , 32.553688   , 796.2853    , 1.56        , 3           , 255         , 0           , 0
-0.13259685 , 0.154979438 , -9.783896   , 0.000189056562, 2.87326984E-05, -0.000133517489, -0.0160859227, -0.0140899811, 0.000102677041, 921.169434  , 32.553688   , 796.2852    , 1.57        , 3           , 255         , 0           , 0
-0.127742335, 0.150890946 , -9.790884   , 0.000246271316, 7.13875052E-05, 0.0006804251, -0.0160835534, -0.0140891569, 0.000109469445, 921.169434  , 32.553688   , 796.285156  , 1.58        , 3           , 255         , 0           , 0
-0.145087451, 0.150152653 , -9.792088   , 6.84344559E-05, -0.0003243771, -0.0003064125, -0.016082827, -0.01409245 , 0.00010645765, 921.169434  , 32.553688   , 796.2851    , 1.59        , 3           , 255         , 0           , 0
-0.1457654  , 0.145514444 , -9.796445   , 0.000471394043, -0.000307250535, -1.05336076E-05, -0.0160781145, -0.0140955243, 0.000106401742, 921.169434  , 32.553688   , 796.285034  , 1.6         , 3           , 255         , 0           , 0
-0.141279221, 0.157866433 , -9.799198   , 0.000869198935, -8.759182E-05, 0.000372177863, -0.0160605628, -0.014096071, 0.000110011744, 921.169434  , 32.553688   , 796.3113    , 1.61        , 3           , 255         , 0           , 0
-0.135392949, 0.159347519 , -9.793877   , 0.000118531112, -7.489452E-05, 0.0007489645, -0.0160594825, -0.0140967006, 0.000117513016, 921.169434  , 32.553688   , 796.31134   , 1.62        , 3           , 255         , 0           , 0
-0.131941527, 0.16393435  , -9.772899   , -0.0008355506, -0.000351064955, 3.069162E-05, -0.016067842, -0.0141002061, 0.000117876312, 921.1898    , 32.5553169  , 796.3114    , 1.63        , 3           , 255         , 0           , 0
-0.132809326, 0.157120317 , -9.794297   , -0.0004387697, -0.000550961937, -0.000543782662, -0.0160721522, -0.0141058015, 0.000112527305, 921.1898    , 32.5553169  , 796.311462  , 1.64        , 3           , 255         , 0           , 0
-0.1394424  , 0.167440012 , -9.798904   , -0.000245153322, -0.0006070222, -0.000149937114, -0.0160745829, -0.014111896, 0.00011112557, 921.1898    , 32.5553169  , 796.3115    , 1.65        , 3           , 255         , 0           , 0
-0.148595557, 0.160029933 , -9.788343   , -4.88167861E-05, -7.626973E-05, -0.0001872128, -0.016075043, -0.0141126867, 0.000109265791, 921.1898    , 32.5553169  , 796.3116    , 1.66        , 3           , 255         , 0           , 0
-0.138144284, 0.159053147 , -9.779006   , 0.000215867418, -0.0004342756, -0.000786261051, -0.0160727743, -0.0141171543, 0.000101473415, 921.1898    , 32.5553169  , 796.311646  , 1.67        , 3           , 255         , 0           , 0
-0.144781321, 0.161482111 , -9.779058   , 1.66520476E-06, -0.000338986632, -0.000248962664, -0.0160727222, -0.0141205844, 9.903841E-05, 921.1898    , 32.5553169  , 796.3117    , 1.68        , 3           , 255         , 0           , 0
-0.141734272, 0.162651509 , -9.794467   , -0.000322069973, -0.000373594579, -9.872194E-05, -0.01607593 , -0.0141243357, 9.811129E-05, 921.1898    , 32.5553169  , 796.311768  , 1.69        , 3           , 255         , 0           , 0
-0.132849962, 0.158665434 , -9.795427   , 2.755539E-05, -2.64120754E-05, 0.000306395872, -0.0160756968, -0.0141245509, 0.000101179336, 921.1898    , 32.5553169  , 796.3118    , 1.7         , 3           , 255         , 0           , 0
-0.147085845, 0.151310951 , -9.795722   , -3.00357351E-05, -0.000383727252, 0.0004560892, -0.0160859134, -0.0141298939, 0.000105940861, 921.1898    , 32.5553169  , 796.3131    , 1.71        , 3           , 255         , 0           , 0
-0.141563863, 0.14349243  , -9.79651451 , 1.97206973E-05, 0.000188557489, 0.0005144592, -0.0160857886, -0.014127925, 0.000111054847, 921.1898    , 32.5553169  , 796.3132    , 1.72        , 3           , 255         , 0           , 0
-0.129758552, 0.149489641 , -9.779605   , -0.0005924596, 0.000238726439, -7.334628E-05, -0.0160917  , -0.0141255492, 0.000110283 , 921.1954    , 32.5547752  , 796.313232  , 1.73        , 3           , 255         , 0           , 0
-0.133536816, 0.152611926 , -9.781056   , 0.000373528 , -0.000504169147, -0.000206754165, -0.01608794 , -0.014130624, 0.000108296706, 921.1954    , 32.5547752  , 796.3133    , 1.74        , 3           , 255         , 0           , 0
-0.128281683, 0.149090976 , -9.783789   , 3.667001E-05, -0.000454655965, -0.0005887352, -0.01608749 , -0.0141352629, 0.0001024828, 921.1954    , 32.5547752  , 796.313354  , 1.75        , 3           , 255         , 0           , 0
-0.130507737, 0.149586752 , -9.781888   , -7.926242E-05, 0.000269915385, 0.000163863064, -0.0160883069, -0.0141325379, 0.000104077932, 921.1954    , 32.5547752  , 796.3134    , 1.76        , 3           , 255         , 0           , 0
-0.137061641, 0.161479145 , -9.791806   , 0.000654612959, 2.700917E-05, -0.00086953456, -0.0160816368, -0.0141324094, 9.53787E-05 , 921.1954    , 32.5547752  , 796.3135    , 1.77        , 3           , 255         , 0           , 0
-0.141562819, 0.1678692   , -9.791875   , -0.0002484275, 0.000212637475, -0.0005720841, -0.0160840377, -0.0141303744, 8.96239653E-05, 921.1954    , 32.5547752  , 796.313538  , 1.78        , 3           , 255         , 0           , 0
-0.124224208, 0.158619374 , -9.787516   , -0.000142078381, 1.82606746E-05, 0.000584774069, -0.01608554 , -0.0141300978, 9.54684438E-05, 921.1954    , 32.5547752  , 796.3136    , 1.79        , 3           , 255         , 0           , 0
-0.12588647 , 0.167970687 , -9.789108   , -0.000293464866, 0.000146005768, -4.739713E-05, -0.0160884671, -0.014128645, 9.4971E-05  , 921.1954    , 32.5547752  , 796.31366   , 1.8         , 3           , 255         , 0           , 0
-0.129807889, 0.163987726 , -9.797077   , -8.486898E-05, -0.000120528857, 0.000414194859, -0.0160816144, -0.0141150439, 9.902255E-05, 921.1954    , 32.5547752  , 796.3085    , 1.81        , 3           , 255         , 0           , 0
-0.1400572  , 0.158983916 , -9.80847    , 0.000204060285, -0.000532790436, 0.0008082402, -0.0160796884, -0.0141202407, 0.0001071902, 921.1954    , 32.5547752  , 796.308533  , 1.82        , 3           , 255         , 0           , 0
-0.143199891, 0.151708931 , -9.780161   , 0.0006566251, -2.24880641E-05, 0.000617241138, -0.01607321 , -0.0141203683, 0.000113365895, 921.1825    , 32.55579    , 796.3086    , 1.83        , 3           , 255         , 0           , 0
-0.138346851, 0.149830222 , -9.794893   , -0.000173066976, -0.0002965351, 9.55915748E-05, -0.0160749536, -0.0141233169, 0.00011436941, 921.1825    , 32.55579    , 796.308655  , 1.84        , 3           , 255         , 0           , 0
-0.139991611, 0.153664082 , -9.797892   , 4.331651E-05, 0.000425887061, -0.000571065932, -0.0160744358, -0.014119151, 0.0001085906, 921.1825    , 32.55579    , 796.3087    , 1.85        , 3           , 255         , 0           , 0
-0.148989782, 0.150575429 , -9.791557   , -5.714316E-05, 0.000141395372, -0.000182346848, -0.0160749815, -0.0141177671, 0.000106744505, 921.1825    , 32.55579    , 796.3088    , 1.86        , 3           , 255         , 0           , 0
-0.1470651  , 0.147093922 , -9.788057   , -0.000182169722, 0.000212116516, -0.000149360218, -0.0160767827, -0.0141156688, 0.000105216874, 921.1825    , 32.55579    , 796.308838  , 1.87        , 3           , 255         , 0           , 0
-0.140976176, 0.139156416 , -9.785098   , 0.00034024776, -0.000167863909, 0.0001659841, -0.016073402, -0.0141173219, 0.000106903608, 921.1825    , 32.55579    , 796.3089    , 1.88        , 3           , 255         , 0           , 0
-0.135296345, 0.151821926 , -9.786163   , 0.000240863475, 8.332555E-05, 0.000393501046, -0.0160710476, -0.0141164241, 0.000110825014, 921.1825    , 32.55579    , 796.30896   , 1.89        , 3           , 255         , 0           , 0
-0.137590453, 0.1627333   , -9.787436   , -0.000812244252, 0.0007221452, 0.000184937409, -0.0160791948, -0.0141091757, 0.000112558206, 921.1825    , 32.55579    , 796.309     , 1.9         , 3           , 255         , 0           , 0
-0.13389194 , 0.1615454   , -9.795362   , -0.000404156628, 0.000332764059, 0.000556031 , -0.0160729066, -0.0141100576, 0.000117917836, 921.1825    , 32.55579    , 796.319336  , 1.91        , 3           , 255         , 0           , 0
-0.132464617, 0.169321924 , -9.78056    , -0.000643701758, 0.000525124429, 0.00107645162, -0.0160794947, -0.0141046317, 0.000128597341, 921.1825    , 32.55579    , 796.319458  , 1.92        , 3           , 255         , 0           , 0
-0.145219371, 0.1814411   , -9.794922   , 2.833642E-05, 0.000241133035, 0.000430165761, -0.0160792712, -0.0141021525, 0.000132859976, 921.1699    , 32.5530777  , 796.3196    , 1.93        , 3           , 255         , 0           , 0
-0.136661962, 0.182313681 , -9.799475   , 0.00024526054, 0.0003013679, -0.0006281895, -0.0160767287, -0.014099244, 0.000126529965, 921.1699    , 32.5530777  , 796.3197    , 1.94        , 3           , 255         , 0           , 0
-0.140928954, 0.1691528   , -9.783363   , 0.000172010914, 0.0004406859, -7.110152E-05, -0.0160749983, -0.0140948491, 0.000125748164, 921.1699    , 32.5530777  , 796.3198    , 1.95        , 3           , 255         , 0           , 0
-0.139942735, 0.175284356 , -9.781866   , -0.000426119659, -0.0003597231, -0.0006203583, -0.0160791744, -0.0140985437, 0.000119602759, 921.1699    , 32.5530777  , 796.319946  , 1.96        , 3           , 255         , 0           , 0
-0.1374419  , 0.170311853 , -9.793718   , -0.000158817391, -0.000202585128, -0.000535618165, -0.0160806868, -0.0141006559, 0.000114279457, 921.1699    , 32.5530777  , 796.320068  , 1.97        , 3           , 255         , 0           , 0
-0.142369822, 0.163344041 , -9.78825951 , -0.0004698966, 8.598738E-05, -0.0006562654, -0.0160852913, -0.0140999015, 0.00010770333, 921.1699    , 32.5530777  , 796.3202    , 1.98        , 3           , 255         , 0           , 0
-0.141612917, 0.141052574 , -9.794233   , -0.0003394389, -6.713648E-05, -0.000179858369, -0.0160886627, -0.0141006  , 0.000105915628, 921.1699    , 32.5530777  , 796.3203    , 1.99        , 3           , 255         , 0           , 0
-0.140795052, 0.144156277 , -9.793692   , -0.0004906282, -5.19241439E-05, -0.0005228364, -0.0160934944, -0.0141012035, 0.0001006959, 921.1699    , 32.5530777  , 796.320435  , 2           , 3           , 0           , 7.011236    , 200
-0.134713843, 0.139365524 , -9.793307   , -0.000447388738, 0.000205819088, -0.0002960564, -0.0161184911, -0.0141018685, 9.799237E-05, 921.1699    , 32.5530777  , 796.3449    , 2.01        , 3           , 1           , 0           , 0
-0.134881467, 0.129855    , -9.787565   , -6.571424E-05, -0.000427273568, 0.000273390149, -0.0161191858, -0.0141060967, 0.000100795005, 921.1699    , 32.5530777  , 796.3452    , 2.02        , 3           , 2           , 0           , 0
-0.143499032, 0.141506866 , -9.790159   , 0.0007224631, -0.000482023228, 0.00126447063, -0.01611214 , -0.0141107133, 0.000113516689, 921.155762  , 32.5555878  , 796.3455    , 2.03        , 3           , 3           , 0           , 0
-0.139173031, 0.161452025 , -9.788716   , 0.00035593193, -0.000250675716, 0.00126388553, -0.0161087569, -0.0141130146, 0.000126195242, 921.155762  , 32.5555878  , 796.3458    , 2.04        , 3           , 4           , 0           , 0
-0.146016926, 0.157451421 , -9.79838848 , 0.0008657927, 1.22310594E-05, -0.000249051547, -0.0161000658, -0.0141129326, 0.000123702877, 921.155762  , 32.5555878  , 796.3461    , 2.05        , 3           , 5           , 0           , 0
-0.147295341, 0.162147537 , -9.795885   , 0.0006504183, 6.482948E-05, 0.000748489343, -0.0160936657, -0.0141121652, 0.000131176916, 921.155762  , 32.5555878  , 796.346436  , 2.06        , 3           , 6           , 0           , 0
-0.134185731, 0.169529051 , -9.800047   , 9.25833E-05 , 0.000212386949, 0.000778499758, -0.0160928462, -0.0141099142, 0.0001389273, 921.155762  , 32.5555878  , 796.346741  , 2.07        , 3           , 7           , 0           , 0
-0.126800478, 0.174175918 , -9.796859   , -0.000253684819, 0.0005421644, -1.90198916E-05, -0.01609538 , -0.0141044958, 0.000138649848, 921.155762  , 32.5555878  , 796.347046  , 2.08        , 3           , 8           , 5           , 5
-0.133352727, 0.176019982 , -9.79278851 , -0.000717508956, 0.000224299147, -0.000296915416, -0.0161025133, -0.0141023016, 0.000135644746, 921.155762  , 32.5555878  , 796.347351  , 2.09        , 3           , 9           , 5           , 0.1
-0.1395636  , 0.173396587 , -9.794264   , -0.000190813676, 0.000221247843, -0.0003039395, -0.0161043759, -0.014100139, 0.000132569883, 921.155762  , 32.5555878  , 796.347656  , 2.1         , 3           , 10          , 0.1         , 0.1
-0.1337698  , 0.167609617 , -9.797544   , 0.000357678218, 0.000372470182, -1.45567319E-05, -0.0161022656, -0.01409584 , 0.000132385045, 921.155762  , 32.5555878  , 796.386841  , 2.11        , 3           , 11          , 0.007867066 , 0.007867065
-0.134641841, 0.162850827 , -9.797718   , 0.000840486842, 8.08679E-06 , -0.000270693679, -0.0160938222, -0.0140958037, 0.000129676948, 921.155762  , 32.5555878  , 796.3874    , 2.12        , 3           , 12          , 0.174643889 , 0
-0.14459683 , 0.152076557 , -9.796304   , 0.000388608372, -0.00059841387, 0.000173789886, -0.0160899628, -0.0141017595, 0.000131511071, 921.192932  , 32.5556564  , 796.387939  , 2.13        , 3           , 13          , 0           , 0
-0.142132148, 0.1461581   , -9.800372   , 3.836793E-05, -9.707699E-05, -6.435039E-05, -0.0160895735, -0.01410274 , 0.000130883214, 921.192932  , 32.5556564  , 796.3885    , 2.14        , 3           , 14          , -0.000897795369, -0.00113040465
-0.136035174, 0.1365786   , -9.794443   , -6.79609948E-05, -0.000434547546, 8.014181E-05, -0.0160902645, -0.0141070718, 0.000131754525, 921.192932  , 32.5556564  , 796.389038  , 2.15        , 3           , 15          , 0           , -0.000232376842
-0.141697735, 0.138834417 , -9.791322   , 0.000200636743, 2.9297662E-05, 0.000277555868, -0.0160883  , -0.0141067337, 0.000134525224, 921.192932  , 32.5556564  , 796.3896    , 2.16        , 3           , 16          , 0           , 1.401298E-45
-0.136684865, 0.151961923 , -9.791418   , 0.0002713661, 0.0001839631, -5.208813E-05, -0.0160855781, -0.0141049027, 0.000133974769, 921.192932  , 32.5556564  , 796.390137  , 2.17        , 3           , 20          , 0           , 0
-0.137253851, 0.154277727 , -9.788086   , -0.000418433861, 0.000286423077, 2.956421E-05, -0.0160897654, -0.0141020352, 0.0001342243, 921.192932  , 32.5556564  , 796.3907    , 2.18        , 3           , 21          , 0           , 0
-0.140152425, 0.1521399   , -9.780465   , 0.0001809498, 4.05438477E-05, 0.000390605535, -0.01608801 , -0.0141015667, 0.000138123636, 921.192932  , 32.5556564  , 796.391235  , 2.19        , 3           , 22          , 0           , 0
-0.136660352, 0.165056124 , -9.786745   , -0.0002788867, 0.0006085762, -0.000218626272, -0.0160907675, -0.0140955159, 0.000135839582, 921.192932  , 32.5556564  , 796.3918    , 2.2         , 3           , 40          , 0           , 0
-0.139047772, 0.160561875 , -9.798361   , -0.000120460114, 0.0003807473, 0.000377151126, -0.01608199 , -0.0140920877, 0.000139408177, 921.192932  , 32.5556564  , 796.379456  , 2.21        , 3           , 41          , 0           , 0
-0.136885643, 0.168383747 , -9.787073   , -0.000136740913, 0.0002584823, -5.275139E-05, -0.0160833467, -0.0140895117, 0.000138839125, 921.192932  , 32.5556564  , 796.379944  , 2.22        , 3           , 42          , 0           , 0
-0.134324819, 0.164562225 , -9.789484   , -0.0005021452, -8.63334863E-05, -0.000427399151, -0.0160883088, -0.014090444, 0.000134579255, 921.1787    , 32.55294    , 796.380432  , 2.23        , 3           , 255         , 0           , 0
-0.137420431, 0.1672436   , -9.793076   , 0.000114356575, -0.0006519746, -0.000331901625, -0.0160871185, -0.0140970163, 0.000131365319, 921.1787    , 32.55294    , 796.3809    , 2.24        , 3           , 255         , 0           , 0
-0.14401944 , 0.171158284 , -9.792531   , 5.8194797E-05, -0.000420206576, -0.000668372144, -0.0160864443, -0.0141013237, 0.000124749567, 921.1787    , 32.55294    , 796.3814    , 2.25        , 3           , 255         , 0           , 0
-0.133281246, 0.164430827 , -9.788427   , -0.0002857311, -0.000151512329, -0.000310570671, -0.0160892587, -0.0141028883, 0.000121668389, 921.1787    , 32.55294    , 796.3819    , 2.26        , 3           , 255         , 0           , 0
-0.13710925 , 0.17319639  , -9.786468   , 6.794062E-05, -6.002374E-06, -0.000675669056, -0.0160884839, -0.0141030569, 0.000114913033, 921.1787    , 32.55294    , 796.3824    , 2.27        , 3           , 255         , 0           , 0
-0.133954689, 0.16439417  , -9.797698   , 0.000414500129, -0.000125905848, -0.000888715032, -0.01608421 , -0.0141044613, 0.000106046617, 921.1787    , 32.55294    , 796.3829    , 2.28        , 3           , 255         , 0           , 0
-0.138388634, 0.151824862 , -9.788887   , -9.183836E-05, -4.387973E-05, -6.19192724E-06, -0.0160851274, -0.014104899, 0.000105991756, 921.1787    , 32.55294    , 796.383362  , 2.29        , 3           , 255         , 0           , 0
-0.134063989, 0.153787822 , -9.78358    , 7.738237E-05, 0.000296355342, 0.00057713897, -0.0160844363, -0.0141018443, 0.000111715162, 921.1787    , 32.55294    , 796.38385   , 2.3         , 3           , 255         , 0           , 0
-0.142624   , 0.144182086 , -9.789133   , 2.34806212E-05, 0.000190764316, 0.000389141031, -0.0160991848, -0.0140970415, 0.000115786119, 921.1787    , 32.55294    , 796.3905    , 2.31        , 3           , 255         , 0           , 0
-0.1490781  , 0.143842667 , -9.798389   , 0.000127184612, 0.000461375923, 0.000120453718, -0.0160979275, -0.0140924128, 0.000116916322, 921.1787    , 32.55294    , 796.391052  , 2.32        , 3           , 255         , 0           , 0
-0.134914756, 0.14867112  , -9.790258   , 0.0003645193, 9.561784E-05, 0.000321347325, -0.016094327, -0.0140914032, 0.000120114222, 921.2199    , 32.5564     , 796.3916    , 2.33        , 3           , 255         , 0           , 0
-0.124982856, 0.155995846 , -9.786571   , 0.000214290281, -0.000300951884, 4.070194E-05, -0.0160921924, -0.0140944058, 0.000120569661, 921.2199    , 32.5564     , 796.392151  , 2.34        , 3           , 255         , 0           , 0
-0.1334375  , 0.145299241 , -9.794803   , 0.000156362017, 0.000108126318, -0.000260491332, -0.0160905924, -0.0140933674, 0.000117947508, 921.2199    , 32.5564     , 796.3927    , 2.35        , 3           , 255         , 0           , 0
-0.136330754, 0.146812037 , -9.799457   , 0.00091597694, -1.73758017E-05, 0.000331191346, -0.01608148 , -0.0140934894, 0.000121262026, 921.2199    , 32.5564     , 796.39325   , 2.36        , 3           , 255         , 0           , 0
-0.13713707 , 0.148694    , -9.801977   , 1.80938514E-06, 0.000142202247, 0.000400838442, -0.0160815176, -0.0140920021, 0.000125247316, 921.2199    , 32.5564     , 796.3938    , 2.37        , 3           , 255         , 0           , 0
-0.151006162, 0.153071016 , -9.794725   , -0.0003105105, 0.000106847845, 0.0004198936, -0.01608468 , -0.0140908668, 0.000129428838, 921.2199    , 32.5564     , 796.394348  , 2.38        , 3           , 255         , 0           , 0
-0.1361588  , 0.154726058 , -9.788663   , -0.000480609131, -0.0002162623, -4.16197727E-05, -0.01608948 , -0.0140930368, 0.000129047432, 921.2199    , 32.5564     , 796.3949    , 2.39        , 3           , 255         , 0           , 0
-0.136789709, 0.16297175  , -9.794332   , -0.000283642323, 0.0003443582, -5.544898E-05, -0.0160923079, -0.014089603, 0.00012843759, 921.2199    , 32.5564     , 796.395447  , 2.4         , 3           , 255         , 0           , 0
-0.139858514, 0.161635265 , -9.787766   , 6.944523E-05, 9.282993E-05, 0.000180542 , -0.0160785057, -0.0140889883, 0.000130042958, 921.2199    , 32.5564     , 796.3464    , 2.41        , 3           , 255         , 0           , 0
-0.137824789, 0.1652166   , -9.784048   , 0.000158669078, -6.92496542E-06, -0.000554552069, -0.0160768423, -0.0140891466, 0.000124498853, 921.2199    , 32.5564     , 796.3466    , 2.42        , 3           , 255         , 0           , 0
-0.137661129, 0.167598158 , -9.785102   , -6.856414E-05, -0.000103985774, -0.0008050113, -0.0160774142, -0.0140903164, 0.0001164659, 921.1691    , 32.55742    , 796.346863  , 2.43        , 3           , 255         , 0           , 0
-0.1373357  , 0.153782427 , -9.791208   , 0.000132917135, 0.000228095276, 0.00023093955, -0.0160761178, -0.0140879983, 0.0001187385, 921.1691    , 32.55742    , 796.3471    , 2.44        , 3           , 255         , 0           , 0
-0.1408344  , 0.1557152   , -9.79257    , 0.000215811247, 0.000121743884, 0.0007168053, -0.01607406 , -0.0140866693, 0.000125886567, 921.1691    , 32.55742    , 796.347351  , 2.45        , 3           , 255         , 0           , 0
-0.139953926, 0.160838336 , -9.788902   , -0.000174623565, -9.223167E-05, -0.000245645526, -0.0160757676, -0.0140876286, 0.000123445061, 921.1691    , 32.55742    , 796.3476    , 2.46        , 3           , 255         , 0           , 0
-0.145191148, 0.157779813 , -9.795118   , -0.0007543992, 6.751192E-05, 0.000169717823, -0.0160833355, -0.0140869264, 0.0001251313, 921.1691    , 32.55742    , 796.347839  , 2.47        , 3           , 255         , 0           , 0
-0.134445861, 0.15438816  , -9.795098   , -0.0004021714, 6.254099E-05, 0.0006020779, -0.01608744 , -0.0140862046, 0.000131141685, 921.1691    , 32.55742    , 796.3481    , 2.48        , 3           , 255         , 0           , 0
-0.132022008, 0.147973716 , -9.793203   , -0.000424201251, -0.0004525812, 0.000841203 , -0.0160918031, -0.0140905939, 0.000139626063, 921.1691    , 32.55742    , 796.3483    , 2.49        , 3           , 255         , 0           , 0
-0.150456712, 0.150591344 , -9.790941   , 0.0001385124, -0.0004054762, 0.0006901233, -0.016090516, -0.0140945371, 0.000146592167, 921.1691    , 32.55742    , 796.3486    , 2.5         , 3           , 255         , 0           , 0
-0.136956364, 0.1583285   , -9.78735352 , 3.14067E-05 , 2.61375681E-05, 0.000218594592, -0.0160905924, -0.0140979011, 0.000148778869, 921.1691    , 32.55742    , 796.3731    , 2.51        , 3           , 255         , 0           , 0
-0.131513536, 0.15872404  , -9.796193   , 0.000327608956, 0.0004323544, 0.0001723268, -0.01608734 , -0.01409355 , 0.00015043249, 921.1691    , 32.55742    , 796.373535  , 2.52        , 3           , 255         , 0           , 0
-0.1343827  , 0.165084243 , -9.790243   , 0.000236568856, 0.000215152628, 0.000116624673, -0.0160849914, -0.0140913837, 0.000151564062, 921.22345   , 32.5591164  , 796.373962  , 2.53        , 3           , 255         , 0           , 0
-0.141830444, 0.161467627 , -9.788449   , -2.20620423E-05, 9.10003437E-05, -0.0002497685, -0.0160851739, -0.0140905129, 0.000149051877, 921.22345   , 32.5591164  , 796.3744    , 2.54        , 3           , 255         , 0           , 0
-0.133166656, 0.162976444 , -9.79497051 , -0.0007337415, 0.00041662727, 5.16806176E-05, -0.0160925183, -0.0140863378, 0.0001495016, 921.22345   , 32.5591164  , 796.3748    , 2.55        , 3           , 255         , 0           , 0
-0.137748   , 0.1594706   , -9.791586   , -0.000857934647, 0.0004000339, 0.0008669475, -0.0161012188, -0.0140822  , 0.000158106224, 921.22345   , 32.5591164  , 796.375244  , 2.56        , 3           , 255         , 0           , 0
-0.1317141  , 0.152814478 , -9.788103   , -0.000355826516, 0.000118696247, 0.000128913074, -0.0161047932, -0.01408099 , 0.000159376141, 921.22345   , 32.5591164  , 796.3757    , 2.57        , 3           , 255         , 0           , 0
-0.139302686, 0.157772586 , -9.789169   , -0.000599097868, 0.000342519372, 0.000106519437, -0.0161107983, -0.0140775479, 0.000160386087, 921.22345   , 32.5591164  , 796.3761    , 2.58        , 3           , 255         , 0           , 0
-0.149866715, 0.171201855 , -9.78932    , -0.00028975 , -4.11475776E-05, -1.47556129E-05, -0.016113691, -0.0140779614, 0.000160245152, 921.22345   , 32.5591164  , 796.3765    , 2.59        , 3           , 255         , 0           , 0
-0.139986962, 0.167927355 , -9.801057   , -0.000164312369, -0.000100228121, 0.000352811039, -0.0161153823, -0.0140789077, 0.000163789213, 921.22345   , 32.5591164  , 796.376953  , 2.6         , 3           , 255         , 0           , 0
-0.13513419 , 0.160761148 , -9.794228   , 6.45477E-05 , -1.17579475E-08, 0.0003292147, -0.0161228869, -0.014078198, 0.000167195263, 921.22345   , 32.5591164  , 796.3241    , 2.61        , 3           , 255         , 0           , 0
-0.141344741, 0.162710875 , -9.787259   , 0.000140854914, 0.000433978217, 0.0006433497, -0.0161215682, -0.0140737556, 0.000173558437, 921.22345   , 32.5591164  , 796.3242    , 2.62        , 3           , 255         , 0           , 0
-0.142395169, 0.159503669 , -9.791666   , 0.000244400755, 3.13553028E-06, -6.976871E-05, -0.0161191132, -0.0140737351, 0.000172860266, 921.251648  , 32.5587769  , 796.324341  , 2.63        , 3           , 255         , 0           , 0
-0.136523157, 0.158414319 , -9.792557   , -0.000173653534, -0.000280457083, -0.000118721349, -0.0161208343, -0.0140765579, 0.000171718333, 921.251648  , 32.5587769  , 796.324463  , 2.64        , 3           , 255         , 0           , 0
-0.143836245, 0.158303052 , -9.795846   , -0.000442612625, 0.000172539148, 0.000200493741, -0.0161252879, -0.0140748005, 0.000173695342, 921.251648  , 32.5587769  , 796.3246    , 2.65        , 3           , 255         , 0           , 0
-0.145518377, 0.148557261 , -9.793745   , -0.000127933512, 0.000250563666, -0.0007420079, -0.0161264632, -0.0140724145, 0.000166235288, 921.251648  , 32.5587769  , 796.3247    , 2.66        , 3           , 255         , 0           , 0
-0.137182847, 0.150230125 , -9.790139   , -0.00014019612, -0.000108079519, 0.000146650564, -0.0161278881, -0.0140734725, 0.000167719147, 921.251648  , 32.5587769  , 796.3248    , 2.67        , 3           , 255         , 0           , 0
-0.134971887, 0.152813137 , -9.7976265  , -0.000682091864, 0.000173517969, -0.000229651356, -0.0161346756, -0.0140717747, 0.000165394755, 921.251648  , 32.5587769  , 796.324951  , 2.68        , 3           , 255         , 0           , 0
-0.131407112, 0.154216066 , -9.791519   , 3.05916765E-05, 0.000325072731, 0.000203606236, -0.0161343981, -0.0140684908, 0.000167378254, 921.251648  , 32.5587769  , 796.3251    , 2.69        , 3           , 255         , 0           , 0
-0.129140228, 0.157953531 , -9.791202   , 0.000189690851, 0.0004849573, 0.000225223877, -0.0161325354, -0.014063606, 0.000169552164, 921.251648  , 32.5587769  , 796.3252    , 2.7         , 3           , 255         , 0           , 0
-0.131712645, 0.159056276 , -9.786436   , -0.000123838021, -0.00026082166, 0.000544714159, -0.0161309466, -0.0140659083, 0.000175000212, 921.251648  , 32.5587769  , 796.24      , 2.71        , 3           , 255         , 0           , 0
-0.141841263, 0.15872699  , -9.793304   , 0.000437100534, 0.0002714019, 0.000490055769, -0.0161266457, -0.0140631162, 0.000179856754, 921.251648  , 32.5587769  , 796.239563  , 2.72        , 3           , 255         , 0           , 0
-0.135778368, 0.170159385 , -9.782482   , -0.000502069655, -1.51675195E-05, -0.000138060685, -0.0161316488, -0.01406329 , 0.000178478658, 921.164734  , 32.55769    , 796.239136  , 2.73        , 3           , 255         , 0           , 0
-0.128080755, 0.175698951 , -9.788138   , -0.000405674858, 0.000164651778, 0.000405989238, -0.01613576 , -0.0140615785, 0.000182511736, 921.164734  , 32.55769    , 796.2387    , 2.74        , 3           , 255         , 0           , 0
-0.128084183, 0.176017776 , -9.789475   , 8.779619E-05, 9.704905E-05, 0.000717512565, -0.0161349829, -0.0140604917, 0.000189670813, 921.164734  , 32.55769    , 796.2383    , 2.75        , 3           , 255         , 0           , 0
-0.139134362, 0.173042461 , -9.793634   , 0.000122071709, 0.000202165334, -0.000344119559, -0.0161337145, -0.0140585257, 0.000186197183, 921.164734  , 32.55769    , 796.237854  , 2.76        , 3           , 255         , 0           , 0
-0.13383849 , 0.167086989 , -9.787807   , 0.000423374819, -4.623679E-05, -0.0003668997, -0.0161294285, -0.0140590463, 0.000182535863, 921.164734  , 32.55769    , 796.2374    , 2.77        , 3           , 255         , 0           , 0
-0.143509164, 0.15775755  , -9.783919   , -3.42786661E-05, 0.000336902856, 0.0007922062, -0.016129883, -0.0140555538, 0.000190403167, 921.164734  , 32.55769    , 796.237     , 2.78        , 3           , 255         , 0           , 0
-0.150591388, 0.153143287 , -9.784822   , -0.0006474079, 8.904573E-05, 0.0004659263, -0.01613642 , -0.0140545871, 0.000195047774, 921.164734  , 32.55769    , 796.2366    , 2.79        , 3           , 255         , 0           , 0
-0.140137345, 0.1530508   , -9.789251   , 0.0003205728, -0.000253788661, -0.000193615066, -0.0161331873, -0.0140571557, 0.0001931527, 921.164734  , 32.55769    , 796.236145  , 2.8         , 3           , 255         , 0           , 0
-0.14455609 , 0.145214751 , -9.803583   , 1.93248852E-05, -6.321864E-05, 0.0003379995, -0.01615006 , -0.0140567152, 0.000196781926, 921.164734  , 32.55769    , 796.283264  , 2.81        , 3           , 255         , 0           , 0
-0.1381472  , 0.1458955   , -9.797522   , 4.50720545E-05, 8.24997E-05 , 0.000801288756, -0.01614972 , -0.0140557615, 0.000204781027, 921.164734  , 32.55769    , 796.283142  , 2.82        , 3           , 255         , 0           , 0
-0.136103064, 0.14374505  , -9.790582   , 0.000117363932, -0.0006269937, -2.3277229E-05, -0.0161485448, -0.014062033, 0.000204649521, 921.1667    , 32.55742    , 796.283     , 2.83        , 3           , 255         , 0           , 0
-0.140255421, 0.153706655 , -9.791796   , -0.000120259065, 0.00014036498, -2.06537516E-05, -0.0161497444, -0.0140606323, 0.000204420314, 921.1667    , 32.55742    , 796.2829    , 2.84        , 3           , 255         , 0           , 0
-0.133143514, 0.156602    , -9.786697   , -7.85451848E-05, 0.000181127514, 0.0006996098, -0.0161506273, -0.0140587091, 0.000211386767, 921.1667    , 32.55742    , 796.2828    , 2.85        , 3           , 255         , 0           , 0
-0.139821112, 0.162654459 , -9.795031   , -0.000255478371, 5.71172E-05 , 0.0008326363, -0.0161533  , -0.0140580041, 0.000219703419, 921.1667    , 32.55742    , 796.282654  , 2.86        , 3           , 255         , 0           , 0
-0.1423543  , 0.171484977 , -9.788094   , -0.000275203085, -8.826738E-05, -0.000273053127, -0.01615601 , -0.01405893 , 0.00021698729, 921.1667    , 32.55742    , 796.282532  , 2.87        , 3           , 255         , 0           , 0
-0.139925092, 0.1706535   , -9.798116   , -0.000683518767, 1.42502831E-05, -0.0003381088, -0.0161627959, -0.0140588423, 0.000213604071, 921.1667    , 32.55742    , 796.2824    , 2.88        , 3           , 255         , 0           , 0
-0.13886027 , 0.169760615 , -9.788588   , 6.03191438E-05, 0.0004601758, -0.000298170955, -0.0161621515, -0.01405429 , 0.000210548169, 921.1667    , 32.55742    , 796.2823    , 2.89        , 3           , 255         , 0           , 0
-0.141496584, 0.160852835 , -9.796386   , 0.000604403438, 0.000411711168, 0.0002973235, -0.0161561482, -0.0140501242, 0.000213454667, 921.1667    , 32.55742    , 796.282166  , 2.9         , 3           , 255         , 0           , 0
-0.142641261, 0.152093649 , -9.794747   , 0.000351607217, 0.000121891615, -0.00058745523, -0.0161523391, -0.0140519021, 0.000207557809, 921.1667    , 32.55742    , 796.3204    , 2.91        , 3           , 255         , 0           , 0
-0.13013944 , 0.149677813 , -9.798333   , 0.000139285519, 0.000307086681, 0.0002503203, -0.01615098 , -0.0140487943, 0.000210011276, 921.1667    , 32.55742    , 796.3205    , 2.92        , 3           , 255         , 0           , 0
-0.134309947, 0.142287374 , -9.794844   , -0.000147252344, 0.000353375333, 0.0004989632, -0.01615252 , -0.0140451789, 0.000214943531, 921.2004    , 32.5591164  , 796.3206    , 2.93        , 3           , 255         , 0           , 0
-0.14893049 , 0.150569841 , -9.797651   , 0.000168931962, 0.000770123967, -6.42197847E-06, -0.0161508266, -0.01403748 , 0.000214754924, 921.2004    , 32.5591164  , 796.32074   , 2.94        , 3           , 255         , 0           , 0
-0.135320708, 0.15009889  , -9.788806   , -0.0001954158, 0.000342763145, 2.29220459E-05, -0.0161527842, -0.0140340487, 0.000214928761, 921.2004    , 32.5591164  , 796.320862  , 2.95        , 3           , 255         , 0           , 0
-0.142990083, 0.1510305   , -9.793169   , -0.00017299701, -0.000174139277, 0.0006590277, -0.0161546059, -0.0140356841, 0.000221546812, 921.2004    , 32.5591164  , 796.321     , 2.96        , 3           , 255         , 0           , 0
-0.140028268, 0.154186413 , -9.790049   , 0.000502275769, 0.000121093704, 0.000487523939, -0.0161496531, -0.0140343988, 0.000226402219, 921.2004    , 32.5591164  , 796.3211    , 2.97        , 3           , 255         , 0           , 0
-0.1371523  , 0.149344    , -9.792983   , 0.000891934033, -0.0001788896, 0.000329919683, -0.0161407776, -0.0140361311, 0.000229730111, 921.2004    , 32.5591164  , 796.3213    , 2.98        , 3           , 255         , 0           , 0
-0.138726071, 0.157475486 , -9.78906    , 0.0004800887, -0.00023315358, 0.00116596941, -0.0161361415, -0.0140382722, 0.000241426766, 921.2004    , 32.5591164  , 796.3215    , 2.99        , 3           , 255         , 0           , 0
-0.137748867, 0.158486575 , -9.792108   , -0.0007494587, 0.000208763988, 0.00127190759, -0.0161438137, -0.0140359821, 0.000254111423, 921.2004    , 32.5591164  , 796.321655  , 3           , 3           , 0           , 8.011236    , 300
-0.128149077, 0.16441533  , -9.787661   , -0.000259602966, 0.000253927079, 0.000142968114, -0.0161351  , -0.0140356654, 0.000255341 , 921.2004    , 32.5591164  , 796.3071    , 3.01        , 3           , 1           , 0           , 0
-0.134110153, 0.167526528 , -9.784833   , -0.000300318177, 0.000479979441, 0.000345220149, -0.0161381513, -0.0140308114, 0.000258715561, 921.2004    , 32.5591164  , 796.3072    , 3.02        , 3           , 2           , 0           , 0
-0.137914956, 0.17221126  , -9.804305   , -0.0006466638, 0.000291846227, -0.000123605292, -0.0161445979, -0.0140279131, 0.000257432461, 921.2023    , 32.55925    , 796.307251  , 3.03        , 3           , 3           , 0           , 0
-0.13985306 , 0.1636667   , -9.807793   , -0.000276915438, -0.000154732144, -0.00052432355, -0.0161472913, -0.0140295438, 0.000252214522, 921.2023    , 32.55925    , 796.3073    , 3.04        , 3           , 4           , 0           , 0
-0.137589961, 0.163563848 , -9.80215    , 0.00011672423, -6.08565751E-05, 0.000754248467, -0.0161462314, -0.01403003 , 0.000259766355, 921.2023    , 32.55925    , 796.3074    , 3.05        , 3           , 5           , 0           , 0
-0.138841555, 0.146630332 , -9.785013   , 0.00117601221, 8.668704E-05, 0.0010167138, -0.01613461 , -0.0140290018, 0.0002699189, 921.2023    , 32.55925    , 796.307434  , 3.06        , 3           , 6           , 0           , 0
-0.142752677, 0.15682064  , -9.771307   , 0.000158243871, -7.732329E-05, 0.000214274391, -0.016133057, -0.0140297385, 0.000272074045, 921.2023    , 32.55925    , 796.3075    , 3.07        , 3           , 7           , 0           , 0
-0.142445624, 0.146614477 , -9.76163    , -0.000163032033, -0.00041884894, -0.0003583493, -0.01613464 , -0.0140339853, 0.0002685583, 921.2023    , 32.55925    , 796.307556  , 3.08        , 3           , 8           , 5           , 5
-0.1426357  , 0.159021989 , -9.783771   , -0.00106356991, -0.000613515847, -7.935469E-05, -0.0161452666, -0.0140401293, 0.0002678638, 921.2023    , 32.55925    , 796.3076    , 3.09        , 3           , 9           , 5           , 0.1
-0.13812004 , 0.1537823   , -9.800218   , -0.00023105432, 4.13808739E-05, -0.000459218863, -0.0161475111, -0.01403979 , 0.000263265218, 921.2023    , 32.55925    , 796.3077    , 3.1         , 3           , 10          , 0.1         , 0.1
-0.131662488, 0.157941177 , -9.80396    , 0.000832070364, 0.0002736366, -0.0002816015, -0.0161422752, -0.0140391244, 0.000260449 , 921.2023    , 32.55925    , 796.2926    , 3.11        , 3           , 11          , 0.00714464067, 0.00714463834
-0.134020448, 0.161936656 , -9.787112   , 0.000333291 , 7.96963E-05 , 0.000279206026, -0.016138982, -0.0140382824, 0.000263228052, 921.2023    , 32.55925    , 796.2926    , 3.12        , 3           , 12          , 0.174645633 , 0
-0.135260954, 0.1602988   , -9.777896   , 0.0007247055, -0.000154160778, 0.000133363821, -0.016131755, -0.0140398024, 0.0002645865, 921.2059    , 32.56027    , 796.2926    , 3.13        , 3           , 13          , 0           , 0
-0.13600643 , 0.158200189 , -9.779051   , -9.21853352E-05, 0.000137962284, 0.000386298343, -0.0161327329, -0.01403836 , 0.000268427015, 921.2059    , 32.56027    , 796.2926    , 3.14        , 3           , 14          , -0.0008977667, -0.00113037031
-0.140753657, 0.157305121 , -9.797232   , -0.000309222727, -0.000301903, 0.000149026164, -0.0161358453, -0.0140413539, 0.0002699659, 921.2059    , 32.56027    , 796.2926    , 3.15        , 3           , 15          , 0           , -0.000232376668
-0.156028032, 0.162656665 , -9.794338   , -0.000172223547, 0.000302237051, 0.000349038164, -0.0161376167, -0.0140382759, 0.00027340732, 921.2059    , 32.56027    , 796.2926    , 3.16        , 3           , 16          , 0           , 1.401298E-45
-0.139115781, 0.155003354 , -9.789232   , 4.301482E-05, 0.000658954435, 8.556609E-05, -0.0161371958, -0.0140316738, 0.0002741566, 921.2059    , 32.56027    , 796.2926    , 3.17        , 3           , 20          , 0           , 0
-0.137383416, 0.143948942 , -9.782124   , 0.000423649675, -0.000105766696, 0.00021278848, -0.01613299 , -0.014032702, 0.000276301434, 921.2059    , 32.56027    , 796.2926    , 3.18        , 3           , 21          , 0           , 0
-0.143168911, 0.147366449 , -9.783422   , -5.85815869E-05, 0.000123432023, 0.000436610659, -0.0161336344, -0.0140313944, 0.000280647364, 921.2059    , 32.56027    , 796.2926    , 3.19        , 3           , 22          , 0           , 0
-0.139012411, 0.159286574 , -9.784262   , -0.0002115037, -0.000120583922, 5.068208E-05, -0.0161357578, -0.0140325911, 0.000281173561, 921.2059    , 32.56027    , 796.2926    , 3.2         , 3           , 40          , 0           , 0
-0.148054108, 0.159916908 , -9.787397   , -0.000237733533, -9.47928056E-05, 0.000125100749, -0.0161343049, -0.0140379844, 0.000282385852, 921.2059    , 32.56027    , 796.2746    , 3.21        , 3           , 41          , 0           , 0
-0.145672217, 0.165169924 , -9.800472   , 0.000114008668, 0.0004131421, -0.000465162448, -0.0161330979, -0.01403393 , 0.0002776678, 921.2059    , 32.56027    , 796.2745    , 3.22        , 3           , 42          , 0           , 0
-0.143840373, 0.161077663 , -9.789504   , -0.000637784542, 9.96028539E-05, -0.0003714724, -0.0161394235, -0.0140329953, 0.0002739372, 921.172852  , 32.558506   , 796.274353  , 3.23        , 3           , 255         , 0           , 0
-0.138262957, 0.16047132  , -9.78166    , -0.0006021234, 7.235503E-05, -0.000205810749, -0.0161454137, -0.0140323034, 0.0002718675, 921.172852  , 32.558506   , 796.274231  , 3.24        , 3           , 255         , 0           , 0
-0.135595381, 0.16170533  , -9.792646   , -0.0001783651, -0.0006529846, 3.265748E-05, -0.0161472019, -0.0140388263, 0.000272299483, 921.172852  , 32.558506   , 796.2741    , 3.25        , 3           , 255         , 0           , 0
-0.139020592, 0.155744717 , -9.78819    , -0.000496410241, -0.0004837562, -8.104906E-05, -0.0161521565, -0.0140436757, 0.000271567173, 921.172852  , 32.558506   , 796.274     , 3.26        , 3           , 255         , 0           , 0
-0.14044039 , 0.155489445 , -9.791123   , -0.000179782452, -4.453759E-05, -0.000404883642, -0.0161538981, -0.0140441861, 0.000267525756, 921.172852  , 32.558506   , 796.273865  , 3.27        , 3           , 255         , 0           , 0
-0.143379465, 0.148205027 , -9.793267   , -0.000356367964, 7.749768E-06, -0.000564514368, -0.0161573831, -0.0140442  , 0.000261879672, 921.172852  , 32.558506   , 796.273743  , 3.28        , 3           , 255         , 0           , 0
-0.1286755  , 0.147347033 , -9.78550148 , 0.000161188247, -5.45592047E-05, -0.0002477431, -0.0161557347, -0.0140447849, 0.00025941123, 921.172852  , 32.558506   , 796.2736    , 3.29        , 3           , 255         , 0           , 0
-0.134566143, 0.1512049   , -9.78414    , 6.4943044E-05, 7.79447146E-05, 3.589361E-05, -0.01615509 , -0.014044   , 0.000259757537, 921.172852  , 32.558506   , 796.2735    , 3.3         , 3           , 255         , 0           , 0
-0.147764057, 0.157303616 , -9.790821   , -0.000245427131, -5.301216E-05, 0.000337125617, -0.0161545388, -0.0140493689, 0.000263094262, 921.172852  , 32.558506   , 796.304932  , 3.31        , 3           , 255         , 0           , 0
-0.149677277, 0.150088891 , -9.799063   , 7.175788E-05, 0.0003909011, 0.000470640953, -0.01615389 , -0.0140453838, 0.000267737283, 921.172852  , 32.558506   , 796.305054  , 3.32        , 3           , 255         , 0           , 0
-0.138108462, 0.151900828 , -9.78078651 , 0.000200810318, 9.97989E-05 , 0.00012359918, -0.0161518976, -0.0140443668, 0.000268957083, 921.216431  , 32.55803    , 796.3052    , 3.33        , 3           , 255         , 0           , 0
-0.1356927  , 0.164904863 , -9.793864   , 0.000418577954, -0.000330475625, -0.000233019484, -0.0161476824, -0.0140477084, 0.0002666804, 921.216431  , 32.55803    , 796.3053    , 3.34        , 3           , 255         , 0           , 0
-0.139913186, 0.1620219   , -9.794789   , 0.00029732706, -0.000289435382, 0.000362692925, -0.0161447637, -0.0140505433, 0.000270353834, 921.216431  , 32.55803    , 796.3054    , 3.35        , 3           , 255         , 0           , 0
-0.138090178, 0.17463854  , -9.792036   , 7.103814E-05, -2.99814856E-05, -0.0006071782, -0.0161439665, -0.0140509419, 0.000264287257, 921.216431  , 32.55803    , 796.305542  , 3.36        , 3           , 255         , 0           , 0
-0.1421445  , 0.164475709 , -9.787142   , 6.657711E-05, 0.000171752414, -0.000236334847, -0.016143268, -0.0140492618, 0.000261896348, 921.216431  , 32.55803    , 796.305664  , 3.37        , 3           , 255         , 0           , 0
-0.151800737, 0.1575813   , -9.792036   , -0.000623154454, -0.000199425151, 0.000475625857, -0.0161495656, -0.0140511794, 0.000266684481, 921.216431  , 32.55803    , 796.3058    , 3.38        , 3           , 255         , 0           , 0
-0.1394541  , 0.159447044 , -9.789983   , -0.000256004161, -0.000170371379, 7.52854248E-05, -0.016152136, -0.0140528716, 0.000267464842, 921.216431  , 32.55803    , 796.3059    , 3.39        , 3           , 255         , 0           , 0
-0.142314613, 0.151808619 , -9.782949   , 0.00064172264, 0.000481424155, 0.000410354056, -0.016145777, -0.0140479906, 0.0002714904, 921.216431  , 32.55803    , 796.306     , 3.4         , 3           , 255         , 0           , 0
-0.147119462, 0.147891626 , -9.787349   , 0.0005718966, -2.8058188E-05, 0.00056345365, -0.01614266 , -0.0140575292, 0.000277164625, 921.216431  , 32.55803    , 796.2711    , 3.41        , 3           , 255         , 0           , 0
-0.142900124, 0.147893026 , -9.794922   , -0.000130727189, 0.0002856669, 0.000258796324, -0.0161440037, -0.014054629, 0.00027970635, 921.216431  , 32.55803    , 796.271     , 3.42        , 3           , 255         , 0           , 0
-0.13294588 , 0.1499774   , -9.783089   , -0.0001385241, 0.000138105475, 0.0001626516, -0.0161454119, -0.0140532227, 0.000281310437, 921.19      , 32.5588455  , 796.2709    , 3.43        , 3           , 255         , 0           , 0
-0.140121043, 0.148484558 , -9.783445   , 9.368948E-05, 0.000180309988, 0.0005143695, -0.0161445476, -0.0140513368, 0.000286424736, 921.19      , 32.5588455  , 796.270752  , 3.44        , 3           , 255         , 0           , 0
-0.126024336, 0.16045469  , -9.78602    , 0.0002652813, 0.000296650222, -0.000111139467, -0.0161418766, -0.0140483892, 0.0002852655, 921.19      , 32.5588455  , 796.2706    , 3.45        , 3           , 255         , 0           , 0
-0.129159108, 0.161131039 , -9.790767   , -0.000115041272, -7.956906E-05, 0.000115021263, -0.0161430445, -0.0140491659, 0.0002864285, 921.19      , 32.5588455  , 796.2705    , 3.46        , 3           , 255         , 0           , 0
-0.138901651, 0.162459463 , -9.799083   , -0.000386615749, 8.430099E-06, 0.0004854836, -0.0161469784, -0.0140490029, 0.000291281671, 921.19      , 32.5588455  , 796.2704    , 3.47        , 3           , 255         , 0           , 0
-0.139439076, 0.161809847 , -9.79101849 , 6.373995E-05, 8.19690758E-05, 0.0004926581, -0.01614641 , -0.0140481032, 0.000296194776, 921.19      , 32.5588455  , 796.270264  , 3.48        , 3           , 255         , 0           , 0
-0.139774472, 0.163017958 , -9.791127   , 0.000274456979, -0.000197946909, -0.000302442233, -0.0161436237, -0.0140501307, 0.000293202465, 921.19      , 32.5588455  , 796.270142  , 3.49        , 3           , 255         , 0           , 0
-0.142097637, 0.16212368  , -9.79116    , 8.577772E-06, 0.000451474567, 0.000349540234, -0.0161435865, -0.01404556 , 0.0002966248, 921.19      , 32.5588455  , 796.27      , 3.5         , 3           , 255         , 0           , 0
-0.13380602 , 0.160978079 , -9.790774   , -6.94506452E-05, 0.000172596308, 0.000544993556, -0.01614135 , -0.0140442979, 0.000302004366, 921.19      , 32.5588455  , 796.277832  , 3.51        , 3           , 255         , 0           , 0
-0.1297814  , 0.156869769 , -9.780054   , -0.000226471981, -8.16728E-05, -7.283279E-05, -0.016143607, -0.0140451258, 0.000301289227, 921.19      , 32.5588455  , 796.2778    , 3.52        , 3           , 255         , 0           , 0
-0.133453786, 0.157114476 , -9.791823   , -0.000301651482, 0.000141766737, -0.0005018123, -0.01614655 , -0.0140437884, 0.0002962485, 921.1886    , 32.55898    , 796.2777    , 3.53        , 3           , 255         , 0           , 0
-0.132440388, 0.15597108  , -9.795638   , 0.00018375495, -0.000141976983, 6.07681723E-05, -0.0161447227, -0.0140451984, 0.000296879065, 921.1886    , 32.55898    , 796.277649  , 3.54        , 3           , 255         , 0           , 0
-0.138746038, 0.166650265 , -9.803087   , -0.000146281382, 0.000173689215, -0.00035497488, -0.0161461346, -0.0140435193, 0.000293301477, 921.1886    , 32.55898    , 796.2776    , 3.55        , 3           , 255         , 0           , 0
-0.135354072, 0.165979356 , -9.792043   , -0.000190266466, 0.00075391453, 2.26518023E-05, -0.0161480363, -0.0140359774, 0.00029340625, 921.1886    , 32.55898    , 796.2775    , 3.56        , 3           , 255         , 0           , 0
-0.139345959, 0.16012153  , -9.783702   , -0.0005494747, 0.000117010437, 0.000418405223, -0.01615359 , -0.0140347406, 0.000297571183, 921.1886    , 32.55898    , 796.277466  , 3.57        , 3           , 255         , 0           , 0
-0.135424882, 0.165662929 , -9.783125   , -0.000422039244, -0.000124554266, 0.000373569434, -0.0161578637, -0.0140359253, 0.000301326771, 921.1886    , 32.55898    , 796.2774    , 3.58        , 3           , 255         , 0           , 0
-0.130951077, 0.165650949 , -9.793039   , 0.000225828378, 2.325722E-05, -0.000220231814, -0.0161555745, -0.0140357278, 0.000299120846, 921.1886    , 32.55898    , 796.277344  , 3.59        , 3           , 255         , 0           , 0
-0.137439936, 0.156393319 , -9.795327   , 0.000443626719, -0.000464907149, -0.0001084229, -0.0161511246, -0.0140403938, 0.000298111729, 921.1886    , 32.55898    , 796.2773    , 3.6         , 3           , 255         , 0           , 0
-0.134289876, 0.150182843 , -9.792877   , -0.000236624619, -1.18316384E-05, -0.000814709871, -0.0161587819, -0.014035576, 0.000290042866, 921.1886    , 32.55898    , 796.2862    , 3.61        , 3           , 255         , 0           , 0
-0.13387543 , 0.158186674 , -9.789258   , 6.777118E-06, 4.98606823E-06, 0.000246712443, -0.0161587484, -0.0140354866, 0.000292509067, 921.1886    , 32.55898    , 796.2862    , 3.62        , 3           , 255         , 0           , 0
-0.135091364, 0.157170281 , -9.792563   , 0.000407021143, 0.0001383439, -4.759022E-05, -0.01615467 , -0.0140341111, 0.0002920108, 921.202759  , 32.55647    , 796.2862    , 3.63        , 3           , 255         , 0           , 0
-0.13695693 , 0.152845144 , -9.796061   , -0.000121618155, 0.00032357272, -0.000309206778, -0.01615584 , -0.014030925, 0.000288866664, 921.202759  , 32.55647    , 796.2862    , 3.64        , 3           , 255         , 0           , 0
-0.135457277, 0.154433578 , -9.790672   , -0.000315503217, 0.0003587603, -0.000112206748, -0.0161589831, -0.0140273562, 0.0002876867, 921.202759  , 32.55647    , 796.2862    , 3.65        , 3           , 255         , 0           , 0
-0.132016271, 0.165877834 , -9.795303   , 5.36933076E-05, 5.88875264E-06, 0.00045747438, -0.01615851 , -0.014027223, 0.000292260229, 921.202759  , 32.55647    , 796.286255  , 3.66        , 3           , 255         , 0           , 0
-0.141340256, 0.150778323 , -9.787507   , -0.000107401982, -0.000190680614, 0.0005687592, -0.016159663, -0.0140290381, 0.000297978317, 921.202759  , 32.55647    , 796.2863    , 3.67        , 3           , 255         , 0           , 0
-0.148149759, 0.152486891 , -9.78977    , -0.000216196408, 0.000306832022, 0.000373683753, -0.0161618758, -0.0140259089, 0.000301665335, 921.202759  , 32.55647    , 796.2864    , 3.68        , 3           , 255         , 0           , 0
-0.136946455, 0.154842824 , -9.791468   , -0.00029988063, -0.00016152882, 0.0006228687, -0.0161649641, -0.0140274232, 0.000307919749, 921.202759  , 32.55647    , 796.286438  , 3.69        , 3           , 255         , 0           , 0
-0.136756092, 0.164758578 , -9.795461   , 5.38440072E-05, -0.0006155389, -8.117418E-05, -0.0161644164, -0.0140335923, 0.000307207549, 921.202759  , 32.55647    , 796.2865    , 3.7         , 3           , 255         , 0           , 0
-0.142397553, 0.165395737 , -9.791599   , 7.51705957E-05, 0.000101406244, -0.000333022646, -0.0161602981, -0.0140321357, 0.000303814566, 921.202759  , 32.55647    , 796.2737    , 3.71        , 3           , 255         , 0           , 0
-0.143844455, 0.163663864 , -9.790706   , 3.54424119E-05, 0.000265359471, 0.000249813776, -0.0161599778, -0.0140294423, 0.000306269678, 921.202759  , 32.55647    , 796.2736    , 3.72        , 3           , 255         , 0           , 0
-0.13331002 , 0.16172424  , -9.800548   , 0.000353527139, 0.000226899981, -0.0002957525, -0.0161563978, -0.0140272221, 0.000303275679, 921.173767  , 32.55769    , 796.27356   , 3.73        , 3           , 255         , 0           , 0
-0.1247529  , 0.166313171 , -9.804574   , -0.000219683163, 0.000190999592, 0.000823330134, -0.0161587112, -0.0140251787, 0.000311477634, 921.173767  , 32.55769    , 796.2735    , 3.74        , 3           , 255         , 0           , 0
-0.137532592, 0.161072716 , -9.801931   , -0.0002615099, 0.000515089836, 0.000837100437, -0.0161614437, -0.0140198944, 0.000319764949, 921.173767  , 32.55769    , 796.273438  , 3.75        , 3           , 255         , 0           , 0
-0.1356407  , 0.15569219  , -9.796987   , -0.000335821533, -8.88186041E-05, -0.000121906894, -0.0161647853, -0.0140208015, 0.000318560255, 921.173767  , 32.55769    , 796.273438  , 3.76        , 3           , 255         , 0           , 0
-0.1413767  , 0.153171957 , -9.794321   , 8.561119E-05, 0.000501037 , -0.000300511572, -0.0161638837, -0.0140158422, 0.000315474317, 921.173767  , 32.55769    , 796.273438  , 3.77        , 3           , 255         , 0           , 0
-0.14298296 , 0.157636449 , -9.796667   , 0.0005296524, 0.0003174094, -0.0009921434, -0.0161584467, -0.0140128285, 0.000305502152, 921.173767  , 32.55769    , 796.273438  , 3.78        , 3           , 255         , 0           , 0
-0.1398711  , 0.166049689 , -9.792106   , 0.0004125051, -0.0002056791, -0.0005175121, -0.016154252, -0.01401497 , 0.0003003606, 921.173767  , 32.55769    , 796.273438  , 3.79        , 3           , 255         , 0           , 0
-0.139307857, 0.154374212 , -9.799377   , -0.000223353272, 0.0002997371, 0.000319225772, -0.0161565281, -0.01401192 , 0.000303504261, 921.173767  , 32.55769    , 796.273438  , 3.8         , 3           , 255         , 0           , 0
-0.138574868, 0.154686362 , -9.78852749 , -0.000437125855, -0.0003386092, 0.00041265288, -0.0161635131, -0.014016063, 0.000307721 , 921.173767  , 32.55769    , 796.3039    , 3.81        , 3           , 255         , 0           , 0
-0.14069064 , 0.157168865 , -9.794314   , -0.000472546264, 0.00030235725, 0.000705992861, -0.0161683373, -0.0140129244, 0.000314731646, 921.173767  , 32.55769    , 796.3041    , 3.82        , 3           , 255         , 0           , 0
-0.139491826, 0.157905266 , -9.790469   , -0.0003404626, 0.000222199189, -0.0007295004, -0.0161716379, -0.0140108205, 0.000307401147, 921.172668  , 32.5588455  , 796.30426   , 3.83        , 3           , 255         , 0           , 0
-0.134081289, 0.161364958 , -9.78926849 , -0.0003922872, 5.298073E-05, -0.000357140554, -0.0161755141, -0.0140103484, 0.000303821376, 921.172668  , 32.5588455  , 796.304443  , 3.84        , 3           , 255         , 0           , 0
-0.142257661, 0.160909563 , -9.788431   , 5.82876964E-05, 0.000123430043, -2.9064613E-05, -0.0161749255, -0.014009119, 0.00030351078, 921.172668  , 32.5588455  , 796.3046    , 3.85        , 3           , 255         , 0           , 0
-0.136864036, 0.169084638 , -9.793259   , 0.000127263949, -7.268414E-05, 0.000273455546, -0.0161736924, -0.0140098017, 0.00030625693, 921.172668  , 32.5588455  , 796.3048    , 3.86        , 3           , 255         , 0           , 0
-0.143130973, 0.166442886 , -9.794866   , 0.000419977121, 9.15549463E-05, -4.4128E-05 , -0.0161694828, -0.0140088936, 0.000305800873, 921.172668  , 32.5588455  , 796.305     , 3.87        , 3           , 255         , 0           , 0
-0.144777969, 0.163796633 , -9.792358   , 0.0005250509, -0.000160867348, 0.000123622012, -0.0161642525, -0.0140104806, 0.000307063019, 921.172668  , 32.5588455  , 796.3052    , 3.88        , 3           , 255         , 0           , 0
-0.1373857  , 0.157270566 , -9.788264   , 4.11019428E-05, -0.000361430924, 0.0009772037, -0.0161639769, -0.01401394 , 0.000316892925, 921.172668  , 32.5588455  , 796.305359  , 3.89        , 3           , 255         , 0           , 0
-0.137677252, 0.1556116   , -9.786187   , -0.000639678852, -9.474752E-05, 0.0004751409, -0.0161704384, -0.0140148094, 0.000321659376, 921.172668  , 32.5588455  , 796.305542  , 3.9         , 3           , 255         , 0           , 0
-0.1399109  , 0.1563926   , -9.787313   , -0.000450902444, -7.516204E-05, 0.000135890892, -0.0161785129, -0.0140195275, 0.00032308005, 921.172668  , 32.5588455  , 796.3331    , 3.91        , 3           , 255         , 0           , 0
-0.138395548, 0.1602292   , -9.790227   , 5.379028E-06, 0.000105194282, -4.71741369E-05, -0.0161784515, -0.0140184835, 0.0003225913, 921.172668  , 32.5588455  , 796.3335    , 3.92        , 3           , 255         , 0           , 0
-0.143578172, 0.162018687 , -9.803606   , -0.000197321817, 0.000152659486, 0.0001492597, -0.0161804464, -0.0140169337, 0.0003240591, 921.176941  , 32.5602     , 796.333862  , 3.93        , 3           , 255         , 0           , 0
-0.144205   , 0.1543399   , -9.802839   , 0.000189378567, 0.0004205805, -0.000132039015, -0.0161785316, -0.0140127484, 0.000322670734, 921.176941  , 32.5602     , 796.3342    , 3.94        , 3           , 255         , 0           , 0
-0.135837257, 0.155517966 , -9.79381    , 0.0006060074, -2.4749781E-05, 0.0008345479, -0.0161725879, -0.014012862, 0.000331019721, 921.176941  , 32.5602     , 796.3346    , 3.95        , 3           , 255         , 0           , 0
-0.137109846, 0.154430538 , -9.789962   , -3.090652E-05, 3.58936377E-05, 0.000220426446, -0.0161729269, -0.0140124671, 0.000333218049, 921.176941  , 32.5602     , 796.334961  , 3.96        , 3           , 255         , 0           , 0
-0.137868315, 0.154203758 , -9.78853    , 0.0006020578, 0.000361503335, 4.31372464E-05, -0.0161669124, -0.0140088452, 0.000333590957, 921.176941  , 32.5602     , 796.3353    , 3.97        , 3           , 255         , 0           , 0
-0.132127956, 0.155029416 , -9.789714   , -5.23517374E-05, 0.000275644823, 0.000148611347, -0.0161674563, -0.0140060652, 0.0003350324, 921.176941  , 32.5602     , 796.3357    , 3.98        , 3           , 255         , 0           , 0
-0.142656237, 0.157943368 , -9.792264   , -0.000157207076, 0.000139611075, -1.358919E-05, -0.0161690246, -0.014004671, 0.00033487397, 921.176941  , 32.5602     , 796.33606   , 3.99        , 3           , 255         , 0           , 0
-0.145962685, 0.1621748   , -9.790648   , -0.0002043036, -0.0003084191, 0.000546520459, -0.0161711462, -0.0140076671, 0.000340388739, 921.176941  , 32.5602     , 796.3364    , 4           , 3           , 0           , 9.011236    , 400
-0.143921167, 0.160676941 , -9.784656   , -0.000152441033, 0.000176177535, -0.000217937559, -0.01617092 , -0.0140095837, 0.0003381569, 921.176941  , 32.5602     , 796.353333  , 4.01        , 3           , 1           , 0           , 0
-0.130809009, 0.161460176 , -9.788923   , -0.000302679779, -0.0002712811, -4.47897619E-05, -0.016173942, -0.0140123041, 0.0003377529, 921.176941  , 32.5602     , 796.3538    , 4.02        , 3           , 2           , 0           , 0
-0.133826643, 0.1575264   , -9.784669   , -0.00068056077, -0.000174611341, 0.0003175982, -0.016180791, -0.0140139982, 0.0003409569, 921.162659  , 32.5587769  , 796.3543    , 4.03        , 3           , 3           , 0           , 0
-0.1336317  , 0.158909768 , -9.78829    , -4.54633264E-05, 0.000474472647, -0.000346064742, -0.0161811952, -0.014009309, 0.000337419682, 921.162659  , 32.5587769  , 796.3548    , 4.04        , 3           , 4           , 0           , 0
-0.135184139, 0.155667618 , -9.785227   , -2.38928478E-05, 5.98989427E-05, 0.00114391465, -0.0161815938, -0.0140085276, 0.0003488485, 921.162659  , 32.5587769  , 796.3553    , 4.05        , 3           , 5           , 0           , 0
-0.147708789, 0.15761739  , -9.798494   , -3.781158E-05, 4.88016522E-05, 0.000274318067, -0.0161820073, -0.014007993, 0.0003515836, 921.162659  , 32.5587769  , 796.3558    , 4.06        , 3           , 6           , 0           , 0
-0.149245232, 0.151555866 , -9.789454   , 0.000308436 , 3.34853539E-05, -4.112364E-05, -0.0161789153, -0.0140076652, 0.000351166964, 921.162659  , 32.5587769  , 796.356262  , 4.07        , 3           , 7           , 0           , 0
-0.139808014, 0.157719359 , -9.790581   , -0.0005095081, 0.000295211561, -0.00021452237, -0.0161839779, -0.0140047492, 0.000348974077, 921.162659  , 32.5587769  , 796.35675   , 4.08        , 3           , 8           , 5           , 5
-0.138384178, 0.15505144  , -9.794046   , 0.000333492761, -7.159333E-05, 0.0005625107, -0.0161807258, -0.0140053732, 0.0003546104, 921.162659  , 32.5587769  , 796.357239  , 4.09        , 3           , 9           , 5           , 0.1
-0.138878733, 0.14854154  , -9.792218   , 2.722902E-05, -4.980387E-05, 0.000432863948, -0.0161805153, -0.0140058016, 0.000358946883, 921.162659  , 32.5587769  , 796.3577    , 4.1         , 3           , 10          , 0.1         , 0.1
-0.142771259, 0.1494364   , -9.795161   , -8.09477642E-05, 0.0002431426, -3.81877762E-05, -0.0161777474, -0.0140069835, 0.0003584757, 921.162659  , 32.5587769  , 796.3919    , 4.11        , 3           , 11          , 0.006562481 , 0.006562478
-0.143404648, 0.154729888 , -9.80234051 , 0.0002699842, -0.0002865356, 1.41389319E-06, -0.01617505 , -0.0140098482, 0.00035853617, 921.162659  , 32.5587769  , 796.3926    , 4.12        , 3           , 12          , 0.174648076 , 0
-0.139037609, 0.164009124 , -9.79365349 , 0.000244485447, -0.000161178177, -0.000305894675, -0.0161725618, -0.01401151 , 0.0003555035, 921.1946    , 32.5569458  , 796.3933    , 4.13        , 3           , 13          , 0           , 0
-0.130382329, 0.159751877 , -9.789558   , 0.0002179069, -0.000180844218, 0.000330656883, -0.0161704291, -0.0140132643, 0.0003588391, 921.1946    , 32.5569458  , 796.394043  , 4.14        , 3           , 14          , -0.000897793332, -0.00113020558
-0.136011347, 0.151401371 , -9.789748   , 0.000736963062, -0.000467446866, 2.769407E-05, -0.0161630642, -0.014017934, 0.000359191617, 921.1946    , 32.5569458  , 796.3948    , 4.15        , 3           , 15          , 0           , -0.000232373626
-0.145052731, 0.164517522 , -9.79059    , -6.977643E-05, 0.000299338717, -2.05880788E-05, -0.0161637589, -0.0140149482, 0.000358937425, 921.1946    , 32.5569458  , 796.3955    , 4.16        , 3           , 16          , 0           , 1.401298E-45
-0.135492057, 0.161176234 , -9.788541   , -0.000209720572, -0.000251862337, -0.000447178929, -0.0161657948, -0.0140175363, 0.000354506541, 921.1946    , 32.5569458  , 796.39624   , 4.17        , 3           , 20          , 0           , 0
-0.133977562, 0.155521482 , -9.785917   , -2.2093649E-05, -0.000196216861, -7.666243E-05, -0.0161660053, -0.0140195107, 0.000353771728, 921.1946    , 32.5569458  , 796.397     , 4.18        , 3           , 21          , 0           , 0
-0.1302554  , 0.151228875 , -9.784802   , -0.000104798004, 2.81936955E-05, 0.000240410562, -0.0161670875, -0.0140191894, 0.0003561711, 921.1946    , 32.5569458  , 796.3977    , 4.19        , 3           , 22          , 0           , 0
-0.143879816, 0.153331518 , -9.791769   , -0.000642231666, 0.0003790601, 0.000487227633, -0.0161735769, -0.0140153188, 0.0003609818, 921.1946    , 32.5569458  , 796.398438  , 4.2         , 3           , 40          , 0           , 0
-0.138450876, 0.158110589 , -9.790416   , -0.000394201372, 3.05764843E-05, 3.05035064E-05, -0.0161746778, -0.0140162269, 0.000361241982, 921.1946    , 32.5569458  , 796.3814    , 4.21        , 3           , 41          , 0           , 0
-0.141574889, 0.161769167 , -9.790289   , 0.00025364256, 3.53666255E-05, 0.000567952055, -0.0161722191, -0.0140157817, 0.000366915425, 921.1946    , 32.5569458  , 796.382     , 4.22        , 3           , 42          , 0           , 0
-0.143629774, 0.153438583 , -9.780826   , -0.000331665738, 0.0005600812, 2.44104885E-05, -0.0161755364, -0.014010177, 0.000367068948, 921.168     , 32.55898    , 796.3826    , 4.23        , 3           , 255         , 0           , 0
-0.14771989 , 0.155569673 , -9.788299   , -0.000110973837, 0.000432349159, -0.000273413723, -0.0161766075, -0.0140058985, 0.000364265 , 921.168     , 32.55898    , 796.38324   , 4.24        , 3           , 255         , 0           , 0
-0.139864773, 0.161993667 , -9.790237   , -0.000146737788, 0.000186313875, 0.000399276236, -0.01617813 , -0.0140039707, 0.0003682274, 921.168     , 32.55898    , 796.38385   , 4.25        , 3           , 255         , 0           , 0
-0.135982379, 0.171921372 , -9.78952    , -0.000189987477, 4.97046858E-06, 0.000441929064, -0.0161800943, -0.01400385 , 0.00037264562, 921.168     , 32.55898    , 796.38446   , 4.26        , 3           , 255         , 0           , 0
-0.144024163, 0.169434384 , -9.794745   , -9.903486E-05, 0.000229149126, 0.0004642581, -0.0161811467, -0.0140014822, 0.000377250864, 921.168     , 32.55898    , 796.3851    , 4.27        , 3           , 255         , 0           , 0
-0.152423114, 0.161601871 , -9.794982   , -9.626942E-05, 0.000390826433, -0.000272291538, -0.0161820725, -0.013997619, 0.000374464842, 921.168     , 32.55898    , 796.3857    , 4.28        , 3           , 255         , 0           , 0
-0.146682933, 0.153731987 , -9.797745   , -0.000435034162, 0.000487969723, -0.000468014856, -0.016186351, -0.0139928162, 0.000369706 , 921.168     , 32.55898    , 796.3863    , 4.29        , 3           , 255         , 0           , 0
-0.142344758, 0.1552162   , -9.794574   , -0.000263173133, 0.000308705377, 0.000122516212, -0.0161890034, -0.0139897093, 0.0003708811, 921.168     , 32.55898    , 796.3869    , 4.3         , 3           , 255         , 0           , 0
-0.14022164 , 0.154975653 , -9.78542    , 0.000145128521, -0.000376156881, 6.940804E-05, -0.016190473, -0.0140030021, 0.00037167687, 921.168     , 32.55898    , 796.4089    , 4.31        , 3           , 255         , 0           , 0
-0.137902647, 0.151284158 , -9.787886   , 0.0004104636, 9.130442E-05, -9.682373E-05, -0.0161863547, -0.0140021043, 0.0003706939, 921.168     , 32.55898    , 796.4096    , 4.32        , 3           , 255         , 0           , 0
-0.136266619, 0.158492059 , -9.79404449 , 3.027427E-05, 0.000549922639, 0.000123553415, -0.01618607 , -0.0139965862, 0.000371840317, 921.216     , 32.5582352  , 796.410339  , 4.33        , 3           , 255         , 0           , 0
-0.1415169  , 0.152830079 , -9.790939   , 0.000135077687, -0.000172859989, -0.000149431813, -0.0161846969, -0.013998339, 0.0003703741, 921.216     , 32.5582352  , 796.4111    , 4.34        , 3           , 255         , 0           , 0
-0.140231624, 0.148982733 , -9.790505   , 0.0001431902, 0.000291764445, 0.000373273069, -0.0161833167, -0.0139953615, 0.000374059367, 921.216     , 32.5582352  , 796.4118    , 4.35        , 3           , 255         , 0           , 0
-0.140001982, 0.155440718 , -9.794246   , 0.000322064268, -0.000124236918, 0.000666714855, -0.0161801912, -0.0139965  , 0.0003807462, 921.216     , 32.5582352  , 796.412537  , 4.36        , 3           , 255         , 0           , 0
-0.1388642  , 0.156179041 , -9.800062   , 0.0005949409, -0.000271580066, 0.00010061689, -0.0161742549, -0.0139991958, 0.000381796242, 921.216     , 32.5582352  , 796.413269  , 4.37        , 3           , 255         , 0           , 0
-0.133360356, 0.157671541 , -9.791525   , 0.000522974646, 0.0005287037, -0.000330839423, -0.0161689781, -0.0139939617, 0.000378402561, 921.216     , 32.5582352  , 796.414063  , 4.38        , 3           , 255         , 0           , 0
-0.134359688, 0.16762343  , -9.795553   , 0.00022465107, -8.658937E-05, -3.65020242E-06, -0.0161667336, -0.0139948325, 0.000378380064, 921.216     , 32.5582352  , 796.414856  , 4.39        , 3           , 255         , 0           , 0
-0.1279773  , 0.162365168 , -9.793722   , -6.93278853E-05, 7.12588662E-05, 0.000110988367, -0.0161674414, -0.0139941  , 0.000379478355, 921.216     , 32.5582352  , 796.415649  , 4.4         , 3           , 255         , 0           , 0
-0.13947317 , 0.161416948 , -9.789831   , 0.000314339064, 0.000348477566, -0.000216561632, -0.01616155 , -0.0139906285, 0.0003772186, 921.216     , 32.5582352  , 796.365662  , 4.41        , 3           , 255         , 0           , 0
-0.1377914  , 0.161782473 , -9.786174   , -0.000642839237, 0.000584295252, -0.00042320622, -0.0161679182, -0.0139848553, 0.000372892246, 921.216     , 32.5582352  , 796.3661    , 4.42        , 3           , 255         , 0           , 0
-0.136129856, 0.164450809 , -9.790316   , -0.0007063304, 0.0005552188, -0.0006931169, -0.0161748827, -0.0139794154, 0.000365871674, 921.207336  , 32.5597267  , 796.3665    , 4.43        , 3           , 255         , 0           , 0
-0.137575328, 0.153276235 , -9.798009   , -2.386456E-06, 0.000288386655, -0.0003204953, -0.01617486 , -0.0139765842, 0.000362620282, 921.207336  , 32.5597267  , 796.367     , 4.44        , 3           , 255         , 0           , 0
-0.131652683, 0.156002954 , -9.792796   , 0.000253074861, -1.90513674E-06, -0.000134201982, -0.01617231 , -0.0139766252, 0.0003612786, 921.207336  , 32.5597267  , 796.3675    , 4.45        , 3           , 255         , 0           , 0
-0.137234673, 0.150375336 , -9.788522   , -0.000347744324, 0.00016603386, -0.000147461891, -0.0161757655, -0.0139749879, 0.000359777216, 921.207336  , 32.5597267  , 796.368     , 4.46        , 3           , 255         , 0           , 0
-0.147177383, 0.150290325 , -9.787808   , -2.55531631E-06, 0.000117420568, -0.000423694, -0.016175732, -0.0139738824, 0.000355521566, 921.207336  , 32.5597267  , 796.368469  , 4.47        , 3           , 255         , 0           , 0
-0.132308513, 0.1592053   , -9.786842   , -0.000408013584, 7.978862E-05, 0.000152944878, -0.0161798336, -0.01397306 , 0.000357037963, 921.207336  , 32.5597267  , 796.368958  , 4.48        , 3           , 255         , 0           , 0
-0.139870018, 0.151707143 , -9.786616   , -4.961784E-05, 0.0002777626, 0.0009801468, -0.016180465, -0.0139701264, 0.000366793916, 921.207336  , 32.5597267  , 796.369446  , 4.49        , 3           , 255         , 0           , 0
-0.1377829  , 0.153987363 , -9.791616   , 0.000294235069, -6.997131E-05, 0.000576606952, -0.0161776021, -0.0139707327, 0.000372571 , 921.207336  , 32.5597267  , 796.369934  , 4.5         , 3           , 255         , 0           , 0
-0.136017635, 0.1640018   , -9.797638   , -5.65652736E-05, 9.190792E-05, -0.000202887357, -0.0161745623, -0.0139712868, 0.000370477384, 921.207336  , 32.5597267  , 796.338867  , 4.51        , 3           , 255         , 0           , 0
-0.1360499  , 0.160506979 , -9.788727   , 0.000416978641, -7.28638843E-05, -0.0003651621, -0.01617034 , -0.0139720738, 0.000366837747, 921.207336  , 32.5597267  , 796.3392    , 4.52        , 3           , 255         , 0           , 0
-0.137582809, 0.156818137 , -9.785367   , 0.000219013309, 0.0003193057, -8.120864E-05, -0.016168138, -0.0139688943, 0.0003659741, 921.1756    , 32.56122    , 796.3395    , 4.53        , 3           , 255         , 0           , 0
-0.142406181, 0.15836373  , -9.788789   , -5.0405215E-05, 0.000215875567, 0.000640455168, -0.01616873 , -0.0139666339, 0.000372343377, 921.1756    , 32.56122    , 796.3398    , 4.54        , 3           , 255         , 0           , 0
-0.140717477, 0.157568723 , -9.790058   , -5.73124271E-06, 2.8927112E-05, -8.236115E-05, -0.0161687769, -0.0139663583, 0.00037151514, 921.1756    , 32.56122    , 796.3401    , 4.55        , 3           , 255         , 0           , 0
-0.137558848, 0.16007854  , -9.797679   , 0.000178771792, 0.000405715662, -0.0001876738, -0.0161669627, -0.01396233 , 0.000369572866, 921.1756    , 32.56122    , 796.3404    , 4.56        , 3           , 255         , 0           , 0
-0.137353331, 0.152868584 , -9.798513   , 0.000677988748, 0.0004691364, 0.00010110838, -0.0161601976, -0.0139576271, 0.000370508118, 921.1756    , 32.56122    , 796.3407    , 4.57        , 3           , 255         , 0           , 0
-0.1393879  , 0.152895182 , -9.79442    , 0.00015644118, 0.0005396969, -0.000166462254, -0.0161586069, -0.0139522562, 0.0003687564, 921.1756    , 32.56122    , 796.341     , 4.58        , 3           , 255         , 0           , 0
-0.143235773, 0.151259273 , -9.787241   , -0.00071217434, 0.0005885834, -0.000219341266, -0.0161656961, -0.0139464075, 0.000366467924, 921.1756    , 32.56122    , 796.3413    , 4.59        , 3           , 255         , 0           , 0
-0.141526133, 0.148938671 , -9.787827   , -0.0004352302, 0.0007204172, 0.0001927139, -0.0161700677, -0.0139391739, 0.0003682785, 921.1756    , 32.56122    , 796.3416    , 4.6         , 3           , 255         , 0           , 0
-0.145398229, 0.16283837  , -9.787769   , 0.0003916028, 0.000237797387, 0.000575569749, -0.0161633119, -0.0139402123, 0.000373954652, 921.1756    , 32.56122    , 796.3595    , 4.61        , 3           , 255         , 0           , 0
-0.147470564, 0.151918918 , -9.793342   , 0.000192689651, -0.000203263015, 0.000306654663, -0.01616143 , -0.013942196, 0.000377053861, 921.1756    , 32.56122    , 796.3599    , 4.62        , 3           , 255         , 0           , 0
-0.137760952, 0.162289977 , -9.788811   , -3.476115E-05, 0.000148714054, 0.000297813269, -0.0161618181, -0.01394066 , 0.000380007783, 921.2288    , 32.55932    , 796.360352  , 4.63        , 3           , 255         , 0           , 0
-0.141637653, 0.16175656  , -9.793133   , -0.00035528338, 0.000890195137, 0.000253074715, -0.0161654018, -0.0139317168, 0.0003823944, 921.2288    , 32.55932    , 796.3608    , 4.64        , 3           , 255         , 0           , 0
-0.142215833, 0.14910695  , -9.788586   , -0.000189980143, 0.000240960973, 0.0007056286, -0.0161674  , -0.0139291948, 0.000389411318, 921.2288    , 32.55932    , 796.3612    , 4.65        , 3           , 255         , 0           , 0
-0.141940683, 0.152436256 , -9.78949    , 0.000239881454, 0.000463986769, 6.46938E-05 , -0.0161650069, -0.0139245484, 0.0003899832, 921.2288    , 32.55932    , 796.361633  , 4.66        , 3           , 255         , 0           , 0
-0.136043355, 0.151787087 , -9.787593   , 0.0002957728, 0.000481648662, 0.000111493486, -0.0161620621, -0.0139197148, 0.0003910202, 921.2288    , 32.55932    , 796.362061  , 4.67        , 3           , 255         , 0           , 0
-0.146400243, 0.154660508 , -9.788488   , -0.000220760587, 0.000331146643, -0.00054450403, -0.0161641911, -0.0139164906, 0.000385522 , 921.2288    , 32.55932    , 796.3625    , 4.68        , 3           , 255         , 0           , 0
-0.141141817, 0.157753974 , -9.781213   , 9.36258E-05 , -6.86947E-05, -6.498063E-05, -0.0161632467, -0.0139171882, 0.000384883344, 921.2288    , 32.55932    , 796.3629    , 4.69        , 3           , 255         , 0           , 0
-0.132788092, 0.15119344  , -9.78673    , 7.356284E-06, -0.000120550627, -0.0002909648, -0.0161631349, -0.0139184417, 0.000381993334, 921.2288    , 32.55932    , 796.363342  , 4.7         , 3           , 255         , 0           , 0
-0.133389279, 0.152960956 , -9.796534   , 0.000609313662, -0.000393703929, -0.00103554619, -0.0161518957, -0.0139316693, 0.0003716324, 921.2288    , 32.55932    , 796.3029    , 4.71        , 3           , 255         , 0           , 0
-0.130988687, 0.155524909 , -9.794973   , 0.000485722325, 0.000219966983, -8.21691356E-05, -0.0161470268, -0.0139294816, 0.000370775233, 921.2288    , 32.55932    , 796.303     , 4.72        , 3           , 255         , 0           , 0
-0.1276776  , 0.16652295  , -9.799604   , -1.66042009E-05, 7.72016356E-05, 0.000245617324, -0.0161472242, -0.01392867 , 0.00037321882, 921.1827    , 32.55932    , 796.30304   , 4.73        , 3           , 255         , 0           , 0
-0.1442607  , 0.1520038   , -9.788166   , -0.000327743, 0.000222983945, 0.000539456261, -0.016150577, -0.0139263533, 0.000378577 , 921.1827    , 32.55932    , 796.3031    , 4.74        , 3           , 255         , 0           , 0
-0.149052337, 0.155860662 , -9.78586    , -0.000283877482, 7.60763651E-05, 0.000907629146, -0.0161535423, -0.0139254462, 0.000387640466, 921.1827    , 32.55932    , 796.303162  , 4.75        , 3           , 255         , 0           , 0
-0.142565385, 0.167349577 , -9.78395748 , 0.000228907971, 8.305651E-05, 0.0009755839, -0.0161513872, -0.0139244609, 0.000397382333, 921.1827    , 32.55932    , 796.3032    , 4.76        , 3           , 255         , 0           , 0
-0.146834046, 0.169938713 , -9.788383   , 0.000219792011, -0.000150327454, 0.00056959514, -0.0161492657, -0.0139258709, 0.000403102225, 921.1827    , 32.55932    , 796.3033    , 4.77        , 3           , 255         , 0           , 0
-0.143336236, 0.154217392 , -9.797305   , -0.000382429338, 0.0004496724, 0.000790328253, -0.0161532  , -0.01392125 , 0.000410932378, 921.1827    , 32.55932    , 796.303345  , 4.78        , 3           , 255         , 0           , 0
-0.133274063, 0.161706746 , -9.80105    , -0.000327366171, 0.0002623606, 0.000229709054, -0.0161565021, -0.0139185879, 0.000413186935, 921.1827    , 32.55932    , 796.3034    , 4.79        , 3           , 255         , 0           , 0
-0.1350924  , 0.165776536 , -9.78396    , -8.398807E-05, 0.000172853353, -0.000379644654, -0.0161572881, -0.01391692 , 0.000409362779, 921.1827    , 32.55932    , 796.303467  , 4.8         , 3           , 255         , 0           , 0
