Acc X       , Acc Y       , Acc Z       , Gyro X      , Gyro Y      , Gyro Z      , Euler X     , Euler Y     , Euler Z     , Pres X      , Pres Y      , Pres Z      , Time        , Status      , LowRate X   , LowRate Y   , LowRate Z    
-0.114945926, 0.154694915 , -9.786485   , 0           , 0           , 0           , -0.0158056784, -0.0117433667, 1.96935356  , 917.5928    , 30.08804    , 828.7239    , 0           , 2           , 0           , 5.48423147  , 0
-0.150207132, 0.20404467  , -9.876338   , -0.000355499331, -0.000345617649, -0.000394469942, -0.0158092473, -0.0117465574, 1.96934938  , 917.5928    , 30.08804    , 828.7239    , 0.01        , 7           , 1           , 0           , 0
-0.143438384, 0.193769842 , -9.779124   , 0.0008032256, -0.000258991844, 0.0006367163, -0.01580129 , -0.0117490441, 1.96935582  , 917.5928    , 30.08804    , 828.7239    , 0.02        , 7           , 2           , 0           , 0
-0.109222911, 0.182001621 , -9.798151   , 0.0006581165, 0.001105797 , 0.0006602044, -0.0157947857, -0.011737884, 1.96936226  , 917.5599    , 29.65636    , 828.7239    , 0.03        , 7           , 3           , 0           , 0
-0.07777581 , 0.185813159 , -9.776332   , 2.23525567E-05, 0.000574824167, 0.00038116  , -0.0157946032, -0.0117320754, 1.96936607  , 917.5599    , 29.65636    , 828.7239    , 0.04        , 7           , 4           , 0           , 0
-0.08744866 , 0.17242986  , -9.789083   , 0.00018596329, -0.000377564225, -0.000139188953, -0.01579273 , -0.0117358705, 1.96936476  , 917.5599    , 29.65636    , 828.7239    , 0.05        , 7           , 5           , 0           , 0
-0.118108012, 0.1643709   , -9.77113    , -0.0006898688, -0.0003890181, 0.000196724111, -0.0157996491, -0.01173973 , 1.96936679  , 917.5599    , 29.65636    , 828.7239    , 0.06        , 7           , 6           , 0           , 0
-0.12534757 , 0.163419649 , -9.842649   , -0.000402032776, 0.000377903227, 0.0004019679, -0.01580372 , -0.0117358873, 1.96937072  , 917.5599    , 29.65636    , 828.7239    , 0.07        , 7           , 7           , 0           , 0
-0.130428851, 0.16059348  , -9.800725   , 0.000688629632, 0.000143472338, 0.000684006955, -0.0157969128, -0.0117343441, 1.96937764  , 917.5599    , 29.65636    , 828.7239    , 0.08        , 7           , 8           , 5           , 5
-0.116449416, 0.152135015 , -9.794106   , 0.000920058868, -1.5177764E-05, 0.000446463178, -0.0157877617, -0.0117344251, 1.96938217  , 917.5599    , 29.65636    , 828.7239    , 0.09        , 7           , 9           , 5           , 0.1
-0.104698345, 0.146650672 , -9.771032   , 8.33341037E-05, 0.000730467262, -8.901294E-05, -0.0157869179, -0.0117271366, 1.96938109  , 917.5599    , 29.65636    , 828.7239    , 0.1         , 7           , 10          , 0.1         , 0.1
-0.110490046, 0.1405257   , -9.768969   , -0.000798516, 0.000290568918, 9.9586E-05  , -0.0158424638, -0.0117276795, 1.96938276  , 917.5599    , 29.65636    , 829.02      , 0.11        , 7           , 11          , 0.0109544508, 0.0109544508
-0.137778521, 0.123386644 , -9.780085   , -0.0006736078, -3.474648E-05, 0.0004341492, -0.01584925 , -0.0117279561, 1.969387    , 917.5599    , 29.65636    , 829.02      , 0.12        , 7           , 12          , 0.0346410163, 0
-0.13028492 , 0.120939113 , -9.832116   , -0.000573296566, 0.00101510412, 0.0001467563, -0.0158549976, -0.0117177833, 1.96938837  , 917.54364   , 29.6944866  , 829.02      , 0.13        , 7           , 13          , 0           , 0
-0.104525827, 0.121191517 , -9.826029   , 0.0003158581, 0.000196388341, -0.00020212325, -0.0158518143, -0.0117158517, 1.96938634  , 917.54364   , 29.6944866  , 829.0201    , 0.14        , 7           , 14          , 0.0005964506, 0.00170854572
-0.06663741 , 0.111558452 , -9.77240849 , 0.0006108168, -5.83685469E-05, 0.000287489442, -0.0158457384, -0.0117163863, 1.96938932  , 917.54364   , 29.6944866  , 829.020142  , 0.15        , 7           , 15          , 0           , 0.000164747151
-0.07126492 , 0.106648184 , -9.772909   , -4.374888E-06, -0.00032920693, -0.000162950309, -0.0158457644, -0.0117197065, 1.96938777  , 917.54364   , 29.6944866  , 829.0202    , 0.16        , 7           , 16          , 0           , 1.401298E-45
-0.125008121, 0.115798458 , -9.781172   , 4.62392345E-05, -0.00012924266, 0.000159225834, -0.01584532 , -0.0117209712, 1.96938932  , 917.54364   , 29.6944866  , 829.020264  , 0.17        , 7           , 20          , 0           , 0
-0.160260454, 0.111440018 , -9.800937   , 1.908571E-06, 7.889606E-05, 8.682563E-05, -0.01584531 , -0.0117201684, 1.96939015  , 917.54364   , 29.6944866  , 829.0203    , 0.18        , 7           , 21          , 0           , 0
-0.169940546, 0.102153242 , -9.808383   , 0.000577745435, 0.000241680653, -0.00019300665, -0.0158395134, -0.0117177814, 1.96938837  , 917.54364   , 29.6944866  , 829.0204    , 0.19        , 7           , 22          , 0           , 0
-0.151630491, 0.09633751  , -9.801455   , 0.0005340152, 0.0005168172, -0.000480266084, -0.0158341117, -0.0117126908, 1.96938348  , 917.54364   , 29.6944866  , 829.020447  , 0.2         , 7           , 40          , 0           , 0
-0.120148242, 0.111020461 , -9.778574   , 0.0008101514, 0.0006622565, -0.000396716583, -0.0156804286, -0.0117351236, 1.96937764  , 917.54364   , 29.6944866  , 829.0932    , 0.21        , 7           , 41          , 0           , 0
-0.0925017  , 0.1319435   , -9.772357   , 0.000213831954, 0.000159768621, -0.000394699, -0.0156782456, -0.011733585, 1.9693737   , 917.54364   , 29.6944866  , 829.093262  , 0.22        , 7           , 42          , 1           , 0
-0.08092642 , 0.150459468 , -9.786209   , -0.0010206789, 0.000590454554, 7.254424E-05, -0.01568846 , -0.0117276711, 1.96937442  , 917.5733    , 29.7180958  , 829.0933    , 0.23        , 7           , 255         , 0           , 0
-0.08227431 , 0.147722244 , -9.828204   , -0.000258264336, 0.000831465237, -1.65297533E-05, -0.01569104 , -0.0117193591, 1.96937418  , 917.5733    , 29.7180958  , 829.0934    , 0.24        , 7           , 255         , 0           , 0
-0.10689491 , 0.156523362 , -9.808261   , -0.000153136643, -0.0005395174, 0.0001720048, -0.01569259 , -0.0117247282, 1.96937585  , 917.5733    , 29.7180958  , 829.093445  , 0.25        , 7           , 255         , 0           , 0
-0.138727516, 0.17226176  , -9.802147   , 0.000289964373, 0.000110630528, 0.000450769672, -0.0156897455, -0.011723551, 1.96938038  , 917.5733    , 29.7180958  , 829.0935    , 0.26        , 7           , 255         , 0           , 0
-0.144521952, 0.179208964 , -9.776328   , 0.0003606915, -0.000179703929, 0.0007292036, -0.0156862233, -0.011725232, 1.96938765  , 917.5733    , 29.7180958  , 829.093567  , 0.27        , 7           , 255         , 0           , 0
-0.134394735, 0.180375591 , -9.769885   , 0.000109169574, -0.000469733961, 0.00011906767, -0.0156851448, -0.0117299119, 1.969389    , 917.5733    , 29.7180958  , 829.0936    , 0.28        , 7           , 255         , 0           , 0
-0.119842254, 0.189803123 , -9.791567   , -0.0008085513, 0.000474211061, -0.0008284179, -0.0156931318, -0.0117252991, 1.96938062  , 917.5733    , 29.7180958  , 829.0937    , 0.29        , 7           , 255         , 0           , 0
-0.09439344 , 0.194390431 , -9.804998   , -0.000630475639, 0.000176614616, -0.000360376958, -0.0156993922, -0.0117235873, 1.969377    , 917.5733    , 29.7180958  , 829.09375   , 0.3         , 7           , 255         , 0           , 0
-0.07626063 , 0.202553079 , -9.807202   , -0.0007075058, 0.000121517223, 5.660433E-05, -0.0157373678, -0.0117089432, 1.96937788  , 917.5733    , 29.7180958  , 829.0284    , 0.31        , 7           , 255         , 0           , 0
-0.08410434 , 0.207246423 , -9.806244   , 0.000113183865, 0.0003831071, -0.000439502328, -0.0157361869, -0.0117051825, 1.96937346  , 917.5733    , 29.7180958  , 829.028442  , 0.32        , 7           , 255         , 0           , 0
-0.09012458 , 0.200167537 , -9.783983   , 0.000169849838, -0.000121405115, -0.000193429238, -0.01573446 , -0.0117064267, 1.96937144  , 917.568542  , 29.7348537  , 829.0285    , 0.33        , 7           , 255         , 0           , 0
-0.106808804, 0.187192366 , -9.790658   , -0.000609505165, 0.000346901477, 0.0005479837, -0.0157406218, -0.0117028719, 1.969377    , 917.568542  , 29.7348537  , 829.028564  , 0.34        , 7           , 255         , 0           , 0
-0.1489708  , 0.190114543 , -9.784544   , -0.000413905334, -0.000109622139, 0.0007119591, -0.0157448445, -0.0117038554, 1.96938419  , 917.568542  , 29.7348537  , 829.0286    , 0.35        , 7           , 255         , 0           , 0
-0.148827747, 0.1840091   , -9.780357   , 0.000224358635, -6.726466E-05, 1.20953337E-05, -0.0157426018, -0.0117045268, 1.96938419  , 917.568542  , 29.7348537  , 829.0287    , 0.36        , 7           , 255         , 0           , 0
-0.14018248 , 0.182630181 , -9.809944   , -0.000203604839, 0.000694918563, 0.000212268031, -0.01574466 , -0.0116975438, 1.96938634  , 917.568542  , 29.7348537  , 829.028748  , 0.37        , 7           , 255         , 0           , 0
-0.113231659, 0.164234713 , -9.783648   , -0.000190824212, 0.000139813754, 0.000275060069, -0.0157466  , -0.0116961021, 1.96938908  , 917.568542  , 29.7348537  , 829.0288    , 0.38        , 7           , 255         , 0           , 0
-0.08211638 , 0.1425036   , -9.795253   , -0.000497479457, 0.00035217253, 2.96177022E-05, -0.0157515816, -0.0116925761, 1.96938932  , 917.568542  , 29.7348537  , 829.0289    , 0.39        , 7           , 255         , 0           , 0
-0.0866525  , 0.138860822 , -9.788633   , -0.0007770824, 0.000421510427, 4.80003655E-06, -0.01575935 , -0.01168836 , 1.96938932  , 917.568542  , 29.7348537  , 829.028931  , 0.4         , 7           , 255         , 0           , 0
-0.1122967  , 0.1254346   , -9.788115   , -0.000477251655, -9.296928E-06, 7.205902E-05, -0.01585407 , -0.0116643207, 1.96939111  , 917.568542  , 29.7348537  , 829.0067    , 0.41        , 7           , 255         , 0           , 0
-0.121899486, 0.1242439   , -9.800487   , 0.000344089232, 3.96798132E-05, 0.0007276387, -0.0158507135, -0.0116638085, 1.9693985   , 917.568542  , 29.7348537  , 829.0068    , 0.42        , 7           , 255         , 0           , 0
-0.130809918, 0.114173509 , -9.797475   , 0.000557840336, 2.25986587E-05, 0.0004949107, -0.0158451926, -0.0116635058, 1.96940339  , 917.601257  , 29.7467937  , 829.006836  , 0.43        , 7           , 255         , 0           , 0
-0.135305792, 0.100199915 , -9.783873   , 0.000486680074, -0.000122928759, 0.0006547404, -0.0158404037, -0.011664629, 1.96941     , 917.601257  , 29.7467937  , 829.0069    , 0.44        , 7           , 255         , 0           , 0
-0.12424092 , 0.105798446 , -9.780842   , 0.0004907475, 0.000469492283, -0.000408813445, -0.0158354454, -0.0116599994, 1.96940589  , 917.601257  , 29.7467937  , 829.006958  , 0.45        , 7           , 255         , 0           , 0
-0.123564027, 0.1128453   , -9.799075   , -7.76267843E-05, 4.15309332E-05, -0.000252757774, -0.0158361923, -0.0116596241, 1.96940327  , 917.601257  , 29.7467937  , 829.007     , 0.46        , 7           , 255         , 0           , 0
-0.117696047, 0.111332059 , -9.801676   , -0.000311953569, 0.000585229136, -0.000387342239, -0.0158392657, -0.0116538322, 1.96939933  , 917.601257  , 29.7467937  , 829.0071    , 0.47        , 7           , 255         , 0           , 0
-0.115143992, 0.09953101  , -9.801483   , -0.00039511564, 0.000261128182, 0.000568761665, -0.0158432834, -0.0116511332, 1.969405    , 917.601257  , 29.7467937  , 829.007141  , 0.48        , 7           , 255         , 0           , 0
-0.105322838, 0.0987141   , -9.806415   , 0.000124653161, 5.04951458E-06, 0.000789925631, -0.01584213 , -0.0116509562, 1.969413    , 917.601257  , 29.7467937  , 829.0072    , 0.49        , 7           , 255         , 0           , 0
-0.09459604 , 0.110168196 , -9.80378    , 0.000194343738, -0.000114950817, 0.0006907896, -0.0158402659, -0.0116519975, 1.96941984  , 917.601257  , 29.7467937  , 829.0073    , 0.5         , 7           , 255         , 0           , 0
-0.112378418, 0.12040554  , -9.791972   , 5.346845E-05, -2.73028854E-06, 0.000709185842, -0.0157082845, -0.0116631445, 1.96942556  , 917.601257  , 29.7467937  , 828.933533  , 0.51        , 7           , 255         , 0           , 0
-0.1201342  , 0.119991049 , -9.801447   , 5.50076365E-05, -0.0002594681, 0.0003324476, -0.0157077741, -0.011665686, 1.96942878  , 917.601257  , 29.7467937  , 828.9336    , 0.52        , 7           , 255         , 0           , 0
-0.131934762, 0.141770273 , -9.804103   , -0.000105594809, -0.0005579386, -8.33793238E-05, -0.01570882 , -0.0116712786, 1.96942806  , 917.582153  , 29.7564945  , 828.933655  , 0.53        , 7           , 255         , 0           , 0
-0.145393014, 0.155956537 , -9.794379   , -0.000236725609, -0.000324966153, -0.000343052961, -0.01571115 , -0.011674582, 1.96942461  , 917.582153  , 29.7564945  , 828.9337    , 0.54        , 7           , 255         , 0           , 0
-0.120403133, 0.166877    , -9.796853   , 0.0004930512, 0.0002666756, -0.000260822417, -0.0157061871, -0.0116719557, 1.969422    , 917.582153  , 29.7564945  , 828.9338    , 0.55        , 7           , 255         , 0           , 0
-0.09772967 , 0.173369676 , -9.789705   , -0.000217090826, -0.000248988741, 0.000477981841, -0.0157084148, -0.0116743715, 1.96942675  , 917.582153  , 29.7564945  , 828.9339    , 0.56        , 7           , 255         , 0           , 0
-0.0946174338, 0.176819    , -9.793366   , -0.0006219047, 0.0002929191, -0.0009078211, -0.0157145262, -0.011671585, 1.96941781  , 917.582153  , 29.7564945  , 828.934     , 0.57        , 7           , 255         , 0           , 0
-0.09114154 , 0.181632012 , -9.800073   , -0.0009895184, 0.000457044924, -0.000417148316, -0.015724374, -0.0116670793, 1.96941364  , 917.582153  , 29.7564945  , 828.934143  , 0.58        , 7           , 255         , 0           , 0
-0.103104569, 0.195677415 , -9.802114   , 0.0002030473, -5.155697E-05, 0.000402719161, -0.01572239 , -0.0116675291, 1.96941769  , 917.582153  , 29.7564945  , 828.934265  , 0.59        , 7           , 255         , 0           , 0
-0.116648495, 0.201992661 , -9.805876   , 0.000384468876, 1.850957E-05, 0.000174780289, -0.0157185681, -0.0116673186, 1.96941948  , 917.582153  , 29.7564945  , 828.9344    , 0.6         , 7           , 255         , 0           , 0
-0.122445032, 0.2021732   , -9.797147   , 0.0005989553, -0.000151498592, 0.000208959842, -0.0157365631, -0.0116661768, 1.96942186  , 917.582153  , 29.7564945  , 828.914551  , 0.61        , 7           , 255         , 0           , 0
-0.129838973, 0.190852538 , -9.782416   , -0.000227566168, 0.0002268249, 0.000621252635, -0.0157389063, -0.0116638113, 1.96942806  , 917.582153  , 29.7564945  , 828.9147    , 0.62        , 7           , 255         , 0           , 0
-0.136938676, 0.188190848 , -9.775009   , -0.0001505526, 0.000356212142, -0.000251844438, -0.0157403853, -0.0116602909, 1.96942544  , 917.579468  , 29.7602253  , 828.9148    , 0.63        , 7           , 255         , 0           , 0
-0.122939542, 0.202431723 , -9.779066   , 0.000182533 , 0.0009602293, 0.000167546925, -0.0157385748, -0.0116506629, 1.969427    , 917.579468  , 29.7602253  , 828.9149    , 0.64        , 7           , 255         , 0           , 0
-0.09392829 , 0.1915688   , -9.797778   , 0.000248902477, 0.0004336486, 0.000531881058, -0.0157361515, -0.0116462437, 1.96943223  , 917.579468  , 29.7602253  , 828.915039  , 0.65        , 7           , 255         , 0           , 0
-0.06581568 , 0.170366421 , -9.805826   , -0.000298679428, 0.0001667036, -0.000118901786, -0.0157391224, -0.0116445962, 1.969431    , 917.579468  , 29.7602253  , 828.915161  , 0.66        , 7           , 255         , 0           , 0
-0.07807625 , 0.14846088  , -9.80662251 , -0.000369779649, 8.385163E-05, 0.000546341 , -0.0157428849, -0.0116436705, 1.96943653  , 917.579468  , 29.7602253  , 828.9153    , 0.67        , 7           , 255         , 0           , 0
-0.120219909, 0.149251685 , -9.785927   , 0.000471045845, 0.000463758945, 0.000143414145, -0.01573819 , -0.0116390111, 1.969438    , 917.579468  , 29.7602253  , 828.9154    , 0.68        , 7           , 255         , 0           , 0
-0.1526492  , 0.150068372 , -9.790675   , -0.00011688337, -9.80157638E-05, 0.000434657035, -0.0157394074, -0.0116399229, 1.96944225  , 917.579468  , 29.7602253  , 828.9155    , 0.69        , 7           , 255         , 0           , 0
-0.146314576, 0.145488113 , -9.793024   , -0.0006105362, 0.000238711014, 0.0005760078, -0.0157455821, -0.0116374465, 1.969448    , 917.579468  , 29.7602253  , 828.915649  , 0.7         , 7           , 255         , 0           , 0
-0.129736125, 0.120423853 , -9.790608   , -0.000757799, 0.0002939225, -4.50966036E-05, -0.0158244353, -0.0116447685, 1.96944833  , 917.579468  , 29.7602253  , 828.9048    , 0.71        , 7           , 255         , 0           , 0
-0.112820722, 0.121811405 , -9.79770851 , -0.000100452511, 0.000163873774, 0.0002720519, -0.01582547 , -0.0116430838, 1.96945119  , 917.579468  , 29.7602253  , 828.9049    , 0.72        , 7           , 255         , 0           , 0
-0.102448583, 0.128342628 , -9.796532   , 0.00013312482, -7.74199143E-05, -0.000531238969, -0.0158240777, -0.0116439434, 1.96944582  , 917.5709    , 29.7655849  , 828.905     , 0.73        , 7           , 255         , 0           , 0
-0.104860067, 0.105837688 , -9.790906   , 1.12630078E-05, -2.38539651E-05, -0.000644666841, -0.01582389 , -0.0116442842, 1.96943939  , 917.5709    , 29.7655849  , 828.905151  , 0.74        , 7           , 255         , 0           , 0
-0.107511878, 0.094309926 , -9.790365   , -0.000313205644, 3.60421836E-05, 0.000638178957, -0.015827097, -0.0116438251, 1.96944582  , 917.5709    , 29.7655849  , 828.9053    , 0.75        , 7           , 255         , 0           , 0
-0.119940259, 0.0910198   , -9.795673   , 0.0002651197, 0.0002120547, 0.000182677526, -0.0158244688, -0.0116416719, 1.96944773  , 917.5709    , 29.7655849  , 828.9054    , 0.76        , 7           , 255         , 0           , 0
-0.1286386  , 0.10983064  , -9.799626   , 0.000166589161, -2.58391956E-05, 0.000413906469, -0.015822852, -0.0116418647, 1.9694519   , 917.5709    , 29.7655849  , 828.9055    , 0.77        , 7           , 255         , 0           , 0
-0.12881884 , 0.113451421 , -9.789194   , -6.189855E-05, -0.000455919537, 6.187981E-05, -0.0158234779, -0.011646416, 1.9694525   , 917.5709    , 29.7655849  , 828.90564   , 0.78        , 7           , 255         , 0           , 0
-0.124044731, 0.10366641  , -9.79208851 , -2.89450982E-05, -6.466359E-05, -6.19930943E-05, -0.01582376 , -0.0116470717, 1.9694519   , 917.5709    , 29.7655849  , 828.905762  , 0.79        , 7           , 255         , 0           , 0
-0.112508677, 0.130733758 , -9.797766   , -0.000366024353, 0.0005532381, -0.000646724249, -0.0158273429, -0.0116416411, 1.96944547  , 917.5709    , 29.7655849  , 828.9059    , 0.8         , 7           , 255         , 0           , 0
-0.1118812  , 0.1449549   , -9.789598   , 7.342023E-05, 0.00016279507, -0.000216523564, -0.0156940334, -0.0116495248, 1.96944177  , 917.5709    , 29.7655849  , 828.908     , 0.81        , 7           , 255         , 0           , 0
-0.114376545, 0.143637329 , -9.791677   , -8.313579E-05, -0.000190934865, 0.0005013029, -0.0156949237, -0.0116513567, 1.96944678  , 917.5709    , 29.7655849  , 828.908142  , 0.82        , 7           , 255         , 0           , 0
-0.100310564, 0.149488881 , -9.792704   , 2.07382254E-05, 3.880146E-05, 0.000291728473, -0.01569475 , -0.0116509218, 1.96944976  , 917.5918    , 29.7670784  , 828.908264  , 0.83        , 7           , 255         , 0           , 0
-0.108329572, 0.155545354 , -9.794751   , -9.345991E-05, 0.000595074147, 0.000295806327, -0.01569572 , -0.011644925, 1.96945262  , 917.5918    , 29.7670784  , 828.9084    , 0.84        , 7           , 255         , 0           , 0
-0.121492073, 0.1668162   , -9.786203   , -0.0001670774, 0.000225970987, 0.000833753264, -0.0156974867, -0.0116425343, 1.969461    , 917.5918    , 29.7670784  , 828.9085    , 0.85        , 7           , 255         , 0           , 0
-0.128475681, 0.192034885 , -9.787155   , -0.00010268722, 0.000228264136, 0.000754044 , -0.0156986  , -0.0116401315, 1.96946847  , 917.5918    , 29.7670784  , 828.9086    , 0.86        , 7           , 255         , 0           , 0
-0.118065618, 0.196484476 , -9.786039   , -2.00696522E-05, -0.000448519946, 0.0007756719, -0.015698893, -0.0116444966, 1.96947622  , 917.5918    , 29.7670784  , 828.908752  , 0.87        , 7           , 255         , 0           , 0
-0.116093442, 0.203152508 , -9.79166    , 3.68238543E-05, -0.000426543877, 0.0009887812, -0.0156986378, -0.0116486056, 1.96948624  , 917.5918    , 29.7670784  , 828.9089    , 0.88        , 7           , 255         , 0           , 0
-0.1086606  , 0.201637745 , -9.792852   , 0.000216301531, 9.692437E-05, 0.000314982433, -0.01569651 , -0.0116475848, 1.96948946  , 917.5918    , 29.7670784  , 828.909     , 0.89        , 7           , 255         , 0           , 0
-0.105648115, 0.202308327 , -9.792227   , -0.000398028351, -4.00665449E-05, -0.000231975035, -0.0157004651, -0.0116480216, 1.96948719  , 917.5918    , 29.7670784  , 828.9091    , 0.9         , 7           , 255         , 0           , 0
-0.1025151  , 0.192879468 , -9.797235   , -0.000281865039, -0.000190060935, -3.83902225E-05, -0.015782401, -0.0116474535, 1.96948767  , 917.5918    , 29.7670784  , 828.8867    , 0.91        , 7           , 255         , 0           , 0
-0.100842096, 0.180248708 , -9.791857   , -0.000130133762, -0.000267355936, -0.000194970737, -0.01578368 , -0.0116501572, 1.96948576  , 917.5918    , 29.7670784  , 828.886841  , 0.92        , 7           , 255         , 0           , 0
-0.112800337, 0.180036142 , -9.801954   , 7.37663941E-05, 0.000413733185, -0.000697094365, -0.0157828573, -0.0116461311, 1.96947873  , 917.563     , 29.7687054  , 828.886963  , 0.93        , 7           , 255         , 0           , 0
-0.11804235 , 0.181963891 , -9.801714   , 0.000340818369, 0.0005502299, -0.001185077, -0.0157793146, -0.011640816, 1.96946692  , 917.563     , 29.7687054  , 828.8871    , 0.94        , 7           , 255         , 0           , 0
-0.1237663  , 0.164773256 , -9.796718   , -0.0001270735, 0.000111027039, -0.0003000819, -0.0157805514, -0.0116397534, 1.96946383  , 917.563     , 29.7687054  , 828.8872    , 0.95        , 7           , 255         , 0           , 0
-0.131125093, 0.168167591 , -9.787793   , -0.0005436853, 0.000328225666, 9.757803E-05, -0.0157859977, -0.0116364565, 1.96946478  , 917.563     , 29.7687054  , 828.8873    , 0.96        , 7           , 255         , 0           , 0
-0.111292623, 0.15154092  , -9.783455   , -0.000293947, -2.37455824E-05, 9.585418E-05, -0.0157889519, -0.0116366791, 1.96946585  , 917.563     , 29.7687054  , 828.887451  , 0.97        , 7           , 255         , 0           , 0
-0.09951024 , 0.1419316   , -9.778524   , 3.88506451E-05, 2.19652429E-06, -0.000423324353, -0.0157885123, -0.0116367266, 1.96946156  , 917.563     , 29.7687054  , 828.8876    , 0.98        , 7           , 255         , 0           , 0
-0.107756257, 0.124263905 , -9.786289   , -0.000206582743, 0.000165561913, -0.000149454834, -0.01579056 , -0.0116350921, 1.96946013  , 917.563     , 29.7687054  , 828.8877    , 0.99        , 7           , 255         , 0           , 0
-0.104248583, 0.11784035  , -9.797125   , 0.000424790371, 0.000530245365, 0.000919423648, -0.0157864187, -0.0116296439, 1.96946931  , 917.563     , 29.7687054  , 828.8878    , 1           , 7           , 0           , 6.48423624  , 100
-0.105564259, 0.116235152 , -9.803293   , 0.000142426172, 0.000210537342, 0.00089078903, -0.0158033054, -0.0116186105, 1.96947837  , 917.563     , 29.7687054  , 828.9006    , 1.01        , 7           , 1           , 0           , 0
-0.110976771, 0.122051418 , -9.796152   , -0.000215727167, -4.22891462E-05, 0.0006175141, -0.0158055332, -0.0116189336, 1.96948457  , 917.563     , 29.7687054  , 828.9007    , 1.02        , 7           , 2           , 0           , 0
-0.116401955, 0.113271713 , -9.804201   , -0.000214882253, -8.7270746E-05, -0.000225771277, -0.0158076566, -0.0116198426, 1.96948218  , 917.577759  , 29.7738628  , 828.9009    , 1.03        , 7           , 3           , 0           , 0
-0.128543779, 0.12103577  , -9.789402   , -0.0003356042, 0.0005643491, -0.000227466982, -0.015810987, -0.011614236, 1.96947992  , 917.577759  , 29.7738628  , 828.901062  , 1.04        , 7           , 4           , 0           , 0
-0.133601546, 0.115681544 , -9.791092   , -0.0007331002, 0.0007556509, -0.000407825457, -0.0158182681, -0.0116067454, 1.96947575  , 917.577759  , 29.7738628  , 828.901245  , 1.05        , 7           , 5           , 0           , 0
-0.123423241, 0.122885726 , -9.800541   , -0.0005133728, 0.0005899903, -0.0006301366, -0.0158233289, -0.0116009451, 1.96946955  , 917.577759  , 29.7738628  , 828.9014    , 1.06        , 7           , 6           , 0           , 0
-0.10264089 , 0.128385127 , -9.799132   , -0.000244617753, 0.000446761958, -0.0007318525, -0.01582569 , -0.011596594, 1.96946216  , 917.577759  , 29.7738628  , 828.9016    , 1.07        , 7           , 7           , 0           , 0
-0.09877792 , 0.134042591 , -9.791959   , 5.739444E-05, 0.0004673642, 5.25209762E-05, -0.01582512 , -0.0115919113, 1.96946263  , 917.577759  , 29.7738628  , 828.9018    , 1.08        , 7           , 8           , 5           , 5
-0.12038777 , 0.135483831 , -9.788538   , 5.59069449E-05, 0.0003627846, 0.0006081647, -0.01582463 , -0.0115881879, 1.96946871  , 917.577759  , 29.7738628  , 828.902     , 1.09        , 7           , 9           , 5           , 0.1
-0.12195611 , 0.141378433 , -9.790342   , -0.000377528952, -0.000358665129, -0.0005145017, -0.015828345, -0.0115918536, 1.96946359  , 917.577759  , 29.7738628  , 828.902161  , 1.1         , 7           , 10          , 0.1         , 0.1
-0.118855834, 0.158648536 , -9.781396   , -0.000322514039, -0.000142803183, -0.000111507674, -0.01575555 , -0.0115996422, 1.96946168  , 917.577759  , 29.7738628  , 828.897461  , 1.11        , 7           , 11          , 0.009318262 , 0.009318262
-0.132946551, 0.16695033  , -9.810534   , 7.515453E-05, 0.00021253014, -0.0002159006, -0.0157547686, -0.0115975505, 1.96945941  , 917.577759  , 29.7738628  , 828.897644  , 1.12        , 7           , 12          , 0.0346428268, 0
-0.125751242, 0.172163084 , -9.793837   , 0.000154980866, 0.000181290554, -1.10174E-06, -0.0157532189, -0.01159574 , 1.96945941  , 917.6018    , 29.77359    , 828.8978    , 1.13        , 7           , 13          , 0           , 0
-0.11117287 , 0.170279115 , -9.784402   , 0.0009760902, -0.0002198983, -5.658512E-07, -0.0157434586, -0.0115979379, 1.96945953  , 917.6018    , 29.77359    , 828.898     , 1.14        , 7           , 14          , 0.0005963616, 0.00170855294
-0.107494153, 0.182239518 , -9.81313    , -0.000192362058, 0.0005287607, 0.000650144764, -0.0157454573, -0.0115925483, 1.969466    , 917.6018    , 29.77359    , 828.8982    , 1.15        , 7           , 15          , 0           , 0.00016474833
-0.09441464 , 0.190756038 , -9.79163    , 5.052029E-05, 2.9106508E-05, 0.0004591667, -0.0157450065, -0.011592187, 1.96947062  , 917.6018    , 29.77359    , 828.8984    , 1.16        , 7           , 16          , 0           , 1.401298E-45
-0.101327524, 0.188579887 , -9.828927   , -0.000819162, 7.12773763E-05, -0.000253675622, -0.0157531668, -0.0115915136, 1.96946812  , 917.6018    , 29.77359    , 828.89856   , 1.17        , 7           , 20          , 0           , 0
-0.112129405, 0.172738239 , -9.78744    , -0.000194792839, -0.000274537248, -0.0007219365, -0.0157550313, -0.0115943709, 1.969461    , 917.6018    , 29.77359    , 828.898743  , 1.18        , 7           , 21          , 0           , 0
-0.121509373, 0.178202346 , -9.791234   , -0.0006762226, 0.000456594629, -7.258219E-05, -0.0157617852, -0.0115898158, 1.96946013  , 917.6018    , 29.77359    , 828.8989    , 1.19        , 7           , 22          , 0           , 0
-0.126401633, 0.175859869 , -9.793121   , -0.000334365119, 0.00036976207, -4.667572E-05, -0.0157651249, -0.0115861241, 1.96945977  , 917.6018    , 29.77359    , 828.8991    , 1.2         , 7           , 40          , 0           , 0
-0.119349256, 0.178944185 , -9.789511   , 0.000244784867, -0.000241131871, -7.883093E-05, -0.015808057, -0.0115919029, 1.96945965  , 917.6018    , 29.77359    , 828.869934  , 1.21        , 7           , 41          , 0           , 0
-0.117119595, 0.170843288 , -9.798803   , 1.95867033E-05, 0.000565523631, 0.000437957468, -0.0158079136, -0.01158618 , 1.96946406  , 917.6018    , 29.77359    , 828.87      , 1.22        , 7           , 42          , 1           , 0
-0.115278982, 0.162971646 , -9.78494549 , -0.0001288685, 0.0006268922, 0.000492629246, -0.0158092547, -0.011579833, 1.96946871  , 917.586548  , 29.7750149  , 828.870056  , 1.23        , 7           , 255         , 0           , 0
-0.107484579, 0.148122549 , -9.800102   , 0.000488084333, 0.000194268418, -0.000141413824, -0.0158043578, -0.0115779126, 1.96946728  , 917.586548  , 29.7750149  , 828.8702    , 1.24        , 7           , 255         , 0           , 0
-0.101098143, 0.1390544   , -9.789768   , -9.098207E-05, 0.0005995532, 0.00014062658, -0.0158052836, -0.0115718953, 1.96946871  , 917.586548  , 29.7750149  , 828.8703    , 1.25        , 7           , 255         , 0           , 0
-0.09907206 , 0.137100145 , -9.805162   , 0.00024936453, 0.000256255851, 0.000446829945, -0.01580284 , -0.0115692625, 1.96947312  , 917.586548  , 29.7750149  , 828.8704    , 1.26        , 7           , 255         , 0           , 0
-0.112759389, 0.132559627 , -9.808649   , -0.000234753476, -2.11135484E-05, 0.000280837179, -0.0158052221, -0.0115694283, 1.969476    , 917.586548  , 29.7750149  , 828.870544  , 1.27        , 7           , 255         , 0           , 0
-0.1270001  , 0.126945049 , -9.788019   , -1.23921782E-05, -0.000372437178, -0.000100903519, -0.0158053339, -0.0115731712, 1.969475    , 917.586548  , 29.7750149  , 828.870667  , 1.28        , 7           , 255         , 0           , 0
-0.13190417 , 0.138434038 , -9.799818   , 0.000110192748, -0.0004885192, 0.0005219372, -0.0158042926, -0.0115779722, 1.96948016  , 917.586548  , 29.7750149  , 828.8708    , 1.29        , 7           , 255         , 0           , 0
-0.13717857 , 0.116258681 , -9.801821   , 0.000252349826, -0.000109769986, 0.000155500122, -0.0158017874, -0.0115790442, 1.96948171  , 917.586548  , 29.7750149  , 828.8709    , 1.3         , 7           , 255         , 0           , 0
-0.132744566, 0.1213157   , -9.774267   , 0.000479412673, 0.000312205171, -0.000309961615, -0.0157751925, -0.0115836272, 1.96947837  , 917.586548  , 29.7750149  , 828.860657  , 1.31        , 7           , 255         , 0           , 0
-0.105555162, 0.131150082 , -9.789494   , 0.0005483769, 0.0005616974, -0.00015290291, -0.01576969 , -0.0115780346, 1.9694767   , 917.586548  , 29.7750149  , 828.8607    , 1.32        , 7           , 255         , 0           , 0
-0.09547738 , 0.133386284 , -9.787825   , 0.000549577933, 0.000426810235, -0.000404814084, -0.0157641452, -0.01157383 , 1.96947265  , 917.580566  , 29.7757626  , 828.8608    , 1.33        , 7           , 255         , 0           , 0
-0.09974613 , 0.13383615  , -9.800188   , -0.000126762956, 0.000427991617, -0.0008303773, -0.0157653168, -0.0115696816, 1.9694643   , 917.580566  , 29.7757626  , 828.86084   , 1.34        , 7           , 255         , 0           , 0
-0.09692602 , 0.1487846   , -9.792192   , -3.73745E-05, -2.93962657E-05, 0.0005324163, -0.0157657545, -0.0115698921, 1.96946955  , 917.580566  , 29.7757626  , 828.8609    , 1.35        , 7           , 255         , 0           , 0
-0.120945014, 0.145808622 , -9.801651   , 0.000193926971, -0.000212691259, 0.0002386365, -0.0157638416, -0.01157198 , 1.969472    , 917.580566  , 29.7757626  , 828.860962  , 1.36        , 7           , 255         , 0           , 0
-0.13414593 , 0.140230522 , -9.788996   , 0.000887177943, 0.000185184181, 0.0007008023, -0.01575505 , -0.0115700187, 1.96947908  , 917.580566  , 29.7757626  , 828.861     , 1.37        , 7           , 255         , 0           , 0
-0.123946771, 0.144446477 , -9.782992   , 0.00093044556, -0.000103961094, 0.000566426665, -0.0157458149, -0.0115709687, 1.96948493  , 917.580566  , 29.7757626  , 828.8611    , 1.38        , 7           , 255         , 0           , 0
-0.113554679, 0.15808773  , -9.795086   , 0.000199868635, 0.000315504149, 0.0006114814, -0.0157438871, -0.0115677183, 1.969491    , 917.580566  , 29.7757626  , 828.861145  , 1.39        , 7           , 255         , 0           , 0
-0.115571931, 0.159617886 , -9.798776   , -0.000198516325, -4.63628676E-05, 0.000194695182, -0.0157458931, -0.01156815 , 1.969493    , 917.580566  , 29.7757626  , 828.8612    , 1.4         , 7           , 255         , 0           , 0
-0.108526766, 0.150185138 , -9.8002615  , -0.000385795924, -0.0003467549, 0.000118537268, -0.0157098118, -0.01157337 , 1.96949375  , 917.580566  , 29.7757626  , 828.858032  , 1.41        , 7           , 255         , 0           , 0
-0.0986103639, 0.154369637 , -9.78833    , 0.000208757585, 0.000210401951, -0.00057618774, -0.0157076567, -0.0115713552, 1.969488    , 917.580566  , 29.7757626  , 828.8581    , 1.42        , 7           , 255         , 0           , 0
-0.100293443, 0.1539495   , -9.792526   , -0.0002436809, 0.0003798284, -0.0008941165, -0.01570999 , -0.0115676979, 1.96947908  , 917.558044  , 29.7746773  , 828.858154  , 1.43        , 7           , 255         , 0           , 0
-0.110150456, 0.16282919  , -9.785665   , 0.000441881421, 0.000340248342, -0.00031165572, -0.0157055352, -0.011564346, 1.969476    , 917.558044  , 29.7746773  , 828.8582    , 1.44        , 7           , 255         , 0           , 0
-0.120267332, 0.166856259 , -9.7870245  , 0.000168624858, 0.0002743533, -0.000409785658, -0.0157038  , -0.0115616666, 1.96947181  , 917.558044  , 29.7746773  , 828.8583    , 1.45        , 7           , 255         , 0           , 0
-0.13069579 , 0.165137812 , -9.787596   , 0.000199210015, 0.000165560632, -0.0004122475, -0.01570176 , -0.011560075, 1.96946764  , 917.558044  , 29.7746773  , 828.858337  , 1.46        , 7           , 255         , 0           , 0
-0.123004511, 0.16295591  , -9.789625   , 0.000344121421, 0.000365482527, -0.000186211968, -0.0156982988, -0.01155645 , 1.96946573  , 917.558044  , 29.7746773  , 828.8584    , 1.47        , 7           , 255         , 0           , 0
-0.114822984, 0.167584926 , -9.795193   , -5.113153E-05, 0.000386160915, -0.000210355036, -0.015698785, -0.0115526225, 1.96946359  , 917.558044  , 29.7746773  , 828.858459  , 1.48        , 7           , 255         , 0           , 0
-0.09406443 , 0.1594321   , -9.798254   , 0.000136990624, 8.241937E-05, -0.000420442724, -0.0156973638, -0.0115518635, 1.96945941  , 917.558044  , 29.7746773  , 828.8585    , 1.49        , 7           , 255         , 0           , 0
-0.0988413543, 0.163796574 , -9.789908   , -0.000464409823, 0.0001205334, 0.000947015942, -0.0157021135, -0.0115505094, 1.969469    , 917.558044  , 29.7746773  , 828.8586    , 1.5         , 7           , 255         , 0           , 0
-0.101880647, 0.158992156 , -9.787048   , 0.000216454268, -2.96438811E-05, 0.00105272548, -0.01572036 , -0.0115409559, 1.96947992  , 917.558044  , 29.7746773  , 828.879456  , 1.51        , 7           , 255         , 0           , 0
-0.106015906, 0.154722378 , -9.791339   , -0.000187788217, 0.0005145966, -0.000338932237, -0.0157221965, -0.0115358643, 1.96947646  , 917.558044  , 29.7746773  , 828.879639  , 1.52        , 7           , 255         , 0           , 0
-0.119241379, 0.15308331  , -9.795473   , 0.0005222042, 0.000254019978, 0.00033877854, -0.0157170147, -0.0115332715, 1.9694798   , 917.603333  , 29.7777977  , 828.8798    , 1.53        , 7           , 255         , 0           , 0
-0.126179591, 0.153457955 , -9.782354   , 0.000347475521, 4.566775E-05, 0.0003967802, -0.0157135874, -0.0115327518, 1.96948385  , 917.603333  , 29.7777977  , 828.88      , 1.54        , 7           , 255         , 0           , 0
-0.118144952, 0.145301864 , -9.789396   , 3.61076673E-05, 0.0001327825, 0.000119036806, -0.01571324 , -0.0115314061, 1.969485    , 917.603333  , 29.7777977  , 828.8802    , 1.55        , 7           , 255         , 0           , 0
-0.109005168, 0.158228427 , -9.789354   , 0.000283044763, -5.381764E-05, -2.83653062E-05, -0.015710406, -0.0115319481, 1.96948469  , 917.603333  , 29.7777977  , 828.8804    , 1.56        , 7           , 255         , 0           , 0
-0.111544155, 0.150020435 , -9.802782   , 6.746786E-05, 0.0002622638, 0.00024149254, -0.0157097559, -0.0115292873, 1.96948719  , 917.603333  , 29.7777977  , 828.880554  , 1.57        , 7           , 255         , 0           , 0
-0.113253117, 0.146490157 , -9.795408   , 0.00021494308, 0.000232568011, -0.0001973  , -0.015707586, -0.0115269944, 1.96948516  , 917.603333  , 29.7777977  , 828.880737  , 1.58        , 7           , 255         , 0           , 0
-0.112643287, 0.144840121 , -9.79714    , -4.90428647E-05, -0.000202614465, 4.56674461E-05, -0.0157080814, -0.0115290135, 1.96948552  , 917.603333  , 29.7777977  , 828.8809    , 1.59        , 7           , 255         , 0           , 0
-0.114633121, 0.146864384 , -9.797169   , 0.000171163236, 0.000121477409, -0.000117113523, -0.0157063566, -0.0115278158, 1.96948433  , 917.603333  , 29.7777977  , 828.8811    , 1.6         , 7           , 255         , 0           , 0
-0.122205637, 0.141554788 , -9.785975   , 0.00020580407, 3.226928E-05, 9.124771E-05, -0.01569728 , -0.0115282815, 1.96948516  , 917.603333  , 29.7777977  , 828.85144   , 1.61        , 7           , 255         , 0           , 0
-0.126906365, 0.13636221  , -9.793592   , 0.000440815231, 0.0002610815, 0.00042671198, -0.0156929214, -0.0115256039, 1.96948946  , 917.603333  , 29.7777977  , 828.8515    , 1.62        , 7           , 255         , 0           , 0
-0.114525154, 0.141779035 , -9.791959   , -9.605999E-05, -0.000378831173, -1.35643786E-05, -0.0156938825, -0.0115293972, 1.96948934  , 917.5579    , 29.7801723  , 828.851563  , 1.63        , 7           , 255         , 0           , 0
-0.117159963, 0.142311439 , -9.789981   , 0.0004907594, -0.000666671433, 0.0004792143, -0.01568903 , -0.0115359873, 1.96949434  , 917.5579    , 29.7801723  , 828.8516    , 1.64        , 7           , 255         , 0           , 0
-0.119289421, 0.1400145   , -9.794607   , 0.000235665007, 0.000125268474, -0.0003918233, -0.0156866256, -0.0115347952, 1.96949041  , 917.5579    , 29.7801723  , 828.8517    , 1.65        , 7           , 255         , 0           , 0
-0.110532835, 0.145966858 , -9.792889   , 0.000379611331, -0.000221830909, 0.0002712175, -0.0156828631, -0.01153697 , 1.96949315  , 917.5579    , 29.7801723  , 828.851746  , 1.66        , 7           , 255         , 0           , 0
-0.111493133, 0.149429992 , -9.804808   , 0.0001890019, 0.000152644585, 0.000440958072, -0.0156810228, -0.0115353754, 1.96949768  , 917.5579    , 29.7801723  , 828.8518    , 1.67        , 7           , 255         , 0           , 0
-0.1198136  , 0.140258759 , -9.796074   , 0.0003322746, -1.6936101E-05, 0.000404359947, -0.0156777464, -0.0115354806, 1.96950161  , 917.5579    , 29.7801723  , 828.851868  , 1.68        , 7           , 255         , 0           , 0
-0.126712114, 0.147893667 , -9.788198   , 0.000346285175, 1.608266E-05, 0.000144368809, -0.0156743  , -0.0115352981, 1.969503    , 917.5579    , 29.7801723  , 828.8519    , 1.69        , 7           , 255         , 0           , 0
-0.126689136, 0.149631351 , -9.801184   , 1.05571235E-05, 0.0004190897, 0.000755826244, -0.0156742837, -0.0115309888, 1.96951056  , 917.5579    , 29.7801723  , 828.852     , 1.7         , 7           , 255         , 0           , 0
-0.120897211, 0.148721814 , -9.781782   , -7.17054354E-06, 0.000190392253, -6.00618223E-05, -0.0156503785, -0.0115445619, 1.96950972  , 917.5579    , 29.7801723  , 828.875     , 1.71        , 7           , 255         , 0           , 0
-0.122202083, 0.14424333  , -9.7916     , 0.000456633221, -1.932215E-05, -0.00013569351, -0.0156457964, -0.0115447761, 1.96950841  , 917.5579    , 29.7801723  , 828.8752    , 1.72        , 7           , 255         , 0           , 0
-0.112573072, 0.148639366 , -9.783105   , 2.40844674E-05, -4.56509879E-05, -0.000290418975, -0.0156455245, -0.0115452772, 1.96950567  , 917.5654    , 29.7785435  , 828.875366  , 1.73        , 7           , 255         , 0           , 0
-0.117318794, 0.15288721  , -9.807314   , 0.000360091683, 0.000462388969, 0.000103127488, -0.0156419333, -0.0115406392, 1.9695065   , 917.5654    , 29.7785435  , 828.875549  , 1.74        , 7           , 255         , 0           , 0
-0.115778208, 0.151409224 , -9.793404   , -0.000617386831, 0.000323239365, 0.00038752  , -0.015648149, -0.0115373461, 1.96951032  , 917.5654    , 29.7785435  , 828.875732  , 1.75        , 7           , 255         , 0           , 0
-0.118109986, 0.160049036 , -9.810326   , -0.0006149383, -0.0002083428, 0.0005498922, -0.01565436 , -0.0115393428, 1.9695158   , 917.5654    , 29.7785435  , 828.8759    , 1.76        , 7           , 255         , 0           , 0
-0.105587661, 0.163322359 , -9.797083   , -9.935908E-05, -8.14696541E-05, 0.0005857307, -0.0156554226, -0.0115400646, 1.96952176  , 917.5654    , 29.7785435  , 828.8761    , 1.77        , 7           , 255         , 0           , 0
-0.119924292, 0.169036627 , -9.798281   , 0.00116998982, -4.941167E-05, 0.0005269699, -0.0156437848, -0.0115404753, 1.969527    , 917.5654    , 29.7785435  , 828.8763    , 1.78        , 7           , 255         , 0           , 0
-0.128670976, 0.1734437   , -9.794199   , 0.00076934736, 0.0001282891, -0.000208534766, -0.015636066, -0.0115392264, 1.96952486  , 917.5654    , 29.7785435  , 828.876465  , 1.79        , 7           , 255         , 0           , 0
-0.127726659, 0.164714858 , -9.797192   , 0.0002067915, -3.34590441E-05, -0.000486197532, -0.0156339426, -0.0115396343, 1.96952009  , 917.5654    , 29.7785435  , 828.876648  , 1.8         , 7           , 255         , 0           , 0
-0.123696551, 0.159834892 , -9.799442   , 0.0003855005, -3.346207E-05, 0.000305322435, -0.0156392474, -0.0115520889, 1.96952343  , 917.5654    , 29.7785435  , 828.888855  , 1.81        , 7           , 255         , 0           , 0
-0.11484345 , 0.1671566   , -9.80355549 , 2.69506127E-05, 6.744056E-06, 0.0008720142, -0.015639076, -0.0115518849, 1.969532    , 917.5654    , 29.7785435  , 828.88916   , 1.82        , 7           , 255         , 0           , 0
-0.106969014, 0.160002783 , -9.792498   , -0.000264207629, 0.000133213238, 0.000700271339, -0.0156418  , -0.0115504451, 1.969539    , 917.613342  , 29.7826138  , 828.889465  , 1.83        , 7           , 255         , 0           , 0
-0.112488076, 0.149535552 , -9.7936945  , 0.000768288854, 0.000256518018, 0.000341435923, -0.0156341568, -0.0115478272, 1.96954238  , 917.613342  , 29.7826138  , 828.8898    , 1.84        , 7           , 255         , 0           , 0
-0.118444875, 0.150187865 , -9.797097   , -0.000285207672, 0.000262873364, 0.0005487291, -0.0156370718, -0.0115451105, 1.969548    , 917.613342  , 29.7826138  , 828.8901    , 1.85        , 7           , 255         , 0           , 0
-0.113385364, 0.150006175 , -9.788135   , 0.0004223202, -0.000209664111, 0.000199151313, -0.0156328715, -0.0115471762, 1.96954989  , 917.613342  , 29.7826138  , 828.8904    , 1.86        , 7           , 255         , 0           , 0
-0.115389839, 0.145632744 , -9.795199   , 7.520575E-05, -0.0002018516, -0.0003005537, -0.0156320836, -0.0115492418, 1.96954691  , 917.613342  , 29.7826138  , 828.8907    , 1.87        , 7           , 255         , 0           , 0
-0.110615447, 0.148668066 , -9.795763   , -0.000594382, 4.06185864E-05, -8.998382E-05, -0.01563802 , -0.0115488516, 1.96954608  , 917.613342  , 29.7826138  , 828.891     , 1.88        , 7           , 255         , 0           , 0
-0.119954027, 0.149149016 , -9.798712   , -3.69511545E-05, -0.000301714521, -8.85254E-05, -0.0156383812, -0.01155188 , 1.96954525  , 917.613342  , 29.7826138  , 828.8913    , 1.89        , 7           , 255         , 0           , 0
-0.10952691 , 0.144537777 , -9.78471851 , -0.000154560374, -0.000414208858, 0.000756521244, -0.0156400129, -0.0115559027, 1.96955287  , 917.613342  , 29.7826138  , 828.8916    , 1.9         , 7           , 255         , 0           , 0
-0.111670412, 0.133055538 , -9.796629   , 0.000156730181, 0.000340973726, 0.000476276065, -0.0156370234, -0.0115554417, 1.96955764  , 917.613342  , 29.7826138  , 828.846069  , 1.91        , 7           , 255         , 0           , 0
-0.09999314 , 0.141851336 , -9.793444   , -8.550356E-05, 0.000296371058, -0.000359128579, -0.0156378355, -0.011552535, 1.969554    , 917.613342  , 29.7826138  , 828.846069  , 1.92        , 7           , 255         , 0           , 0
-0.108081855, 0.136920065 , -9.8030405  , -0.000431137451, 0.0004538484, -0.0009395286, -0.01564204 , -0.0115481438, 1.96954465  , 917.566     , 29.7796974  , 828.8461    , 1.93        , 7           , 255         , 0           , 0
-0.11677178 , 0.140731752 , -9.798662   , 0.000261458 , 0.000301909866, -0.000385858, -0.01563938 , -0.011545185, 1.9695406   , 917.566     , 29.7796974  , 828.8462    , 1.94        , 7           , 255         , 0           , 0
-0.125920832, 0.144816935 , -9.791979   , -0.000341945124, 0.000123316888, -9.663835E-05, -0.0156427864, -0.0115439678, 1.96953964  , 917.566     , 29.7796974  , 828.846252  , 1.95        , 7           , 255         , 0           , 0
-0.122583531, 0.136189938 , -9.789386   , -0.0001369415, 0.00040356745, 0.000225430966, -0.0156441815, -0.011539896, 1.96954191  , 917.566     , 29.7796974  , 828.8463    , 1.96        , 7           , 255         , 0           , 0
-0.112201735, 0.139549    , -9.799902   , -8.725602E-05, 8.135766E-05, 0.0003018345, -0.0156450886, -0.0115390355, 1.96954489  , 917.566     , 29.7796974  , 828.8464    , 1.97        , 7           , 255         , 0           , 0
-0.1150067  , 0.139770418 , -9.791609   , -0.000399613258, 0.0002621424, -0.000819082954, -0.01564899 , -0.0115365423, 1.96953678  , 917.566     , 29.7796974  , 828.846436  , 1.98        , 7           , 255         , 0           , 0
-0.118099131, 0.147224277 , -9.79309    , -0.00019697586, 0.0005511886, -3.38026875E-05, -0.015650956, -0.0115310363, 1.9695363   , 917.566     , 29.7796974  , 828.8465    , 1.99        , 7           , 255         , 0           , 0
-0.1151284  , 0.15167062  , -9.793665   , 0.0002969976, -0.000143760582, 0.000579974265, -0.0156480521, -0.01153238 , 1.96954226  , 917.566     , 29.7796974  , 828.846558  , 2           , 7           , 0           , 7.48423624  , 200
-0.117796049, 0.150431529 , -9.797766   , -0.0003485914, 6.615603E-05, 0.0004924262, -0.0156266037, -0.0115346517, 1.96954691  , 917.566     , 29.7796974  , 828.862366  , 2.01        , 7           , 1           , 0           , 0
-0.122022465, 0.148931175 , -9.793319   , -0.000342830841, 0.000388267683, 0.00074974756, -0.0156301185, -0.0115306517, 1.96955431  , 917.566     , 29.7796974  , 828.8625    , 2.02        , 7           , 2           , 0           , 0
-0.127249151, 0.1661164   , -9.791765   , -0.000351641269, 3.62201827E-05, -2.75975763E-05, -0.01563363 , -0.0115302941, 1.96955407  , 917.5882    , 29.7801723  , 828.8626    , 2.03        , 7           , 3           , 0           , 0
-0.114949837, 0.1613947   , -9.794947   , -0.000248072552, -0.000714099966, -0.000330467417, -0.0156360734, -0.0115374848, 1.96955085  , 917.5882    , 29.7801723  , 828.862732  , 2.04        , 7           , 4           , 0           , 0
-0.115377404, 0.162044659 , -9.794849   , 0.000163574354, -0.00029382878, 1.43967918E-06, -0.015634438, -0.0115404213, 1.96955085  , 917.5882    , 29.7801723  , 828.862854  , 2.05        , 7           , 5           , 0           , 0
-0.110315934, 0.172354132 , -9.798334   , -0.0001913365, 0.0007982885, 0.0001326925, -0.015636364, -0.0115324194, 1.969552    , 917.5882    , 29.7801723  , 828.863     , 2.06        , 7           , 6           , 0           , 0
-0.101200476, 0.16564858  , -9.79649448 , 0.000376726675, -7.151405E-05, 0.0007509348, -0.0156326815, -0.0115330182, 1.96955955  , 917.5882    , 29.7801723  , 828.863159  , 2.07        , 7           , 7           , 0           , 0
-0.110280015, 0.167224452 , -9.807264   , -0.0001339844, 0.000127632287, 0.000383318576, -0.0156340655, -0.0115316808, 1.96956348  , 917.5882    , 29.7801723  , 828.863342  , 2.08        , 7           , 8           , 5           , 5
-0.11500106 , 0.160775021 , -9.800744   , 0.0004918368, -0.000559176668, 0.000422493438, -0.0156291965, -0.0115372054, 1.96956766  , 917.5882    , 29.7801723  , 828.8635    , 2.09        , 7           , 9           , 5           , 0.1
-0.122664437, 0.165974975 , -9.801939   , -9.314972E-06, -0.00025931024, -0.000326858368, -0.0156292524, -0.0115398476, 1.96956444  , 917.5882    , 29.7801723  , 828.8637    , 2.1         , 7           , 10          , 0.1         , 0.1
-0.112425029, 0.1639081   , -9.795782   , -0.000531344, 0.000421982026, -0.000171735912, -0.0156499352, -0.0115401642, 1.969563    , 917.5882    , 29.7801723  , 828.850342  , 2.11        , 7           , 11          , 0.008280826 , 0.008280825
-0.102677129, 0.168927044 , -9.791727   , -0.000241280388, -9.83115751E-05, -0.0005191347, -0.0156522878, -0.01154123 , 1.96955776  , 917.5882    , 29.7801723  , 828.8504    , 2.12        , 7           , 12          , 0.0346481539, 0
-0.121138811, 0.160292074 , -9.794821   , -0.000292642944, 0.000352741452, 0.0004018243, -0.0156552587, -0.01153764 , 1.96956182  , 917.5808    , 29.778883   , 828.850464  , 2.13        , 7           , 13          , 0           , 0
-0.114270374, 0.1510371   , -9.792572   , -3.05596623E-05, 8.976669E-05, 0.000892637938, -0.0156556685, -0.0115366029, 1.96957064  , 917.5808    , 29.778883   , 828.8505    , 2.14        , 7           , 14          , 0.0005962894, 0.00170864724
-0.124441445, 0.153297588 , -9.7936     , 0.000168818689, -0.000113901449, -0.0001934253, -0.0156539585, -0.0115377735, 1.96956861  , 917.5808    , 29.778883   , 828.8506    , 2.15        , 7           , 15          , 0           , 0.000164750672
-0.116046548, 0.1488307   , -9.804667   , 4.170701E-05, 0.000117606833, 0.000212710787, -0.0156535674, -0.0115365637, 1.96957088  , 917.5808    , 29.778883   , 828.850647  , 2.16        , 7           , 16          , 0           , 1.401298E-45
-0.109946728, 0.152199358 , -9.79533    , 0.000216488552, -0.00029022526, 4.647489E-05, -0.0156514067, -0.0115394592, 1.96957123  , 917.5808    , 29.778883   , 828.8507    , 2.17        , 7           , 20          , 0           , 0
-0.110104837, 0.140910357 , -9.801094   , 0.000368905719, 0.000217142864, 5.197726E-05, -0.01564772 , -0.0115372781, 1.96957171  , 917.5808    , 29.778883   , 828.8508    , 2.18        , 7           , 21          , 0           , 0
-0.115785562, 0.145599857 , -9.797392   , 0.000187900849, -0.00040365383, 0.0005646638, -0.01564591 , -0.0115412269, 1.96957731  , 917.5808    , 29.778883   , 828.850952  , 2.19        , 7           , 22          , 0           , 0
-0.131122887, 0.143843755 , -9.791114   , -0.000131728157, 0.000124670332, 0.000363403931, -0.0156472679, -0.011539924, 1.969581    , 917.5808    , 29.778883   , 828.8511    , 2.2         , 7           , 40          , 0           , 0
-0.120295718, 0.1407084   , -9.780463   , -0.0006287703, 0.000222072937, 3.8440252E-05, -0.0156526528, -0.0115429517, 1.96958148  , 917.5808    , 29.778883   , 828.848267  , 2.21        , 7           , 41          , 0           , 0
-0.119687282, 0.134563088 , -9.783544   , 0.000207415142, 9.35272546E-05, 0.000488321646, -0.0156506337, -0.0115419412, 1.96958637  , 917.5808    , 29.778883   , 828.8483    , 2.22        , 7           , 42          , 1           , 0
-0.122336589, 0.130627438 , -9.795734   , 0.000109151006, 5.99495834E-05, -6.79066143E-05, -0.0156495366, -0.0115413526, 1.96958566  , 917.5555    , 29.78275    , 828.8484    , 2.23        , 7           , 255         , 0           , 0
-0.11450658 , 0.135443121 , -9.793068   , -0.0004921194, 0.00032131304, 0.0002275134, -0.01565448 , -0.0115381051, 1.9695878   , 917.5555    , 29.78275    , 828.84845   , 2.24        , 7           , 255         , 0           , 0
-0.102208495, 0.1370213   , -9.79566    , 2.470176E-05, 0.0004625735, 0.0005274628, -0.0156542957, -0.0115333972, 1.96959317  , 917.5555    , 29.78275    , 828.8485    , 2.25        , 7           , 255         , 0           , 0
-0.116788246, 0.146434128 , -9.796811   , 9.327283E-05, 0.000464600045, 0.0002416211, -0.0156533942, -0.0115287136, 1.96959543  , 917.5555    , 29.78275    , 828.8486    , 2.26        , 7           , 255         , 0           , 0
-0.119398616, 0.153536454 , -9.798853   , 5.06218057E-05, 9.4801886E-05, -0.000218896792, -0.0156528633, -0.0115277991, 1.96959329  , 917.5555    , 29.78275    , 828.848633  , 2.27        , 7           , 255         , 0           , 0
-0.128869459, 0.1488749   , -9.796032   , -0.000101994723, 0.000217000139, -0.000171785214, -0.01565386 , -0.0115256561, 1.96959162  , 917.5555    , 29.78275    , 828.848755  , 2.28        , 7           , 255         , 0           , 0
-0.127382472, 0.149229318 , -9.7959795  , -0.000362436229, 0.0002149056, 0.000638956029, -0.015657559, -0.01152341 , 1.969598    , 917.5555    , 29.78275    , 828.8489    , 2.29        , 7           , 255         , 0           , 0
-0.117185272, 0.149542466 , -9.798978   , 8.698087E-05, 0.0006633415, 0.000115883013, -0.0156567  , -0.0115167592, 1.969599    , 917.5555    , 29.78275    , 828.849     , 2.3         , 7           , 255         , 0           , 0
-0.104078092, 0.147545457 , -9.798216   , -0.000255937746, 6.95692142E-05, -3.763316E-05, -0.0156360064, -0.0115288151, 1.96959829  , 917.5555    , 29.78275    , 828.8795    , 2.31        , 7           , 255         , 0           , 0
-0.112624466, 0.1563573   , -9.80258    , -6.77869539E-05, 0.000542676542, -0.000307424285, -0.015636649, -0.0115234368, 1.96959531  , 917.5555    , 29.78275    , 828.8798    , 2.32        , 7           , 255         , 0           , 0
-0.103199258, 0.1598421   , -9.793974   , 0.0005786094, 7.74092041E-05, 2.17694032E-05, -0.0156308636, -0.011522661, 1.96959555  , 917.578247  , 29.7826824  , 828.8801    , 2.33        , 7           , 255         , 0           , 0
-0.1128669  , 0.151141793 , -9.788748   , 0.00061994174, 0.000100081204, -0.000116457428, -0.0156246526, -0.0115216756, 1.96959448  , 917.578247  , 29.7826824  , 828.880432  , 2.34        , 7           , 255         , 0           , 0
-0.123618938, 0.15673174  , -9.791124   , -0.00014498175, 0.000296433223, 0.0002347226, -0.0156261269, -0.011518674, 1.96959674  , 917.578247  , 29.7826824  , 828.880737  , 2.35        , 7           , 255         , 0           , 0
-0.110829011, 0.154902786 , -9.790844   , -2.78655789E-05, 0.000617363257, 0.000407595478, -0.01562645 , -0.01151244 , 1.96960056  , 917.578247  , 29.7826824  , 828.881042  , 2.36        , 7           , 255         , 0           , 0
-0.111132085, 0.166796342 , -9.798604   , -0.0007216495, 5.21780457E-05, 0.000400301535, -0.0156337116, -0.0115118548, 1.96960473  , 917.578247  , 29.7826824  , 828.881348  , 2.37        , 7           , 255         , 0           , 0
-0.102449737, 0.169199646 , -9.79745    , -0.000336121069, 9.070197E-05, 7.13914342E-05, -0.015637083, -0.0115109365, 1.96960545  , 917.578247  , 29.7826824  , 828.881653  , 2.38        , 7           , 255         , 0           , 0
-0.116130307, 0.165301085 , -9.805618   , 8.326862E-05, 0.0004788509, 0.0004401568, -0.0156362988, -0.01150608 , 1.96960974  , 917.578247  , 29.7826824  , 828.881958  , 2.39        , 7           , 255         , 0           , 0
-0.120012067, 0.172469512 , -9.795598   , 0.000364237 , 0.000526039861, 9.731465E-05, -0.0156326666, -0.0115008038, 1.96961069  , 917.578247  , 29.7826824  , 828.882263  , 2.4         , 7           , 255         , 0           , 0
-0.117514573, 0.161522076 , -9.794771   , 0.00031335518, 0.000223026727, 0.0006001538, -0.0156419575, -0.0114963856, 1.96961689  , 917.578247  , 29.7826824  , 828.8788    , 2.41        , 7           , 255         , 0           , 0
-0.111075833, 0.1593106   , -9.792172   , -0.000401360885, 0.00016641  , -0.000154514011, -0.0156459548, -0.0114947464, 1.96961522  , 917.578247  , 29.7826824  , 828.8791    , 2.42        , 7           , 255         , 0           , 0
-0.107921064, 0.156812146 , -9.7871685  , -6.962527E-05, -0.000317545957, -3.345833E-05, -0.0156466458, -0.011497926, 1.969615    , 917.5854    , 29.78553    , 828.8794    , 2.43        , 7           , 255         , 0           , 0
-0.118095756, 0.150101349 , -9.791226   , -0.000156503054, 4.053116E-05, 5.24157222E-05, -0.015648216, -0.0114975134, 1.96961558  , 917.5854    , 29.78553    , 828.8797    , 2.44        , 7           , 255         , 0           , 0
-0.11390084 , 0.1424923   , -9.79495049 , -0.000464125478, 0.000272922334, 0.000362129154, -0.0156529  , -0.0114947315, 1.96961915  , 917.5854    , 29.78553    , 828.88      , 2.45        , 7           , 255         , 0           , 0
-0.11980617 , 0.1398596   , -9.800664   , -0.0002063778, 0.0004240874, -8.659724E-05, -0.0156549532, -0.0114905005, 1.96961832  , 917.5854    , 29.78553    , 828.8803    , 2.46        , 7           , 255         , 0           , 0
-0.130467534, 0.142221183 , -9.79699    , 0.0004459906, 0.000331062474, 0.000360586651, -0.0156505369, -0.0114871338, 1.9696219   , 917.5854    , 29.78553    , 828.8806    , 2.47        , 7           , 255         , 0           , 0
-0.118679442, 0.134202287 , -9.796999   , 5.952461E-05, 0.000217114 , -0.000168450322, -0.0156499222, -0.0114849908, 1.96962011  , 917.5854    , 29.78553    , 828.8809    , 2.48        , 7           , 255         , 0           , 0
-0.11991854 , 0.125425726 , -9.795974   , -5.60251065E-05, -6.40942E-05, 5.74929E-05 , -0.0156504884, -0.0114856213, 1.9696207   , 917.5854    , 29.78553    , 828.8812    , 2.49        , 7           , 255         , 0           , 0
-0.132291883, 0.127325416 , -9.785626   , -4.10007779E-05, -0.000199944945, 0.000400524732, -0.0156509429, -0.0114875585, 1.96962476  , 917.5854    , 29.78553    , 828.881531  , 2.5         , 7           , 255         , 0           , 0
-0.127925709, 0.122667409 , -9.787227   , -0.000218040368, 0.000528507633, 0.000174083791, -0.0156337786, -0.011495403, 1.96962631  , 917.5854    , 29.78553    , 828.868652  , 2.51        , 7           , 255         , 0           , 0
-0.114714585, 0.1232783   , -9.78908    , 0.0005097233, 0.0001678738, -0.000512142, -0.01562862 , -0.0114938049, 1.9696213   , 917.5854    , 29.78553    , 828.8689    , 2.52        , 7           , 255         , 0           , 0
-0.106482647, 0.131237909 , -9.796237   , 0.000456288224, 4.025316E-05, -0.0005391208, -0.0156239951, -0.0114934864, 1.9696157   , 917.579468  , 29.7845821  , 828.869141  , 2.53        , 7           , 255         , 0           , 0
-0.1193954  , 0.1455838   , -9.7914     , -9.89955151E-06, 0.000126777682, -0.000269167882, -0.0156240622, -0.0114922589, 1.96961308  , 917.579468  , 29.7845821  , 828.8694    , 2.54        , 7           , 255         , 0           , 0
-0.117994189, 0.1447614   , -9.788655   , -0.0001473215, 0.0002978302, -6.53756433E-06, -0.0156255364, -0.0114892805, 1.96961308  , 917.579468  , 29.7845821  , 828.8696    , 2.55        , 7           , 255         , 0           , 0
-0.117427468, 0.144212678 , -9.792597   , -0.000200127019, -8.432823E-05, -7.002429E-05, -0.0156275276, -0.0114901345, 1.96961236  , 917.579468  , 29.7845821  , 828.8699    , 2.56        , 7           , 255         , 0           , 0
-0.126983449, 0.153793022 , -9.79168    , 0.000387204462, 0.000352515373, -0.0001575798, -0.0156236384, -0.0114866337, 1.96961081  , 917.579468  , 29.7845821  , 828.8701    , 2.57        , 7           , 255         , 0           , 0
-0.1130466  , 0.164583459 , -9.798976   , 0.000153911067, -3.48492758E-05, 0.000392826041, -0.0156221427, -0.0114869224, 1.96961462  , 917.579468  , 29.7845821  , 828.870361  , 2.58        , 7           , 255         , 0           , 0
-0.102788091, 0.164541453 , -9.792257   , 0.000367967761, -0.000332079129, 0.0002231206, -0.01561849 , -0.0114902072, 1.96961689  , 917.579468  , 29.7845821  , 828.8706    , 2.59        , 7           , 255         , 0           , 0
-0.113952711, 0.171174675 , -9.795931   , 0.000634533237, 9.566313E-06, -0.000415782037, -0.0156120984, -0.0114901774, 1.96961284  , 917.579468  , 29.7845821  , 828.87085   , 2.6         , 7           , 255         , 0           , 0
-0.112438813, 0.182423592 , -9.805685   , 0.000336412981, 0.0002273341, -8.79383151E-05, -0.0155945225, -0.0114957187, 1.96961176  , 917.579468  , 29.7845821  , 828.867249  , 2.61        , 7           , 255         , 0           , 0
-0.107703492, 0.192635179 , -9.798243   , 0.0004200384, 4.526181E-05, 0.00020520635, -0.0155903455, -0.0114952354, 1.96961379  , 917.579468  , 29.7845821  , 828.8675    , 2.62        , 7           , 255         , 0           , 0
-0.114155471, 0.1848483   , -9.792873   , 0.000357435143, 0.000186106889, 0.00102755416, -0.0155868884, -0.0114932125, 1.96962416  , 917.5828    , 29.7837677  , 828.867737  , 2.63        , 7           , 255         , 0           , 0
-0.126543015, 0.17481032  , -9.797862   , -0.000406514038, 0.000171934371, 0.000552300247, -0.015591016, -0.0114914076, 1.96962976  , 917.5828    , 29.7837677  , 828.868     , 2.64        , 7           , 255         , 0           , 0
-0.120824113, 0.167131141 , -9.794157   , -0.000200455543, -0.00010177854, 0.000476316374, -0.0155930752, -0.0114923511, 1.96963441  , 917.5828    , 29.7837677  , 828.8682    , 2.65        , 7           , 255         , 0           , 0
-0.10881976 , 0.169579148 , -9.795111   , -5.26790973E-05, 9.80803743E-05, 0.000205768752, -0.0155936256, -0.0114913369, 1.96963644  , 917.5828    , 29.7837677  , 828.868469  , 2.66        , 7           , 255         , 0           , 0
-0.116458878, 0.169234663 , -9.802506   , 9.720045E-05, 5.84964873E-05, 0.000255347521, -0.01559268 , -0.0114907138, 1.96963906  , 917.5828    , 29.7837677  , 828.8687    , 2.67        , 7           , 255         , 0           , 0
-0.1114678  , 0.1645885   , -9.791919   , 2.54074112E-05, -6.250595E-05, -6.615738E-05, -0.0155924186, -0.0114913471, 1.96963835  , 917.5828    , 29.7837677  , 828.868958  , 2.68        , 7           , 255         , 0           , 0
-0.111067437, 0.153023154 , -9.789864   , 0.000262828427, 0.000366477529, 0.0003356337, -0.0155898267, -0.0114876283, 1.96964169  , 917.5828    , 29.7837677  , 828.8692    , 2.69        , 7           , 255         , 0           , 0
-0.116908647, 0.1419106   , -9.793661   , 0.000123225327, 2.46742275E-06, 0.00078699  , -0.0155886868, -0.0114874821, 1.96964955  , 917.5828    , 29.7837677  , 828.869446  , 2.7         , 7           , 255         , 0           , 0
-0.119048335, 0.150807917 , -9.800494   , -4.38185525E-05, 0.0003400984, -0.000379053236, -0.01561792 , -0.0114875464, 1.96964622  , 917.5828    , 29.7837677  , 828.8611    , 2.71        , 7           , 255         , 0           , 0
-0.120777473, 0.1418349   , -9.794711   , 0.000316403341, 0.000192534644, 0.000166788712, -0.0156147759, -0.0114855981, 1.96964788  , 917.5828    , 29.7837677  , 828.861267  , 2.72        , 7           , 255         , 0           , 0
-0.116065457, 0.130292729 , -9.792944   , -7.64274737E-05, 0.000553894439, 0.00117999059, -0.0156156737, -0.0114798732, 1.96965969  , 917.5691    , 29.786005   , 828.86145   , 2.73        , 7           , 255         , 0           , 0
-0.118979737, 0.130844012 , -9.791227   , 2.294092E-05, -0.000424980884, 0.00102744193, -0.015615562, -0.0114839589, 1.96966994  , 917.5691    , 29.786005   , 828.861633  , 2.74        , 7           , 255         , 0           , 0
-0.117034592, 0.129773781 , -9.794077   , -2.7299393E-06, 3.908621E-05, 0.00025427225, -0.0156156179, -0.0114835277, 1.96967256  , 917.5691    , 29.786005   , 828.8618    , 2.75        , 7           , 255         , 0           , 0
-0.114472628, 0.136003345 , -9.794274   , -0.000579828, 8.572673E-05, 7.51686457E-05, -0.0156214256, -0.01148266 , 1.96967328  , 917.5691    , 29.786005   , 828.862     , 2.76        , 7           , 255         , 0           , 0
-0.117902637, 0.1403751   , -9.797509   , -0.000180019735, 8.459622E-05, 0.000280854816, -0.0156232575, -0.0114817694, 1.96967614  , 917.5691    , 29.786005   , 828.8622    , 2.77        , 7           , 255         , 0           , 0
-0.118529655, 0.14174518  , -9.795256   , 0.000565930153, -0.000190869556, -0.000159961826, -0.015617582, -0.0114837028, 1.96967459  , 917.5691    , 29.786005   , 828.862366  , 2.78        , 7           , 255         , 0           , 0
-0.107121252, 0.138452262 , -9.79767    , 0.000149887172, 0.0004286567, 0.0005489627, -0.0156161459, -0.0114793321, 1.96968007  , 917.5691    , 29.786005   , 828.862549  , 2.79        , 7           , 255         , 0           , 0
-0.104066119, 0.148724318 , -9.79315948 , -0.000179276831, 0.000677760341, 0.000233303334, -0.0156179629, -0.0114725195, 1.96968222  , 917.5691    , 29.786005   , 828.862732  , 2.8         , 7           , 255         , 0           , 0
-0.109688178, 0.1473727   , -9.789321   , 5.668844E-07, 0.000124054146, 0.000373794348, -0.0155926943, -0.0114764282, 1.96968567  , 917.5691    , 29.786005   , 828.8744    , 2.81        , 7           , 255         , 0           , 0
-0.111297809, 0.151561365 , -9.793079   , 0.000205927 , 0.000124461018, 0.0005451462, -0.0155906966, -0.0114751011, 1.969691    , 917.5691    , 29.786005   , 828.874634  , 2.82        , 7           , 255         , 0           , 0
-0.105280563, 0.161549136 , -9.793465   , -0.000439043331, -4.156551E-05, 0.000183831478, -0.0155951092, -0.0114754885, 1.969693    , 917.588135  , 29.7835636  , 828.8749    , 2.83        , 7           , 255         , 0           , 0
-0.113748685, 0.16264677  , -9.797584   , -0.000160221622, 3.88331246E-05, 0.0006309781, -0.0155967847, -0.011475   , 1.96969926  , 917.588135  , 29.7835636  , 828.8752    , 2.84        , 7           , 255         , 0           , 0
-0.1183154  , 0.167038515 , -9.801968   , -7.921632E-05, 0.000523683149, 1.93299929E-05, -0.0155975763, -0.0114697609, 1.96969938  , 917.588135  , 29.7835636  , 828.8755    , 2.85        , 7           , 255         , 0           , 0
-0.118930914, 0.16124779  , -9.788767   , 0.000331138668, -0.000153936446, 7.397475E-05, -0.0155942729, -0.0114712883, 1.9697001   , 917.588135  , 29.7835636  , 828.8758    , 2.86        , 7           , 255         , 0           , 0
-0.111849084, 0.165320978 , -9.795651   , -9.746116E-06, -0.000335842138, -0.0005570586, -0.0155943083, -0.0114747342, 1.96969461  , 917.588135  , 29.7835636  , 828.8761    , 2.87        , 7           , 255         , 0           , 0
-0.1089993  , 0.16004172  , -9.794202   , -0.0002936398, 0.0005266743, 0.000215155436, -0.0155972689, -0.0114694349, 1.96969676  , 917.588135  , 29.7835636  , 828.8764    , 2.88        , 7           , 255         , 0           , 0
-0.113972604, 0.161346674 , -9.798162   , 0.000543661066, -0.0003024094, 2.61908426E-05, -0.0155918347, -0.0114724524, 1.969697    , 917.588135  , 29.7835636  , 828.8767    , 2.89        , 7           , 255         , 0           , 0
-0.108312845, 0.15688476  , -9.795268   , -0.000395944342, 0.000399219338, -9.8708304E-05, -0.0155957825, -0.0114684775, 1.969696    , 917.588135  , 29.7835636  , 828.877     , 2.9         , 7           , 255         , 0           , 0
-0.109238163, 0.155728415 , -9.79382    , 3.12135671E-05, 8.167268E-05, -0.000740063668, -0.0156073365, -0.011467169, 1.96968877  , 917.588135  , 29.7835636  , 828.8601    , 2.91        , 7           , 255         , 0           , 0
-0.121737935, 0.151063323 , -9.79064    , 8.145929E-06, 0.00030045677, -0.000292475277, -0.0156072211, -0.01146421 , 1.96968579  , 917.588135  , 29.7835636  , 828.8603    , 2.92        , 7           , 255         , 0           , 0
-0.124416448, 0.158659309 , -9.797604   , -0.000150361418, 0.000232479884, 0.0001755318, -0.0156087447, -0.0114618586, 1.96968746  , 917.6031    , 29.7841072  , 828.8605    , 2.93        , 7           , 255         , 0           , 0
-0.116618529, 0.1604605   , -9.793401   , 0.000106807274, 0.000217481633, 0.000163524921, -0.015607696, -0.0114596589, 1.96968913  , 917.6031    , 29.7841072  , 828.860657  , 2.94        , 7           , 255         , 0           , 0
-0.123371437, 0.154404372 , -9.78916    , -4.149112E-05, 0.000226571225, 0.0005039229, -0.0156081691, -0.0114573156, 1.96969414  , 917.6031    , 29.7841072  , 828.86084   , 2.95        , 7           , 255         , 0           , 0
-0.112644516, 0.147333577 , -9.789684   , 0.00021200144, 0.000486838864, 0.0007228593, -0.0156061305, -0.0114523349, 1.96970129  , 917.6031    , 29.7841072  , 828.861     , 2.96        , 7           , 255         , 0           , 0
-0.115040109, 0.149113148 , -9.788467   , -8.680776E-05, -3.13159544E-05, 0.000174668254, -0.015607019, -0.01145262 , 1.96970308  , 917.6031    , 29.7841072  , 828.8612    , 2.97        , 7           , 255         , 0           , 0
-0.114334524, 0.143819    , -9.789688   , -0.000324811845, 0.00023814803, 0.000155232832, -0.0156102823, -0.0114502134, 1.96970463  , 917.6031    , 29.7841072  , 828.8614    , 2.98        , 7           , 255         , 0           , 0
-0.110008277, 0.150179029 , -9.798028   , 0.000311752432, 0.000165867037, -7.566214E-05, -0.0156071568, -0.0114485677, 1.96970391  , 917.6031    , 29.7841072  , 828.8616    , 2.99        , 7           , 255         , 0           , 0
-0.113575004, 0.148820087 , -9.78986549 , 8.997449E-05, 0.000697401352, -0.00012594508, -0.01560624 , -0.0114416145, 1.96970248  , 917.6031    , 29.7841072  , 828.861755  , 3           , 7           , 0           , 8.484237    , 300
-0.11723505 , 0.150391981 , -9.79641151 , -0.000301118445, 0.000186124 , -0.0002453782, -0.0156073589, -0.0114479531, 1.9697      , 917.6031    , 29.7841072  , 828.8258    , 3.01        , 7           , 1           , 0           , 0
-0.123335183, 0.156040281 , -9.78925    , -5.31259E-05, 0.0007605811, 0.0008902595, -0.01560799 , -0.0114402091, 1.96970868  , 917.6031    , 29.7841072  , 828.825745  , 3.02        , 7           , 2           , 0           , 0
-0.118595377, 0.155635968 , -9.789355   , 0.000298089872, 0.000563386129, 0.000175883586, -0.0156050287, -0.0114345485, 1.96971035  , 917.5616    , 29.78336    , 828.8257    , 3.03        , 7           , 3           , 0           , 0
-0.116820917, 0.1514124   , -9.7866     , -0.0005326458, 0.000280379551, 0.000407883461, -0.0156104024, -0.0114316819, 1.96971452  , 917.5616    , 29.78336    , 828.8257    , 3.04        , 7           , 4           , 0           , 0
-0.117026232, 0.1552591   , -9.786276   , 7.511827E-05, -0.000193414511, -0.0003866334, -0.0156096071, -0.0114336768, 1.96971071  , 917.5616    , 29.78336    , 828.8257    , 3.05        , 7           , 5           , 0           , 0
-0.127272218, 0.155476138 , -9.787886   , 0.000100320205, -7.662759E-05, 0.0003214087, -0.01560864 , -0.0114343911, 1.96971393  , 917.5616    , 29.78336    , 828.8257    , 3.06        , 7           , 6           , 0           , 0
-0.119677208, 0.151346073 , -9.791609   , -0.00015134993, 0.000154702691, 0.000229930738, -0.015610178, -0.011432807, 1.96971619  , 917.5616    , 29.78336    , 828.8257    , 3.07        , 7           , 7           , 0           , 0
-0.1231666  , 0.139372572 , -9.791608   , -0.0004830272, 0.0004961798, -0.000131914654, -0.0156149929, -0.0114278663, 1.96971488  , 917.5616    , 29.78336    , 828.8257    , 3.08        , 7           , 8           , 5           , 5
-0.115354493, 0.138164967 , -9.79724    , -0.000157004572, 0.0004933332, 0.000153491652, -0.0156165808, -0.01142291 , 1.96971643  , 917.5616    , 29.78336    , 828.8257    , 3.09        , 7           , 9           , 5           , 0.1
-0.11806909 , 0.148902684 , -9.795688   , 0.0001543684, 0.0004093973, -0.000268541975, -0.015615005, -0.0114188576, 1.96971369  , 917.5616    , 29.78336    , 828.8257    , 3.1         , 7           , 10          , 0.1         , 0.1
-0.120422229, 0.146701545 , -9.79303    , 0.000101071142, 0.000586611568, -0.0006560054, -0.015608103, -0.01142997 , 1.969707    , 917.5616    , 29.78336    , 828.853638  , 3.11        , 7           , 11          , 0.007560035 , 0.00756003661
-0.108519055, 0.14592354  , -9.797873   , -0.00010857929, 0.0002218649, -0.000273086363, -0.0156091582, -0.0114277964, 1.96970439  , 917.5616    , 29.78336    , 828.8538    , 3.12        , 7           , 12          , 0.03465699  , 0
-0.111230865, 0.153147161 , -9.795808   , -0.0005041829, 0.0002713696, 0.0002714012, -0.015614232, -0.0114250388, 1.969707    , 917.539551  , 29.7838345  , 828.854     , 3.13        , 7           , 13          , 0           , 0
-0.111154541, 0.149243623 , -9.795687   , 0.000206015888, 0.0005539056, 0.0002087691, -0.0156121952, -0.0114194667, 1.96970916  , 917.539551  , 29.7838345  , 828.8542    , 3.14        , 7           , 14          , 0.000596155238, 0.00170892535
-0.106963173, 0.142529488 , -9.800691   , 6.390811E-05, 7.711921E-05, -0.000128164276, -0.0156115415, -0.0114187151, 1.969708    , 917.539551  , 29.7838345  , 828.8544    , 3.15        , 7           , 15          , 0           , 0.0001647566
-0.112311244, 0.141182259 , -9.798803   , 0.000330577139, 0.000278707 , -5.27580341E-05, -0.0156082278, -0.0114159388, 1.96970737  , 917.539551  , 29.7838345  , 828.854553  , 3.16        , 7           , 16          , 0           , 1.401298E-45
-0.111004852, 0.145155177 , -9.795992   , -0.000155197136, 0.00101319526, 3.560893E-05, -0.0156097813, -0.0114058  , 1.96970761  , 917.539551  , 29.7838345  , 828.854736  , 3.17        , 7           , 20          , 0           , 0
-0.115538754, 0.1550717   , -9.793657   , 5.57351159E-05, 0.000742504955, 3.0478448E-05, -0.0156092281, -0.0113983722, 1.96970773  , 917.539551  , 29.7838345  , 828.8549    , 3.18        , 7           , 21          , 0           , 0
-0.113779888, 0.157903582 , -9.795996   , 0.0002087169, 0.0006289688, -0.000103294, -0.0156071242, -0.0113921016, 1.96970654  , 917.539551  , 29.7838345  , 828.8551    , 3.19        , 7           , 22          , 0           , 0
-0.112529792, 0.155246213 , -9.787011   , 0.000560382 , 0.000349552254, 0.000280830718, -0.015601554, -0.0113885617, 1.9697094   , 917.539551  , 29.7838345  , 828.8553    , 3.2         , 7           , 40          , 0           , 0
-0.117957518, 0.160106823 , -9.793734   , 0.000638230646, 5.222112E-05, 0.0005756472, -0.0155891711, -0.01138872 , 1.969715    , 917.539551  , 29.7838345  , 828.910339  , 3.21        , 7           , 41          , 0           , 0
-0.118666649, 0.158882245 , -9.795072   , 0.000533502141, 0.0004774572, 0.0005819538, -0.0155839035, -0.0113838548, 1.96972084  , 917.539551  , 29.7838345  , 828.9109    , 3.22        , 7           , 42          , 1           , 0
-0.117005825, 0.162464216 , -9.791817   , 0.0004969942, 0.0005268345, 0.000785818032, -0.0155790225, -0.0113784643, 1.96972871  , 917.5952    , 29.78553    , 828.911438  , 3.23        , 7           , 255         , 0           , 0
-0.116734341, 0.16159752  , -9.794941   , -0.000129178166, -0.000360439764, 4.210975E-05, -0.0155803179, -0.011382062, 1.96972919  , 917.5952    , 29.78553    , 828.912     , 3.24        , 7           , 255         , 0           , 0
-0.113014854, 0.160354376 , -9.794376   , 0.0002058383, -0.000327541027, -0.0005274265, -0.0155782  , -0.0113854166, 1.96972394  , 917.5952    , 29.78553    , 828.912537  , 3.25        , 7           , 255         , 0           , 0
-0.11922653 , 0.158326238 , -9.796075   , -0.000516552769, 0.000526157 , 6.314539E-05, -0.0155833708, -0.0113801453, 1.96972454  , 917.5952    , 29.78553    , 828.9131    , 3.26        , 7           , 255         , 0           , 0
-0.115899965, 0.14987573  , -9.797809   , -0.000522533548, -0.000217661029, 0.0003319368, -0.0155886319, -0.0113822706, 1.96972787  , 917.5952    , 29.78553    , 828.913635  , 3.27        , 7           , 255         , 0           , 0
-0.112593673, 0.156142443 , -9.797675   , 7.100956E-05, -0.000175613444, 0.000765237957, -0.0155880069, -0.0113839051, 1.9697355   , 917.5952    , 29.78553    , 828.9142    , 3.28        , 7           , 255         , 0           , 0
-0.112084761, 0.160744816 , -9.794024   , 3.194902E-06, 1.90181891E-05, 0.000223210169, -0.0155880013, -0.0113836816, 1.96973777  , 917.5952    , 29.78553    , 828.914734  , 3.29        , 7           , 255         , 0           , 0
-0.119609974, 0.1515938   , -9.794453   , 0.000322717824, 7.08461739E-05, 0.000269746233, -0.0155848069, -0.011382929, 1.96974063  , 917.5952    , 29.78553    , 828.9153    , 3.3         , 7           , 255         , 0           , 0
-0.107578322, 0.151544541 , -9.792309   , -0.000270992779, 0.00063089  , 0.0003826892, -0.0155963618, -0.0113843055, 1.96974444  , 917.5952    , 29.78553    , 828.8827    , 3.31        , 7           , 255         , 0           , 0
-0.116329327, 0.154875085 , -9.797687   , 0.0001376968, 0.000253189122, -0.000163828227, -0.0155949648, -0.0113817994, 1.96974289  , 917.5952    , 29.78553    , 828.883057  , 3.32        , 7           , 255         , 0           , 0
-0.121114805, 0.145592809 , -9.787642   , -0.00010349782, 0.000334726879, 0.0006124079, -0.0155960694, -0.0113783563, 1.969749    , 917.568542  , 29.7844448  , 828.8834    , 3.33        , 7           , 255         , 0           , 0
-0.113500215, 0.148206621 , -9.789793   , -0.0005822923, 0.0001483662, 0.00024679504, -0.0156019209, -0.0113768345, 1.96975136  , 917.568542  , 29.7844448  , 828.8838    , 3.34        , 7           , 255         , 0           , 0
-0.113648966, 0.154858351 , -9.788664   , 5.180016E-05, 0.00027086027, -0.000460613577, -0.01560135 , -0.011374197, 1.96974683  , 917.568542  , 29.7844448  , 828.884155  , 3.35        , 7           , 255         , 0           , 0
-0.113363162, 0.150337532 , -9.786612   , -0.000183678349, 0.0003151188, -0.000456805719, -0.0156031335, -0.011371118, 1.9697423   , 917.568542  , 29.7844448  , 828.8845    , 3.36        , 7           , 255         , 0           , 0
-0.111524224, 0.142555058 , -9.788471   , 0.000391270383, 0.000411953544, -0.000168081518, -0.0155992014, -0.0113670249, 1.96974051  , 917.568542  , 29.7844448  , 828.8849    , 3.37        , 7           , 255         , 0           , 0
-0.11078018 , 0.141103417 , -9.796039   , 8.52996E-05 , 5.254871E-06, -3.63074359E-05, -0.0155983437, -0.0113669783, 1.96974015  , 917.568542  , 29.7844448  , 828.885254  , 3.38        , 7           , 255         , 0           , 0
-0.115040615, 0.144131422 , -9.797061   , -2.59035151E-05, -0.000329693081, -0.000195729313, -0.01559858 , -0.011370305, 1.96973825  , 917.568542  , 29.7844448  , 828.8856    , 3.39        , 7           , 255         , 0           , 0
-0.111631356, 0.1483829   , -9.793216   , 0.000127490785, -0.00014188746, 0.0006006516, -0.0155973751, -0.0113716312, 1.96974421  , 917.568542  , 29.7844448  , 828.886     , 3.4         , 7           , 255         , 0           , 0
-0.115346693, 0.141298369 , -9.793536   , -0.0007003515, -9.346288E-05, 0.0006308804, -0.0155951306, -0.0113766035, 1.96975052  , 917.568542  , 29.7844448  , 828.8955    , 3.41        , 7           , 255         , 0           , 0
-0.120767191, 0.15050061  , -9.796571   , -0.00041742227, -5.40828332E-05, 0.000131677414, -0.0155993206, -0.011377125, 1.96975183  , 917.568542  , 29.7844448  , 828.895935  , 3.42        , 7           , 255         , 0           , 0
-0.115782961, 0.150837332 , -9.79543    , 0.000120401906, -0.0004269838, 3.533979E-05, -0.01559812 , -0.0113813868, 1.96975219  , 917.566956  , 29.7866173  , 828.896362  , 3.43        , 7           , 255         , 0           , 0
-0.112495944, 0.139678627 , -9.791058   , 0.000373040559, 2.82925321E-05, -4.53909379E-05, -0.0155943846, -0.0113811111, 1.96975172  , 917.566956  , 29.7866173  , 828.8968    , 3.44        , 7           , 255         , 0           , 0
-0.116428688, 0.15213576  , -9.785707   , 6.06023823E-05, 0.000168213854, 0.00113444088, -0.0155939041, -0.0113792522, 1.969763    , 917.566956  , 29.7866173  , 828.8972    , 3.45        , 7           , 255         , 0           , 0
-0.114903882, 0.15482825  , -9.792525   , -0.00034105152, 0.0004606977, 0.000488037535, -0.01559737 , -0.0113745667, 1.96976793  , 917.566956  , 29.7866173  , 828.897644  , 3.46        , 7           , 255         , 0           , 0
-0.109788463, 0.157468155 , -9.79054451 , 0.000181514071, 0.000307236216, 0.000441079261, -0.0155956028, -0.0113714272, 1.96977234  , 917.566956  , 29.7866173  , 828.8981    , 3.47        , 7           , 255         , 0           , 0
-0.112668775, 0.16106686  , -9.797126   , 0.000366762921, 0.000237325439, 0.000539199042, -0.0155919986, -0.01136897 , 1.9697777   , 917.566956  , 29.7866173  , 828.8985    , 3.48        , 7           , 255         , 0           , 0
-0.114490971, 0.1522611   , -9.791361   , -0.000157117669, 0.0004509586, 7.440096E-05, -0.0155935772, -0.0113644488, 1.9697783   , 917.566956  , 29.7866173  , 828.8989    , 3.49        , 7           , 255         , 0           , 0
-0.1141322  , 0.157031819 , -9.788267   , 0.000111074769, 0.0004885971, 0.00048873265, -0.015592522, -0.0113594867, 1.96978331  , 917.566956  , 29.7866173  , 828.899353  , 3.5         , 7           , 255         , 0           , 0
-0.11440295 , 0.158471316 , -9.792277   , -0.000337288715, 0.000162863987, -0.000419865828, -0.0155939423, -0.0113640726, 1.96977913  , 917.566956  , 29.7866173  , 828.9094    , 3.51        , 7           , 255         , 0           , 0
-0.116451144, 0.155632213 , -9.786666   , 0.00022889016, -0.000103974133, 4.19158023E-05, -0.0155916549, -0.0113651054, 1.96977949  , 917.566956  , 29.7866173  , 828.9099    , 3.52        , 7           , 255         , 0           , 0
-0.118761219, 0.160558388 , -9.787913   , -0.00021732421, 0.00010312337, 0.0003406357, -0.0155938687, -0.0113640241, 1.969783    , 917.581848  , 29.7849884  , 828.9104    , 3.53        , 7           , 255         , 0           , 0
-0.105564952, 0.157688931 , -9.796389   , -1.69180566E-06, -2.25822441E-06, 0.000137115523, -0.0155939022, -0.0113640223, 1.96978438  , 917.581848  , 29.7849884  , 828.9109    , 3.54        , 7           , 255         , 0           , 0
-0.10827402 , 0.152777091 , -9.795315   , -8.28664051E-05, 0.000509949168, 0.0004222053, -0.0155947795, -0.0113588572, 1.96978867  , 917.581848  , 29.7849884  , 828.9114    , 3.55        , 7           , 255         , 0           , 0
-0.118141904, 0.161334261 , -9.785387   , -0.000199966715, 0.00020365743, 0.000258713262, -0.0155968089, -0.01135678 , 1.96979117  , 917.581848  , 29.7849884  , 828.911865  , 3.56        , 7           , 255         , 0           , 0
-0.112606667, 0.163962618 , -9.786529   , -0.000382769824, 0.0006817817, 5.08217054E-05, -0.0156006385, -0.0113499556, 1.96979165  , 917.581848  , 29.7849884  , 828.912354  , 3.57        , 7           , 255         , 0           , 0
-0.115177356, 0.154154509 , -9.790482   , 0.000493356551, 0.0007288081, 7.39027746E-05, -0.0155957127, -0.0113426568, 1.96979225  , 917.581848  , 29.7849884  , 828.912842  , 3.58        , 7           , 255         , 0           , 0
-0.115762495, 0.147361159 , -9.79527    , -0.000222293078, 0.00021213037, 0.00048946694, -0.0155979889, -0.01134046 , 1.96979713  , 917.581848  , 29.7849884  , 828.9133    , 3.59        , 7           , 255         , 0           , 0
-0.122245528, 0.142242    , -9.794484   , -0.000187088444, 0.0003826893, -0.000187964586, -0.0155998385, -0.0113366628, 1.96979523  , 917.581848  , 29.7849884  , 828.9138    , 3.6         , 7           , 255         , 0           , 0
-0.120876051, 0.146800682 , -9.796132   , 0.000618604 , -7.156178E-05, -1.11913105E-05, -0.0155991688, -0.0113444561, 1.96979511  , 917.581848  , 29.7849884  , 828.9005    , 3.61        , 7           , 255         , 0           , 0
-0.103432216, 0.152662322 , -9.791704   , 0.000311141659, -0.000260677538, 0.0009763024, -0.0155961672, -0.0113469074, 1.96980488  , 917.581848  , 29.7849884  , 828.90094   , 3.62        , 7           , 255         , 0           , 0
-0.105664514, 0.150339216 , -9.792818   , 0.000205146847, 9.865977E-05, 0.0006979617, -0.0155941956, -0.0113458121, 1.96981192  , 917.627747  , 29.7849884  , 828.901367  , 3.63        , 7           , 255         , 0           , 0
-0.119272314, 0.147429422 , -9.793923   , -5.8013713E-05, 0.000364332227, 0.000480621762, -0.0155948307, -0.0113420943, 1.9698168   , 917.627747  , 29.7849884  , 828.9018    , 3.64        , 7           , 255         , 0           , 0
-0.113162637, 0.1528469   , -9.795301   , 0.000105189509, 0.000444630161, 0.000482847623, -0.0155938333, -0.0113375755, 1.96982157  , 917.627747  , 29.7849884  , 828.9022    , 3.65        , 7           , 255         , 0           , 0
-0.120245978, 0.147861987 , -9.796725   , -0.000597743143, 0.0004974755, -0.000233097991, -0.0155997854, -0.0113326367, 1.96981919  , 917.627747  , 29.7849884  , 828.902649  , 3.66        , 7           , 255         , 0           , 0
-0.116810873, 0.146756038 , -9.790865   , -1.95528846E-05, 0.0005968141, 0.0001780128, -0.0155999986, -0.0113266418, 1.969821    , 917.627747  , 29.7849884  , 828.9031    , 3.67        , 7           , 255         , 0           , 0
-0.116974831, 0.142272532 , -9.797823   , 0.000101227837, 0.00084377965, 0.000157578877, -0.0155990031, -0.0113181816, 1.96982229  , 917.627747  , 29.7849884  , 828.9035    , 3.68        , 7           , 255         , 0           , 0
-0.109324023, 0.152656451 , -9.791485   , -0.000104793173, 0.0005024709, 0.000119473407, -0.0156000657, -0.0113131395, 1.96982336  , 917.627747  , 29.7849884  , 828.903931  , 3.69        , 7           , 255         , 0           , 0
-0.113200366, 0.144393191 , -9.796991   , 9.97427851E-05, 2.90797325E-05, 0.00079933  , -0.0155991577, -0.011312726, 1.96983147  , 917.627747  , 29.7849884  , 828.904358  , 3.7         , 7           , 255         , 0           , 0
-0.117055729, 0.147947729 , -9.791959   , -0.0002764462, -6.75061E-05, 0.000140293574, -0.0155949993, -0.0113178771, 1.9698329   , 917.627747  , 29.7849884  , 828.826843  , 3.71        , 7           , 255         , 0           , 0
-0.117075242, 0.142522976 , -9.793269   , -0.000232961524, -2.62086978E-05, -7.22907644E-05, -0.01559732 , -0.0113181537, 1.96983218  , 917.627747  , 29.7849884  , 828.8268    , 3.72        , 7           , 255         , 0           , 0
-0.116547361, 0.137163311 , -9.798726   , -0.000144732447, 1.49118714E-05, -3.84156E-06, -0.0155987665, -0.0113180028, 1.96983218  , 917.579651  , 29.7851238  , 828.8267    , 3.73        , 7           , 255         , 0           , 0
-0.118912317, 0.144209445 , -9.791719   , 4.24752943E-06, 2.02521915E-05, 0.000398884062, -0.0155987693, -0.0113177374, 1.96983624  , 917.579651  , 29.7851238  , 828.82666   , 3.74        , 7           , 255         , 0           , 0
-0.114765763, 0.158704832 , -9.788615   , 0.0001931432, 9.988388E-05, -0.00012477822, -0.0155968238, -0.0113167586, 1.969835    , 917.579651  , 29.7851238  , 828.8266    , 3.75        , 7           , 255         , 0           , 0
-0.11553432 , 0.153897315 , -9.792062   , 4.84183547E-05, -0.000303867273, -8.511699E-05, -0.01559633 , -0.0113198105, 1.96983409  , 917.579651  , 29.7851238  , 828.826538  , 3.76        , 7           , 255         , 0           , 0
-0.119795837, 0.154677987 , -9.793906   , 0.000338267826, 2.98353843E-05, -0.000104497754, -0.0155929355, -0.0113195283, 1.969833    , 917.579651  , 29.7851238  , 828.8265    , 3.77        , 7           , 255         , 0           , 0
-0.120543979, 0.149924681 , -9.79661    , 0.000146334816, -3.6421E-05 , -8.677083E-05, -0.0155914621, -0.0113199046, 1.96983218  , 917.579651  , 29.7851238  , 828.8264    , 3.78        , 7           , 255         , 0           , 0
-0.115324125, 0.1559896   , -9.796907   , 0.000598559 , -0.000259519438, -9.9742254E-05, -0.0155854663, -0.011322516, 1.96983123  , 917.579651  , 29.7851238  , 828.826355  , 3.79        , 7           , 255         , 0           , 0
-0.122235619, 0.166425332 , -9.786277   , 0.00101742567, 8.44947062E-05, 0.000519621244, -0.0155753493, -0.0113215894, 1.96983647  , 917.579651  , 29.7851238  , 828.8263    , 3.8         , 7           , 255         , 0           , 0
-0.126942441, 0.16203697  , -9.796233   , 0.000429298263, 0.0003789519, 0.0006704109, -0.0155683737, -0.0113295559, 1.96984315  , 917.579651  , 29.7851238  , 828.8284    , 3.81        , 7           , 255         , 0           , 0
-0.11603646 , 0.165525928 , -9.797684   , 0.0006003914, -0.0001829334, -0.0005306791, -0.0155623117, -0.0113314679, 1.9698379   , 917.579651  , 29.7851238  , 828.8284    , 3.82        , 7           , 255         , 0           , 0
-0.117599748, 0.167105466 , -9.798179   , 0.00036892877, 3.39405378E-05, -6.002476E-05, -0.0155586163, -0.0113311373, 1.96983731  , 917.6056    , 29.7879734  , 828.8284    , 3.83        , 7           , 255         , 0           , 0
-0.115592062, 0.169339389 , -9.79019    , -0.000183527154, 0.00044664694, 6.388298E-05, -0.0155604556, -0.0113266623, 1.9698379   , 917.6056    , 29.7879734  , 828.8284    , 3.84        , 7           , 255         , 0           , 0
-0.12206389 , 0.160956427 , -9.792959   , 0.000115766539, 0.000451502856, -4.956848E-06, -0.0155592989, -0.0113221481, 1.9698379   , 917.6056    , 29.7879734  , 828.8284    , 3.85        , 7           , 255         , 0           , 0
-0.1077251  , 0.1530292   , -9.791265   , 0.0005484412, 9.194645E-05, -0.0001152222, -0.0155538  , -0.0113212466, 1.96983671  , 917.6056    , 29.7879734  , 828.8284    , 3.86        , 7           , 255         , 0           , 0
-0.113465175, 0.166006088 , -9.795107   , 7.852388E-06, 0.000247854972, 0.000472257 , -0.0155537743, -0.0113186939, 1.96984148  , 917.6056    , 29.7879734  , 828.8284    , 3.87        , 7           , 255         , 0           , 0
-0.119585171, 0.161510468 , -9.790215   , 0.000291538367, 0.0005112041, 0.0007901272, -0.0155509477, -0.01131346 , 1.96984935  , 917.6056    , 29.7879734  , 828.8284    , 3.88        , 7           , 255         , 0           , 0
-0.113497116, 0.147866935 , -9.796129   , 0.0002735707, 0.000145228347, 0.000104718696, -0.0155482236, -0.0113119911, 1.9698503   , 917.6056    , 29.7879734  , 828.8284    , 3.89        , 7           , 255         , 0           , 0
-0.111813545, 0.1483238   , -9.791729   , -0.000365344371, 6.6497596E-05, -0.000165181889, -0.0155518577, -0.0113113523, 1.96984863  , 917.6056    , 29.7879734  , 828.8284    , 3.9         , 7           , 255         , 0           , 0
-0.119247936, 0.151865214 , -9.790812   , -0.000501437054, 0.000429839478, -2.53725739E-06, -0.0155690592, -0.0113156987, 1.96984875  , 917.6056    , 29.7879734  , 828.7935    , 3.91        , 7           , 255         , 0           , 0
-0.117721185, 0.155153185 , -9.78921    , 0.000117339951, 0.000245401985, -9.12027754E-05, -0.0155678745, -0.0113132587, 1.9698478   , 917.6056    , 29.7879734  , 828.7933    , 3.92        , 7           , 255         , 0           , 0
-0.11620754 , 0.147752613 , -9.787241   , -0.0002813701, 0.000353613053, 0.0001634676, -0.0155707086, -0.0113096982, 1.96984935  , 917.5844    , 29.7867527  , 828.793     , 3.93        , 7           , 255         , 0           , 0
-0.110298827, 0.1406782   , -9.796896   , -0.0002383946, 0.000190132414, -6.098939E-05, -0.0155730844, -0.0113078086, 1.96984887  , 917.5844    , 29.7867527  , 828.7928    , 3.94        , 7           , 255         , 0           , 0
-0.117798582, 0.1464043   , -9.79196    , 0.000105992833, 0.000220157672, 0.000295864535, -0.0155720552, -0.0113055576, 1.96985185  , 917.5844    , 29.7867527  , 828.792542  , 3.95        , 7           , 255         , 0           , 0
-0.116957508, 0.14251776  , -9.790762   , -2.888334E-05, 1.57451723E-06, 0.000555257 , -0.0155724073, -0.0113054551, 1.96985745  , 917.5844    , 29.7867527  , 828.7923    , 3.96        , 7           , 255         , 0           , 0
-0.11424166 , 0.142685741 , -9.789913   , 0.000109833665, 0.000232587685, -4.31862645E-05, -0.0155713046, -0.0113031361, 1.969857    , 917.5844    , 29.7867527  , 828.792053  , 3.97        , 7           , 255         , 0           , 0
-0.115510441, 0.133897513 , -9.800909   , 0.000228124962, 0.0006219869, 0.0001443791, -0.01556904 , -0.0112968963, 1.96985829  , 917.5844    , 29.7867527  , 828.7919    , 3.98        , 7           , 255         , 0           , 0
-0.114188157, 0.138095766 , -9.799157   , -3.07001756E-05, 0.000181755517, 0.000102740276, -0.0155693563, -0.0112950625, 1.96985936  , 917.5844    , 29.7867527  , 828.7917    , 3.99        , 7           , 255         , 0           , 0
-0.104626082, 0.146437809 , -9.802027   , -0.000187953585, 4.855788E-05, 0.000354612072, -0.0155712785, -0.0112945223, 1.96986282  , 917.5844    , 29.7867527  , 828.7915    , 4           , 7           , 0           , 9.484237    , 400
-0.114350654, 0.15438661  , -9.794385   , 0.000345334585, -0.000521867652, 1.27602252E-05, -0.015555203, -0.0113059552, 1.96986294  , 917.5844    , 29.7867527  , 828.792     , 4.01        , 7           , 1           , 0           , 0
-0.124507651, 0.151432484 , -9.790632   , 0.000103781756, -2.74264021E-05, -0.000203837611, -0.015554144, -0.0113062607, 1.96986091  , 917.5844    , 29.7867527  , 828.7918    , 4.02        , 7           , 2           , 0           , 0
-0.117055275, 0.15491505  , -9.790569   , -0.000457648654, 3.5294448E-05, 0.0007167915, -0.0155588016, -0.0113057969, 1.96986806  , 917.579468  , 29.7888546  , 828.7916    , 4.03        , 7           , 3           , 0           , 0
-0.109527208, 0.14996098  , -9.791434   , -0.0005568962, 0.0003664213, 0.000781576848, -0.0155644575, -0.01130201 , 1.969876    , 917.579468  , 29.7888546  , 828.791443  , 4.04        , 7           , 4           , 0           , 0
-0.109718882, 0.156729117 , -9.792608   , -0.000102075341, 0.000399406184, -0.000249535951, -0.0155654522, -0.011298053, 1.96987355  , 917.579468  , 29.7888546  , 828.79126   , 4.05        , 7           , 5           , 0           , 0
-0.118983649, 0.161186829 , -9.795084   , -0.000449848245, 0.000266762334, -0.0003388526, -0.0155699085, -0.0112954406, 1.96987009  , 917.579468  , 29.7888546  , 828.7911    , 4.06        , 7           , 6           , 0           , 0
-0.114621565, 0.161960423 , -9.789872   , -0.000867793, 0.000114033348, -8.20243E-05, -0.0155785773, -0.0112943109, 1.96986926  , 917.579468  , 29.7888546  , 828.7909    , 4.07        , 7           , 7           , 0           , 0
-0.118597612, 0.162011    , -9.789156   , -0.00022195786, 0.000303863431, -0.000307452574, -0.0155807631, -0.0112913195, 1.96986628  , 917.579468  , 29.7888546  , 828.7907    , 4.08        , 7           , 8           , 5           , 5
-0.1257303  , 0.159008637 , -9.787641   , -0.0002271792, 0.000127469772, -8.506184E-05, -0.0155830234, -0.0112900576, 1.96986544  , 917.579468  , 29.7888546  , 828.7905    , 4.09        , 7           , 9           , 5           , 0.1
-0.115120962, 0.162738234 , -9.788736   , -0.000361759885, 2.45745759E-05, -0.000385987747, -0.0155865978, -0.0112898722, 1.96986151  , 917.579468  , 29.7888546  , 828.790344  , 4.1         , 7           , 10          , 0.1         , 0.1
-0.115692779, 0.157157168 , -9.795453   , -0.000186270772, 0.0005788213, -0.0002756538, -0.0155978771, -0.0112957377, 1.969859    , 917.579468  , 29.7888546  , 828.798157  , 4.11        , 7           , 11          , 0.00696293544, 0.00696293823
-0.115532383, 0.154134616 , -9.798769   , -1.9033323E-06, 0.000409272616, -0.00031581067, -0.0155978622, -0.011291692, 1.96985579  , 917.579468  , 29.7888546  , 828.798035  , 4.12        , 7           , 12          , 0.0346693471, 0
-0.1110966  , 0.150152236 , -9.794644   , -0.000303114241, 0.000418685027, -7.186612E-05, -0.0156008843, -0.0112875178, 1.96985507  , 917.6304    , 29.7889233  , 828.7979    , 4.13        , 7           , 13          , 0           , 0
-0.108274005, 0.1457722   , -9.796518   , -0.000204005279, 0.0002771177, 0.000316158868, -0.0156029593, -0.0112846959, 1.96985829  , 917.6304    , 29.7889233  , 828.7978    , 4.14        , 7           , 14          , 0.000596142665, 0.00170935283
-0.108412862, 0.158117071 , -9.797923   , 3.01564578E-05, 0.00011515955, 0.000230862861, -0.0156026855, -0.0112835094, 1.96986055  , 917.6304    , 29.7889233  , 828.797668  , 4.15        , 7           , 15          , 0           , 0.000164763434
-0.1140604  , 0.152142242 , -9.805204   , 0.000112690672, 0.000422603334, -4.245607E-05, -0.015601554, -0.0112792905, 1.96986008  , 917.6304    , 29.7889233  , 828.797546  , 4.16        , 7           , 16          , 0           , 1.401298E-45
-0.109522223, 0.150232822 , -9.796896   , 0.000136705465, 0.000369647169, 0.0001565762, -0.0156002017, -0.0112755708, 1.96986163  , 917.6304    , 29.7889233  , 828.7974    , 4.17        , 7           , 20          , 0           , 0
-0.114871427, 0.143665433 , -9.796376   , 0.000506314042, 0.0001485456, -0.0009554543, -0.01559503 , -0.0112742325, 1.96985209  , 917.6304    , 29.7889233  , 828.7973    , 4.18        , 7           , 21          , 0           , 0
-0.126465648, 0.1474784   , -9.793849   , 0.000442250457, 9.90793342E-05, 0.000181206633, -0.01559063 , -0.0112732137, 1.96985388  , 917.6304    , 29.7889233  , 828.7972    , 4.19        , 7           , 22          , 0           , 0
-0.119547352, 0.154560834 , -9.791158   , 0.000264334667, -1.07865781E-05, 0.000393885071, -0.015588033, -0.01127326 , 1.96985793  , 917.6304    , 29.7889233  , 828.797058  , 4.2         , 7           , 40          , 0           , 0
-0.115491614, 0.15143995  , -9.790245   , 0.000402641541, 7.86861638E-05, 0.000298937084, -0.015582066, -0.0112773189, 1.96986079  , 917.6304    , 29.7889233  , 828.7315    , 4.21        , 7           , 41          , 0           , 0
-0.115039989, 0.1445025   , -9.796746   , -0.0001560197, -0.0004916382, -0.0001506299, -0.0155836092, -0.0112822587, 1.96985936  , 917.6304    , 29.7889233  , 828.730957  , 4.22        , 7           , 42          , 1           , 0
-0.113606885, 0.14336881  , -9.796194   , 0.000188006845, -0.000235637766, -0.000124455546, -0.0155817149, -0.0112846345, 1.96985817  , 917.5756    , 29.7872944  , 828.730469  , 4.23        , 7           , 255         , 0           , 0
-0.11607109 , 0.148620576 , -9.784527   , 9.03315959E-05, 5.125173E-05, 0.0005580901, -0.015580873, -0.0112840347, 1.96986365  , 917.5756    , 29.7872944  , 828.73      , 4.24        , 7           , 255         , 0           , 0
-0.122906789, 0.143962592 , -9.790984   , 4.728907E-06, -0.000226475764, -0.000151769113, -0.0155808087, -0.011286323, 1.9698621   , 917.5756    , 29.7872944  , 828.7295    , 4.25        , 7           , 255         , 0           , 0
-0.125867248, 0.145524919 , -9.79274    , 7.4950105E-05, 0.000408704742, 0.000119196557, -0.0155800711, -0.01128222 , 1.9698633   , 917.5756    , 29.7872944  , 828.729     , 4.26        , 7           , 255         , 0           , 0
-0.116280079, 0.150108129 , -9.793628   , 0.00055679545, 0.000202154624, 0.00021395403, -0.0155745279, -0.0112801632, 1.96986532  , 917.5756    , 29.7872944  , 828.7285    , 4.27        , 7           , 255         , 0           , 0
-0.11944183 , 0.15510495  , -9.793498   , -0.000151932385, 0.0005500311, 0.0005271283, -0.0155761065, -0.0112745808, 1.96987057  , 917.5756    , 29.7872944  , 828.728     , 4.28        , 7           , 255         , 0           , 0
-0.118143119, 0.150091484 , -9.795351   , 7.612433E-05, 0.000238720211, 0.000317576167, -0.01557538 , -0.0112721445, 1.96987379  , 917.5756    , 29.7872944  , 828.727539  , 4.29        , 7           , 255         , 0           , 0
-0.116163038, 0.155860871 , -9.797927   , 0.000290565717, 0.000221108552, 0.000125838254, -0.0155724874, -0.011269914, 1.969875    , 917.5756    , 29.7872944  , 828.727051  , 4.3         , 7           , 255         , 0           , 0
-0.12051709 , 0.151141286 , -9.800565   , -0.000303461, 0.000148295192, -5.62704663E-05, -0.0155696115, -0.011280058, 1.9698745   , 917.5756    , 29.7872944  , 828.7494    , 4.31        , 7           , 255         , 0           , 0
-0.127995521, 0.15779151  , -9.80188751 , 2.7837872E-05, -5.733606E-05, -5.094165E-05, -0.0155693246, -0.01128064 , 1.96987391  , 917.5756    , 29.7872944  , 828.749     , 4.32        , 7           , 255         , 0           , 0
-0.110422805, 0.163805559 , -9.7904     , 0.000101084588, 0.000331526622, 0.000204015683, -0.0155683374, -0.0112772919, 1.96987593  , 917.5847    , 29.78777    , 828.748657  , 4.33        , 7           , 255         , 0           , 0
-0.106287181, 0.1577071   , -9.7877655  , 0.000194604276, 0.0006292206, -0.000373829564, -0.015566349, -0.0112710567, 1.96987212  , 917.5847    , 29.78777    , 828.7483    , 4.34        , 7           , 255         , 0           , 0
-0.106173038, 0.15498963  , -9.794703   , 0.000175701047, 0.000218672212, 0.000197403 , -0.0155646112, -0.011268842, 1.96987414  , 917.5847    , 29.78777    , 828.7479    , 4.35        , 7           , 255         , 0           , 0
-0.116496131, 0.15266344  , -9.797877   , 0.000249837758, -4.14298847E-06, 0.000210614307, -0.0155621385, -0.0112688476, 1.96987629  , 917.5847    , 29.78777    , 828.747559  , 4.36        , 7           , 255         , 0           , 0
-0.117203735, 0.161303833 , -9.796892   , -9.132887E-05, -1.67388935E-05, 0.000205124277, -0.0155630745, -0.0112689836, 1.96987832  , 917.5847    , 29.78777    , 828.7472    , 4.37        , 7           , 255         , 0           , 0
-0.115443408, 0.157280788 , -9.792295   , -7.249456E-05, 0.000252212631, 0.000513335632, -0.0155638577, -0.0112663815, 1.96988344  , 917.5847    , 29.78777    , 828.7468    , 4.38        , 7           , 255         , 0           , 0
-0.115964368, 0.149269968 , -9.801416   , -0.000308100862, 0.000184631208, 0.000442685559, -0.015566987, -0.0112644667, 1.96988785  , 917.5847    , 29.78777    , 828.74646   , 4.39        , 7           , 255         , 0           , 0
-0.118856326, 0.156769738 , -9.789446   , 4.53283428E-05, 0.000118815107, 0.0008726527, -0.0155666322, -0.0112631414, 1.96989655  , 917.5847    , 29.78777    , 828.7461    , 4.4         , 7           , 255         , 0           , 0
-0.115314983, 0.158548415 , -9.785233   , -0.000149493921, 0.000183017692, 0.0004840861, -0.0155733172, -0.0112681827, 1.96990144  , 917.5847    , 29.78777    , 828.7529    , 4.41        , 7           , 255         , 0           , 0
-0.11495471 , 0.149977013 , -9.783839   , -0.0003744003, -0.000239086221, 0.000859364052, -0.015577157, -0.0112704365, 1.96991014  , 917.5847    , 29.78777    , 828.7526    , 4.42        , 7           , 255         , 0           , 0
-0.110478222, 0.1459493   , -9.793353   , -0.000336267025, -0.000171301188, -0.00101334 , -0.0155804036, -0.0112723047, 1.9699      , 917.653931  , 29.7879734  , 828.7523    , 4.43        , 7           , 255         , 0           , 0
-0.116039515, 0.145352632 , -9.794882   , 9.286089E-05, -0.000157183036, -0.0003520854, -0.015579436, -0.0112739317, 1.96989655  , 917.653931  , 29.7879734  , 828.752     , 4.44        , 7           , 255         , 0           , 0
-0.111525334, 0.150766045 , -9.795032   , 8.02459545E-05, 3.61360144E-05, 0.000746061269, -0.0155787179, -0.0112734549, 1.969904    , 917.653931  , 29.7879734  , 828.7517    , 4.45        , 7           , 255         , 0           , 0
-0.122945011, 0.155446216 , -9.789419   , -5.9030077E-05, 0.000100325793, 0.0007152291, -0.0155793894, -0.01127234 , 1.9699111   , 917.653931  , 29.7879734  , 828.7514    , 4.46        , 7           , 255         , 0           , 0
-0.112756446, 0.151533008 , -9.789119   , 0.000298356055, 0.000255886582, 0.00042801915, -0.0155764529, -0.0112697138, 1.96991539  , 917.653931  , 29.7879734  , 828.7511    , 4.47        , 7           , 255         , 0           , 0
-0.106348537, 0.157265931 , -9.790108   , -0.0001023091, -8.16182E-05, 0.000746169651, -0.0155775612, -0.011270415, 1.9699229   , 917.653931  , 29.7879734  , 828.7508    , 4.48        , 7           , 255         , 0           , 0
-0.107117258, 0.1524054   , -9.786102   , -0.000270279619, 0.000180047937, 8.543038E-05, -0.01558027 , -0.0112686018, 1.96992373  , 917.653931  , 29.7879734  , 828.7505    , 4.49        , 7           , 255         , 0           , 0
-0.115857325, 0.1505214   , -9.795486   , -0.000235471874, 0.000397856929, 0.000196240071, -0.0155826481, -0.0112645915, 1.96992564  , 917.653931  , 29.7879734  , 828.7502    , 4.5         , 7           , 255         , 0           , 0
-0.116700865, 0.151121289 , -9.79825    , -0.000236201624, -0.000237178756, 0.0004697955, -0.0155836111, -0.0112725329, 1.96993041  , 917.653931  , 29.7879734  , 828.658447  , 4.51        , 7           , 255         , 0           , 0
-0.11779213 , 0.157417014 , -9.787439   , 0.0004230308, 4.94422857E-05, -1.26450759E-05, -0.0155793782, -0.0112720411, 1.96993029  , 917.653931  , 29.7879734  , 828.6576    , 4.52        , 7           , 255         , 0           , 0
-0.117020033, 0.1574251   , -9.790916   , 0.0003121568, -0.000204576179, -2.38493376E-05, -0.0155762555, -0.0112740872, 1.96993017  , 917.5974    , 29.7853947  , 828.656738  , 4.53        , 7           , 255         , 0           , 0
-0.115795292, 0.166049361 , -9.790251   , 0.00071520207, 0.000460713753, 0.0006760106, -0.0155691784, -0.0112693775, 1.96993685  , 917.5974    , 29.7853947  , 828.6559    , 4.54        , 7           , 255         , 0           , 0
-0.115254268, 0.166417211 , -9.796923   , 3.768585E-05, 0.000268194 , 0.000209304722, -0.0155688226, -0.0112666609, 1.969939    , 917.5974    , 29.7853947  , 828.655     , 4.55        , 7           , 255         , 0           , 0
-0.126573488, 0.162135184 , -9.789824   , -0.000172119791, -0.0002183835, 3.64034058E-05, -0.0155705493, -0.0112688392, 1.96993947  , 917.5974    , 29.7853947  , 828.6542    , 4.56        , 7           , 255         , 0           , 0
-0.116440177, 0.147649154 , -9.791142   , -0.000123217353, 8.81108E-05 , 0.000400827848, -0.0155718271, -0.0112678949, 1.96994352  , 917.5974    , 29.7853947  , 828.6533    , 4.57        , 7           , 255         , 0           , 0
-0.110403441, 0.149051964 , -9.792641   , -0.000105003885, -4.82754549E-05, -0.0005602523, -0.0155728143, -0.0112684639, 1.96993792  , 917.5974    , 29.7853947  , 828.652466  , 4.58        , 7           , 255         , 0           , 0
-0.110329255, 0.14849475  , -9.79281    , 0.00064146216, 0.0004098079, -0.000173053224, -0.01556638 , -0.011264394, 1.96993613  , 917.5974    , 29.7853947  , 828.6516    , 4.59        , 7           , 255         , 0           , 0
-0.112180136, 0.152943015 , -9.796363   , 0.000299742271, -6.7388406E-05, 0.000205823584, -0.0155634042, -0.0112650339, 1.96993828  , 917.5974    , 29.7853947  , 828.650757  , 4.6         , 7           , 255         , 0           , 0
-0.117839381, 0.160194129 , -9.79103851 , 0.000195101427, 0.0002872866, -0.000452570443, -0.0155666964, -0.0112707922, 1.96993375  , 917.5974    , 29.7853947  , 828.6535    , 4.61        , 7           , 255         , 0           , 0
-0.116933957, 0.15072611  , -9.787326   , -6.90317247E-05, 0.000326342531, 6.541252E-05, -0.015567393, -0.0112675177, 1.96993434  , 917.5974    , 29.7853947  , 828.6527    , 4.62        , 7           , 255         , 0           , 0
-0.1142969  , 0.154611379 , -9.795166   , -0.000217330729, -0.000401080237, -0.000451487547, -0.0155695165, -0.0112716  , 1.96992993  , 917.5356    , 29.78648    , 828.6519    , 4.63        , 7           , 255         , 0           , 0
-0.116681196, 0.1512876   , -9.797786   , -0.000389561348, -0.000182743534, -0.0002444126, -0.0155733852, -0.0112734651, 1.96992743  , 917.5356    , 29.78648    , 828.6511    , 4.64        , 7           , 255         , 0           , 0
-0.111057445, 0.155910537 , -9.792849   , -0.0005569731, -7.26009E-05, -1.16622687E-05, -0.0155789526, -0.0112741916, 1.96992731  , 917.5356    , 29.78648    , 828.6503    , 4.65        , 7           , 255         , 0           , 0
-0.103916779, 0.151436657 , -9.792429   , -0.000178539165, -0.0002778282, -0.000176791626, -0.0155807175, -0.0112769986, 1.96992564  , 917.5356    , 29.78648    , 828.649536  , 4.66        , 7           , 255         , 0           , 0
-0.121993124, 0.145205855 , -9.78961    , 0.000192542328, 0.00014324463, -9.839951E-05, -0.0155787822, -0.011275582, 1.96992469  , 917.5356    , 29.78648    , 828.648743  , 4.67        , 7           , 255         , 0           , 0
-0.115965739, 0.152172282 , -9.79394    , 0.000191223051, 0.000265166746, -0.000364745152, -0.01557683 , -0.0112729864, 1.969921    , 917.5356    , 29.78648    , 828.647949  , 4.68        , 7           , 255         , 0           , 0
-0.113626346, 0.156524584 , -9.794271   , -0.0005481367, -0.000187833211, 0.000443825847, -0.0155823613, -0.0112747941, 1.9699254   , 917.5356    , 29.78648    , 828.647156  , 4.69        , 7           , 255         , 0           , 0
-0.113620318, 0.14929156  , -9.793078   , 0.000389359542, -4.462211E-05, 0.000607456546, -0.0155785354, -0.011275148, 1.96993136  , 917.5356    , 29.78648    , 828.646362  , 4.7         , 7           , 255         , 0           , 0
-0.119724274, 0.14556     , -9.789095   , 1.34948641E-05, 0.000104461564, 0.000381364254, -0.0155787272, -0.0112804491, 1.9699353   , 917.5356    , 29.78648    , 828.737549  , 4.71        , 7           , 255         , 0           , 0
-0.116838172, 0.14598313  , -9.794527   , -0.000172851142, 0.0004187174, 0.000131184992, -0.0155804669, -0.0112762442, 1.96993661  , 917.5356    , 29.78648    , 828.7373    , 4.72        , 7           , 255         , 0           , 0
-0.113291919, 0.146085322 , -9.788609   , 4.367088E-06, 0.000109553454, 0.000254891 , -0.0155804511, -0.0112751052, 1.96993923  , 917.612549  , 29.7868881  , 828.737061  , 4.73        , 7           , 255         , 0           , 0
-0.121160544, 0.15938434  , -9.796253   , 0.000171139312, -0.00021714007, -4.42009332E-05, -0.0155787328, -0.0112772826, 1.96993876  , 917.612549  , 29.7868881  , 828.7368    , 4.74        , 7           , 255         , 0           , 0
-0.11083813 , 0.154000163 , -9.794692   , 9.332207E-05, 8.551136E-05, 0.0005991006, -0.0155778676, -0.0112763345, 1.96994472  , 917.612549  , 29.7868881  , 828.7366    , 4.75        , 7           , 255         , 0           , 0
-0.110350512, 0.139819935 , -9.795392   , 6.56000338E-07, 0.000483948854, -0.000209767953, -0.0155778369, -0.011271527, 1.96994257  , 917.612549  , 29.7868881  , 828.7363    , 4.76        , 7           , 255         , 0           , 0
-0.113079391, 0.153449908 , -9.799129   , 0.0002732504, 0.000607489259, 0.0005729624, -0.0155751687, -0.0112653645, 1.96994829  , 917.612549  , 29.7868881  , 828.7361    , 4.77        , 7           , 255         , 0           , 0
-0.120847382, 0.153162569 , -9.798479   , 0.000535568339, 9.411585E-05, 0.000168211991, -0.0155698322, -0.0112643968, 1.96995     , 917.612549  , 29.7868881  , 828.7359    , 4.78        , 7           , 255         , 0           , 0
-0.112096384, 0.15319252  , -9.800042   , 0.0005877527, 0.00046452356, -0.0002525925, -0.0155639248, -0.0112597905, 1.96994734  , 917.612549  , 29.7868881  , 828.7357    , 4.79        , 7           , 255         , 0           , 0
-0.1238261  , 0.145102471 , -9.794233   , -3.600039E-05, 0.00021785649, 0.000337003323, -0.0155643234, -0.0112575591, 1.9699508   , 917.612549  , 29.7868881  , 828.735535  , 4.8         , 7           , 255         , 0           , 0
-0.123628639, 0.147656783 , -9.789099   , -7.852737E-06, 0.000353849377, 0.000570728444, -0.0155604994, -0.0112614445, 1.96995652  , 917.612549  , 29.7868881  , 828.704956  , 4.81        , 7           , 255         , 0           , 0
-0.110531606, 0.144776642 , -9.792593   , -0.0006056041, -0.000218747649, -0.000247133081, -0.0155665306, -0.0112636685, 1.96995413  , 917.612549  , 29.7868881  , 828.7046    , 4.82        , 7           , 255         , 0           , 0
-0.120542392, 0.160102874 , -9.801735   , -0.000746595, 0.000102922786, -0.000673619, -0.01557392 , -0.0112627447, 1.96994746  , 917.5829    , 29.7889233  , 828.7042    , 4.83        , 7           , 255         , 0           , 0
-0.118196465, 0.160345823 , -9.792598   , 0.000180197356, 0.000108254841, -0.0003584174, -0.0155720776, -0.0112617174, 1.96994388  , 917.5829    , 29.7889233  , 828.703857  , 4.84        , 7           , 255         , 0           , 0
-0.114169911, 0.159928218 , -9.795507   , 5.73400757E-05, -0.0002681769, -2.2450331E-05, -0.0155715048, -0.0112644006, 1.96994376  , 917.5829    , 29.7889233  , 828.7035    , 4.85        , 7           , 255         , 0           , 0
-0.111274123, 0.1603616   , -9.79702    , 0.0001486381, -0.000150323845, 0.000115155461, -0.0155700278, -0.011265886, 1.96994483  , 917.5829    , 29.7889233  , 828.7031    , 4.86        , 7           , 255         , 0           , 0
-0.114100419, 0.152871862 , -9.7987     , 2.54083425E-05, 0.000200141687, 0.000220973641, -0.0155697949, -0.01126385 , 1.96994686  , 917.5829    , 29.7889233  , 828.702759  , 4.87        , 7           , 255         , 0           , 0
-0.105773233, 0.144353777 , -9.792719   , -0.000420638971, 0.000169430044, 0.000302252185, -0.015574039, -0.0112621095, 1.96995     , 917.5829    , 29.7889233  , 828.7024    , 4.88        , 7           , 255         , 0           , 0
-0.110867932, 0.150667876 , -9.792284   , -0.0003049213, 0.000181258074, 0.000320872816, -0.0155771244, -0.0112602478, 1.96995318  , 917.5829    , 29.7889233  , 828.702     , 4.89        , 7           , 255         , 0           , 0
-0.111205086, 0.142754465 , -9.794696   , -0.0003894949, 0.000467027654, 0.000139658616, -0.0155810332, -0.0112555558, 1.96995449  , 917.5829    , 29.7889233  , 828.70166   , 4.9         , 7           , 255         , 0           , 0
-0.12554279 , 0.149080247 , -9.803751   , -0.0003273095, 0.000477012945, 0.00105487369, -0.0155842258, -0.011255498, 1.9699651   , 917.5829    , 29.7889233  , 828.717957  , 4.91        , 7           , 255         , 0           , 0
-0.122119188, 0.151533052 , -9.801935   , -0.000246250449, 0.0005824056, 0.0006191889, -0.01558676 , -0.0112495776, 1.96997142  , 917.5829    , 29.7889233  , 828.7177    , 4.92        , 7           , 255         , 0           , 0
-0.117585935, 0.150055215 , -9.795538   , -0.00044784497, 0.000134482165, 0.000918879756, -0.0155913392, -0.0112480894, 1.9699806   , 917.6052    , 29.7851925  , 828.717468  , 4.93        , 7           , 255         , 0           , 0
-0.1131729  , 0.151613429 , -9.792147   , 0.000275601284, 0.0005388942, 0.000544795534, -0.0155886458, -0.011242616, 1.969986    , 917.6052    , 29.7851925  , 828.7172    , 4.94        , 7           , 255         , 0           , 0
-0.1127059  , 0.154621914 , -9.790691   , -0.000447594677, 0.000134863192, 0.000316308055, -0.0155931562, -0.0112412171, 1.96998906  , 917.6052    , 29.7851925  , 828.717     , 4.95        , 7           , 255         , 0           , 0
-0.116210029, 0.150616154 , -9.787755   , -0.000198266091, 6.500166E-06, -3.600707E-05, -0.0155951334, -0.0112411594, 1.9699887   , 917.6052    , 29.7851925  , 828.716736  , 4.96        , 7           , 255         , 0           , 0
-0.110350847, 0.1554836   , -9.792814   , -0.000366497348, 0.0002692854, 0.0006044348, -0.0155988671, -0.011238372, 1.96999466  , 917.6052    , 29.7851925  , 828.7165    , 4.97        , 7           , 255         , 0           , 0
-0.117840782, 0.148542762 , -9.801152   , -6.930146E-05, 0.000102779944, 0.0001314054, -0.015599574, -0.0112373242, 1.969996    , 917.6052    , 29.7851925  , 828.716248  , 4.98        , 7           , 255         , 0           , 0
-0.113985337, 0.150193289 , -9.797721   , 0.0004052515, -1.55402813E-05, 0.000146600243, -0.0155955357, -0.0112374555, 1.96999741  , 917.6052    , 29.7851925  , 828.716     , 4.99        , 7           , 255         , 0           , 0
-0.117696524, 0.161632583 , -9.785629   , 0.0003238537, 0.00058839703, -0.000106394305, -0.0155922845, -0.0112315882, 1.96999633  , 917.6052    , 29.7851925  , 828.715759  , 5           , 7           , 0           , -1          , 500
-0.1164754  , 0.157046631 , -9.796251   , 0.0003725355, 0.000279931235, -0.000195116372, -0.0155880312, -0.01123731 , 1.96999431  , 917.6052    , 29.7851925  , 828.698547  , 5.01        , 7           , 1           , 0           , 0
-0.11897669 , 0.152838156 , -9.793708   , 0.000471983163, -0.000195048633, -0.00021024009, -0.0155832879, -0.011239294, 1.96999228  , 917.6052    , 29.7851925  , 828.6982    , 5.02        , 7           , 2           , 0           , 0
-0.110180534, 0.15397355  , -9.79937649 , 0.000159172982, 9.91299748E-06, 0.000600722036, -0.0155817661, -0.0112391012, 1.96999824  , 917.5898    , 29.787838   , 828.6978    , 5.03        , 7           , 3           , 0           , 0
-0.1203755  , 0.1586195   , -9.794621   , -0.0002205382, -0.000121123972, 0.000420089928, -0.0155840181, -0.0112402476, 1.97000241  , 917.5898    , 29.787838   , 828.697449  , 5.04        , 7           , 4           , 0           , 0
-0.124261044, 0.150849849 , -9.796245   , -6.107846E-05, 0.0002045026, -0.00031650078, -0.0155845936, -0.0112382509, 1.96999931  , 917.5898    , 29.787838   , 828.6971    , 5.05        , 7           , 5           , 0           , 0
-0.119238652, 0.157503143 , -9.793605   , 0.000267969561, -0.00015936105, -7.120247E-05, -0.0155819058, -0.0112398556, 1.9699986   , 917.5898    , 29.787838   , 828.6967    , 5.06        , 7           , 6           , 0           , 0
-0.110070631, 0.153271586 , -9.792633   , 0.0004454222, -8.980872E-05, -0.000242920883, -0.0155774234, -0.0112407915, 1.96999609  , 917.5898    , 29.787838   , 828.69635   , 5.07        , 7           , 7           , 0           , 0
-0.113571391, 0.157324284 , -9.794456   , -0.0004945438, 0.000204948126, -0.00012863423, -0.0155823538, -0.0112387622, 1.9699949   , 917.5898    , 29.787838   , 828.696     , 5.08        , 7           , 8           , 5           , 5
-0.124289408, 0.15293926  , -9.799845   , 0.000106752967, 0.000163382618, 0.000335043122, -0.0155813219, -0.0112370765, 1.96999812  , 917.5898    , 29.787838   , 828.6956    , 5.09        , 7           , 9           , 5           , 0.1
-0.106511056, 0.1571662   , -9.795718   , 3.19168321E-05, 0.000109925983, 0.0002191367, -0.0155810285, -0.01123594 , 1.97000027  , 917.5898    , 29.787838   , 828.695251  , 5.1         , 7           , 10          , 0.1         , 0.1
-0.115241215, 0.151801676 , -9.794166   , 0.000113084621, 8.515385E-05, 0.000513578532, -0.0155829759, -0.0112426607, 1.97000551  , 917.5898    , 29.787838   , 828.703     , 5.11        , 7           , 11          , 0.00651932973, 0.00651933439
-0.115801848, 0.147716016 , -9.796086   , 0.000271036464, -0.000262620859, 0.000205110278, -0.0155802872, -0.0112452563, 1.97000766  , 917.5898    , 29.787838   , 828.7027    , 5.12        , 7           , 12          , 0.03468521  , 0
-0.115411021, 0.151169375 , -9.802826   , -0.0004961342, 0.000111039612, -0.0003026274, -0.0155852148, -0.0112441927, 1.97000468  , 917.600464  , 29.7844448  , 828.7024    , 5.13        , 7           , 13          , 0           , 0
