Acc X       , Acc Y       , Acc Z       , Gyro X      , Gyro Y      , Gyro Z      , Euler X     , Euler Y     , Euler Z     , Pres X      , Pres Y      , Pres Z      , Time        , Status      , LowRate X   , LowRate Y   , LowRate Z    
-0.121690847, -9.78615    , -0.151438355, 0           , 0           , 0           , 1.55532277  , -0.0124328779, 0           , 920.2939    , 30.2451611  , 804.3828    , 0           , 2           , 0           , 5.03523159  , 0
-0.134302974, -9.799255   , -0.168438315, 0.00109518634, 3.43709253E-05, 0.0005464663, 1.5553335   , -0.0124383466, 4.28907242E-07, 920.2939    , 30.2451611  , 804.3828    , 0.01        , 3           , 1           , 0           , 0
-0.140253872, -9.791524   , -0.153171137, 0.00287273037, 6.972754E-05, 0.00176783244, 1.55536222  , -0.012456011, 1.39942085E-06, 920.2939    , 30.2451611  , 804.3828    , 0.02        , 3           , 2           , 0           , 0
-0.131225675, -9.789571   , -0.132472187, 0.00096808956, -6.201613E-05, 0.00252875034, 1.555372    , -0.0124813048, 1.16936667E-06, 920.271667  , 29.8060188  , 804.3828    , 0.03        , 3           , 3           , 0           , 0
-0.131505251, -9.783197   , -0.131677881, -0.00169441744, -8.17209948E-05, 0.00269094855, 1.55535507  , -0.0125082238, 7.674699E-07, 920.271667  , 29.8060188  , 804.3828    , 0.04        , 3           , 4           , 0           , 0
-0.134136   , -9.784364   , -0.143398166, -0.00363497552, 0.00010181556, 0.002542149 , 1.55531871  , -0.0125336256, 2.17853471E-06, 920.271667  , 29.8060188  , 804.3828    , 0.05        , 3           , 5           , 0           , 0
-0.118879721, -9.797392   , -0.154946357, -0.00416315533, -0.000244043709, 0.00282119866, 1.55527711  , -0.01256187 , 1.75568189E-07, 920.271667  , 29.8060188  , 804.3828    , 0.06        , 3           , 6           , 0           , 0
-0.11684823 , -9.805014   , -0.154075354, -0.0031748116, -0.00031417358, 0.0035473574, 1.55524528  , -0.0125973867, -2.41464568E-06, 920.271667  , 29.8060188  , 804.3828    , 0.07        , 3           , 7           , 0           , 0
-0.111546978, -9.80112    , -0.129312426, -0.00410190364, -0.000172720989, 0.00408020476, 1.55520439  , -0.01263821 , -3.50671E-06, 920.271667  , 29.8060188  , 804.3828    , 0.08        , 3           , 8           , 5           , 5
-0.108392373, -9.78764    , -0.12159995 , -0.00727529 , -0.000185839832, 0.00470383046, 1.55513155  , -0.0126852728, -4.629977E-06, 920.271667  , 29.8060188  , 804.3828    , 0.09        , 3           , 9           , 5           , 0.1
-0.118125461, -9.792583   , -0.134703815, -0.0105114421, -0.000203162956, 0.0039472864, 1.55502653  , -0.01272477 , -6.041047E-06, 920.271667  , 29.8060188  , 804.3828    , 0.1         , 3           , 10          , 0.1         , 0.1
-0.115203165, -9.794244   , -0.148427188, -0.0106297052, 3.934902E-05, 0.00202921685, 1.554956    , -0.012752302, -5.78118943E-06, 920.271667  , 29.8060188  , 804.5838    , 0.11        , 3           , 11          , 0.0109544508, 0.0109544508
-0.106890023, -9.794577   , -0.154245928, -0.009034886, -1.08790118E-06, 0.00178733608, 1.5548656   , -0.0127701731, -5.50782534E-06, 920.271667  , 29.8060188  , 804.5838    , 0.12        , 3           , 12          , 0.174642488 , 0
-0.110002711, -9.792656   , -0.14983049 , -0.006924321, -0.000309459283, 0.00343730184, 1.55479634  , -0.012804592, -8.053341E-06, 920.247559  , 29.8433323  , 804.5838    , 0.13        , 3           , 13          , 0           , 0
-0.116848707, -9.79551    , -0.130030721, -0.008129366, -0.0005206227, 0.00428112643, 1.554715    , -0.0128474785, -1.25738925E-05, 920.247559  , 29.8433323  , 804.5838    , 0.14        , 3           , 14          , 0.000374586351, 0.000880492968
-0.120746091, -9.792847   , -0.134642035, -0.0116763329, -0.000191300467, 0.00352109922, 1.55459845  , -0.012882716, -1.3918374E-05, 920.247559  , 29.8433323  , 804.5838    , 0.15        , 3           , 15          , 0           , 0.000232245817
-0.106893443, -9.796839   , -0.148490578, -0.0137128988, 0.000391378417, 0.00310393423, 1.55446124  , -0.0129136844, -9.501215E-06, 920.247559  , 29.8433323  , 804.5838    , 0.16        , 3           , 16          , 0           , 1.401298E-45
-0.113534011, -9.796376   , -0.150312454, -0.0138938809, -0.000343575957, 0.00266553345, 1.55432224  , -0.0129403956, -1.24989292E-05, 920.247559  , 29.8433323  , 804.5838    , 0.17        , 3           , 20          , 0           , 0
-0.122690022, -9.790448   , -0.1536589  , -0.0142948069, -0.000198344933, 0.004385966 , 1.55417931  , -0.0129842814, -1.37567949E-05, 920.247559  , 29.8433323  , 804.583862  , 0.18        , 3           , 21          , 0           , 0
-0.126714945, -9.798674   , -0.159110025, -0.0145609481, -0.000635489938, 0.00447199633, 1.55403376  , -0.0130291013, -1.93652377E-05, 920.247559  , 29.8433323  , 804.5839    , 0.19        , 3           , 22          , 0           , 0
-0.120029345, -9.789294   , -0.152399689, -0.0150538636, -0.0001156035, 0.00330645475, 1.55388331  , -0.01306218 , -1.99650676E-05, 920.247559  , 29.8433323  , 804.584     , 0.2         , 3           , 40          , 0           , 0
-0.127575815, -9.791179   , -0.152644783, -0.01594319 , 6.217242E-05, 0.002512924 , 1.55375993  , -0.0130512714, -1.93852666E-05, 920.247559  , 29.8433323  , 804.6926    , 0.21        , 3           , 41          , 0           , 0
-0.128294975, -9.792079   , -0.157996133, -0.0177141353, -0.000124892045, 0.002486619 , 1.55358267  , -0.0130761536, -2.02081665E-05, 920.247559  , 29.8433323  , 804.6927    , 0.22        , 3           , 42          , 0           , 0
-0.13144125 , -9.788993   , -0.159449726, -0.0181622282, 0.000181376643, 0.00346236071, 1.553401    , -0.0131107392, -1.77953771E-05, 920.302551  , 29.8689766  , 804.692749  , 0.23        , 3           , 255         , 0           , 0
-0.137547076, -9.79521751 , -0.17171061 , -0.01872379 , -8.789159E-05, 0.0023876247, 1.55321383  , -0.0131346267, -1.82564272E-05, 920.302551  , 29.8689766  , 804.6928    , 0.24        , 3           , 255         , 0           , 0
-0.131623521, -9.787555   , -0.180331051, -0.0175768882, 2.72431644E-05, 0.00152036513, 1.553038    , -0.0131498212, -1.77148213E-05, 920.302551  , 29.8689766  , 804.6929    , 0.25        , 3           , 255         , 0           , 0
-0.12056496 , -9.787025   , -0.188254535, -0.0147537338, -0.000238748908, 0.00377624948, 1.55289054  , -0.0131876208, -1.94290769E-05, 920.302551  , 29.8689766  , 804.692932  , 0.26        , 3           , 255         , 0           , 0
-0.123753764, -9.786516   , -0.184808046, -0.0124278348, -0.000471917883, 0.003736612 , 1.5527662   , -0.0132250637, -2.34765048E-05, 920.302551  , 29.8689766  , 804.693     , 0.27        , 3           , 255         , 0           , 0
-0.127642944, -9.797754   , -0.180975348, -0.009678829, -7.988507E-05, 0.00325663644, 1.55266941  , -0.0132576413, -2.36865435E-05, 920.302551  , 29.8689766  , 804.693054  , 0.28        , 3           , 255         , 0           , 0
-0.127093762, -9.794731   , -0.168818653, -0.009033777, -0.000187073776, 0.004061613 , 1.552579    , -0.0132982852, -2.48186843E-05, 920.302551  , 29.8689766  , 804.6931    , 0.29        , 3           , 255         , 0           , 0
-0.13687332 , -9.789145   , -0.168801114, -0.01028267 , -0.000349105336, 0.00358677655, 1.55247629  , -0.0133342091, -2.76548235E-05, 920.302551  , 29.8689766  , 804.6932    , 0.3         , 3           , 255         , 0           , 0
-0.140451953, -9.784533   , -0.1719599  , -0.011191193, -0.000173312554, 0.00263223448, 1.552372    , -0.0133626675, -2.900584E-05, 920.302551  , 29.8689766  , 804.5627    , 0.31        , 3           , 255         , 0           , 0
-0.1363771  , -9.79103851 , -0.1789514  , -0.0127292462, -0.000526790158, 0.00224716146, 1.55224478  , -0.0133852335, -3.385707E-05, 920.302551  , 29.8689766  , 804.562744  , 0.32        , 3           , 255         , 0           , 0
-0.130051851, -9.793755   , -0.1922953  , -0.0134754861, -0.000361185055, 0.0027839283, 1.55211     , -0.0134131331, -3.694936E-05, 920.278     , 29.8847847  , 804.5628    , 0.33        , 3           , 255         , 0           , 0
-0.135367841, -9.794017   , -0.1847573  , -0.0132937143, -0.00027100998, 0.003167946 , 1.551977    , -0.0134448605, -3.90650566E-05, 920.278     , 29.8847847  , 804.562866  , 0.34        , 3           , 255         , 0           , 0
-0.140143886, -9.796846   , -0.18482551 , -0.0121373637, -0.000116574287, 0.00326634385, 1.55185568  , -0.0134775387, -3.96136747E-05, 920.278     , 29.8847847  , 804.5629    , 0.35        , 3           , 255         , 0           , 0
-0.14028199 , -9.789001   , -0.194229335, -0.0100413729, -0.0004654525, 0.00214059954, 1.55175531  , -0.0134990271, -4.38599782E-05, 920.278     , 29.8847847  , 804.563     , 0.36        , 3           , 255         , 0           , 0
-0.133419558, -9.80171    , -0.202541351, -0.00639815256, 0.000109884713, 0.00119775336, 1.55169129  , -0.0135109788, -4.25332E-05, 920.278     , 29.8847847  , 804.563049  , 0.37        , 3           , 255         , 0           , 0
-0.143058628, -9.805219   , -0.199904531, -0.0017735369, 0.000359657046, 0.0002646962, 1.55167365  , -0.0135135576, -3.88867375E-05, 920.278     , 29.8847847  , 804.5631    , 0.38        , 3           , 255         , 0           , 0
-0.138492554, -9.795622   , -0.200880915, 0.00230270578, -0.0003214571, -0.0003692545, 1.55169654  , -0.0135099264, -4.21713448E-05, 920.278     , 29.8847847  , 804.5632    , 0.39        , 3           , 255         , 0           , 0
-0.126622736, -9.793149   , -0.196093112, 0.006011129 , -0.00010471663, -0.000440511765, 1.55175674  , -0.0135055427, -4.330253E-05, 920.278     , 29.8847847  , 804.563232  , 0.4         , 3           , 255         , 0           , 0
-0.142064512, -9.798831   , -0.1876305  , 0.007739214 , -0.000208497455, -1.5431724E-06, 1.5518173   , -0.0135193057, -4.51583655E-05, 920.278     , 29.8847847  , 804.5539    , 0.41        , 3           , 255         , 0           , 0
-0.12747547 , -9.80156    , -0.174034446, 0.00861256  , -0.000143308484, -0.000849802047, 1.55190337  , -0.0135108363, -4.6752466E-05, 920.278     , 29.8847847  , 804.553955  , 0.42        , 3           , 255         , 0           , 0
-0.122488119, -9.79987049 , -0.1713864  , 0.007898296 , -1.06137595E-05, -0.0004477817, 1.5519824   , -0.0135063613, -4.69434053E-05, 920.2945    , 29.89591    , 804.554     , 0.43        , 3           , 255         , 0           , 0
-0.13193725 , -9.792998   , -0.172834918, 0.007302983 , 0.00014039065, -0.00178039423, 1.55205548  , -0.0134885339, -4.587367E-05, 920.2945    , 29.89591    , 804.5541    , 0.44        , 3           , 255         , 0           , 0
-0.116797507, -9.788292   , -0.1682737  , 0.007802299 , -0.0002484367, -0.0006106574, 1.55213344  , -0.0134824766, -4.84713564E-05, 920.2945    , 29.89591    , 804.554138  , 0.45        , 3           , 255         , 0           , 0
-0.12736176 , -9.785251   , -0.177847177, 0.00879090652, -0.000399606739, -0.00190426176, 1.55222142  , -0.013463513, -5.282102E-05, 920.2945    , 29.89591    , 804.5542    , 0.46        , 3           , 255         , 0           , 0
-0.118445136, -9.783083   , -0.179723114, 0.009455485 , -0.0004739574, -0.00150099583, 1.552316    , -0.0134485951, -5.7838035E-05, 920.2945    , 29.89591    , 804.55426   , 0.47        , 3           , 255         , 0           , 0
-0.127189755, -9.79055    , -0.1768552  , 0.0112322029, -3.17938975E-05, -0.00146044185, 1.55242825  , -0.0134339966, -5.84248119E-05, 920.2945    , 29.89591    , 804.5543    , 0.48        , 3           , 255         , 0           , 0
-0.12072742 , -9.785204   , -0.170933083, 0.01228224  , -0.000228950055, -0.00261887931, 1.55255115  , -0.0134078534, -6.11934E-05, 920.2945    , 29.89591    , 804.5544    , 0.49        , 3           , 255         , 0           , 0
-0.107036509, -9.775148   , -0.165037885, 0.0119720651, -0.000503668154, -0.00132577214, 1.552671    , -0.0133946911, -6.64712E-05, 920.2945    , 29.89591    , 804.554443  , 0.5         , 3           , 255         , 0           , 0
-0.124616578, -9.797183   , -0.1596882  , 0.0110320793, -0.000420772383, -0.00127139862, 1.55281663  , -0.01334959 , -7.137874E-05, 920.2945    , 29.89591    , 804.5183    , 0.51        , 3           , 255         , 0           , 0
-0.113834664, -9.797194   , -0.1593065  , 0.008324037 , -0.000207527424, -0.00189072918, 1.55289984  , -0.0133307232, -7.379245E-05, 920.2945    , 29.89591    , 804.5184    , 0.52        , 3           , 255         , 0           , 0
-0.107580282, -9.787997   , -0.154119059, 0.00569165731, -0.000349916925, -0.000277570041, 1.55295694  , -0.0133280121, -7.73420252E-05, 920.3395    , 29.90568    , 804.518433  , 0.53        , 3           , 255         , 0           , 0
-0.1177495  , -9.787838   , -0.154762134, 0.00306879729, -0.000173721637, -0.0006551749, 1.55298758  , -0.01332149 , -7.91955244E-05, 920.3395    , 29.90568    , 804.5185    , 0.54        , 3           , 255         , 0           , 0
-0.116689779, -9.783247   , -0.153882   , 0.0003423419, 0.000214063562, -0.001556016, 1.55299091  , -0.013305895, -7.733223E-05, 920.3395    , 29.90568    , 804.518555  , 0.55        , 3           , 255         , 0           , 0
-0.111304186, -9.788574   , -0.164311767, -0.00100245047, 1.690787E-05, 0.000696902 , 1.5529809   , -0.0133128576, -7.703885E-05, 920.3395    , 29.90568    , 804.5186    , 0.56        , 3           , 255         , 0           , 0
-0.119090639, -9.790998   , -0.163981408, -0.00225427258, 0.000128556043, 0.00192108  , 1.55295825  , -0.013332041, -7.541078E-05, 920.3395    , 29.90568    , 804.5187    , 0.57        , 3           , 255         , 0           , 0
-0.116328165, -9.797453   , -0.160452768, -0.0031683147, 0.000298428116, 0.00180978747, 1.55292654  , -0.0133500826, -7.210339E-05, 920.3395    , 29.90568    , 804.518738  , 0.58        , 3           , 255         , 0           , 0
-0.124711812, -9.792404   , -0.152264327, -0.00521174632, 0.000428924337, 0.00277485116, 1.55287445  , -0.0133777522, -6.731829E-05, 920.3395    , 29.90568    , 804.5188    , 0.59        , 3           , 255         , 0           , 0
-0.129251733, -9.793577   , -0.1618059  , -0.00731629459, -7.768796E-05, 0.00288451882, 1.55280125  , -0.0134066073, -6.757678E-05, 920.3395    , 29.90568    , 804.5189    , 0.6         , 3           , 255         , 0           , 0
-0.1364592  , -9.795637   , -0.175356045, -0.00771372 , 0.000206593308, 0.00133275532, 1.55278146  , -0.0133757386, -6.603901E-05, 920.3395    , 29.90568    , 804.42395   , 0.61        , 3           , 255         , 0           , 0
-0.142255276, -9.799958   , -0.182281092, -0.006306602, 0.000497900066, 0.00124008278, 1.5527184   , -0.013388047, -6.083758E-05, 920.3395    , 29.90568    , 804.424     , 0.62        , 3           , 255         , 0           , 0
-0.1234649  , -9.800346   , -0.175602764, -0.004488795, -9.475555E-05, 0.00222843071, 1.55267346  , -0.0134103466, -6.138106E-05, 920.262756  , 29.9096813  , 804.4241    , 0.63        , 3           , 255         , 0           , 0
-0.130132109, -9.7922     , -0.171834439, -0.00431546941, 0.0001044767, 0.00324849342, 1.55263031  , -0.0134428041, -5.9746948E-05, 920.262756  , 29.9096813  , 804.424133  , 0.64        , 3           , 255         , 0           , 0
-0.1354184  , -9.785158   , -0.181115553, -0.00515211234, -8.584297E-05, 0.002783136 , 1.55257881  , -0.0134706432, -6.009858E-05, 920.262756  , 29.9096813  , 804.4242    , 0.65        , 3           , 255         , 0           , 0
-0.130474955, -9.78634    , -0.174162611, -0.00627530366, 1.44266523E-05, 0.0023798102, 1.552516    , -0.0134944357, -5.952019E-05, 920.262756  , 29.9096813  , 804.424255  , 0.66        , 3           , 255         , 0           , 0
-0.133914441, -9.796172   , -0.176162511, -0.008125884, -1.31411362E-05, 0.00224128575, 1.55243468  , -0.013516848, -5.924171E-05, 920.262756  , 29.9096813  , 804.4243    , 0.67        , 3           , 255         , 0           , 0
-0.131165564, -9.798083   , -0.184887737, -0.00709884427, -0.000114952738, 0.00153268164, 1.55236363  , -0.0135321924, -6.01088723E-05, 920.262756  , 29.9096813  , 804.4244    , 0.68        , 3           , 255         , 0           , 0
-0.1306606  , -9.793813   , -0.182892025, -0.00555352354, -5.392282E-05, 0.00241292524, 1.55230832  , -0.0135563249, -6.02025066E-05, 920.262756  , 29.9096813  , 804.424438  , 0.69        , 3           , 255         , 0           , 0
-0.137097985, -9.799071   , -0.1862313  , -0.006100285, -0.000468686048, 0.00369739835, 1.55224729  , -0.0135933813, -6.420479E-05, 920.262756  , 29.9096813  , 804.4245    , 0.7         , 3           , 255         , 0           , 0
-0.133977652, -9.798618   , -0.179604843, -0.006844216, -0.000802663853, 0.00247466075, 1.55217659  , -0.0136216683, -7.173991E-05, 920.262756  , 29.9096813  , 804.461243  , 0.71        , 3           , 255         , 0           , 0
-0.146718323, -9.802395   , -0.183501273, -0.008699345, -0.000455660338, 0.002006164 , 1.55208969  , -0.0136418119, -7.592057E-05, 920.262756  , 29.9096813  , 804.461365  , 0.72        , 3           , 255         , 0           , 0
-0.144022778, -9.787867   , -0.188383251, -0.009780116, -0.000217229477, 0.000752038555, 1.55199182  , -0.0136493742, -7.79524344E-05, 920.308838  , 29.9149055  , 804.4615    , 0.73        , 3           , 255         , 0           , 0
-0.141963512, -9.795387   , -0.1988278  , -0.006507924, 6.118242E-05, 0.0007152746, 1.55192685  , -0.0136565119, -7.720546E-05, 920.308838  , 29.9149055  , 804.4616    , 0.74        , 3           , 255         , 0           , 0
-0.1221627  , -9.786901   , -0.195441037, -0.003978369, -0.000229513971, 0.000389598979, 1.551887    , -0.01366045 , -7.942688E-05, 920.308838  , 29.9149055  , 804.461731  , 0.75        , 3           , 255         , 0           , 0
-0.1327926  , -9.784849   , -0.194128051, 0.000372240436, -6.938062E-05, -9.169395E-06, 1.55189073  , -0.0136603713, -8.012265E-05, 920.308838  , 29.9149055  , 804.461853  , 0.76        , 3           , 255         , 0           , 0
-0.141228631, -9.793573   , -0.186952785, 0.00360195478, 6.116909E-05, 0.000545442454, 1.55192685  , -0.0136658149, -7.9407786E-05, 920.308838  , 29.9149055  , 804.462     , 0.77        , 3           , 255         , 0           , 0
-0.140876383, -9.787046   , -0.1786717  , 0.00421662768, 0.000349513022, -0.0003778966, 1.55196893  , -0.0136619695, -7.598439E-05, 920.308838  , 29.9149055  , 804.4621    , 0.78        , 3           , 255         , 0           , 0
-0.126598   , -9.789301   , -0.170350835, 0.00415428542, -0.000227013021, -0.0005387339, 1.55201054  , -0.0136566274, -7.83557552E-05, 920.308838  , 29.9149055  , 804.4622    , 0.79        , 3           , 255         , 0           , 0
-0.120629743, -9.793721   , -0.178011656, 0.00276034162, -0.000514384243, -0.0005772449, 1.55203819  , -0.013650951, -8.360705E-05, 920.308838  , 29.9149055  , 804.462341  , 0.8         , 3           , 255         , 0           , 0
-0.122449473, -9.799187   , -0.178204238, 0.00224895054, -0.000547888, -0.000796300359, 1.55205953  , -0.0136472518, -8.921923E-05, 920.308838  , 29.9149055  , 804.4329    , 0.81        , 3           , 255         , 0           , 0
-0.123952486, -9.795362   , -0.17648311 , 0.002650868 , -1.16531155E-05, -0.00080744666, 1.55208611  , -0.01363918 , -8.9487934E-05, 920.308838  , 29.9149055  , 804.433044  , 0.82        , 3           , 255         , 0           , 0
-0.120463192, -9.78629    , -0.1845557  , 0.00279759918, 7.742079E-05, -0.000347264751, 1.552114    , -0.0136356931, -8.87777351E-05, 920.240234  , 29.9124641  , 804.433167  , 0.83        , 3           , 255         , 0           , 0
-0.128829077, -9.785014   , -0.1848851  , 0.00310587627, -0.000118959404, -0.000856636441, 1.552145    , -0.01362715 , -9.01278E-05, 920.240234  , 29.9124641  , 804.4333    , 0.84        , 3           , 255         , 0           , 0
-0.128985479, -9.784539   , -0.172861964, 0.00266507571, 7.971033E-05, -0.0007423899, 1.55217171  , -0.0136197135, -8.946929E-05, 920.240234  , 29.9124641  , 804.4334    , 0.85        , 3           , 255         , 0           , 0
-0.131263763, -9.794894   , -0.16388461 , 0.00195484  , 0.000344034575, -0.000345540524, 1.55219126  , -0.013616194, -8.60948E-05, 920.240234  , 29.9124641  , 804.433533  , 0.86        , 3           , 255         , 0           , 0
-0.122526839, -9.796247   , -0.1713788  , -0.00028977028, 7.910072E-05, -0.000542962633, 1.5521884   , -0.0136107523, -8.540553E-05, 920.240234  , 29.9124641  , 804.433655  , 0.87        , 3           , 255         , 0           , 0
-0.126075774, -9.80046749 , -0.171564445, -0.001852199, -6.53619645E-05, -0.00123820687, 1.55216992  , -0.0135983862, -8.628942E-05, 920.240234  , 29.9124641  , 804.4338    , 0.88        , 3           , 255         , 0           , 0
-0.130744085, -9.791016   , -0.178575277, -0.00181942689, 0.000193265791, -0.00122808421, 1.5521518   , -0.0135860713, -8.458633E-05, 920.240234  , 29.9124641  , 804.4339    , 0.89        , 3           , 255         , 0           , 0
-0.126944035, -9.792342   , -0.190572158, -0.000886040565, -0.000181703537, -0.0009389555, 1.552143    , -0.0135767171, -8.65776747E-05, 920.240234  , 29.9124641  , 804.434     , 0.9         , 3           , 255         , 0           , 0
-0.1262906  , -9.77594    , -0.1941073  , 0.001257655 , -0.000360317237, 0.0005968641, 1.55217123  , -0.0135611109, -9.02818647E-05, 920.240234  , 29.9124641  , 804.489746  , 0.91        , 3           , 255         , 0           , 0
-0.127743572, -9.788455   , -0.17495425 , 0.00299522886, -0.000339954, 0.00156470237, 1.55220115  , -0.0135768168, -9.338907E-05, 920.240234  , 29.9124641  , 804.4899    , 0.92        , 3           , 255         , 0           , 0
-0.1680152  , -9.799795   , -0.173576087, 0.00421818253, 0.000451836269, 2.32930324E-05, 1.55224335  , -0.0135769658, -8.886754E-05, 920.280762  , 29.9156513  , 804.4901    , 0.93        , 3           , 255         , 0           , 0
-0.113094509, -9.786306   , -0.173834518, 0.004271717 , 0.000436799834, -0.00345225167, 1.55228615  , -0.01354237 , -8.514E-05  , 920.280762  , 29.9156513  , 804.4903    , 0.94        , 3           , 255         , 0           , 0
-0.1296294  , -9.787666   , -0.170711473, 0.00192441884, -8.792337E-05, 0.00264649326, 1.55230522  , -0.0135688437, -8.552937E-05, 920.280762  , 29.9156513  , 804.4905    , 0.95        , 3           , 255         , 0           , 0
-0.148849562, -9.798161   , -0.165129334, -0.000875667669, -5.88855473E-05, -0.0005295648, 1.55229664  , -0.01356356 , -8.62162851E-05, 920.280762  , 29.9156513  , 804.490662  , 0.96        , 3           , 255         , 0           , 0
-0.109842859, -9.77586    , -0.172520369, -0.00288040633, -0.000374306517, 0.0003174008, 1.55226791  , -0.0135668023, -8.990047E-05, 920.280762  , 29.9156513  , 804.490845  , 0.97        , 3           , 255         , 0           , 0
-0.141774863, -9.785891   , -0.18100825 , -0.00329002971, 0.000132540357, 0.0007527589, 1.552235    , -0.0135743041, -8.843584E-05, 920.280762  , 29.9156513  , 804.491     , 0.98        , 3           , 255         , 0           , 0
-0.134690151, -9.788769   , -0.187925428, -0.000857264153, 0.000242333277, -0.000152227964, 1.55222642  , -0.0135727357, -8.604165E-05, 920.280762  , 29.9156513  , 804.4912    , 0.99        , 3           , 255         , 0           , 0
-0.133913741, -9.803421   , -0.184668943, 0.00244966638, -0.00018191064, 0.0011057402, 1.5522511   , -0.0135838259, -8.7655324E-05, 920.280762  , 29.9156513  , 804.4914    , 1           , 3           , 0           , 6.03523636  , 100
-0.138065845, -9.802132   , -0.172225326, 0.00328814145, -0.000130309258, 0.0006276043, 1.55229628  , -0.01359246 , -8.90091251E-05, 920.280762  , 29.9156513  , 804.493042  , 1.01        , 3           , 1           , 0           , 0
-0.136779472, -9.789741   , -0.16854246 , 0.00118541974, 0.000250464422, -0.0006896981, 1.5523082   , -0.013585519, -8.663264E-05, 920.280762  , 29.9156513  , 804.4932    , 1.02        , 3           , 2           , 0           , 0
-0.121053375, -9.78079    , -0.166668117, -0.00143836951, 0.000205918332, -0.000313236524, 1.55229378  , -0.0135823488, -8.463057E-05, 920.29364   , 29.9180946  , 804.4934    , 1.03        , 3           , 3           , 0           , 0
-0.126731515, -9.790306   , -0.186963782, -0.003230244, -0.0002320765, 0.000159206233, 1.55226147  , -0.0135839833, -8.692185E-05, 920.29364   , 29.9180946  , 804.4936    , 1.04        , 3           , 4           , 0           , 0
-0.130829126, -9.797716   , -0.19159548 , -0.00174392725, -0.000477333437, 0.000393368129, 1.55224419  , -0.0135880047, -9.162173E-05, 920.29364   , 29.9180946  , 804.4938    , 1.05        , 3           , 5           , 0           , 0
-0.128367484, -9.804411   , -0.189497322, 0.000485695869, -0.0002865863, 0.000686785032, 1.55224907  , -0.0135949235, -9.435962E-05, 920.29364   , 29.9180946  , 804.493958  , 1.06        , 3           , 6           , 0           , 0
-0.13961421 , -9.790853   , -0.180057734, 0.00108412723, 4.668598E-05, 0.00102310232, 1.55225992  , -0.0136051439, -9.370392E-05, 920.29364   , 29.9180946  , 804.4942    , 1.07        , 3           , 7           , 0           , 0
-0.125690669, -9.792431   , -0.157241568, -0.000961410347, -0.00024057948, 0.00106085045, 1.55225039  , -0.0136157954, -9.591324E-05, 920.29364   , 29.9180946  , 804.494446  , 1.08        , 3           , 8           , 5           , 5
-0.12550436 , -9.783869   , -0.1631144  , -0.00223159464, 0.000115160015, 0.00016540692, 1.552228    , -0.0136174271, -9.473129E-05, 920.29364   , 29.9180946  , 804.4947    , 1.09        , 3           , 9           , 5           , 0.1
-0.1401405  , -9.792723   , -0.1752107  , -0.00313851167, -0.000173435546, -0.000244905415, 1.55219662  , -0.01361501 , -9.651121E-05, 920.29364   , 29.9180946  , 804.494934  , 1.1         , 3           , 10          , 0.1         , 0.1
-0.131159529, -9.801843   , -0.18309322 , -0.00202685827, 2.21534283E-05, -0.000409361848, 1.55219483  , -0.0136058489, -9.661549E-05, 920.29364   , 29.9180946  , 804.4826    , 1.11        , 3           , 11          , 0.009205912 , 0.009205907
-0.126748964, -9.792354   , -0.194381714, 0.0005050087, -0.00033320958, -0.0005289635, 1.55219984  , -0.0136006214, -0.000100045421, 920.29364   , 29.9180946  , 804.4828    , 1.12        , 3           , 12          , 0.174642846 , 0
-0.120591342, -9.794001   , -0.177566409, 0.00186183956, 9.632617E-05, 0.000428490457, 1.55221844  , -0.0136048878, -9.900224E-05, 920.252441  , 29.91796    , 804.483     , 1.13        , 3           , 13          , 0           , 0
-0.136638671, -9.797647   , -0.165567681, 0.00030629558, -8.85652262E-05, 0.0001284797, 1.55222142  , -0.0136061879, -9.98638E-05, 920.252441  , 29.91796    , 804.483154  , 1.14        , 3           , 14          , 0.0003744815, 0.000880493142
-0.129484013, -9.794963   , -0.165784463, -0.00189033826, -0.000181557029, -0.001038596, 1.55220258  , -0.0135958372, -0.000101872836, 920.252441  , 29.91796    , 804.483337  , 1.15        , 3           , 15          , 0           , 0.000232308346
-0.123647131, -9.793867   , -0.180531368, -0.002211541, -0.000125638966, -0.000561528257, 1.55218053  , -0.0135902455, -0.000103233622, 920.252441  , 29.91796    , 804.4835    , 1.16        , 3           , 16          , 0           , 1.401298E-45
-0.129698068, -9.79286    , -0.18436034 , -0.000613008742, 8.22626753E-05, 0.001197157 , 1.55217433  , -0.0136022  , -0.000102188125, 920.252441  , 29.91796    , 804.4837    , 1.17        , 3           , 20          , 0           , 0
-0.13339439 , -9.794891   , -0.183630615, 0.00176789239, 0.000144259131, 0.000908229558, 1.552192    , -0.0136112534, -0.000100576326, 920.252441  , 29.91796    , 804.4839    , 1.18        , 3           , 21          , 0           , 0
-0.142651156, -9.790364   , -0.175329581, 0.00346009247, 9.35473363E-05, -0.000544179929, 1.55222654  , -0.0136057949, -9.97413154E-05, 920.252441  , 29.91796    , 804.4841    , 1.19        , 3           , 22          , 0           , 0
-0.128537565, -9.796062   , -0.181657091, 0.0028849456, -8.412002E-05, -0.000460532669, 1.55225551  , -0.0136012062, -0.000100668061, 920.252441  , 29.91796    , 804.484253  , 1.2         , 3           , 40          , 0           , 0
-0.129940629, -9.796648   , -0.1778643  , 0.000999039 , 3.54457879E-05, 9.26688663E-05, 1.55227244  , -0.0135951024, -0.000100388635, 920.252441  , 29.91796    , 804.5158    , 1.21        , 3           , 41          , 0           , 0
-0.126347184, -9.799362   , -0.17590937 , -0.0009540983, -6.64271647E-05, 1.91991567E-05, 1.5522629   , -0.0135953054, -0.000101049474, 920.252441  , 29.91796    , 804.5161    , 1.22        , 3           , 42          , 0           , 0
-0.130799085, -9.792726   , -0.178560108, -0.00132711208, -0.000189112383, 0.000403660146, 1.55224955  , -0.0135993762, -0.000102864782, 920.2565    , 29.9187737  , 804.5164    , 1.23        , 3           , 255         , 0           , 0
-0.1319784  , -9.791232   , -0.181657031, -0.001592433, 9.103655E-05, 0.000966924941, 1.5522337   , -0.0136090247, -0.000101775513, 920.2565    , 29.9187737  , 804.5167    , 1.24        , 3           , 255         , 0           , 0
-0.136994839, -9.780909   , -0.178947419, -2.85831629E-06, 2.01563817E-05, 0.000265923882, 1.5522337   , -0.01361168 , -0.000101524965, 920.2565    , 29.9187737  , 804.517     , 1.25        , 3           , 255         , 0           , 0
-0.130115181, -9.792033   , -0.1800097  , 0.00126945681, 0.000134774251, 0.0007049759, 1.55224645  , -0.0136187039, -0.0001000473, 920.2565    , 29.9187737  , 804.517334  , 1.26        , 3           , 255         , 0           , 0
-0.14008069 , -9.796518   , -0.181759149, 0.00194220233, -0.0003966928, 5.381141E-05, 1.55226576  , -0.0136193149, -0.000104002989, 920.2565    , 29.9187737  , 804.517639  , 1.27        , 3           , 255         , 0           , 0
-0.135312557, -9.794996   , -0.17006208 , 0.00126112637, -0.000245139818, -0.000355231459, 1.5522784   , -0.0136158094, -0.000106519205, 920.2565    , 29.9187737  , 804.517944  , 1.28        , 3           , 255         , 0           , 0
-0.124942735, -9.789839   , -0.1700588  , -0.00101165089, 0.000125183724, 0.0002905416, 1.55226827  , -0.01361869 , -0.000105212908, 920.2565    , 29.9187737  , 804.51825   , 1.29        , 3           , 255         , 0           , 0
-0.130874544, -9.782041   , -0.1771628  , -0.00235579046, -0.000271352939, -4.793216E-05, 1.55224478  , -0.0136182662, -0.000107935848, 920.2565    , 29.9187737  , 804.518555  , 1.3         , 3           , 255         , 0           , 0
-0.130989641, -9.783728   , -0.178894013, -0.00280154333, -0.000275894883, -8.610063E-05, 1.55222964  , -0.01361302 , -0.000110886562, 920.2565    , 29.9187737  , 804.542053  , 1.31        , 3           , 255         , 0           , 0
-0.119860411, -9.796575   , -0.19063583 , -0.0008534166, -0.000404114922, 0.0007508019, 1.55222118  , -0.013620602, -0.000114786839, 920.2565    , 29.9187737  , 804.5425    , 1.32        , 3           , 255         , 0           , 0
-0.124468543, -9.792081   , -0.181659043, 0.0015582873, 9.01737949E-05, -4.25967E-05, 1.5522368   , -0.0136201587, -0.00011389362, 920.2973    , 29.92169    , 804.5429    , 1.33        , 3           , 255         , 0           , 0
-0.118857667, -9.79381752 , -0.1755079  , 0.00323042483, 0.0002773747, 0.0001548093, 1.5522691   , -0.0136216544, -0.000111091955, 920.2973    , 29.92169    , 804.543335  , 1.34        , 3           , 255         , 0           , 0
-0.129957989, -9.798759   , -0.155144364, 0.002325215 , 7.859379E-05, -2.41261878E-05, 1.55229235  , -0.0136213992, -0.000110310037, 920.2973    , 29.92169    , 804.543762  , 1.35        , 3           , 255         , 0           , 0
-0.123561241, -9.792535   , -0.1605731  , -2.49146251E-05, -0.0005102629, -0.000453580957, 1.55229211  , -0.0136169605, -0.000115496572, 920.2973    , 29.92169    , 804.5442    , 1.36        , 3           , 255         , 0           , 0
-0.121932432, -9.799309   , -0.1645489  , -0.00176575885, -0.000322694948, -0.000340253318, 1.55227447  , -0.0136136189, -0.00011878537, 920.2973    , 29.92169    , 804.5446    , 1.37        , 3           , 255         , 0           , 0
-0.137024313, -9.795427   , -0.17834571 , -0.00206859875, 6.950344E-05, 3.6923564E-05, 1.55225384  , -0.0136139747, -0.000118083553, 920.2973    , 29.92169    , 804.545044  , 1.38        , 3           , 255         , 0           , 0
-0.138287738, -9.786568   , -0.184121355, -0.0009312815, 4.11574147E-05, -0.0009364304, 1.55224442  , -0.0136046037, -0.0001178451, 920.2973    , 29.92169    , 804.5455    , 1.39        , 3           , 255         , 0           , 0
-0.137435824, -9.799778   , -0.195206434, 0.00133978657, 2.61307578E-05, -0.0005501127, 1.55225778  , -0.0135990977, -0.000117685835, 920.2973    , 29.92169    , 804.5459    , 1.4         , 3           , 255         , 0           , 0
-0.128185242, -9.786792   , -0.187919065, 0.00393079547, -0.0003799101, -0.0009884017, 1.55230868  , -0.0135768391, -0.00012182405, 920.2973    , 29.92169    , 804.524353  , 1.41        , 3           , 255         , 0           , 0
-0.124890521, -9.814324   , -0.175739646, 0.00495283958, -0.0002553257, -0.000363434228, 1.55235815  , -0.0135732545, -0.000124443628, 920.2973    , 29.92169    , 804.524658  , 1.42        , 3           , 255         , 0           , 0
-0.143983364, -9.790609   , -0.165367454, 0.003482332 , -7.442117E-05, -0.000160814438, 1.552393    , -0.01357166 , -0.0001252181, 920.2939    , 29.9233189  , 804.525     , 1.43        , 3           , 255         , 0           , 0
-0.137565464, -9.791871   , -0.163528085, -0.00103320554, -2.89808377E-05, 7.60893454E-05, 1.55238259  , -0.0135724256, -0.000125492865, 920.2939    , 29.9233189  , 804.5254    , 1.44        , 3           , 255         , 0           , 0
-0.1432469  , -9.790289   , -0.175699547, -0.00215704576, 3.29683535E-05, 0.00034264836, 1.552361    , -0.0135758463, -0.0001250998, 920.2939    , 29.9233189  , 804.525757  , 1.45        , 3           , 255         , 0           , 0
-0.127297431, -9.797212   , -0.1915104  , -0.00115315907, 0.000486355217, -0.000350267073, 1.55234945  , -0.0135722542, -0.000120301651, 920.2939    , 29.9233189  , 804.5261    , 1.46        , 3           , 255         , 0           , 0
-0.135429248, -9.798195   , -0.195301086, 0.0006213915, 0.000202133611, 0.000312783639, 1.55235565  , -0.0135753453, -0.000118222742, 920.2939    , 29.9233189  , 804.5265    , 1.47        , 3           , 255         , 0           , 0
-0.14087899 , -9.793604   , -0.180859238, 0.0022024943, -0.0001240591, -0.00101030525, 1.5523777   , -0.0135652665, -0.000119649187, 920.2939    , 29.9233189  , 804.526855  , 1.48        , 3           , 255         , 0           , 0
-0.13228181 , -9.792525   , -0.1767908  , 0.00179745234, -0.0001400988, -2.842366E-05, 1.5523957   , -0.0135650085, -0.000121055615, 920.2939    , 29.9233189  , 804.5272    , 1.49        , 3           , 255         , 0           , 0
-0.126981124, -9.793227   , -0.168109745, 0.000731086533, 3.71768256E-05, 0.0007025355, 1.55240309  , -0.013572026, -0.000120554992, 920.2939    , 29.9233189  , 804.5276    , 1.5         , 3           , 255         , 0           , 0
-0.120871052, -9.797417   , -0.170995161, -0.000528983132, -4.29250067E-05, 0.000700936944, 1.55240309  , -0.0135814128, -0.000120927565, 920.2939    , 29.9233189  , 804.5115    , 1.51        , 3           , 255         , 0           , 0
-0.13266401 , -9.798851   , -0.174591824, -0.00115731417, -3.6757323E-05, 0.000922986947, 1.55239153  , -0.013590646, -0.000121125973, 920.2939    , 29.9233189  , 804.5118    , 1.52        , 3           , 255         , 0           , 0
-0.124828637, -9.791141   , -0.169244245, -0.000839063432, 0.000195730187, -0.000904805434, 1.55238318  , -0.0135815628, -0.000119334865, 920.3041    , 29.92481    , 804.5121    , 1.53        , 3           , 255         , 0           , 0
-0.122993782, -9.788626   , -0.170971647, -0.0006313211, -3.17342929E-05, -6.547822E-05, 1.55237687  , -0.0135809155, -0.000119664568, 920.3041    , 29.92481    , 804.5124    , 1.54        , 3           , 255         , 0           , 0
-0.121158563, -9.792692   , -0.181222677, 8.10182246E-05, 0.000136024959, 0.000233105631, 1.5523777   , -0.0135832205, -0.000118262338, 920.3041    , 29.92481    , 804.5127    , 1.55        , 3           , 255         , 0           , 0
-0.125545219, -9.796598   , -0.1818701  , 0.000150326727, -0.000110020861, -0.00051320577, 1.55237925  , -0.01357811 , -0.000119456861, 920.3041    , 29.92481    , 804.513     , 1.56        , 3           , 255         , 0           , 0
-0.123295486, -9.801001   , -0.182386547, -6.215225E-05, 0.00031148264, -0.000156600989, 1.55237854  , -0.0135764871, -0.000116371571, 920.3041    , 29.92481    , 804.5133    , 1.57        , 3           , 255         , 0           , 0
-0.129113317, -9.79764    , -0.174208015, -4.65596968E-05, 0.000201400078, 0.0006525798, 1.55237794  , -0.0135829747, -0.000114237257, 920.3041    , 29.92481    , 804.5136    , 1.58        , 3           , 255         , 0           , 0
-0.127934158, -9.795382   , -0.178052515, 0.000293057732, -0.000137904135, 0.000434684451, 1.55238092  , -0.0135873454, -0.000115535651, 920.3041    , 29.92481    , 804.5139    , 1.59        , 3           , 255         , 0           , 0
-0.1252856  , -9.799769   , -0.167607293, -0.0006386491, -0.000225894852, -0.000452697859, 1.5523746   , -0.01358286 , -0.000117877673, 920.3041    , 29.92481    , 804.5142    , 1.6         , 3           , 255         , 0           , 0
-0.125705943, -9.804331   , -0.173022673, -0.000315943238, 0.0004914786, 0.0007596502, 1.55238211  , -0.0135746114, -0.000112971917, 920.3041    , 29.92481    , 804.488159  , 1.61        , 3           , 255         , 0           , 0
-0.131415   , -9.801064   , -0.173503265, -0.000895829755, 0.0003985815, -9.240268E-05, 1.55237317  , -0.0135736112, -0.000109003195, 920.3041    , 29.92481    , 804.488342  , 1.62        , 3           , 255         , 0           , 0
-0.135086134, -9.791229   , -0.175573319, -0.00185405393, 0.000239794841, 0.000372900278, 1.55235457  , -0.0135772955, -0.000106536834, 920.279053  , 29.9228439  , 804.4885    , 1.63        , 3           , 255         , 0           , 0
-0.137357339, -9.790095   , -0.176791608, -0.00164678216, 0.0001835177, 0.0005922236, 1.552338    , -0.0135831833, -0.000104591585, 920.279053  , 29.9228439  , 804.4887    , 1.64        , 3           , 255         , 0           , 0
-0.133461177, -9.7789     , -0.177800119, -0.00166950235, 0.0002243059, 0.00137521408, 1.55232131  , -0.0135968905, -0.000102095444, 920.279053  , 29.9228439  , 804.4889    , 1.65        , 3           , 255         , 0           , 0
-0.13259019 , -9.778287   , -0.18629244 , -0.00116557931, -0.000319698767, 0.00153936644, 1.55230975  , -0.013612343, -0.000105007493, 920.279053  , 29.9228439  , 804.4891    , 1.66        , 3           , 255         , 0           , 0
-0.1389077  , -9.77599049 , -0.184952617, 0.0004783799, -7.03765545E-06, 0.00106347434, 1.55231452  , -0.0136229768, -0.000104881772, 920.279053  , 29.9228439  , 804.489258  , 1.67        , 3           , 255         , 0           , 0
-0.146355391, -9.789118   , -0.177250117, 0.000928052352, -0.0002829121, 0.000958526332, 1.55232394  , -0.0136326095, -0.000107534, 920.279053  , 29.9228439  , 804.489441  , 1.68        , 3           , 255         , 0           , 0
-0.140954643, -9.80094    , -0.175132781, 0.00114819384, -0.00018390466, 2.02474912E-05, 1.55233538  , -0.0136328461, -0.000109368862, 920.279053  , 29.9228439  , 804.4896    , 1.69        , 3           , 255         , 0           , 0
-0.137336686, -9.801856   , -0.170461416, -0.00022791588, 0.000356014119, 8.134943E-06, 1.55233312  , -0.013632861, -0.000105808096, 920.279053  , 29.9228439  , 804.4898    , 1.7         , 3           , 255         , 0           , 0
-0.131466687, -9.791925   , -0.170269743, -0.00111624761, -5.897286E-05, 0.00135390251, 1.55233192  , -0.0136538912, -0.000106284533, 920.279053  , 29.9228439  , 804.4933    , 1.71        , 3           , 255         , 0           , 0
-0.127326429, -9.807695   , -0.182483211, -0.00196694164, -0.000456749229, 0.0006278093, 1.55231225  , -0.013660253, -0.00011073528, 920.279053  , 29.9228439  , 804.493469  , 1.72        , 3           , 255         , 0           , 0
-0.138314411, -9.778851   , -0.186056286, -0.002452694, -0.0005910159, -0.000159964984, 1.5522877   , -0.0136587629, -0.000116673487, 920.2964    , 29.9242     , 804.493652  , 1.73        , 3           , 255         , 0           , 0
-0.12845622 , -9.7936     , -0.185925767, -0.0011683529, -8.446589E-05, 0.000239562753, 1.552276    , -0.0136611741, -0.0001174731, 920.2964    , 29.9242     , 804.493835  , 1.74        , 3           , 255         , 0           , 0
-0.132730037, -9.783699   , -0.176121041, 0.000166181359, 8.4561354E-05, -0.000256011845, 1.55227768  , -0.0136585981, -0.00011667535, 920.2964    , 29.9242     , 804.494     , 1.75        , 3           , 255         , 0           , 0
-0.121920906, -9.795829   , -0.174333781, 0.00114729733, 0.0003990825, 0.0002444199, 1.55228913  , -0.0136609692, -0.000112640468, 920.2964    , 29.9242     , 804.4942    , 1.76        , 3           , 255         , 0           , 0
-0.12305057 , -9.796299   , -0.172715411, 0.00129241671, 4.30434E-06 , 0.00113111711, 1.552302    , -0.0136722745, -0.000112387621, 920.2964    , 29.9242     , 804.4944    , 1.77        , 3           , 255         , 0           , 0
-0.123280682, -9.795677   , -0.167938292, -0.000549085555, -3.27838934E-05, 0.000864330854, 1.55229652  , -0.0136809219, -0.000112555754, 920.2964    , 29.9242     , 804.494568  , 1.78        , 3           , 255         , 0           , 0
-0.135727435, -9.793691   , -0.172250867, -0.00245696213, -0.00018522609, 0.0005647339, 1.55227208  , -0.0136866039, -0.00011430309, 920.2964    , 29.9242     , 804.494751  , 1.79        , 3           , 255         , 0           , 0
-0.1334875  , -9.796077   , -0.176386356, -0.00347443437, -0.000241096946, 0.0001383304, 1.55223727  , -0.0136880307, -0.000116687974, 920.2964    , 29.9242     , 804.494934  , 1.8         , 3           , 255         , 0           , 0
-0.127927274, -9.795186   , -0.182771638, -0.00225556153, -0.00026757695, 0.000533973565, 1.552226    , -0.0136838583, -0.000119417913, 920.2964    , 29.9242     , 804.4783    , 1.81        , 3           , 255         , 0           , 0
-0.128435418, -9.79427052 , -0.185146809, -0.000276933657, 0.0002510188, -0.0006137962, 1.55222321  , -0.0136776771, -0.000117021853, 920.2964    , 29.9242     , 804.4784    , 1.82        , 3           , 255         , 0           , 0
-0.124584436, -9.798467   , -0.177008212, 0.00167028257, -2.34202016E-05, -0.0006389956, 1.55223989  , -0.0136712911, -0.000117374388, 920.282654  , 29.9247437  , 804.4785    , 1.83        , 3           , 255         , 0           , 0
-0.127622724, -9.785642   , -0.178218931, 0.00207354  , 0.00012957037, -0.00113297126, 1.55226052  , -0.0136599392, -0.000116288829, 920.282654  , 29.9247437  , 804.478638  , 1.84        , 3           , 255         , 0           , 0
-0.1299735  , -9.79733849 , -0.176249117, 0.00248378562, 0.0002912864, -0.00211650063, 1.55228543  , -0.0136387255, -0.000113768852, 920.282654  , 29.9247437  , 804.47876   , 1.85        , 3           , 255         , 0           , 0
-0.131172389, -9.790757   , -0.186377585, 0.0037348466, -7.147377E-05, -0.00299420673, 1.55232275  , -0.013608803, -0.000115037845, 920.282654  , 29.9247437  , 804.4789    , 1.86        , 3           , 255         , 0           , 0
-0.124683633, -9.793726   , -0.186251372, 0.00587794231, -0.000118809461, -0.00306863268, 1.55238152  , -0.0135781467, -0.000116792085, 920.282654  , 29.9247437  , 804.479     , 1.87        , 3           , 255         , 0           , 0
-0.136369035, -9.795432   , -0.183977321, 0.0064772414, -0.0001567395, -0.00340076652, 1.55244637  , -0.0135441739, -0.000118984106, 920.282654  , 29.9247437  , 804.4791    , 1.88        , 3           , 255         , 0           , 0
-0.136155531, -9.787577   , -0.171419561, 0.00647868542, -0.000107105123, -0.002580318, 1.55251122  , -0.0135183949, -0.000120528814, 920.282654  , 29.9247437  , 804.479248  , 1.89        , 3           , 255         , 0           , 0
-0.1353621  , -9.788536   , -0.166425318, 0.00518288  , 5.91769349E-05, -0.00249326346, 1.55256307  , -0.0134934559, -0.000120392309, 920.282654  , 29.9247437  , 804.4794    , 1.9         , 3           , 255         , 0           , 0
-0.143543258, -9.796923   , -0.176418632, 0.00502357  , -0.000140145188, -0.004484855, 1.552618    , -0.0134407422, -0.0001226728, 920.282654  , 29.9247437  , 804.480164  , 1.91        , 3           , 255         , 0           , 0
-0.119171724, -9.789025   , -0.173899218, 0.00573067833, 0.000153090921, -0.00530932751, 1.55267525  , -0.0133876335, -0.0001221064, 920.282654  , 29.9247437  , 804.4803    , 1.92        , 3           , 255         , 0           , 0
-0.105026543, -9.793749   , -0.167255417, 0.00506975874, -8.53301E-06, 0.000380275771, 1.55272591  , -0.0133914351, -0.000122122714, 920.2479    , 29.9271164  , 804.4804    , 1.93        , 3           , 255         , 0           , 0
-0.141890883, -9.803602   , -0.155774787, 0.00248922338, -0.0002725647, 0.00109967217, 1.55275083  , -0.01340248 , -0.000124649174, 920.2479    , 29.9271164  , 804.4805    , 1.94        , 3           , 255         , 0           , 0
-0.129565313, -9.799262   , -0.154291674, -0.00128498394, 4.89788945E-05, 0.0008083608, 1.552738    , -0.0134105533, -0.000124013022, 920.2479    , 29.9271164  , 804.480652  , 1.95        , 3           , 255         , 0           , 0
-0.143748924, -9.795043   , -0.169056222, -0.003928708, -0.0004491817, -0.000303496519, 1.55269873  , -0.0134075992, -0.000128559215, 920.2479    , 29.9271164  , 804.4808    , 1.96        , 3           , 255         , 0           , 0
-0.126167059, -9.797356   , -0.192944244, -0.002771668, -0.000384033774, -0.00182198233, 1.552671    , -0.0133894505, -0.000132728645, 920.2479    , 29.9271164  , 804.4809    , 1.97        , 3           , 255         , 0           , 0
-0.116390452, -9.791235   , -0.199663743, 0.0008623784, -0.000359087368, 1.805539E-05, 1.55267966  , -0.0133896973, -0.000136315954, 920.2479    , 29.9271164  , 804.481     , 1.98        , 3           , 255         , 0           , 0
-0.12849094 , -9.788678   , -0.184075981, 0.004322742 , 0.000194731751, 0.001083381 , 1.55272293  , -0.0134004941, -0.000134174188, 920.2479    , 29.9271164  , 804.4812    , 1.99        , 3           , 255         , 0           , 0
-0.124034211, -9.789981   , -0.163483784, 0.00451981463, 0.0003355142, 0.0007887233, 1.55276811  , -0.0134083182, -0.000130677232, 920.2479    , 29.9271164  , 804.4814    , 2           , 3           , 0           , 7.03523636  , 200
-0.1264344  , -9.79429    , -0.157652333, 0.000125415623, 0.000266140443, 0.000830967561, 1.55277574  , -0.0134093827, -0.000127952881, 920.2479    , 29.9271164  , 804.5237    , 2.01        , 3           , 1           , 0           , 0
-0.132483646, -9.787822   , -0.159853444, -0.00375386048, -0.000131009554, 0.000404519727, 1.55273819  , -0.0134134516, -0.000129190274, 920.2479    , 29.9271164  , 804.5241    , 2.02        , 3           , 2           , 0           , 0
-0.125909552, -9.793316   , -0.178294867, -0.005297789, 0.000116837677, 0.0008467793, 1.55268526  , -0.0134218959, -0.000127869556, 920.300354  , 29.92542    , 804.524536  , 2.03        , 3           , 3           , 0           , 0
-0.12210276 , -9.79922    , -0.188350275, -0.00441311533, -0.000304421352, 0.0006674535, 1.55264115  , -0.0134286275, -0.00013079273, 920.300354  , 29.92542    , 804.524963  , 2.04        , 3           , 4           , 0           , 0
-0.12793836 , -9.790831   , -0.194022536, -0.00264457334, -0.000202211842, 0.00112293125, 1.55261481  , -0.0134398881, -0.00013261089, 920.300354  , 29.92542    , 804.5254    , 2.05        , 3           , 5           , 0           , 0
-0.126191676, -9.787649   , -0.18617925 , -0.000612580858, 0.000243081013, 0.00203924812, 1.55260873  , -0.0134602329, -0.000129810185, 920.300354  , 29.92542    , 804.5258    , 2.06        , 3           , 6           , 0           , 0
-0.126129091, -9.781446   , -0.1748137  , 0.0006673937, -0.0002468172, 0.00189339684, 1.5526154   , -0.0134792086, -0.000131933368, 920.300354  , 29.92542    , 804.526245  , 2.07        , 3           , 7           , 0           , 0
-0.125566676, -9.79595852 , -0.167858809, 0.0005099677, -0.0005138655, 0.00134583341, 1.55262053  , -0.0134927575, -0.000136826537, 920.300354  , 29.92542    , 804.5267    , 2.08        , 3           , 8           , 5           , 5
-0.134733632, -9.79273    , -0.168572381, -0.00104754861, -8.88441E-05, 0.0003875175, 1.55260992  , -0.0134966485, -0.000137644311, 920.300354  , 29.92542    , 804.5271    , 2.09        , 3           , 9           , 5           , 0.1
-0.127717331, -9.784894   , -0.171230763, -0.0015704158, -0.00017368712, 0.0007323532, 1.5525943   , -0.0135040032, -0.000139247742, 920.300354  , 29.92542    , 804.5275    , 2.1         , 3           , 10          , 0.1         , 0.1
-0.127723768, -9.793898   , -0.16786772 , -0.00236035138, -0.000455101021, 0.0003658068, 1.552579    , -0.01349743 , -0.0001438433, 920.300354  , 29.92542    , 804.5007    , 2.11        , 3           , 11          , 0.008195655 , 0.008195651
-0.124134377, -9.798899   , -0.18301183 , -0.00258630281, -0.0002193778, 0.000930750044, 1.55255318  , -0.0135067729, -0.000145866812, 920.300354  , 29.92542    , 804.5009    , 2.12        , 3           , 12          , 0.174643889 , 0
-0.126935288, -9.780939   , -0.177523419, -0.00172532653, -3.29982722E-05, 0.00149797031, 1.552536    , -0.0135217551, -0.000145923215, 920.2884    , 29.92515    , 804.50116   , 2.13        , 3           , 13          , 0           , 0
-0.13424252 , -9.785997   , -0.179299325, -0.00158804806, -4.645798E-05, 0.0005087476, 1.55252016  , -0.01352685 , -0.000146295322, 920.2884    , 29.92515    , 804.5014    , 2.14        , 3           , 14          , 0.000374295167, 0.0008804931
-0.112344563, -9.790346   , -0.179456174, -0.001264911, -1.32768764E-05, 0.001055944 , 1.55250752  , -0.0135374116, -0.000146235252, 920.2884    , 29.92515    , 804.501648  , 2.15        , 3           , 15          , 0           , 0.00023245161
-0.131579816, -9.78963852 , -0.17052485 , -0.000284431269, 0.000104035717, 0.00196379144, 1.55250466  , -0.0135570262, -0.000144834921, 920.2884    , 29.92515    , 804.5019    , 2.16        , 3           , 16          , 0           , 1.401298E-45
-0.116811469, -9.78902149 , -0.166528583, -0.000108917389, 8.410891E-06, 0.000750181032, 1.55250347  , -0.013564527, -0.000144613252, 920.2884    , 29.92515    , 804.502136  , 2.17        , 3           , 20          , 0           , 0
-0.124668442, -9.790595   , -0.172030628, -0.0004903869, -0.0002264838, 0.0007832092, 1.5524987   , -0.0135723976, -0.000146735023, 920.2884    , 29.92515    , 804.5024    , 2.18        , 3           , 21          , 0           , 0
-0.126715958, -9.794813   , -0.173910886, -0.00117869792, 7.862091E-05, 0.0010336691, 1.5524869   , -0.0135827176, -0.00014575939, 920.2884    , 29.92515    , 804.5026    , 2.19        , 3           , 22          , 0           , 0
-0.1312297  , -9.794172   , -0.180067047, -0.00232499372, 8.014345E-05, 0.0002941623, 1.55246365  , -0.0135856448, -0.000144904348, 920.2884    , 29.92515    , 804.502869  , 2.2         , 3           , 40          , 0           , 0
-0.132204026, -9.780581   , -0.173328787, -0.0027393857, -0.000273861457, 0.0009764984, 1.55244625  , -0.0135783367, -0.0001475989, 920.2884    , 29.92515    , 804.493652  , 2.21        , 3           , 41          , 0           , 0
-0.125634432, -9.790229   , -0.179255351, -0.00138925272, 0.000132107292, 0.00136533368, 1.5524323   , -0.0135919629, -0.000146027654, 920.2884    , 29.92515    , 804.4939    , 2.22        , 3           , 42          , 0           , 0
-0.129194468, -9.790462   , -0.175716564, -0.000124897779, -6.132317E-05, 0.0006727927, 1.55243111  , -0.013598701, -0.000146517108, 920.3424    , 29.9242687  , 804.494141  , 2.23        , 3           , 255         , 0           , 0
-0.126092583, -9.78912    , -0.176409051, 0.00112377224, 0.000117227668, 0.000360024162, 1.55244243  , -0.0136022791, -0.000145278813, 920.3424    , 29.9242687  , 804.4944    , 2.24        , 3           , 255         , 0           , 0
-0.128153965, -9.792501   , -0.168718457, 0.00151967187, -0.000111135421, 0.0008325644, 1.55245757  , -0.013610621, -0.00014623726, 920.3424    , 29.9242687  , 804.4946    , 2.25        , 3           , 255         , 0           , 0
-0.124176122, -9.803461   , -0.170590639, 0.0005261696, 0.000267760945, 0.000455666683, 1.5524627   , -0.0136151277, -0.000143475656, 920.3424    , 29.9242687  , 804.4949    , 2.26        , 3           , 255         , 0           , 0
-0.132728323, -9.791483   , -0.169243723, -0.00125096017, -0.00011609908, 0.000262906076, 1.55245018  , -0.0136177782, -0.000144587757, 920.3424    , 29.9242687  , 804.4951    , 2.27        , 3           , 255         , 0           , 0
-0.135264009, -9.790144   , -0.17967698 , -0.00369106513, -0.000411337125, -0.00015860534, 1.55241334  , -0.0136162676, -0.000148729261, 920.3424    , 29.9242687  , 804.495361  , 2.28        , 3           , 255         , 0           , 0
-0.133035734, -9.782712   , -0.194364548, -0.003935504, -0.000314805657, -0.000438757357, 1.55237389  , -0.0136119416, -0.000151957924, 920.3424    , 29.9242687  , 804.4956    , 2.29        , 3           , 255         , 0           , 0
-0.124692775, -9.787272   , -0.196364492, -0.001664866, 1.7855491E-05, 8.310615E-05, 1.55235732  , -0.0136127668, -0.000151763772, 920.3424    , 29.9242687  , 804.49585   , 2.3         , 3           , 255         , 0           , 0
-0.131634533, -9.79892    , -0.194290176, 0.00186724006, -0.000203625881, 0.0005545036, 1.55237925  , -0.0136075737, -0.000153742076, 920.3424    , 29.9242687  , 804.4174    , 2.31        , 3           , 255         , 0           , 0
-0.14724949 , -9.801847   , -0.187735215, 0.00457324553, -8.437509E-05, 0.000431570748, 1.552425    , -0.0136119043, -0.000154507215, 920.3424    , 29.9242687  , 804.4172    , 2.32        , 3           , 255         , 0           , 0
-0.135774046, -9.77575    , -0.165431589, 0.004271369 , 0.0001276668, -0.0009522633, 1.55246782  , -0.0136023611, -0.00015340581, 920.3097    , 29.92515    , 804.416931  , 2.33        , 3           , 255         , 0           , 0
-0.135554314, -9.795607   , -0.162686154, 0.00181906857, -0.000147557992, -0.000378828961, 1.55248606  , -0.0135986  , -0.00015495102, 920.3097    , 29.92515    , 804.4167    , 2.34        , 3           , 255         , 0           , 0
-0.131636634, -9.805147   , -0.158572242, -0.00145264552, -0.0004081628, -0.0001476357, 1.55247152  , -0.0135971978, -0.000159059011, 920.3097    , 29.92515    , 804.416443  , 2.35        , 3           , 255         , 0           , 0
-0.125196815, -9.797071   , -0.168828249, -0.00307295844, -0.000296817161, -0.000690361252, 1.55244076  , -0.01359035 , -0.000162153592, 920.3097    , 29.92515    , 804.4162    , 2.36        , 3           , 255         , 0           , 0
-0.121920034, -9.791355   , -0.180734888, -0.002493526, -0.000310998643, -0.000744299439, 1.55241585  , -0.0135829654, -0.000165399542, 920.3097    , 29.92515    , 804.415955  , 2.37        , 3           , 255         , 0           , 0
-0.1137563  , -9.794698   , -0.187358469, -0.00111451873, -0.000335684, -0.0008734965, 1.55240476  , -0.0135742985, -0.000168916944, 920.3097    , 29.92515    , 804.4157    , 2.38        , 3           , 255         , 0           , 0
-0.1264026  , -9.788219   , -0.188892692, 0.00178124988, -0.00022668927, -2.2225533E-05, 1.55242264  , -0.0135741141, -0.000171188221, 920.3097    , 29.92515    , 804.415466  , 2.39        , 3           , 255         , 0           , 0
-0.1242794  , -9.790747   , -0.187639788, 0.00338428374, 0.000241077447, -0.0008627727, 1.5524565   , -0.0135654435, -0.000168936516, 920.3097    , 29.92515    , 804.4152    , 2.4         , 3           , 255         , 0           , 0
-0.127888873, -9.795092   , -0.174726084, 0.00322204339, -0.0002980706, -0.000112318659, 1.552491    , -0.0135570262, -0.000171967753, 920.3097    , 29.92515    , 804.3889    , 2.41        , 3           , 255         , 0           , 0
-0.140077   , -9.810152   , -0.160047919, 0.00257869554, -0.00024000986, -1.37707684E-05, 1.55251682  , -0.0135569321, -0.0001743694, 920.3097    , 29.92515    , 804.3885    , 2.42        , 3           , 255         , 0           , 0
-0.139226958, -9.780068   , -0.164391339, 0.000274817634, 8.40095454E-05, -0.0003061144, 1.55251956  , -0.0135538587, -0.0001735856, 920.317749  , 29.92637    , 804.388062  , 2.43        , 3           , 255         , 0           , 0
-0.132051632, -9.794      , -0.174155965, -0.00138877635, -4.240463E-05, 0.000340352737, 1.55250561  , -0.0135572674, -0.000173946537, 920.317749  , 29.92637    , 804.387634  , 2.44        , 3           , 255         , 0           , 0
-0.148787543, -9.79655552 , -0.1773709  , -0.002903011, -0.000217817025, -0.000343842781, 1.55247653  , -0.013553869, -0.000176186586, 920.317749  , 29.92637    , 804.3872    , 2.45        , 3           , 255         , 0           , 0
-0.118560329, -9.791365   , -0.175113365, -0.0020719762, -0.0003238382, -0.00100655807, 1.55245578  , -0.0135438638, -0.000179608556, 920.317749  , 29.92637    , 804.3868    , 2.46        , 3           , 255         , 0           , 0
-0.116234109, -9.789825   , -0.181266263, -0.0016320846, 0.000216625514, 0.002184261 , 1.55243945  , -0.013565666, -0.000177043, 920.317749  , 29.92637    , 804.386353  , 2.47        , 3           , 255         , 0           , 0
-0.142911091, -9.7792     , -0.180805713, -0.00208847644, 0.000120950979, 0.000468325248, 1.55241859  , -0.0135703217, -0.000175747, 920.317749  , 29.92637    , 804.3859    , 2.48        , 3           , 255         , 0           , 0
-0.139190719, -9.79191    , -0.18940711 , -0.00233036559, 5.54907019E-05, 0.000234304316, 1.55239522  , -0.0135726538, -0.000175149034, 920.317749  , 29.92637    , 804.3855    , 2.49        , 3           , 255         , 0           , 0
-0.12774609 , -9.805032   , -0.1939038  , -0.000656955, -0.0002519677, 0.00153808307, 1.55238867  , -0.0135880783, -0.000177385387, 920.317749  , 29.92637    , 804.3851    , 2.5         , 3           , 255         , 0           , 0
-0.1304775  , -9.795797   , -0.184364468, 0.00180358149, -0.000374391442, 0.000646940141, 1.552411    , -0.0135955624, -0.00018106724, 920.317749  , 29.92637    , 804.351868  , 2.51        , 3           , 255         , 0           , 0
-0.131995827, -9.785413   , -0.165126622, 0.00236374838, 1.82362855E-05, 0.00165970263, 1.55243456  , -0.0136121521, -0.000180580188, 920.317749  , 29.92637    , 804.351257  , 2.52        , 3           , 255         , 0           , 0
-0.134540766, -9.786566   , -0.157151476, 0.000630228547, 0.000199711823, 0.00024345734, 1.55244088  , -0.01361455 , -0.000178538539, 920.3152    , 29.9263039  , 804.350647  , 2.53        , 3           , 255         , 0           , 0
-0.122283116, -9.774784   , -0.1592946  , -0.0017095611, -0.000234178384, -0.000245031115, 1.55242383  , -0.0136121428, -0.0001809248, 920.3152    , 29.9263039  , 804.350037  , 2.54        , 3           , 255         , 0           , 0
-0.121039465, -9.786769   , -0.169597715, -0.00354797859, 0.000229770376, 0.000121010977, 1.55238843  , -0.0136133106, -0.000178605114, 920.3152    , 29.9263039  , 804.3494    , 2.55        , 3           , 255         , 0           , 0
-0.128381163, -9.798133   , -0.186418459, -0.00312260538, -0.000368072127, 0.00032736978, 1.55235708  , -0.0136166532, -0.000182225034, 920.3152    , 29.9263039  , 804.3488    , 2.56        , 3           , 255         , 0           , 0
-0.124144956, -9.797107   , -0.18698439 , -0.0009872622, -0.000633784, -0.000308799965, 1.5523473   , -0.0136136822, -0.00018861868, 920.3152    , 29.9263039  , 804.3482    , 2.57        , 3           , 255         , 0           , 0
-0.126119524, -9.787923   , -0.179583833, 0.0008261296, -0.000115065312, 8.89833755E-05, 1.55235553  , -0.0136145931, -0.000189752682, 920.3152    , 29.9263039  , 804.3476    , 2.58        , 3           , 255         , 0           , 0
-0.130297765, -9.797698   , -0.164598912, 0.00161565433, 0.000403989165, 9.78921744E-05, 1.55237174  , -0.0136154965, -0.000185695477, 920.3152    , 29.9263039  , 804.347     , 2.59        , 3           , 255         , 0           , 0
-0.135573   , -9.806887   , -0.16467905 , 0.001355614 , 0.0002879345, 0.000108042193, 1.55238533  , -0.0136165246, -0.0001827974, 920.3152    , 29.9263039  , 804.3464    , 2.6         , 3           , 255         , 0           , 0
-0.129851192, -9.8010025  , -0.1574533  , -7.773901E-05, -1.47591345E-05, 1.15489674E-05, 1.55240226  , -0.0136062736, -0.000183185286, 920.3152    , 29.9263039  , 804.3213    , 2.61        , 3           , 255         , 0           , 0
-0.127165243, -9.792189   , -0.167215243, -0.00164863036, 0.0003872455, -0.00019721585, 1.55238581  , -0.01360423 , -0.00017934927, 920.3152    , 29.9263039  , 804.320557  , 2.62        , 3           , 255         , 0           , 0
-0.128067777, -9.792833   , -0.179031685, -0.00313053327, 0.000144055055, 5.544287E-05, 1.55235445  , -0.0136047574, -0.00017789907, 920.2751    , 29.9267788  , 804.3198    , 2.63        , 3           , 255         , 0           , 0
-0.131475717, -9.788542   , -0.188397527, -0.00265514618, 0.0002997361, 0.00022661961, 1.55232787  , -0.0136069655, -0.000174859917, 920.2751    , 29.9267788  , 804.3191    , 2.64        , 3           , 255         , 0           , 0
-0.1256773  , -9.789205   , -0.188915148, -0.000458393, 0.000742344942, -0.00012446288, 1.55232334  , -0.0136055844, -0.0001674608, 920.2751    , 29.9267788  , 804.318359  , 2.65        , 3           , 255         , 0           , 0
-0.125310764, -9.801758   , -0.185671851, 0.0020686374, 0.000324096123, 0.00132644235, 1.552344    , -0.01361879 , -0.000163975928, 920.2751    , 29.9267788  , 804.3176    , 2.66        , 3           , 255         , 0           , 0
-0.119999632, -9.795369   , -0.17153196 , 0.00302668  , 1.17043965E-05, 0.0006897761, 1.55237436  , -0.0136256823, -0.000163731471, 920.2751    , 29.9267788  , 804.3169    , 2.67        , 3           , 255         , 0           , 0
-0.1302816  , -9.785694   , -0.1634964  , 0.000396933 , -0.000473544642, 0.0009394095, 1.5523783   , -0.0136351595, -0.00016829354, 920.2751    , 29.9267788  , 804.316162  , 2.68        , 3           , 255         , 0           , 0
-0.134288311, -9.7944     , -0.161664888, -0.00321568083, -0.000342820946, 0.00135633291, 1.55234623  , -0.0136487829, -0.000171472013, 920.2751    , 29.9267788  , 804.3154    , 2.69        , 3           , 255         , 0           , 0
-0.137224466, -9.801487   , -0.177651688, -0.0044634873, -7.012539E-05, 0.000468997518, 1.55230165  , -0.0136534851, -0.000172086759, 920.2751    , 29.9267788  , 804.3147    , 2.7         , 3           , 255         , 0           , 0
-0.135521665, -9.807335   , -0.1891324  , -0.004177594, -3.86688625E-05, -0.000274437334, 1.552272    , -0.0136430236, -0.000172689819, 920.2751    , 29.9267788  , 804.3492    , 2.71        , 3           , 255         , 0           , 0
-0.1299051  , -9.793995   , -0.1931323  , -0.000887675269, 0.000174887944, 0.000187650425, 1.55226314  , -0.0136448676, -0.000170906162, 920.2751    , 29.9267788  , 804.3487    , 2.72        , 3           , 255         , 0           , 0
-0.123329893, -9.788541   , -0.194159418, 0.003537971 , -0.000153865083, 0.000339453749, 1.55229855  , -0.0136482911, -0.000172381988, 920.2594    , 29.92671    , 804.3482    , 2.73        , 3           , 255         , 0           , 0
-0.1304727  , -9.783149   , -0.180231914, 0.00495298067, -9.914278E-05, 6.563902E-05, 1.552348    , -0.0136489654, -0.000173361332, 920.2594    , 29.92671    , 804.3477    , 2.74        , 3           , 255         , 0           , 0
-0.134467751, -9.796232   , -0.17441465 , 0.00415588357, -0.000131624227, -0.0005190981, 1.5523895   , -0.0136437984, -0.000174772431, 920.2594    , 29.92671    , 804.3472    , 2.75        , 3           , 255         , 0           , 0
-0.128788024, -9.794786   , -0.169947937, 0.00260009314, 0.000322361 , -0.00125135586, 1.55241573  , -0.0136312274, -0.000171780717, 920.2594    , 29.92671    , 804.346741  , 2.76        , 3           , 255         , 0           , 0
-0.131203979, -9.798749   , -0.177977   , -1.09803223E-05, -2.74734921E-05, -0.00125402538, 1.55241561  , -0.0136186955, -0.0001722869, 920.2594    , 29.92671    , 804.346252  , 2.77        , 3           , 255         , 0           , 0
-0.129567772, -9.799473   , -0.177908257, -0.000161607968, 3.925187E-05, -0.001127905, 1.552414    , -0.01360741 , -0.000172101092, 920.2594    , 29.92671    , 804.345764  , 2.78        , 3           , 255         , 0           , 0
-0.126193553, -9.792775   , -0.187825   , 0.00160903647, -0.000464928657, -0.000897773949, 1.55243     , -0.0135985231, -0.000176915957, 920.2594    , 29.92671    , 804.3453    , 2.79        , 3           , 255         , 0           , 0
-0.125111729, -9.795875   , -0.1717989  , 0.00359489257, 0.000212999061, -0.00100307656, 1.552466    , -0.0135884555, -0.000174970221, 920.2594    , 29.92671    , 804.3448    , 2.8         , 3           , 255         , 0           , 0
-0.129754186, -9.797576   , -0.17779237 , 0.003274395 , 0.000441866985, -0.00114194339, 1.55249667  , -0.0135699837, -0.000170734609, 920.2594    , 29.92671    , 804.3971    , 2.81        , 3           , 255         , 0           , 0
-0.127964765, -9.7892     , -0.174323484, 0.00244828779, 1.92733714E-05, -0.0007326249, 1.55252111  , -0.0135626551, -0.000170675921, 920.2594    , 29.92671    , 804.3969    , 2.82        , 3           , 255         , 0           , 0
-0.13480714 , -9.80663    , -0.170644864, 0.0016627732, -9.311846E-05, -0.0006961272, 1.55253792  , -0.0135557121, -0.000171733976, 920.269043  , 29.92576    , 804.3968    , 2.83        , 3           , 255         , 0           , 0
-0.13280721 , -9.803318   , -0.180658057, 0.00108036736, 0.000300247862, -0.0005774719, 1.55254865  , -0.0135498838, -0.000168838684, 920.269043  , 29.92576    , 804.396667  , 2.84        , 3           , 255         , 0           , 0
-0.1326934  , -9.790591   , -0.177529   , 0.0006231222, 0.000382476079, -2.05933029E-05, 1.55255485  , -0.01354961 , -0.000165018035, 920.269043  , 29.92576    , 804.396545  , 2.85        , 3           , 255         , 0           , 0
-0.1318984  , -9.794581   , -0.179954737, 0.0003309692, 6.83850958E-05, -0.000213178064, 1.55255818  , -0.0135474661, -0.00016437257, 920.269043  , 29.92576    , 804.3964    , 2.86        , 3           , 255         , 0           , 0
-0.134078592, -9.79465    , -0.174635321, 0.00034788312, -0.000261403329, -9.39963938E-05, 1.55256164  , -0.0135465721, -0.000167002887, 920.269043  , 29.92576    , 804.3963    , 2.87        , 3           , 255         , 0           , 0
-0.130785346, -9.799909   , -0.174245685, 0.000785544864, -0.00036975526, -3.600499E-05, 1.55256951  , -0.01354628 , -0.000170706146, 920.269043  , 29.92576    , 804.3962    , 2.88        , 3           , 255         , 0           , 0
-0.135233968, -9.802063   , -0.17710045 , 0.000371711823, -0.0006450641, 0.000429777574, 1.5525732   , -0.0135506941, -0.000177077454, 920.269043  , 29.92576    , 804.396057  , 2.89        , 3           , 255         , 0           , 0
-0.126068458, -9.792432   , -0.174743727, 0.0003808757, 0.000460479816, -0.0006011699, 1.552577    , -0.0135445995, -0.0001725834, 920.269043  , 29.92576    , 804.395935  , 2.9         , 3           , 255         , 0           , 0
-0.127531618, -9.781069   , -0.178172514, -0.00033475965, 0.0001825894, 0.00033165043, 1.55257738  , -0.0135461763, -0.0001707485, 920.269043  , 29.92576    , 804.42804   , 2.91        , 3           , 255         , 0           , 0
-0.1237877  , -9.787798   , -0.176189139, -0.000321286469, -0.000318929029, 0.000213536681, 1.55257428  , -0.0135483677, -0.000173898559, 920.269043  , 29.92576    , 804.4281    , 2.92        , 3           , 255         , 0           , 0
-0.127115726, -9.798651   , -0.178395823, -5.00622264E-05, 0.000454853638, -0.000584310736, 1.55257368  , -0.0135424454, -0.000169457111, 920.2724    , 29.925354   , 804.428162  , 2.93        , 3           , 255         , 0           , 0
-0.134182364, -9.796295   , -0.179302245, 0.0007395289, 0.0002583051, 0.000237417829, 1.552581    , -0.0135447709, -0.000166830563, 920.2724    , 29.925354   , 804.4282    , 2.94        , 3           , 255         , 0           , 0
-0.1271564  , -9.788984   , -0.170608908, 0.00153031189, 9.389536E-05, 0.00013628132, 1.55259633  , -0.0135461157, -0.000165867023, 920.2724    , 29.925354   , 804.4283    , 2.95        , 3           , 255         , 0           , 0
-0.12533541 , -9.796042   , -0.1720774  , 0.001008129 , 0.000101814861, -0.00016295907, 1.55260634  , -0.0135444673, -0.000164878336, 920.2724    , 29.925354   , 804.428345  , 2.96        , 3           , 255         , 0           , 0
-0.126899332, -9.794905   , -0.165382043, -0.00155872561, -0.00035205204, -0.0001159843, 1.55259085  , -0.013543372, -0.00016841953, 920.2724    , 29.925354   , 804.4284    , 2.97        , 3           , 255         , 0           , 0
-0.1290885  , -9.799987   , -0.172094747, -0.002141364, -0.0005281747, 0.0002587104, 1.55256939  , -0.0135460561, -0.000173654509, 920.2724    , 29.925354   , 804.428467  , 2.98        , 3           , 255         , 0           , 0
-0.128397822, -9.795497   , -0.185186625, -0.00177148427, 8.359976E-05, -0.00057040964, 1.55255163  , -0.0135403369, -0.0001729224, 920.2724    , 29.925354   , 804.4285    , 2.99        , 3           , 255         , 0           , 0
-0.134217724, -9.801109   , -0.179405034, 3.405151E-05, -4.50031948E-05, 7.10629247E-05, 1.552552    , -0.0135410558, -0.000173359236, 920.2724    , 29.925354   , 804.4286    , 3           , 3           , 0           , 8.035236    , 300
-0.135088518, -9.794795   , -0.177160054, 0.00214953581, -0.000360344362, 0.000863093941, 1.55257809  , -0.013542329, -0.000176866466, 920.2724    , 29.925354   , 804.4518    , 3.01        , 3           , 1           , 0           , 0
-0.125030965, -9.790215   , -0.168219864, 0.0019551916, -0.0005931095, 0.00105519779, 1.55259776  , -0.0135529861, -0.000182604912, 920.2724    , 29.925354   , 804.452     , 3.02        , 3           , 2           , 0           , 0
-0.13362357 , -9.785182   , -0.169377059, 0.000226190547, 0.000305170019, 0.000186453428, 1.5526      , -0.0135547966, -0.0001795201, 920.2964    , 29.9271851  , 804.4523    , 3.03        , 3           , 3           , 0           , 0
-0.129584119, -9.79527    , -0.161213964, -0.00141753862, 0.000145586615, -0.000384568149, 1.55258584  , -0.0135509232, -0.000178134142, 920.2964    , 29.9271851  , 804.4525    , 3.04        , 3           , 4           , 0           , 0
-0.133639246, -9.800386   , -0.178364471, -0.00246481784, 0.000135993061, -0.000745316443, 1.55256116  , -0.0135434521, -0.000176909743, 920.2964    , 29.9271851  , 804.452759  , 3.05        , 3           , 5           , 0           , 0
-0.140912384, -9.805631   , -0.188948125, -0.00186460675, -6.233138E-05, 0.000189052662, 1.55254233  , -0.01354535 , -0.0001774989, 920.2964    , 29.9271851  , 804.453     , 3.06        , 3           , 6           , 0           , 0
-0.143852875, -9.806966   , -0.183109149, -0.000218208617, -7.05028651E-06, 0.000631745032, 1.55254018  , -0.0135516655, -0.000177454218, 920.2964    , 29.9271851  , 804.453247  , 3.07        , 3           , 7           , 0           , 0
-0.142961234, -9.790335   , -0.180457041, 0.0019058038, -0.00030594063, -0.000314800942, 1.55255926  , -0.0135485735, -0.0001805707, 920.2964    , 29.9271851  , 804.4535    , 3.08        , 3           , 8           , 5           , 5
-0.133994967, -9.793864   , -0.185800955, 0.00203497522, -0.000193195767, -0.000529765734, 1.55257964  , -0.0135433124, -0.000182599775, 920.2964    , 29.9271851  , 804.453735  , 3.09        , 3           , 9           , 5           , 0.1
-0.1341003  , -9.795208   , -0.183518022, 0.00167056662, -0.0007022089, -0.0003072415, 1.55259645  , -0.0135403685, -0.000189675673, 920.2964    , 29.9271851  , 804.454     , 3.1         , 3           , 10          , 0.1         , 0.1
-0.137329683, -9.79857349 , -0.167054355, 0.00182419259, -0.000364839274, -0.000560686, 1.55261612  , -0.0135387  , -0.00019344507, 920.2964    , 29.9271851  , 804.439758  , 3.11        , 3           , 11          , 0.00744522549, 0.007445219
-0.127465814, -9.796407   , -0.17675516 , 0.0017259001, -0.000176949543, -0.00131584 , 1.55263329  , -0.0135255763, -0.000195453133, 920.2964    , 29.9271851  , 804.439941  , 3.12        , 3           , 12          , 0.174645633 , 0
-0.135090619, -9.797337   , -0.17092219 , 0.00113287685, -0.000109179527, 0.000354382442, 1.55264461  , -0.0135291386, -0.000196480018, 920.25885   , 29.9225712  , 804.4401    , 3.13        , 3           , 13          , 0           , 0
-0.128738075, -9.792662   , -0.1719318  , 0.0009775151, -0.000225979136, -0.0002750473, 1.5526545   , -0.0135264276, -0.00019878993, 920.25885   , 29.9225712  , 804.4403    , 3.14        , 3           , 14          , 0.000374073046, 0.0008804917
-0.131866291, -9.792028   , -0.174040854, 0.000700743054, -0.000381687249, -0.000154819209, 1.55266142  , -0.0135249486, -0.000202634765, 920.25885   , 29.9225712  , 804.4405    , 3.15        , 3           , 15          , 0           , 0.000232687977
-0.130849972, -9.799809   , -0.177812845, 0.000472804939, 0.000337817357, -0.0005147242, 1.55266619  , -0.0135197425, -0.00019934967, 920.25885   , 29.9225712  , 804.4407    , 3.16        , 3           , 16          , 0           , 1.401298E-45
-0.130678415, -9.78872    , -0.174167022, 0.0003639221, -0.000163924356, -0.0007205417, 1.55266976  , -0.0135125685, -0.000201119314, 920.25885   , 29.9225712  , 804.440857  , 3.17        , 3           , 20          , 0           , 0
-0.115838788, -9.78795052 , -0.171396941, 0.000820983667, -0.0006045817, 0.000213208463, 1.552678    , -0.0135148093, -0.0002071255, 920.25885   , 29.9225712  , 804.44104   , 3.18        , 3           , 21          , 0           , 0
-0.120566763, -9.795693   , -0.167907968, 0.000206306577, -0.000442383171, 0.000293068064, 1.55268013  , -0.01351782 , -0.000211495688, 920.25885   , 29.9225712  , 804.4412    , 3.19        , 3           , 22          , 0           , 0
-0.130033061, -9.789972   , -0.161443427, -0.00109833968, -0.000368893147, 0.000113616057, 1.552669    , -0.0135190208, -0.000215163585, 920.25885   , 29.9225712  , 804.4414    , 3.2         , 3           , 40          , 0           , 0
-0.124820173, -9.78392    , -0.164565518, -0.00216401787, -4.63740434E-06, 0.0006678421, 1.55265808  , -0.013519546, -0.000215232954, 920.25885   , 29.9225712  , 804.4821    , 3.21        , 3           , 41          , 0           , 0
-0.127433687, -9.792276   , -0.178084508, -0.002088652, 0.000638917 , 0.000182227 , 1.55263722  , -0.0135212522, -0.0002088109, 920.25885   , 29.9225712  , 804.482544  , 3.22        , 3           , 42          , 0           , 0
-0.125375956, -9.786825   , -0.179379016, -0.000585417, 0.000223632087, 0.0005708318, 1.55263126  , -0.0135269193, -0.000206470751, 920.304138  , 29.92739    , 804.483     , 3.23        , 3           , 255         , 0           , 0
-0.118929423, -9.78887749 , -0.173602253, -0.000107660191, -1.27268722E-05, 0.00113638444, 1.55263031  , -0.0135382805, -0.0002063921, 920.304138  , 29.92739    , 804.4834    , 3.24        , 3           , 255         , 0           , 0
-0.124479152, -9.798273   , -0.1719727  , -0.0008366924, 3.29643954E-05, 0.000782356365, 1.552622    , -0.0135460971, -0.000205920354, 920.304138  , 29.92739    , 804.4838    , 3.25        , 3           , 255         , 0           , 0
