Acc X       , Acc Y       , Acc Z       , Gyro X      , Gyro Y      , Gyro Z      , Euler X     , Euler Y     , Euler Z     , Pres X      , Pres Y      , Pres Z      , Time        , Status      , LowRate X   , LowRate Y   , LowRate Z    
-0.131173566, 9.7851305   , 0.188763961 , 0           , 0           , 0           , -1.59008479 , -0.0134021016, 0           , 921.944031  , 32.50423    , 789.540955  , 0           , 2           , 0           , 5.5402317   , 0
-0.136401922, 9.797758    , 0.1706959   , -0.00138745841, 0.0002587995, -0.000102677106, -1.59009862 , -0.0134032024, -2.56881845E-06, 921.944031  , 32.50423    , 789.540955  , 0.01        , 3           , 1           , 0           , 0
-0.135509521, 9.799728    , 0.171106532 , -0.00177364063, 0.00021466591, -3.61146231E-05, -1.59011626 , -0.0134036047, -4.70779332E-06, 921.944031  , 32.50423    , 789.540955  , 0.02        , 3           , 2           , 0           , 0
-0.1311959  , 9.793266    , 0.170487732 , -0.00146775285, -0.000108360837, 0.0005828495, -1.59013093 , -0.013397756, -3.736802E-06, 921.8858    , 32.0561333  , 789.540955  , 0.03        , 3           , 3           , 0           , 0
-0.136790544, 9.809445    , 0.173415318 , -0.0009209435, -9.172625E-05, 0.0004054116, -1.5901401  , -0.0133936852, -2.89807053E-06, 921.8858    , 32.0561333  , 789.540955  , 0.04        , 3           , 4           , 0           , 0
-0.125183538, 9.800845    , 0.175245017 , -0.000209691178, 0.0002633128, 0.0003106277, -1.59014225 , -0.0133906323, -5.59029968E-06, 921.8858    , 32.0561333  , 789.540955  , 0.05        , 3           , 5           , 0           , 0
-0.12125361 , 9.80127     , 0.178506285 , -8.26270043E-05, 0.000130400149, 0.0001405614, -1.59014308 , -0.0133892521, -6.921279E-06, 921.8858    , 32.0561333  , 789.540955  , 0.06        , 3           , 6           , 0           , 0
-0.128658876, 9.796066    , 0.174649268 , 0.000315558835, -0.000186385761, 0.000101809594, -1.59013987 , -0.0133881969, -5.07756067E-06, 921.8858    , 32.0561333  , 789.540955  , 0.07        , 3           , 7           , 0           , 0
-0.132577389, 9.793642    , 0.168132216 , -0.0004779428, -4.32402E-05, 5.00933966E-05, -1.59014475 , -0.01338769 , -4.65563335E-06, 921.8858    , 32.0561333  , 789.540955  , 0.08        , 3           , 8           , 5           , 5
-0.133959651, 9.795451    , 0.173230574 , 0.000222749135, -0.000195570639, -0.0001475573, -1.59014249 , -0.0133891273, -2.67173823E-06, 921.8858    , 32.0561333  , 789.540955  , 0.09        , 3           , 9           , 5           , 0.1
-0.1372852  , 9.795872    , 0.166457817 , -0.000306349568, 0.000100076577, 0.0003674079, -1.59014559 , -0.0133854719, -3.74378646E-06, 921.8858    , 32.0561333  , 789.540955  , 0.1         , 3           , 10          , 0.1         , 0.1
-0.135000288, 9.785527    , 0.171633244 , -0.0006433278, 5.29681856E-05, -8.37490952E-05, -1.59010243 , -0.0133881317, -4.9196874E-06, 921.8858    , 32.0561333  , 790.0643    , 0.11        , 3           , 11          , 0.0109544508, 0.0109544508
-0.129196957, 9.793588    , 0.1595579   , 0.00038783942, 0.00013350189, -4.38302231E-05, -1.59009862 , -0.0133885974, -6.24647464E-06, 921.8858    , 32.0561333  , 790.0643    , 0.12        , 3           , 12          , 0.174642488 , 0
-0.127138525, 9.794563    , 0.165296212 , 0.000134512025, -0.000104442326, -0.00019247891, -1.59009719 , -0.0133905038, -5.16464661E-06, 921.880066  , 32.0956879  , 790.0643    , 0.13        , 3           , 13          , 0           , 0
-0.121340036, 9.789794    , 0.1641012   , -4.75130619E-05, 0.0002857237, -0.000108816821, -1.59009767 , -0.0133916466, -7.999847E-06, 921.880066  , 32.0956879  , 790.0643    , 0.14        , 3           , 14          , 8.07935357E-05, -0.000369154121
-0.126670435, 9.792299    , 0.181344137 , -5.40337E-05, -8.667674E-06, -0.000195123663, -1.59009826 , -0.013393593, -7.87597E-06, 921.880066  , 32.0956879  , 790.064331  , 0.15        , 3           , 15          , 0           , -0.000111865113
-0.130270928, 9.796336    , 0.169228286 , -0.000810302736, -0.000286426366, -0.000473836553, -1.59010649 , -0.0133982748, -4.921085E-06, 921.880066  , 32.0956879  , 790.0644    , 0.16        , 3           , 16          , 0           , 1.401298E-45
-0.137575462, 9.796589    , 0.1694701   , -0.000962703838, 0.00038100878, 7.627983E-06, -1.59011614 , -0.0133982729, -8.73146746E-06, 921.880066  , 32.0956879  , 790.064453  , 0.17        , 3           , 20          , 0           , 0
-0.13722226 , 9.791477    , 0.161078691 , -0.0006284129, 0.000137094408, 0.000261799723, -1.59012246 , -0.013395682, -1.0151397E-05, 921.880066  , 32.0956879  , 790.0645    , 0.18        , 3           , 21          , 0           , 0
-0.135136217, 9.796976    , 0.16372332  , -0.000605166133, 0.000125563587, -7.08509E-05, -1.59012842 , -0.0133964149, -1.13934266E-05, 921.880066  , 32.0956879  , 790.0646    , 0.19        , 3           , 22          , 0           , 0
-0.134131938, 9.795511    , 0.1712244   , -0.0009772899, -0.000130694563, 0.000171791864, -1.59013832 , -0.0133946724, -1.01197284E-05, 921.880066  , 32.0956879  , 790.064636  , 0.2         , 3           , 40          , 0           , 0
-0.138267413, 9.794644    , 0.174967721 , -0.000362205756, -0.00016714618, 0.000510728452, -1.5900631  , -0.0133902058, -9.602797E-06, 921.880066  , 32.0956879  , 790.0911    , 0.21        , 3           , 41          , 0           , 0
-0.137051716, 9.799281    , 0.171276718 , -9.28519E-05, -0.000147432758, -0.000254335057, -1.590064   , -0.0133927213, -8.079947E-06, 921.880066  , 32.0956879  , 790.0912    , 0.22        , 3           , 42          , 0           , 0
-0.134360418, 9.798712    , 0.169577926 , -8.24467061E-05, -0.0005448288, 6.50730653E-05, -1.59006488 , -0.0133919641, -2.64472783E-06, 921.9147    , 32.12106    , 790.091248  , 0.23        , 3           , 255         , 0           , 0
-0.1416781  , 9.79107952  , 0.163132936 , -0.000367289176, 4.9113296E-05, -0.00053437613, -1.59006858 , -0.0133973164, -3.03265847E-06, 921.9147    , 32.12106    , 790.0913    , 0.24        , 3           , 255         , 0           , 0
-0.131306067, 9.794138    , 0.1711959   , -0.000544854731, 5.61624474E-05, -0.000391876267, -1.59007406 , -0.0134012448, -3.518387E-06, 921.9147    , 32.12106    , 790.0914    , 0.25        , 3           , 255         , 0           , 0
-0.1324747  , 9.794061    , 0.172146291 , -0.000258970278, 0.00010876538, -0.000177823254, -1.59007668 , -0.0134030441, -4.57134229E-06, 921.9147    , 32.12106    , 790.091431  , 0.26        , 3           , 255         , 0           , 0
-0.121402822, 9.795356    , 0.162217647 , 0.000316797727, -0.000428043859, 7.11668254E-05, -1.59007347 , -0.0134022525, -3.05966921E-07, 921.9147    , 32.12106    , 790.0915    , 0.27        , 3           , 255         , 0           , 0
-0.1259943  , 9.790393    , 0.1687779   , 0.000293383666, -0.0006691271, 4.992129E-05, -1.59007061 , -0.013401621, 6.374079E-06, 921.9147    , 32.12106    , 790.091553  , 0.28        , 3           , 255         , 0           , 0
-0.130402923, 9.79199     , 0.167714566 , 0.000207852252, -0.000279637374, 0.0004450112, -1.59006858 , -0.01339712 , 9.084935E-06, 921.9147    , 32.12106    , 790.0916    , 0.29        , 3           , 255         , 0           , 0
-0.134945869, 9.797347    , 0.173125476 , 7.128092E-05, 0.0003371085, -0.0002646746, -1.59006786 , -0.0133998292, 5.76587036E-06, 921.9147    , 32.12106    , 790.0917    , 0.3         , 3           , 255         , 0           , 0
-0.136204839, 9.797431    , 0.1676475   , 0.000211821054, 7.69467442E-05, 0.000222761882, -1.59000278 , -0.0134025393, 4.10843268E-06, 921.9147    , 32.12106    , 789.9958    , 0.31        , 3           , 255         , 0           , 0
-0.13229771 , 9.796262    , 0.168935925 , -0.000666740467, -0.000195735833, -0.000117299394, -1.59000945 , -0.0134036737, 6.08906839E-06, 921.9147    , 32.12106    , 789.99585   , 0.32        , 3           , 255         , 0           , 0
-0.1285723  , 9.807549    , 0.159009248 , -0.0002288103, -5.67152747E-05, -0.0001340688, -1.5900116  , -0.0134050027, 6.68097755E-06, 921.957458  , 32.13741    , 789.9959    , 0.33        , 3           , 255         , 0           , 0
-0.135572165, 9.80024     , 0.175938755 , -0.0005212084, -8.945554E-05, -0.000365666638, -1.590017   , -0.0134086395, 7.64545E-06 , 921.957458  , 32.13741    , 789.996     , 0.34        , 3           , 255         , 0           , 0
-0.132221252, 9.798265    , 0.170129076 , 5.123023E-05, -0.000727127248, -0.000294772268, -1.59001648 , -0.01341145 , 1.49723564E-05, 921.957458  , 32.13741    , 789.996033  , 0.35        , 3           , 255         , 0           , 0
-0.139517292, 9.798475    , 0.173808187 , -0.0001716571, -0.00083604356, -0.000219656882, -1.59001815 , -0.0134134833, 2.33736446E-05, 921.957458  , 32.13741    , 789.9961    , 0.36        , 3           , 255         , 0           , 0
-0.136273637, 9.797869    , 0.162445948 , -0.000147988583, -0.000187252183, -0.0002455231, -1.5900197  , -0.013415901, 2.52932732E-05, 921.957458  , 32.13741    , 789.996155  , 0.37        , 3           , 255         , 0           , 0
-0.1351454  , 9.808638    , 0.177088529 , -0.0006164881, 0.000141838114, -0.000144611462, -1.59002578 , -0.0134173743, 2.39026831E-05, 921.957458  , 32.13741    , 789.9962    , 0.38        , 3           , 255         , 0           , 0
-0.141301125, 9.798007    , 0.173978925 , -0.000873871555, -0.0001542939, -4.96955181E-05, -1.5900346  , -0.0134178419, 2.54544066E-05, 921.957458  , 32.13741    , 789.9963    , 0.39        , 3           , 255         , 0           , 0
-0.135116622, 9.797572    , 0.17177     , -0.000561817433, 7.696243E-05, -0.000133596564, -1.59004021 , -0.0134191914, 2.47102143E-05, 921.957458  , 32.13741    , 789.996338  , 0.4         , 3           , 255         , 0           , 0
-0.1343074  , 9.788348    , 0.1742015   , -0.000643313047, -8.33970262E-05, -0.0001242671, -1.59000278 , -0.0134294722, 2.49793939E-05, 921.957458  , 32.13741    , 789.850159  , 0.41        , 3           , 255         , 0           , 0
-0.133316353, 9.792671    , 0.169804335 , -0.0005082021, 0.0004607065, 0.000246692332, -1.59000778 , -0.0134270946, 2.03256186E-05, 921.957458  , 32.13741    , 789.8502    , 0.42        , 3           , 255         , 0           , 0
-0.130671874, 9.788265    , 0.17107065  , -0.000121395024, 0.000371435424, 0.000167140985, -1.590009   , -0.0134254945, 1.65795E-05 , 921.903259  , 32.14562    , 789.8503    , 0.43        , 3           , 255         , 0           , 0
-0.130056217, 9.792389    , 0.172694176 , 3.48291578E-05, -3.1052652E-05, -0.0003732636, -1.59000862 , -0.01342922 , 1.69618434E-05, 921.903259  , 32.14562    , 789.850342  , 0.44        , 3           , 255         , 0           , 0
-0.125973672, 9.793943    , 0.17774114  , -0.0001745869, 0.000273508922, 0.000477485853, -1.59001029 , -0.0134245  , 1.41354913E-05, 921.903259  , 32.14562    , 789.8504    , 0.45        , 3           , 255         , 0           , 0
-0.13975358 , 9.794733    , 0.167799443 , -8.71563E-05, -0.0002741886, 0.0003381726, -1.59001124 , -0.013421067, 1.68118859E-05, 921.903259  , 32.14562    , 789.850464  , 0.46        , 3           , 255         , 0           , 0
-0.137715369, 9.787127    , 0.178927034 , 0.000690252229, -0.000460192765, 0.0002856375, -1.59000432 , -0.01341812 , 2.13580824E-05, 921.903259  , 32.14562    , 789.8505    , 0.47        , 3           , 255         , 0           , 0
-0.1386197  , 9.801311    , 0.168943658 , 0.000443317665, 0.000133369016, -0.00018326682, -1.58999979 , -0.0134199793, 2.00601662E-05, 921.903259  , 32.14562    , 789.8506    , 0.48        , 3           , 255         , 0           , 0
-0.131554633, 9.794349    , 0.1684284   , 0.0002821333, 9.180198E-05, -0.0005432608, -1.58999693 , -0.0134254284, 1.924612E-05, 921.903259  , 32.14562    , 789.850647  , 0.49        , 3           , 255         , 0           , 0
-0.121809378, 9.799385    , 0.163880721 , 0.000584537 , -0.000379290752, -0.000408108, -1.58999109 , -0.0134294359, 2.31170434E-05, 921.903259  , 32.14562    , 789.850769  , 0.5         , 3           , 255         , 0           , 0
-0.1254142  , 9.792841    , 0.163244441 , 0.000831554469, -0.000198080641, -0.00069107936, -1.58992636 , -0.0134391971, 2.44708517E-05, 921.903259  , 32.14562    , 789.862854  , 0.51        , 3           , 255         , 0           , 0
-0.125193611, 9.795314    , 0.162673    , 0.0005369842, -0.000595500343, 0.0007102521, -1.589921   , -0.0134319859, 3.02888748E-05, 921.903259  , 32.14562    , 789.863     , 0.52        , 3           , 255         , 0           , 0
-0.13441138 , 9.795211    , 0.1633834   , -0.000342171174, 0.000194221939, 0.0003563892, -1.58992434 , -0.0134284561, 2.82784349E-05, 921.9282    , 32.15566    , 789.8631    , 0.53        , 3           , 255         , 0           , 0
-0.133753017, 9.79981     , 0.159805208 , -0.000592346769, 0.000280563545, -0.000106469946, -1.58993018 , -0.0134295747, 2.54935276E-05, 921.9282    , 32.15566    , 789.8632    , 0.54        , 3           , 255         , 0           , 0
-0.138186052, 9.790489    , 0.162026688 , -0.000437128416, 0.0001710957, 0.000184311677, -1.58993459 , -0.013427766, 2.3747607E-05, 921.9282    , 32.15566    , 789.863342  , 0.55        , 3           , 255         , 0           , 0
-0.138033673, 9.783945    , 0.162384361 , -0.0006070819, 0.000590675161, -6.3461106E-05, -1.58994055 , -0.0134285111, 1.78541341E-05, 921.9282    , 32.15566    , 789.863464  , 0.56        , 3           , 255         , 0           , 0
-0.127439618, 9.79076     , 0.170677513 , -0.000625046843, -8.918546E-05, 0.000357062963, -1.58994687 , -0.0134249246, 1.867796E-05, 921.9282    , 32.15566    , 789.8636    , 0.57        , 3           , 255         , 0           , 0
-0.1257048  , 9.794246    , 0.166239589 , -0.000912126037, -0.000574481, 0.00121488783, -1.589956   , -0.0134126674, 2.41895577E-05, 921.9282    , 32.15566    , 789.8637    , 0.58        , 3           , 255         , 0           , 0
-0.13053453 , 9.799274    , 0.16838032  , -0.00087402924, -0.0005467016, 0.000958378951, -1.58996487 , -0.0134029845, 2.94710826E-05, 921.9282    , 32.15566    , 789.863831  , 0.59        , 3           , 255         , 0           , 0
-0.131611824, 9.788832    , 0.1668935   , 0.000149030428, -2.58272339E-05, -3.49149341E-05, -1.5899632  , -0.0134033263, 2.973654E-05, 921.9282    , 32.15566    , 789.863953  , 0.6         , 3           , 255         , 0           , 0
-0.126100466, 9.79925     , 0.164950281 , 0.0004752372, 8.81037558E-05, -0.000371898466, -1.58988273 , -0.0134053929, 2.791052E-05, 921.9282    , 32.15566    , 789.8328    , 0.61        , 3           , 255         , 0           , 0
-0.123425029, 9.795313    , 0.163783416 , 2.87964722E-05, 0.000105506682, 0.0002645594, -1.58988237 , -0.0134027665, 2.680401E-05, 921.9282    , 32.15566    , 789.832947  , 0.62        , 3           , 255         , 0           , 0
-0.131656677, 9.797534    , 0.165295109 , -0.000321724277, -7.034661E-05, 0.000240797686, -1.58988559 , -0.013400347, 2.7462047E-05, 921.9286    , 32.1627159  , 789.833069  , 0.63        , 3           , 255         , 0           , 0
-0.137224346, 9.797391    , 0.1687834   , -5.20411377E-05, -0.000473835622, -0.000247615157, -1.58988619 , -0.0134027321, 3.224668E-05, 921.9286    , 32.1627159  , 789.8332    , 0.64        , 3           , 255         , 0           , 0
-0.131763786, 9.787329    , 0.1653114   , 0.000468348037, -0.0001543414, 0.000342339568, -1.58988142 , -0.01339928 , 3.37248239E-05, 921.9286    , 32.1627159  , 789.8333    , 0.65        , 3           , 255         , 0           , 0
-0.128994867, 9.788073    , 0.157632142 , 0.000847554067, 0.000288341078, 0.000387361331, -1.58987284 , -0.01339546 , 3.07671435E-05, 921.9286    , 32.1627159  , 789.833435  , 0.66        , 3           , 255         , 0           , 0
-0.123587407, 9.797152    , 0.173616856 , -0.00017510193, 0.000131863111, -2.096381E-05, -1.58987463 , -0.013395695, 2.94524616E-05, 921.9286    , 32.1627159  , 789.833557  , 0.67        , 3           , 255         , 0           , 0
-0.129978061, 9.795096    , 0.1671811   , 0.000103998311, 0.000116435491, 0.000517460634, -1.58987355 , -0.0133905439, 2.818994E-05, 921.9286    , 32.1627159  , 789.8337    , 0.68        , 3           , 255         , 0           , 0
-0.136589676, 9.787241    , 0.16058524  , -0.00167404371, -1.746876E-05, -0.000456867041, -1.58989024 , -0.0133951083, 2.84516664E-05, 921.9286    , 32.1627159  , 789.8338    , 0.69        , 3           , 255         , 0           , 0
-0.133016482, 9.796855    , 0.1865907   , -0.00145894848, 0.000442196615, -0.000287505682, -1.58990479 , -0.0133980671, 2.40847676E-05, 921.9286    , 32.1627159  , 789.8339    , 0.7         , 3           , 255         , 0           , 0
-0.134794787, 9.80286     , 0.167525142 , -0.0009074961, 0.000160977128, 0.000370457739, -1.589855   , -0.0133912722, 2.161654E-05, 921.9286    , 32.1627159  , 789.8108    , 0.71        , 3           , 255         , 0           , 0
-0.144390658, 9.798715    , 0.172501683 , 0.000208006764, -0.00019333 , 0.000231335551, -1.589853   , -0.0133889252, 2.35058942E-05, 921.9286    , 32.1627159  , 789.8109    , 0.72        , 3           , 255         , 0           , 0
-0.133009255, 9.790393    , 0.165803984 , 0.00076266384, -0.000291275035, 0.0001152858, -1.5898453  , -0.0133877164, 2.63965121E-05, 921.916443  , 32.1632576  , 789.811035  , 0.73        , 3           , 255         , 0           , 0
-0.135174349, 9.795622    , 0.17063266  , 0.0002856813, 0.0002226211, 0.0006186538, -1.58984244 , -0.0133815743, 2.4053561E-05, 921.916443  , 32.1632576  , 789.811157  , 0.74        , 3           , 255         , 0           , 0
-0.1331913  , 9.802669    , 0.161965072 , -7.14022462E-05, 0.000137691808, 0.000338481972, -1.589843   , -0.013378216, 2.26112788E-05, 921.916443  , 32.1632576  , 789.8113    , 0.75        , 3           , 255         , 0           , 0
-0.145065069, 9.798588    , 0.170347735 , -0.000162775163, 0.000360633072, -0.000459988281, -1.5898447  , -0.0133828847, 1.90938226E-05, 921.916443  , 32.1632576  , 789.8114    , 0.76        , 3           , 255         , 0           , 0
-0.129115611, 9.793322    , 0.162344262 , -0.000103658749, -0.000225137919, 0.000277915562, -1.58984578 , -0.0133800637, 2.12914747E-05, 921.916443  , 32.1632576  , 789.8115    , 0.77        , 3           , 255         , 0           , 0
-0.133103237, 9.787201    , 0.17235662  , -0.000263751281, -9.851757E-05, -0.000313841156, -1.5898484  , -0.0133831808, 2.23365132E-05, 921.916443  , 32.1632576  , 789.811646  , 0.78        , 3           , 255         , 0           , 0
-0.132649064, 9.791778    , 0.161365137 , -0.000481969153, 8.98350554E-05, -0.000187550148, -1.58985317 , -0.0133850733, 2.14735664E-05, 921.916443  , 32.1632576  , 789.811768  , 0.79        , 3           , 255         , 0           , 0
-0.132074356, 9.794943    , 0.168821141 , -0.000616784731, 0.00038918198, 0.000204595 , -1.58985937 , -0.0133831007, 1.75435E-05 , 921.916443  , 32.1632576  , 789.8119    , 0.8         , 3           , 255         , 0           , 0
-0.126983419, 9.786624    , 0.166524291 , -0.000158178416, -0.000262057729, -0.000179995346, -1.58980966 , -0.0133959539, 1.95124958E-05, 921.916443  , 32.1632576  , 789.809     , 0.81        , 3           , 255         , 0           , 0
-0.137356877, 9.797987    , 0.167911664 , -4.90146922E-05, -0.000391288573, 0.000239651563, -1.58981025 , -0.0133934841, 2.33787614E-05, 921.916443  , 32.1632576  , 789.809143  , 0.82        , 3           , 255         , 0           , 0
-0.139165863, 9.790319    , 0.171690792 , -0.000112033522, 0.000235272862, -0.000172627042, -1.58981144 , -0.0133952545, 2.10590952E-05, 921.939758  , 32.1642761  , 789.809265  , 0.83        , 3           , 255         , 0           , 0
-0.139667347, 9.792679    , 0.172254354 , 0.000337432954, 0.000116987183, -0.0005602913, -1.589808   , -0.0134008788, 1.999543E-05, 921.939758  , 32.1642761  , 789.8094    , 0.84        , 3           , 255         , 0           , 0
-0.1375942  , 9.791593    , 0.168549329 , 0.000387168984, 0.0002293832, 0.0007983145, -1.58980417 , -0.013392942, 1.75504847E-05, 921.939758  , 32.1642761  , 789.8095    , 0.85        , 3           , 255         , 0           , 0
-0.122617051, 9.794694    , 0.167198971 , -0.000191497733, 0.00010931259, 0.000192184641, -1.589806   , -0.0133910421, 1.64211542E-05, 921.939758  , 32.1642761  , 789.809631  , 0.86        , 3           , 255         , 0           , 0
-0.112547696, 9.797236    , 0.173031926 , -0.0006997562, -0.000102599559, -0.000455086585, -1.589813   , -0.0133955721, 1.75332552E-05, 921.939758  , 32.1642761  , 789.809753  , 0.87        , 3           , 255         , 0           , 0
-0.1205254  , 9.798288    , 0.164265424 , -0.000801702554, -0.000312351534, -0.000175226945, -1.589821   , -0.0133972634, 2.06893255E-05, 921.939758  , 32.1642761  , 789.8099    , 0.88        , 3           , 255         , 0           , 0
-0.126103073, 9.792807    , 0.1703068   , -0.0005561699, -0.0002995206, -0.000372245937, -1.58982658 , -0.0134009263, 2.37545846E-05, 921.939758  , 32.1642761  , 789.81      , 0.89        , 3           , 255         , 0           , 0
-0.134548038, 9.794417    , 0.160594985 , 0.000293940539, 0.0002954409, -7.054833E-05, -1.5898236  , -0.0134016881, 2.0813668E-05, 921.939758  , 32.1642761  , 789.8101    , 0.9         , 3           , 255         , 0           , 0
-0.136147529, 9.794736    , 0.16780898  , 0.000757869566, 0.000300811575, -0.000305287365, -1.58976364 , -0.0134003824, 1.71625579E-05, 921.939758  , 32.1642761  , 789.781     , 0.91        , 3           , 255         , 0           , 0
-0.133144066, 9.809979    , 0.159769    , 0.000698511838, -4.6289264E-05, -0.000398604549, -1.58975661 , -0.0134043591, 1.77009115E-05, 921.939758  , 32.1642761  , 789.7811    , 0.92        , 3           , 255         , 0           , 0
-0.135079443, 9.78748     , 0.162495762 , 0.000119107208, -7.980139E-05, -0.00057835487, -1.58975542 , -0.0134101268, 1.86081015E-05, 921.943542  , 32.17011    , 789.78125   , 0.93        , 3           , 255         , 0           , 0
-0.135997251, 9.791278    , 0.1678386   , -0.000294850441, -0.000100894656, 0.000124794184, -1.5897584  , -0.0134088583, 1.95930643E-05, 921.943542  , 32.17011    , 789.7814    , 0.94        , 3           , 255         , 0           , 0
-0.126533836, 9.803363    , 0.170831412 , 9.588155E-06, 0.000151402957, -0.0004158431, -1.58975816 , -0.0134130437, 1.81573032E-05, 921.943542  , 32.17011    , 789.7815    , 0.95        , 3           , 255         , 0           , 0
-0.12457341 , 9.793246    , 0.1650641   , -0.0002296873, -0.000235468236, -0.0003778211, -1.58976054 , -0.0134167764, 2.05826855E-05, 921.943542  , 32.17011    , 789.7816    , 0.96        , 3           , 255         , 0           , 0
-0.122087434, 9.787031    , 0.169578686 , -0.0006326935, -0.000346279325, -0.00118031027, -1.58976686 , -0.013428512, 2.42691931E-05, 921.943542  , 32.17011    , 789.781738  , 0.97        , 3           , 255         , 0           , 0
-0.134826973, 9.785426    , 0.16652289  , -0.000560139655, -0.0002541383, -0.0005613474, -1.58977246 , -0.0134340767, 2.691672E-05, 921.943542  , 32.17011    , 789.78186   , 0.98        , 3           , 255         , 0           , 0
-0.127148867, 9.785324    , 0.174567491 , 0.000189942162, 0.000336529745, -0.000342697022, -1.58977056 , -0.0134375673, 2.36176784E-05, 921.943542  , 32.17011    , 789.782     , 0.99        , 3           , 255         , 0           , 0
-0.129810214, 9.796782    , 0.152635425 , 0.0007972873, -3.44310829E-05, -0.000345415261, -1.58976257 , -0.0134410141, 2.40275E-05 , 921.943542  , 32.17011    , 789.7821    , 1           , 3           , 0           , 6.54023647  , 100
-0.141857386, 9.817194    , 0.1627973   , 0.000685730833, 0.000140444157, 0.00013796112, -1.58969808 , -0.0134372525, 2.18223922E-05, 921.943542  , 32.17011    , 789.7537    , 1.01        , 3           , 1           , 0           , 0
-0.14070417 , 9.810265    , 0.161906749 , 0.00105392083, -0.000197154324, 0.0003094533, -1.58968759 , -0.0134341214, 2.373457E-05, 921.943542  , 32.17011    , 789.7538    , 1.02        , 3           , 2           , 0           , 0
-0.129507333, 9.795943    , 0.162239179 , 0.00150072831, -0.000117779331, 0.0003078525, -1.58967257 , -0.0134310219, 2.48541219E-05, 921.914063  , 32.1688881  , 789.753845  , 1.03        , 3           , 3           , 0           , 0
-0.131373987, 9.79301     , 0.151015013 , -0.000480070419, -0.000172925851, -0.00025159106, -1.58967745 , -0.013433503, 2.66303141E-05, 921.914063  , 32.1688881  , 789.7539    , 1.04        , 3           , 4           , 0           , 0
-0.129175946, 9.796132    , 0.160975263 , -0.00110695534, -0.00021928348, 6.70391455E-05, -1.58968854 , -0.0134327915, 2.88098054E-05, 921.914063  , 32.1688881  , 789.753967  , 1.05        , 3           , 5           , 0           , 0
-0.124715827, 9.782722    , 0.158260658 , -0.0009418656, -9.915323E-05, -0.000340619619, -1.58969784 , -0.0134361777, 2.98655559E-05, 921.914063  , 32.1688881  , 789.754     , 1.06        , 3           , 6           , 0           , 0
-0.12808466 , 9.782706    , 0.163991943 , -0.000216788292, 3.34123324E-05, -0.000120545963, -1.5897     , -0.01343739 , 2.95544633E-05, 921.914063  , 32.1688881  , 789.7541    , 1.07        , 3           , 7           , 0           , 0
-0.135377273, 9.801082    , 0.164680049 , 0.000335174438, 7.135657E-05, -0.000111754656, -1.58969665 , -0.013438521, 2.886243E-05, 921.914063  , 32.1688881  , 789.75415   , 1.08        , 3           , 8           , 5           , 5
-0.1430219  , 9.794929    , 0.1615835   , -0.000104178383, -0.000497579, 0.0004182411, -1.58969772 , -0.0134342462, 3.375837E-05, 921.914063  , 32.1688881  , 789.7542    , 1.09        , 3           , 9           , 5           , 0.1
-0.131940961, 9.788823    , 0.161561638 , -0.000361538783, 0.000203753356, 0.0004975466, -1.58970129 , -0.0134293111, 3.16268379E-05, 921.914063  , 32.1688881  , 789.7543    , 1.1         , 3           , 10          , 0.1         , 0.1
-0.125304133, 9.78935051  , 0.169572979 , -0.0007370386, -0.000216072833, 3.32497075E-05, -1.589651   , -0.0134336008, 3.30076546E-05, 921.914063  , 32.1688881  , 789.761047  , 1.11        , 3           , 11          , 0.00942929648, 0.009429296
-0.124083772, 9.793261    , 0.1676456   , -0.00113077066, -3.13860946E-05, -0.000287075032, -1.58966243 , -0.0134364646, 3.33755634E-05, 921.914063  , 32.1688881  , 789.761169  , 1.12        , 3           , 12          , 0.174642846 , 0
-0.125338763, 9.789514    , 0.163107276 , -0.00042172597, -0.0005332803, -0.000271269644, -1.5896666  , -0.013439076, 3.8758164E-05, 921.911743  , 32.16855    , 789.7613    , 1.13        , 3           , 13          , 0           , 0
-0.129910335, 9.794919    , 0.171992987 , -0.000364936044, -0.0005385843, -0.000339264952, -1.58967018 , -0.0134423664, 4.420643E-05, 921.911743  , 32.16855    , 789.7614    , 1.14        , 3           , 14          , 8.040152E-05, -0.000369159621
-0.127484232, 9.794386    , 0.160763025 , -0.000246548734, -0.000383519917, -0.0003966611, -1.5896728  , -0.0134462612, 4.81160059E-05, 921.911743  , 32.16855    , 789.761536  , 1.15        , 3           , 15          , 0           , -0.00011185406
-0.134267285, 9.788622    , 0.1679031   , -0.000155164162, -7.521303E-06, 0.000298045954, -1.58967423 , -0.0134432781, 4.81351053E-05, 921.911743  , 32.16855    , 789.761658  , 1.16        , 3           , 16          , 0           , 1.401298E-45
-0.133963972, 9.79381752  , 0.163676679 , -0.000541885733, 1.8257706E-05, -0.0003040812, -1.5896796  , -0.0134463217, 4.80098279E-05, 921.911743  , 32.16855    , 789.7618    , 1.17        , 3           , 20          , 0           , 0
-0.132462   , 9.79323     , 0.169617549 , -0.0006749986, -0.000104629144, 0.00021011784, -1.58968639 , -0.0134442011, 4.901621E-05, 921.911743  , 32.16855    , 789.7619    , 1.18        , 3           , 21          , 0           , 0
-0.123339966, 9.801139    , 0.169127956 , -0.000263447, 6.214567E-05, -0.000485301134, -1.589689   , -0.0134490645, 4.8486716E-05, 921.911743  , 32.16855    , 789.762     , 1.19        , 3           , 22          , 0           , 0
-0.12129388 , 9.79744148  , 0.169059411 , 0.000392173533, -0.000202536758, -0.00111808523, -1.5896852  , -0.0134602059, 5.072349E-05, 921.911743  , 32.16855    , 789.762146  , 1.2         , 3           , 40          , 0           , 0
-0.131323665, 9.790676    , 0.155933946 , 0.000918604 , -0.0003470147, -0.000116231357, -1.589628   , -0.0134505313, 5.3568E-05  , 921.911743  , 32.16855    , 789.7703    , 1.21        , 3           , 41          , 0           , 0
-0.135571882, 9.793303    , 0.159796268 , 0.0002612113, -0.000460711657, -0.000269607321, -1.58962536 , -0.013453139, 5.82250432E-05, 921.911743  , 32.16855    , 789.770447  , 1.22        , 3           , 42          , 0           , 0
-0.129861429, 9.792615    , 0.153760344 , -7.76617E-05, -0.000211723789, 0.000225786978, -1.58962619 , -0.0134508442, 6.03002081E-05, 921.9253    , 32.17004    , 789.770569  , 1.23        , 3           , 255         , 0           , 0
-0.138827339, 9.793154    , 0.158726439 , -3.83693732E-05, -0.000178636925, 0.00044712337, -1.58962655 , -0.0134463385, 6.200188E-05, 921.9253    , 32.17004    , 789.7707    , 1.24        , 3           , 255         , 0           , 0
-0.137616232, 9.797928    , 0.160721451 , -0.000227233075, -0.000244571, -0.00018457367, -1.58962882 , -0.0134481369, 6.44826941E-05, 921.9253    , 32.17004    , 789.7708    , 1.25        , 3           , 255         , 0           , 0
-0.134295136, 9.795206    , 0.165296927 , -0.000445498736, -0.000317212136, 0.000336200261, -1.58963335 , -0.0134447152, 6.75908E-05 , 921.9253    , 32.17004    , 789.770935  , 1.26        , 3           , 255         , 0           , 0
-0.122628972, 9.788107    , 0.161220908 , -0.000422921876, -8.032838E-05, 0.0007251947, -1.58963752 , -0.01343745 , 6.825768E-05, 921.9253    , 32.17004    , 789.771057  , 1.27        , 3           , 255         , 0           , 0
-0.127869248, 9.793344    , 0.170275167 , -0.0004594056, -0.000459051749, 0.000146372127, -1.58964217 , -0.0134359021, 7.28197E-05 , 921.9253    , 32.17004    , 789.77124   , 1.28        , 3           , 255         , 0           , 0
-0.135292366, 9.794493    , 0.160281122 , -0.0007390028, -0.000537208864, -0.000375728967, -1.58964956 , -0.0134395538, 7.826146E-05, 921.9253    , 32.17004    , 789.7714    , 1.29        , 3           , 255         , 0           , 0
-0.134959072, 9.793474    , 0.1671159   , -0.000773483131, -0.0005072803, 0.000164247831, -1.58965731 , -0.0134378187, 8.33017548E-05, 921.9253    , 32.17004    , 789.7716    , 1.3         , 3           , 255         , 0           , 0
-0.132358283, 9.801152    , 0.167831346 , -0.00082951627, -5.690177E-06, 0.0003655584, -1.58960259 , -0.0134371668, 8.244393E-05, 921.9253    , 32.17004    , 789.7649    , 1.31        , 3           , 255         , 0           , 0
-0.130847424, 9.808856    , 0.163755774 , 8.182235E-05, 0.000728072249, 0.000291933859, -1.58960176 , -0.013434384, 7.510863E-05, 921.9253    , 32.17004    , 789.765     , 1.32        , 3           , 255         , 0           , 0
-0.117402479, 9.780194    , 0.161191419 , -0.00033063133, 0.000291578122, -0.000365574931, -1.589605   , -0.0134380935, 7.226272E-05, 921.907654  , 32.17072    , 789.765137  , 1.33        , 3           , 255         , 0           , 0
-0.122518718, 9.795729    , 0.169560626 , -0.0007656416, -0.000154647278, 4.85656637E-05, -1.58961272 , -0.0134375794, 7.379955E-05, 921.907654  , 32.17072    , 789.765259  , 1.34        , 3           , 255         , 0           , 0
-0.132906392, 9.796533    , 0.163363785 , -0.0011005979, 0.000242910726, 0.000966284133, -1.58962369 , -0.0134279644, 7.118927E-05, 921.907654  , 32.17072    , 789.7654    , 1.35        , 3           , 255         , 0           , 0
-0.141275853, 9.795599    , 0.1612089   , -0.0004217992, 8.40078E-05 , 0.00023225075, -1.589628   , -0.0134256575, 7.03049E-05 , 921.907654  , 32.17072    , 789.7655    , 1.36        , 3           , 255         , 0           , 0
-0.133795187, 9.786421    , 0.16299203  , -0.00051444344, 0.000402898178, -0.000116408373, -1.58963311 , -0.0134268971, 6.629845E-05, 921.907654  , 32.17072    , 789.7656    , 1.37        , 3           , 255         , 0           , 0
-0.138172522, 9.79603     , 0.160941869 , 3.05271242E-05, -0.00036726275, 0.0002126577, -1.58963275 , -0.0134247048, 6.993E-05   , 921.907654  , 32.17072    , 789.765747  , 1.38        , 3           , 255         , 0           , 0
-0.146557227, 9.796733    , 0.16795072  , -0.0005740007, 0.0001912083, 0.00044155895, -1.58963847 , -0.0134203276, 6.793492E-05, 921.907654  , 32.17072    , 789.765869  , 1.39        , 3           , 255         , 0           , 0
-0.128521591, 9.806871    , 0.171902791 , -0.000521274749, 0.000155773218, 0.000151605229, -1.58964372 , -0.0134188375, 6.63492E-05 , 921.907654  , 32.17072    , 789.766     , 1.4         , 3           , 255         , 0           , 0
-0.129741013, 9.795694    , 0.165416569 , -0.000772228464, -0.000466052123, 0.00037215653, -1.589609   , -0.01341684 , 7.036963E-05, 921.907654  , 32.17072    , 789.7781    , 1.41        , 3           , 255         , 0           , 0
-0.129165828, 9.795637    , 0.157462448 , -0.000617531, -0.0007583735, 0.0004168462, -1.58961523 , -0.01341253 , 7.78735E-05 , 921.907654  , 32.17072    , 789.778259  , 1.42        , 3           , 255         , 0           , 0
-0.137358785, 9.800159    , 0.159982175 , -0.000110834793, -0.000129142456, 0.0007628685, -1.5896163  , -0.0134048788, 7.902144E-05, 921.947266  , 32.171196   , 789.778442  , 1.43        , 3           , 255         , 0           , 0
-0.147343785, 9.800064    , 0.166157275 , -0.000845306553, -0.000401327881, -0.000188708538, -1.58962488 , -0.0134066911, 8.306933E-05, 921.947266  , 32.171196   , 789.7786    , 1.44        , 3           , 255         , 0           , 0
-0.132316679, 9.798286    , 0.169125974 , -0.0005434732, 1.55803864E-05, -0.000562905334, -1.58963037 , -0.0134123219, 8.302044E-05, 921.947266  , 32.171196   , 789.7789    , 1.45        , 3           , 255         , 0           , 0
-0.134583384, 9.79735     , 0.154320836 , -0.0003347133, 0.00016986113, 6.005561E-05, -1.58963382 , -0.0134117529, 8.13108345E-05, 921.947266  , 32.171196   , 789.7791    , 1.46        , 3           , 255         , 0           , 0
-0.137176543, 9.786157    , 0.163613126 , -0.0002021431, 8.30206845E-05, 0.000222049886, -1.58963573 , -0.0134095494, 8.043858E-05, 921.947266  , 32.171196   , 789.779358  , 1.47        , 3           , 255         , 0           , 0
-0.1317747  , 9.792893    , 0.161848351 , -0.000306444243, -0.0002766033, -0.000468530954, -1.58963883 , -0.01341418 , 8.329242E-05, 921.947266  , 32.171196   , 789.7796    , 1.48        , 3           , 255         , 0           , 0
-0.12883988 , 9.796877    , 0.1692444   , -0.000382329337, 7.64660654E-05, 0.0002532796, -1.58964264 , -0.0134116635, 8.247929E-05, 921.947266  , 32.171196   , 789.779846  , 1.49        , 3           , 255         , 0           , 0
-0.131175816, 9.791941    , 0.155806139 , -0.000476301473, 0.000212108382, -0.000195072964, -1.58964741 , -0.0134136537, 8.039574E-05, 921.947266  , 32.171196   , 789.7801    , 1.5         , 3           , 255         , 0           , 0
-0.132221028, 9.782321    , 0.15993233  , -0.0003458546, 1.06388179E-05, -3.897563E-06, -1.5896008  , -0.01341948 , 7.961756E-05, 921.947266  , 32.171196   , 789.7492    , 1.51        , 3           , 255         , 0           , 0
-0.13683717 , 9.786389    , 0.150531888 , -0.0002453134, -3.95583047E-05, -0.000430358457, -1.58960319 , -0.0134237753, 8.009305E-05, 921.947266  , 32.171196   , 789.749268  , 1.52        , 3           , 255         , 0           , 0
-0.125761718, 9.788042    , 0.164703235 , 0.00034611614, -0.0003769026, -0.000216363856, -1.58959973 , -0.013425868, 8.39024942E-05, 921.9318    , 32.173027   , 789.7493    , 1.53        , 3           , 255         , 0           , 0
-0.1288218  , 9.796652    , 0.161458552 , 0.000545032439, -0.000104376843, 1.84539531E-05, -1.58959424 , -0.013425664, 8.49428761E-05, 921.9318    , 32.173027   , 789.7494    , 1.54        , 3           , 255         , 0           , 0
-0.127680451, 9.799582    , 0.165010691 , 0.00012600355, -5.98302E-06, 0.000831794052, -1.58959293 , -0.0134173473, 8.484647E-05, 921.9318    , 32.173027   , 789.749451  , 1.55        , 3           , 255         , 0           , 0
-0.126571134, 9.794145    , 0.161652088 , -0.0002356995, 0.000157525821, 0.000400740537, -1.58959532 , -0.01341337 , 8.3196006E-05, 921.9318    , 32.173027   , 789.7495    , 1.56        , 3           , 255         , 0           , 0
-0.129020423, 9.790873    , 0.177891046 , -0.0011363161, -0.00039507178, -0.000129248758, -1.58960676 , -0.0134145878, 8.717079E-05, 921.9318    , 32.173027   , 789.7496    , 1.57        , 3           , 255         , 0           , 0
-0.126898035, 9.792483    , 0.164473742 , -0.00115928869, -0.0002060832, 0.000349939277, -1.58961833 , -0.0134110488, 8.91654E-05 , 921.9318    , 32.173027   , 789.749634  , 1.58        , 3           , 255         , 0           , 0
-0.131903738, 9.79027     , 0.154299453 , -0.00108077552, -0.000192057778, 0.000284863228, -1.589629   , -0.0134081664, 9.10319141E-05, 921.9318    , 32.173027   , 789.7497    , 1.59        , 3           , 255         , 0           , 0
-0.1344846  , 9.792627    , 0.1633968   , -0.000512673752, 0.000229046331, 0.000253532955, -1.5896343  , -0.0134056723, 8.86941E-05 , 921.9318    , 32.173027   , 789.7498    , 1.6         , 3           , 255         , 0           , 0
-0.139001936, 9.790543    , 0.1628464   , 0.000285743357, -0.000106018008, -0.000166300277, -1.5895685  , -0.01340323 , 8.89413859E-05, 921.9318    , 32.173027   , 789.738342  , 1.61        , 3           , 255         , 0           , 0
-0.131781667, 9.794832    , 0.159362584 , 0.000374164752, -0.000133600057, -0.0007379566, -1.5895648  , -0.0134105841, 9.041627E-05, 921.9318    , 32.173027   , 789.7384    , 1.62        , 3           , 255         , 0           , 0
-0.122750245, 9.789846    , 0.165108219 , 4.97739675E-05, -0.000248944183, 0.000304662448, -1.58956432 , -0.0134074921, 9.2848175E-05, 921.904541  , 32.17296    , 789.738464  , 1.63        , 3           , 255         , 0           , 0
-0.12382213 , 9.794186    , 0.160846308 , 0.000184149249, -0.00016633168, 0.000753728265, -1.58956242 , -0.0133999269, 9.43691339E-05, 921.904541  , 32.17296    , 789.7385    , 1.64        , 3           , 255         , 0           , 0
-0.129557878, 9.802832    , 0.1655424   , -0.000174506262, -3.06891161E-06, 0.000132939545, -1.58956409 , -0.013398597, 9.437426E-05, 921.904541  , 32.17296    , 789.7386    , 1.65        , 3           , 255         , 0           , 0
-0.138982356, 9.795391    , 0.164082721 , -3.67011526E-05, -0.000426724873, -2.97551087E-05, -1.58956444 , -0.0133988112, 9.864571E-05, 921.904541  , 32.17296    , 789.738647  , 1.66        , 3           , 255         , 0           , 0
-0.1322526  , 9.793056    , 0.164061025 , -0.000145934566, -2.3323315E-05, 0.000282803463, -1.589566   , -0.0133959828, 9.882591E-05, 921.904541  , 32.17296    , 789.7387    , 1.67        , 3           , 255         , 0           , 0
-0.144389451, 9.791018    , 0.164124385 , -0.00080028706, -0.000139275071, 0.000638886937, -1.5895741  , -0.01338957 , 0.000100098674, 921.904541  , 32.17296    , 789.7388    , 1.68        , 3           , 255         , 0           , 0
-0.142911941, 9.799299    , 0.169228986 , -0.0009303044, -8.1029284E-05, 8.393541E-05, -1.5895834  , -0.0133887148, 0.000100893165, 921.904541  , 32.17296    , 789.738831  , 1.69        , 3           , 255         , 0           , 0
-0.138204843, 9.797757    , 0.1707376   , -0.00112273055, -0.000366742577, -0.0008436546, -1.5895946  , -0.013397079, 0.000104718936, 921.904541  , 32.17296    , 789.7389    , 1.7         , 3           , 255         , 0           , 0
-0.137752026, 9.791915    , 0.164908558 , -0.000234959589, -0.00044818208, 0.00024800215, -1.58955431 , -0.0134013975, 0.000108581007, 921.904541  , 32.17296    , 789.7582    , 1.71        , 3           , 255         , 0           , 0
-0.127621636, 9.794657    , 0.165390521 , 0.000174920424, -0.000245051138, 6.44206E-05 , -1.58955264 , -0.0134007083, 0.00011101897, 921.904541  , 32.17296    , 789.758362  , 1.72        , 3           , 255         , 0           , 0
-0.130177662, 9.798506    , 0.162209019 , -0.000574050355, 0.000310061965, 6.09985727E-05, -1.58955824 , -0.013400157, 0.000107908061, 921.8932    , 32.17391    , 789.758545  , 1.73        , 3           , 255         , 0           , 0
-0.124790311, 9.795343    , 0.175455615 , -0.000721923949, 4.19910066E-05, 0.0005124411, -1.58956552 , -0.01339504 , 0.000107391141, 921.8932    , 32.17391    , 789.7587    , 1.74        , 3           , 255         , 0           , 0
-0.132443532, 9.7983      , 0.162920356 , -0.0003774923, 0.000432770583, 0.00026056543, -1.58956921 , -0.0133925192, 0.000103015831, 921.8932    , 32.17391    , 789.7589    , 1.75        , 3           , 255         , 0           , 0
-0.137556881, 9.793409    , 0.1613994   , 0.000333706441, 0.0007020361, -0.0001077572, -1.58956575 , -0.0133937281, 9.601632E-05, 921.8932    , 32.17391    , 789.7591    , 1.76        , 3           , 255         , 0           , 0
-0.128428176, 9.793175    , 0.162193581 , 0.0003050751, 0.0003462855, -0.00012615943, -1.58956277 , -0.0133950543, 9.25785062E-05, 921.8932    , 32.17391    , 789.7593    , 1.77        , 3           , 255         , 0           , 0
-0.128013343, 9.795848    , 0.172566161 , 0.000198029476, -7.524318E-05, -0.000285069051, -1.58956075 , -0.0133978892, 9.338417E-05, 921.8932    , 32.17391    , 789.75946   , 1.78        , 3           , 255         , 0           , 0
-0.134281084, 9.786627    , 0.161971733 , 9.037634E-06, 0.0001823975, -0.00043164118, -1.58956063 , -0.0134022394, 9.164059E-05, 921.8932    , 32.17391    , 789.759644  , 1.79        , 3           , 255         , 0           , 0
-0.135959014, 9.796793    , 0.161699727 , -0.000340883271, 0.000100489444, -0.00019649812, -1.589564   , -0.0134042213, 9.067334E-05, 921.8932    , 32.17391    , 789.7598    , 1.8         , 3           , 255         , 0           , 0
-0.122373655, 9.795378    , 0.1604921   , -0.000156190552, 0.0001976326, 0.000144772348, -1.58952343 , -0.0134039158, 8.810591E-05, 921.8932    , 32.17391    , 789.7903    , 1.81        , 3           , 255         , 0           , 0
-0.126181915, 9.794594    , 0.168805659 , -0.0003870713, 0.000174602144, 0.00103100832, -1.58952737 , -0.0133936405, 8.616671E-05, 921.8932    , 32.17391    , 789.790649  , 1.82        , 3           , 255         , 0           , 0
-0.1410516  , 9.798311    , 0.162161559 , -0.000431479973, 0.0001336842, 0.0006410211, -1.58953154 , -0.0133872563, 8.471046E-05, 921.9529    , 32.1754     , 789.791     , 1.83        , 3           , 255         , 0           , 0
-0.1363862  , 9.797167    , 0.16943115  , 4.7852358E-05, -0.000235637621, 0.0006366884, -1.58953118 , -0.0133808488, 8.69462747E-05, 921.9529    , 32.1754     , 789.7914    , 1.84        , 3           , 255         , 0           , 0
-0.134512633, 9.79366     , 0.1672824   , 0.000129642038, -0.000106540014, -0.000907504465, -1.58952975 , -0.0133899  , 8.818134E-05, 921.9529    , 32.1754     , 789.791748  , 1.85        , 3           , 255         , 0           , 0
-0.1308982  , 9.796498    , 0.1711626   , 0.000151658227, 0.0001055006, -0.000279021973, -1.58952832 , -0.0133927092, 8.71791563E-05, 921.9529    , 32.1754     , 789.7921    , 1.86        , 3           , 255         , 0           , 0
-0.1346349  , 9.797609    , 0.1636119   , -0.000249060453, 0.000302501256, -0.0005729777, -1.58953071 , -0.0133984946, 8.426199E-05, 921.9529    , 32.1754     , 789.7925    , 1.87        , 3           , 255         , 0           , 0
-0.134406373, 9.792568    , 0.16495727  , -0.000267652969, -0.0002951755, -0.000385453517, -1.58953345 , -0.0134022953, 8.72858E-05 , 921.9529    , 32.1754     , 789.792847  , 1.88        , 3           , 255         , 0           , 0
-0.133415   , 9.791743    , 0.1598062   , -0.000434021349, 0.00027341448, 0.000125228064, -1.58953786 , -0.0134010939, 8.452883E-05, 921.9529    , 32.1754     , 789.7932    , 1.89        , 3           , 255         , 0           , 0
-0.139317557, 9.794721    , 0.156185344 , -0.00104834943, 0.000101062324, 0.000273338 , -1.58954835 , -0.0133983791, 8.34674938E-05, 921.9529    , 32.1754     , 789.7936    , 1.9         , 3           , 255         , 0           , 0
-0.1376286  , 9.806414    , 0.164715335 , -0.0004247588, -0.0003300336, -9.369448E-05, -1.58951271 , -0.0134037836, 8.624915E-05, 921.9529    , 32.1754     , 789.7513    , 1.91        , 3           , 255         , 0           , 0
-0.123646215, 9.803282    , 0.1659187   , -0.000456782524, -0.000103755941, -0.000171950087, -1.58951724 , -0.0134054841, 8.731888E-05, 921.9529    , 32.1754     , 789.7514    , 1.92        , 3           , 255         , 0           , 0
-0.124779962, 9.800361    , 0.157925755 , -0.000343647582, 0.000247668184, 5.8925325E-05, -1.58952069 , -0.01340494 , 8.4831554E-05, 921.91156   , 32.1727562  , 789.7515    , 1.93        , 3           , 255         , 0           , 0
-0.124599196, 9.801465    , 0.163576126 , -0.0006697242, 7.350702E-05, 0.0004169436, -1.58952737 , -0.0134007884, 8.401842E-05, 921.91156   , 32.1727562  , 789.751648  , 1.94        , 3           , 255         , 0           , 0
-0.126179159, 9.798286    , 0.163034663 , -0.001196689, -0.000420107157, 0.000446414575, -1.58953929 , -0.0133962464, 8.813524E-05, 921.91156   , 32.1727562  , 789.7518    , 1.95        , 3           , 255         , 0           , 0
-0.129003718, 9.796497    , 0.15551284  , -0.00125677406, -0.00023508881, -0.000293560937, -1.58955193 , -0.0133991381, 9.054106E-05, 921.91156   , 32.1727562  , 789.7519    , 1.96        , 3           , 255         , 0           , 0
-0.140124083, 9.79686451  , 0.161152884 , -0.001278587, -3.09488678E-05, -0.0007536508, -1.58956468 , -0.0134066669, 9.099234E-05, 921.91156   , 32.1727562  , 789.752     , 1.97        , 3           , 255         , 0           , 0
-0.139077067, 9.794058    , 0.170657784 , -0.000110985595, -1.68380211E-06, -0.000642480445, -1.58956587 , -0.0134130884, 9.11292736E-05, 921.91156   , 32.1727562  , 789.752136  , 1.98        , 3           , 255         , 0           , 0
-0.134519547, 9.795378    , 0.172302783 , 0.0012086964, 0.000101171521, -0.000282543333, -1.58955383 , -0.0134159327, 9.01708554E-05, 921.91156   , 32.1727562  , 789.752258  , 1.99        , 3           , 255         , 0           , 0
-0.125342622, 9.798247    , 0.155525863 , 0.001329981 , -0.0005255468, 0.000417196366, -1.58954048 , -0.0134116635, 9.534667E-05, 921.91156   , 32.1727562  , 789.7524    , 2           , 3           , 0           , 7.54023647  , 200
-0.119061351, 9.790342    , 0.161105111 , 0.000313260825, -0.000195456581, -0.000134217844, -1.58950269 , -0.0134115815, 9.68602E-05 , 921.91156   , 32.1727562  , 789.7636    , 2.01        , 3           , 1           , 0           , 0
-0.125273317, 9.787237    , 0.159107536 , 0.000377837423, -0.0002773344, -0.000157191622, -1.58949888 , -0.0134131005, 9.966234E-05, 921.91156   , 32.1727562  , 789.7638    , 2.02        , 3           , 2           , 0           , 0
-0.135707676, 9.803474    , 0.166785449 , 0.0005104547, 0.000181838055, 0.000138162315, -1.58949375 , -0.0134117538, 9.78186144E-05, 921.9352    , 32.176487   , 789.764     , 2.03        , 3           , 3           , 0           , 0
-0.137706786, 9.791941    , 0.1531283   , 0.0004062011, 9.836833E-06, 0.000208412574, -1.5894897  , -0.0134096714, 9.768124E-05, 921.9352    , 32.176487   , 789.7642    , 2.04        , 3           , 4           , 0           , 0
-0.133481428, 9.791081    , 0.14783898  , 0.0004887136, -2.122362E-05, 0.0005578952, -1.58948481 , -0.013404089, 9.778975E-05, 921.9352    , 32.176487   , 789.764465  , 2.05        , 3           , 5           , 0           , 0
-0.127004683, 9.793252    , 0.1439996   , 0.000374753057, -0.000108264328, 0.0002874089, -1.58948112 , -0.0134011982, 9.881846E-05, 921.9352    , 32.176487   , 789.7647    , 2.06        , 3           , 6           , 0           , 0
-0.13813448 , 9.793705    , 0.153356    , -0.000406454725, -0.0005000249, -0.00035970335, -1.58948517 , -0.0134046981, 0.000103885337, 921.9352    , 32.176487   , 789.764954  , 2.07        , 3           , 7           , 0           , 0
-0.133679077, 9.800273    , 0.152187854 , -0.00100692909, -3.493292E-05, -0.000407279265, -1.5894953  , -0.0134087643, 0.000104310522, 921.9352    , 32.176487   , 789.7652    , 2.08        , 3           , 8           , 5           , 5
-0.129098728, 9.797228    , 0.169858947 , -0.00103179214, -0.000136605609, -0.000742876, -1.58950567 , -0.0134161673, 0.000105815212, 921.9352    , 32.176487   , 789.765442  , 2.09        , 3           , 9           , 5           , 0.1
-0.129487008, 9.796684    , 0.1630768   , -0.00134670187, 0.000352246861, -0.000709936139, -1.589519   , -0.01342333 , 0.000102426311, 921.9352    , 32.176487   , 789.7657    , 2.1         , 3           , 10          , 0.1         , 0.1
-0.134811237, 9.789127    , 0.166010275 , -0.00176836841, -0.000307727139, -0.000466968457, -1.58948147 , -0.0134269455, 0.000104848907, 921.9352    , 32.176487   , 789.7462    , 2.11        , 3           , 11          , 0.00841477  , 0.008414767
-0.1389236  , 9.792209    , 0.157219678 , -0.000972487265, 0.0002812538, 0.000218932255, -1.58949125 , -0.0134248091, 0.000101995545, 921.9352    , 32.176487   , 789.746338  , 2.12        , 3           , 12          , 0.174643889 , 0
-0.139229327, 9.788912    , 0.160799712 , -0.0007727997, 0.0004660971, 0.0005087257, -1.58949888 , -0.0134198107, 9.724024E-05, 921.9632    , 32.17391    , 789.74646   , 2.13        , 3           , 13          , 0           , 0
-0.1423872  , 9.798735    , 0.163336366 , -0.000310116942, -4.28041676E-06, 0.000634332944, -1.589502   , -0.0134134684, 9.7164324E-05, 921.9632    , 32.17391    , 789.7466    , 2.14        , 3           , 14          , 7.941565E-05, -0.000369173125
-0.130043715, 9.794419    , 0.170580134 , -7.8912235E-05, -0.00010338609, -0.000148350053, -1.58950281 , -0.0134149324, 9.82261263E-05, 921.9632    , 32.17391    , 789.7467    , 2.15        , 3           , 15          , 0           , -0.00011183718
-0.122972533, 9.795847    , 0.166459009 , -0.0003390601, -0.000177335343, 0.000295756559, -1.58950615 , -0.0134119419, 9.994364E-05, 921.9632    , 32.17391    , 789.7468    , 2.16        , 3           , 16          , 0           , 1.401298E-45
-0.1291726  , 9.790446    , 0.168878868 , -0.0001560478, 0.000309582043, -0.000146768347, -1.5895077  , -0.0134134674, 9.687558E-05, 921.9632    , 32.17391    , 789.746948  , 2.17        , 3           , 20          , 0           , 0
-0.134782344, 9.790304    , 0.1628539   , -0.000117949276, 0.00037133228, 7.283516E-05, -1.58950889 , -0.013412809, 9.314902E-05, 921.9632    , 32.17391    , 789.7471    , 2.18        , 3           , 21          , 0           , 0
-0.1306886  , 9.791457    , 0.164852753 , 0.000287819974, -0.000541787769, -0.000111036185, -1.58950591 , -0.0134138186, 9.858658E-05, 921.9632    , 32.17391    , 789.7472    , 2.19        , 3           , 22          , 0           , 0
-0.136495143, 9.799634    , 0.1633792   , 0.000196243316, 0.000118523545, -0.0001964967, -1.589504   , -0.0134158041, 9.74381546E-05, 921.9632    , 32.17391    , 789.7473    , 2.2         , 3           , 40          , 0           , 0
-0.137671292, 9.79919052  , 0.161225885 , 0.000854608137, -0.000134837814, 0.000217160021, -1.58945322 , -0.0134193543, 9.817955E-05, 921.9632    , 32.17391    , 789.6944    , 2.21        , 3           , 41          , 0           , 0
-0.137055784, 9.786162    , 0.152297139 , 0.0008833957, -9.242029E-05, -0.000470322528, -1.5894444  , -0.0134240407, 9.919153E-05, 921.9632    , 32.17391    , 789.6942    , 2.22        , 3           , 42          , 0           , 0
-0.130173713, 9.795454    , 0.155755147 , 0.00020961657, 0.000323556364, 0.000446027 , -1.58944225 , -0.0134196393, 9.587387E-05, 921.920837  , 32.1732979  , 789.694031  , 2.23        , 3           , 255         , 0           , 0
-0.125335425, 9.802645    , 0.159195364 , 0.000186285368, -5.67885872E-05, -3.970242E-05, -1.58944046 , -0.0134200258, 9.644901E-05, 921.920837  , 32.1732979  , 789.693848  , 2.24        , 3           , 255         , 0           , 0
-0.131879941, 9.798868    , 0.157903284 , -0.000229336947, -0.000397962984, 0.000166614685, -1.58944273 , -0.013418287, 0.000100396763, 921.920837  , 32.1732979  , 789.693665  , 2.25        , 3           , 255         , 0           , 0
-0.14041838 , 9.797995    , 0.162605256 , -0.0006689404, 0.000198930647, 0.000138875534, -1.58944929 , -0.0134169366, 9.8381206E-05, 921.920837  , 32.1732979  , 789.6935    , 2.26        , 3           , 255         , 0           , 0
-0.136115238, 9.795685    , 0.15846476  , -0.00125052407, -0.0002947374, 0.0001643075, -1.5894618  , -0.0134152379, 0.000101297919, 921.920837  , 32.1732979  , 789.6933    , 2.27        , 3           , 255         , 0           , 0
-0.135456368, 9.79212952  , 0.161205679 , -0.00101351913, -0.000289960182, 7.73826541E-05, -1.589472   , -0.0134144109, 0.000104182938, 921.920837  , 32.1732979  , 789.6931    , 2.28        , 3           , 255         , 0           , 0
-0.139965639, 9.796002    , 0.164941162 , -0.001040322, -0.000132179586, -4.07529078E-05, -1.58948243 , -0.0134147927, 0.000105511121, 921.920837  , 32.1732979  , 789.692932  , 2.29        , 3           , 255         , 0           , 0
-0.127646536, 9.800087    , 0.163766712 , -0.0007497017, -0.000170593383, -0.0005330001, -1.58948994 , -0.013420091, 0.000107316184, 921.920837  , 32.1732979  , 789.692749  , 2.3         , 3           , 255         , 0           , 0
-0.121831752, 9.789339    , 0.168133527 , -0.0005045455, -0.000172906148, -0.0002334645, -1.58945334 , -0.0134272827, 0.000108527485, 921.920837  , 32.1732979  , 789.7005    , 2.31        , 3           , 255         , 0           , 0
-0.122341432, 9.790014    , 0.165088937 , 0.00027286628, 2.14686152E-05, -0.000204888143, -1.5894506  , -0.0134293353, 0.000108351451, 921.920837  , 32.1732979  , 789.7004    , 2.32        , 3           , 255         , 0           , 0
-0.1291103  , 9.794266    , 0.1646502   , -0.000200071576, -0.0004937473, -0.0001778361, -1.58945262 , -0.0134310219, 0.000113321912, 921.90625   , 32.17642    , 789.700256  , 2.33        , 3           , 255         , 0           , 0
-0.122986175, 9.79523     , 0.168353    , -8.706252E-05, 0.000286502938, -0.00084374845, -1.58945346 , -0.01343951 , 0.0001106148, 921.90625   , 32.17642    , 789.700134  , 2.34        , 3           , 255         , 0           , 0
-0.131723866, 9.796186    , 0.160424322 , 0.0005098625, 0.00022490097, -0.000487829529, -1.58944833 , -0.01344443 , 0.000108457192, 921.90625   , 32.17642    , 789.7       , 2.35        , 3           , 255         , 0           , 0
-0.135603741, 9.780422    , 0.159713909 , 0.0005264846, 6.29391E-05 , 1.85610479E-05, -1.58944309 , -0.0134442532, 0.000107823849, 921.90625   , 32.17642    , 789.6999    , 2.36        , 3           , 255         , 0           , 0
-0.130963221, 9.78866     , 0.151004955 , 0.0005690293, 0.000114642258, 0.0006041464, -1.58943737 , -0.0134382369, 0.000106564556, 921.90625   , 32.17642    , 789.699768  , 2.37        , 3           , 255         , 0           , 0
-0.123184   , 9.791041    , 0.162789181 , 0.000780723931, -0.0001846872, -0.000273538724, -1.5894295  , -0.0134409359, 0.000108462322, 921.90625   , 32.17642    , 789.699646  , 2.38        , 3           , 255         , 0           , 0
-0.1274758  , 9.784737    , 0.16250816  , 0.000149570915, -0.000254510436, 0.000445622252, -1.589428   , -0.0134364348, 0.000110924011, 921.90625   , 32.17642    , 789.6995    , 2.39        , 3           , 255         , 0           , 0
-0.1354385  , 9.797313    , 0.161810964 , 0.000332017255, 0.000220741931, 0.00047741778, -1.58942461 , -0.0134317037, 0.00010862809, 921.90625   , 32.17642    , 789.6994    , 2.4         , 3           , 255         , 0           , 0
-0.128840625, 9.79468     , 0.153501943 , -7.448589E-05, 1.13417627E-07, -0.0006413424, -1.589373   , -0.0134288818, 0.000108044092, 921.90625   , 32.17642    , 789.7259    , 2.41        , 3           , 255         , 0           , 0
-0.132341981, 9.798215    , 0.1588693   , -0.0005622891, 0.000124406884, -0.0005540395, -1.5893786  , -0.0134344455, 0.000106903135, 921.90625   , 32.17642    , 789.725952  , 2.42        , 3           , 255         , 0           , 0
-0.13687256 , 9.788527    , 0.1591579   , -0.000583861431, 1.29738473E-05, -0.0007502767, -1.58938444 , -0.0134419492, 0.000106912456, 921.945     , 32.1717377  , 789.726     , 2.43        , 3           , 255         , 0           , 0
-0.13809374 , 9.79053     , 0.169310212 , -0.000590118, 0.00052166637, 0.000373881019, -1.5893904  , -0.0134383067, 0.000101627636, 921.945     , 32.1717377  , 789.7261    , 2.44        , 3           , 255         , 0           , 0
-0.126018837, 9.794596    , 0.15957059  , -0.0009161542, 0.0002509689, 0.000727724051, -1.58939946 , -0.0134310778, 9.89829059E-05, 921.945     , 32.1717377  , 789.726135  , 2.45        , 3           , 255         , 0           , 0
-0.128662974, 9.793226    , 0.1725066   , -0.0009721237, -0.0002934388, 7.09086E-05 , -1.58940923 , -0.0134303141, 0.000101903337, 921.945     , 32.1717377  , 789.7262    , 2.46        , 3           , 255         , 0           , 0
-0.13165395 , 9.78958     , 0.172543719 , -0.000867201539, -0.000236649648, 0.000477238267, -1.58941793 , -0.0134254983, 0.000104181083, 921.945     , 32.1717377  , 789.726257  , 2.47        , 3           , 255         , 0           , 0
-0.129930526, 9.797056    , 0.171718746 , -0.00100725668, 0.000369580055, -0.000218983318, -1.589428   , -0.0134277567, 0.000100526711, 921.945     , 32.1717377  , 789.7263    , 2.48        , 3           , 255         , 0           , 0
-0.136882663, 9.792902    , 0.155822426 , -0.00128012942, 0.000220202113, -0.000181908239, -1.5894407  , -0.0134296166, 9.835887E-05, 921.945     , 32.1717377  , 789.7264    , 2.49        , 3           , 255         , 0           , 0
-0.1324246  , 9.79427052  , 0.169898316 , -0.0007023943, -0.000341354578, 0.000378009165, -1.58944774 , -0.0134257739, 0.000101701684, 921.945     , 32.1717377  , 789.72644   , 2.5         , 3           , 255         , 0           , 0
-0.135732144, 9.7969      , 0.155734926 , 6.456522E-05, -0.00106107059, 0.00020911367, -1.58941    , -0.0134247011, 0.000111770656, 921.945     , 32.1717377  , 789.697754  , 2.51        , 3           , 255         , 0           , 0
-0.140966192, 9.798602    , 0.174220875 , -0.000176769565, -0.000483139447, -0.000137420575, -1.58941174 , -0.0134259872, 0.000116627 , 921.945     , 32.1717377  , 789.697632  , 2.52        , 3           , 255         , 0           , 0
-0.130988255, 9.786293    , 0.163040459 , -0.000598664454, 7.190573E-05, -0.001307701, -1.5894177  , -0.0134390732, 0.000116150622, 921.9152    , 32.1720772  , 789.6975    , 2.53        , 3           , 255         , 0           , 0
-0.134195134, 9.788458    , 0.174517319 , -0.00113337219, 0.0004197393, -0.00114521454, -1.589429   , -0.0134506011, 0.000112167472, 921.9152    , 32.1720772  , 789.6974    , 2.54        , 3           , 255         , 0           , 0
-0.133598641, 9.786226    , 0.167283282 , -0.00069528725, -0.000113214046, -0.000538859051, -1.589436   , -0.0134559684, 0.000113399721, 921.9152    , 32.1720772  , 789.697266  , 2.55        , 3           , 255         , 0           , 0
-0.136283055, 9.786081    , 0.1641124   , -0.000639838458, -0.000191113475, 0.000248053344, -1.58944249 , -0.0134534538, 0.000115264389, 921.9152    , 32.1720772  , 789.697144  , 2.56        , 3           , 255         , 0           , 0
-0.138434872, 9.789235    , 0.166428357 , -0.000287462957, 2.636743E-05, 0.000785995042, -1.58944535 , -0.0134456  , 0.00011485409, 921.9152    , 32.1720772  , 789.697     , 2.57        , 3           , 255         , 0           , 0
-0.145176113, 9.793661    , 0.162162274 , 0.000479407434, -0.000144750258, 4.658456E-05, -1.58944058 , -0.0134451045, 0.000116292664, 921.9152    , 32.1720772  , 789.6969    , 2.58        , 3           , 255         , 0           , 0
-0.140471265, 9.792528    , 0.155291826 , 0.000387371168, 0.000129398191, -6.904503E-05, -1.58943665 , -0.0134458216, 0.0001150115, 921.9152    , 32.1720772  , 789.6968    , 2.59        , 3           , 255         , 0           , 0
-0.127418682, 9.796547    , 0.150046214 , 7.37316E-05 , -3.4470082E-05, 9.92360438E-05, -1.58943594 , -0.0134448232, 0.000115338422, 921.9152    , 32.1720772  , 789.696655  , 2.6         , 3           , 255         , 0           , 0
-0.125320449, 9.793989    , 0.156241626 , -0.000331878546, 0.000188425067, 0.0003697771, -1.58939469 , -0.0134517532, 0.000112786387, 921.9152    , 32.1720772  , 789.712     , 2.61        , 3           , 255         , 0           , 0
-0.130221188, 9.793013    , 0.158685982 , 0.000108716828, -0.000223362615, 0.000129460241, -1.58939362 , -0.0134504177, 0.000114996139, 921.9152    , 32.1720772  , 789.712     , 2.62        , 3           , 255         , 0           , 0
-0.117628649, 9.78562     , 0.153343573 , -0.000135000082, 0.000447038416, 0.000257330539, -1.58939493 , -0.0134479282, 0.000110478359, 921.917     , 32.1743164  , 789.712     , 2.63        , 3           , 255         , 0           , 0
-0.12765339 , 9.794178    , 0.1449136   , 0.0004492605, 0.00019910172, -0.000495407963, -1.58939052 , -0.0134529173, 0.00010858017, 921.917     , 32.1743164  , 789.712     , 2.64        , 3           , 255         , 0           , 0
-0.131232142, 9.795546    , 0.156203941 , 0.0006298165, -3.78986E-05, -0.000664443942, -1.5893842  , -0.013459553, 0.00010908219, 921.917     , 32.1743164  , 789.712     , 2.65        , 3           , 255         , 0           , 0
-0.138370216, 9.797116    , 0.14881137  , 0.00103306747, 9.532523E-06, -1.19163888E-05, -1.58937383 , -0.013459675, 0.00010898905, 921.917     , 32.1743164  , 789.712     , 2.66        , 3           , 255         , 0           , 0
-0.133986682, 9.792478    , 0.146709725 , 0.00025957395, -4.273659E-05, -8.723237E-05, -1.5893712  , -0.0134605393, 0.0001094324, 921.917     , 32.1743164  , 789.712     , 2.67        , 3           , 255         , 0           , 0
-0.13196747 , 9.79899     , 0.152589679 , -3.13438723E-05, -0.000145510625, 0.000256749277, -1.58937156 , -0.0134579446, 0.00011083929, 921.917     , 32.1743164  , 789.712     , 2.68        , 3           , 255         , 0           , 0
-0.1352537  , 9.799578    , 0.14670904  , 0.000228830613, -0.00013065277, -0.000189160666, -1.58936918 , -0.0134598119, 0.000112180976, 921.917     , 32.1743164  , 789.712     , 2.69        , 3           , 255         , 0           , 0
-0.129318744, 9.788801    , 0.147043422 , -0.0005267246, -3.493289E-05, 0.0005976107, -1.58937454 , -0.01345383 , 0.000112419875, 921.917     , 32.1743164  , 789.712     , 2.7         , 3           , 255         , 0           , 0
-0.139263526, 9.791304    , 0.154896051 , -0.0007509639, -0.000135592913, 0.000275131082, -1.58932149 , -0.0134476824, 0.0001129098, 921.917     , 32.1743164  , 789.722961  , 2.71        , 3           , 255         , 0           , 0
-0.138603017, 9.796942    , 0.152360514 , -0.0003098966, 0.000543364557, 0.000217792433, -1.58932459 , -0.0134456055, 0.000107436383, 921.917     , 32.1743164  , 789.723     , 2.72        , 3           , 255         , 0           , 0
-0.13571848 , 9.802964    , 0.162325054 , -0.00140707346, -2.92268523E-05, -0.000256950443, -1.58933866 , -0.0134481685, 0.000107777276, 921.9039    , 32.17262    , 789.7231    , 2.73        , 3           , 255         , 0           , 0
-0.12844865 , 9.803114    , 0.155618057 , -0.000850293436, -6.754071E-05, 0.000486107077, -1.58934712 , -0.0134432968, 0.0001083622, 921.9039    , 32.17262    , 789.723145  , 2.74        , 3           , 255         , 0           , 0
-0.129629537, 9.794633    , 0.15768449  , -0.00108712038, 0.000218032626, 0.000705018756, -1.589358   , -0.0134362876, 0.000106050909, 921.9039    , 32.17262    , 789.7232    , 2.75        , 3           , 255         , 0           , 0
-0.129060313, 9.794531    , 0.162365228 , -0.000930329552, -0.000219020731, -0.000319112383, -1.58936739 , -0.0134394355, 0.00010830025, 921.9039    , 32.17262    , 789.723267  , 2.76        , 3           , 255         , 0           , 0
-0.129614189, 9.793768    , 0.1712838   , -0.00126828218, -0.000465826, -2.9066905E-05, -1.58938015 , -0.01343964 , 0.000112962873, 921.9039    , 32.17262    , 789.7234    , 2.77        , 3           , 255         , 0           , 0
-0.1366734  , 9.795       , 0.165655479 , -0.000468851358, 0.000300736283, 2.27866985E-06, -1.58938491 , -0.0134396739, 0.000109956294, 921.9039    , 32.17262    , 789.7235    , 2.78        , 3           , 255         , 0           , 0
-0.129375845, 9.790575    , 0.1693999   , -0.0007346072, -0.000157303322, -0.000231440616, -1.58939219 , -0.0134419585, 0.000111571819, 921.9039    , 32.17262    , 789.723633  , 2.79        , 3           , 255         , 0           , 0
-0.136319578, 9.793978    , 0.165745378 , -0.000529379642, 0.000474710832, -0.000682659447, -1.58939743 , -0.0134488726, 0.000106952517, 921.9039    , 32.17262    , 789.723755  , 2.8         , 3           , 255         , 0           , 0
-0.144626021, 9.789546    , 0.165924251 , 0.000461909367, 0.000527046 , -0.00115277991, -1.58935857 , -0.0134632317, 0.000101435806, 921.9039    , 32.17262    , 789.751648  , 2.81        , 3           , 255         , 0           , 0
-0.137652755, 9.80614     , 0.162410825 , 0.0003919591, 0.000300502463, -0.0007617064, -1.58935463 , -0.013470903, 9.85726656E-05, 921.9039    , 32.17262    , 789.751953  , 2.82        , 3           , 255         , 0           , 0
-0.132214576, 9.795285    , 0.164790183 , 0.0004918979, -6.885649E-05, -9.043442E-05, -1.58934975 , -0.0134717952, 9.927822E-05, 921.9328    , 32.1730957  , 789.752258  , 2.83        , 3           , 255         , 0           , 0
-0.132217646, 9.801394    , 0.149548024 , -0.000293944147, -0.000214720116, 0.000744198449, -1.58935273 , -0.0134643139, 0.00010128726, 921.9328    , 32.1730957  , 789.752563  , 2.84        , 3           , 255         , 0           , 0
-0.125494838, 9.798012    , 0.1615831   , 0.000298100262, -5.438304E-05, 0.000371236529, -1.58934975 , -0.0134605933, 0.000101762264, 921.9328    , 32.1730957  , 789.752869  , 2.85        , 3           , 255         , 0           , 0
-0.135296   , 9.803081    , 0.160298929 , 0.00148167368, -0.000348684058, -6.8346053E-06, -1.589335   , -0.013460597, 0.000105249921, 921.9328    , 32.1730957  , 789.7532    , 2.86        , 3           , 255         , 0           , 0
-0.142148823, 9.796247    , 0.154058814 , 0.00162393658, -0.0005049985, 0.000259329565, -1.58931875 , -0.0134579111, 0.0001102511, 921.9328    , 32.1730957  , 789.7535    , 2.87        , 3           , 255         , 0           , 0
-0.131223723, 9.779146    , 0.1417141   , 0.00122701237, -0.000578798354, 1.66881946E-05, -1.58930659 , -0.0134576373, 0.000116036077, 921.9328    , 32.1730957  , 789.7538    , 2.88        , 3           , 255         , 0           , 0
-0.131073967, 9.79431     , 0.152299017 , 0.000359909725, -2.209007E-05, -2.87650328E-05, -1.589303   , -0.01345792 , 0.0001162624, 921.9328    , 32.1730957  , 789.7541    , 2.89        , 3           , 255         , 0           , 0
-0.127826363, 9.793368    , 0.1500035   , -0.0004759107, 0.000156972048, -0.000323426677, -1.58930767 , -0.0134611828, 0.000114752147, 921.9328    , 32.1730957  , 789.7544    , 2.9         , 3           , 255         , 0           , 0
-0.1274419  , 9.78947449  , 0.154472426 , -0.00010928986, -0.0002268521, -0.000159011339, -1.58926558 , -0.01346626 , 0.000116468254, 921.9328    , 32.1730957  , 789.737549  , 2.91        , 3           , 255         , 0           , 0
-0.119427755, 9.790945    , 0.148323715 , -0.000362451538, -0.000591947231, 0.000434183836, -1.58926928 , -0.0134618105, 0.000122306781, 921.9328    , 32.1730957  , 789.737732  , 2.92        , 3           , 255         , 0           , 0
-0.12747775 , 9.7986145   , 0.156591088 , -0.0006973237, -0.00076466077, 0.0005632468, -1.58927631 , -0.0134560363, 0.000129848384, 921.9231    , 32.1740456  , 789.7379    , 2.93        , 3           , 255         , 0           , 0
-0.138347045, 9.798301    , 0.150876239 , -0.0009887804, -0.000337001431, -0.000132948859, -1.58928621 , -0.0134573029, 0.000133242444, 921.9231    , 32.1740456  , 789.7381    , 2.94        , 3           , 255         , 0           , 0
-0.134414583, 9.795304    , 0.154576316 , -0.00131447939, -0.000349479349, -5.88153562E-05, -1.58929944 , -0.0134578254, 0.0001367478, 921.9231    , 32.1740456  , 789.7383    , 2.95        , 3           , 255         , 0           , 0
-0.133812934, 9.793177    , 0.141916886 , -0.00125044177, -0.000162141892, -6.035043E-06, -1.58931184 , -0.0134578589, 0.000138369331, 921.9231    , 32.1740456  , 789.738464  , 2.96        , 3           , 255         , 0           , 0
-0.135430172, 9.794684    , 0.157197461 , -0.000251652324, -0.000148670952, 0.000221255919, -1.58931434 , -0.0134556182, 0.000139814889, 921.9231    , 32.1740456  , 789.738647  , 2.97        , 3           , 255         , 0           , 0
-0.131608933, 9.796574    , 0.161874145 , -0.0005991397, -0.000451764645, -2.45485644E-05, -1.58932042 , -0.0134557784, 0.000144335936, 921.9231    , 32.1740456  , 789.738831  , 2.98        , 3           , 255         , 0           , 0
-0.130548388, 9.805254    , 0.171328515 , -0.0005975631, -0.000315231184, -0.000303769775, -1.58932638 , -0.0134587586, 0.000147544648, 921.9231    , 32.1740456  , 789.739     , 2.99        , 3           , 255         , 0           , 0
-0.132384092, 9.793502    , 0.163579151 , -0.000623891247, -0.000361991668, 0.000192803884, -1.5893327  , -0.0134567637, 0.000151128232, 921.9231    , 32.1740456  , 789.7392    , 3           , 3           , 0           , 8.540236    , 300
-0.1304941  , 9.795166    , 0.16898486  , -0.000567408744, -0.000114192109, -0.0004886854, -1.58929622 , -0.0134603521, 0.00015179094, 921.9231    , 32.1740456  , 789.738037  , 3.01        , 3           , 1           , 0           , 0
-0.126217231, 9.787548    , 0.1608014   , -0.0007443777, 0.00013017375, -5.847369E-05, -1.58930373 , -0.01346096 , 0.000150500942, 921.9231    , 32.1740456  , 789.7382    , 3.02        , 3           , 2           , 0           , 0
-0.134672791, 9.788229    , 0.169222519 , -0.000178165559, 0.000297847553, 0.000274236227, -1.5893054  , -0.0134582762, 0.000147472456, 921.926453  , 32.17106    , 789.7384    , 3.03        , 3           , 3           , 0           , 0
-0.130902812, 9.794884    , 0.161497265 , -0.000375680334, -7.401276E-05, 0.000577497 , -1.58930922 , -0.0134524889, 0.000148105333, 921.926453  , 32.17106    , 789.7386    , 3.04        , 3           , 4           , 0           , 0
-0.1378915  , 9.792034    , 0.161137268 , -0.0003248963, -0.0004222885, 0.0008523945, -1.58931243 , -0.0134438882, 0.000152168592, 921.926453  , 32.17106    , 789.7388    , 3.05        , 3           , 5           , 0           , 0
-0.145565033, 9.784238    , 0.153577983 , -0.000240334339, -0.000454702415, 0.000613940065, -1.58931482 , -0.013437666, 0.000156601134, 921.926453  , 32.17106    , 789.738953  , 3.06        , 3           , 6           , 0           , 0
-0.1309859  , 9.780736    , 0.163028926 , 0.000301040855, -9.990795E-05, 0.000447901024, -1.58931172 , -0.0134331714, 0.000157517148, 921.926453  , 32.17106    , 789.739136  , 3.07        , 3           , 7           , 0           , 0
-0.132193476, 9.79855251  , 0.166376263 , 9.796625E-05, -0.000107368309, 0.000249603356, -1.58931077 , -0.0134306569, 0.000158544033, 921.926453  , 32.17106    , 789.7393    , 3.08        , 3           , 8           , 5           , 5
-0.140074089, 9.80118     , 0.15956375  , 0.000131865381, -8.312083E-05, 0.000425848149, -1.58930945 , -0.0134263821, 0.0001592966, 921.926453  , 32.17106    , 789.7395    , 3.09        , 3           , 9           , 5           , 0.1
-0.131064862, 9.800043    , 0.156974643 , 0.000752373133, -0.000393667375, 0.0005332541, -1.589302   , -0.0134209776, 0.000163133984, 921.926453  , 32.17106    , 789.739746  , 3.1         , 3           , 10          , 0.1         , 0.1
-0.14004311 , 9.794275    , 0.1558518   , 0.000141162047, 1.0403106E-05, 0.0008018397, -1.58926189 , -0.0134176053, 0.000162361845, 921.926453  , 32.17106    , 789.733948  , 3.11        , 3           , 11          , 0.007643203 , 0.00764319859
-0.135048389, 9.796885    , 0.15411666  , -0.000189988525, 5.355221E-06, -0.000593849341, -1.58926368 , -0.0134235444, 0.000162417273, 921.926453  , 32.17106    , 789.734131  , 3.12        , 3           , 12          , 0.174645633 , 0
-0.128435433, 9.801297    , 0.153124437 , -0.000564209942, 0.000394140778, 0.000352599483, -1.58926928 , -0.0134200919, 0.00015841081, 921.9273    , 32.17323    , 789.7343    , 3.13        , 3           , 13          , 0           , 0
-0.133431017, 9.808294    , 0.156180128 , -0.000376401731, 0.0004811464, 9.94857037E-05, -1.5892731  , -0.0134191848, 0.000153582878, 921.9273    , 32.17323    , 789.7345    , 3.14        , 3           , 14          , 7.775121E-05, -0.000369196845
-0.136160091, 9.800486    , 0.156189382 , -0.0006966834, 0.000176451635, 0.000399421144, -1.58928013 , -0.0134152267, 0.000151745189, 921.9273    , 32.17323    , 789.7347    , 3.15        , 3           , 15          , 0           , -0.000111763
-0.141036928, 9.803221    , 0.161428481 , -0.000542784052, -6.158641E-05, -9.693195E-05, -1.58928549 , -0.0134161822, 0.0001523781, 921.9273    , 32.17323    , 789.734863  , 3.16        , 3           , 16          , 0           , 1.401298E-45
-0.139002472, 9.797527    , 0.156301856 , -0.0006815972, -0.000153986883, 2.37799541E-05, -1.58929229 , -0.0134159159, 0.000153913061, 921.9273    , 32.17323    , 789.735046  , 3.17        , 3           , 20          , 0           , 0
-0.128581747, 9.793028    , 0.152661711 , -0.00171700318, -9.882575E-05, -3.88654153E-05, -1.58930957 , -0.0134162856, 0.000154908266, 921.9273    , 32.17323    , 789.7352    , 3.18        , 3           , 21          , 0           , 0
-0.136709958, 9.799811    , 0.166743234 , -0.00114578428, 0.0001924619, -2.52108439E-05, -1.589321   , -0.0134165734, 0.000152989116, 921.9273    , 32.17323    , 789.7354    , 3.19        , 3           , 22          , 0           , 0
-0.130510122, 9.799548    , 0.170777753 , -0.00149051752, 4.93692642E-05, 0.0003925828, -1.58933592 , -0.0134126581, 0.000152422814, 921.9273    , 32.17323    , 789.7356    , 3.2         , 3           , 40          , 0           , 0
-0.137199745, 9.807175    , 0.16538474  , -0.001649117, -0.000196102716, -0.000209445832, -1.58932221 , -0.0134192156, 0.000154017369, 921.9273    , 32.17323    , 789.7292    , 3.21        , 3           , 41          , 0           , 0
-0.1321173  , 9.801176    , 0.182621092 , -0.000960679841, -0.000110229448, -0.000326669222, -1.58933187 , -0.0134224612, 0.000155179325, 921.9273    , 32.17323    , 789.7294    , 3.22        , 3           , 42          , 0           , 0
-0.1399956  , 9.777716    , 0.1722242   , -0.0002606121, -0.000305855472, -7.988951E-05, -1.58933449 , -0.0134232063, 0.000158252486, 921.945251  , 32.171875   , 789.729553  , 3.23        , 3           , 255         , 0           , 0
-0.137985513, 9.79672     , 0.169044033 , 0.000290997967, -0.000182321819, 0.0005087051, -1.58933163 , -0.0134180859, 0.0001599821, 921.945251  , 32.171875   , 789.729736  , 3.24        , 3           , 255         , 0           , 0
-0.139644742, 9.80369     , 0.168263689 , 0.0007160775, -0.000352289528, -1.42446443E-05, -1.58932447 , -0.0134181622, 0.000163507008, 921.945251  , 32.171875   , 789.7299    , 3.25        , 3           , 255         , 0           , 0
-0.1418845  , 9.806       , 0.164929539 , 0.00128866057, -0.000381310179, -0.000226296776, -1.5893116  , -0.0134203555, 0.0001673607, 921.945251  , 32.171875   , 789.7301    , 3.26        , 3           , 255         , 0           , 0
-0.134379312, 9.801977    , 0.154961661 , 0.00118957425, -2.34586187E-05, 0.00014243141, -1.58929968 , -0.0134189259, 0.000167568884, 921.945251  , 32.171875   , 789.7303    , 3.27        , 3           , 255         , 0           , 0
-0.13454102 , 9.796713    , 0.156307563 , 0.000587392831, 0.000384589366, -0.000129469146, -1.58929384 , -0.013420294, 0.000163746838, 921.945251  , 32.171875   , 789.730469  , 3.28        , 3           , 255         , 0           , 0
-0.1334014  , 9.794979    , 0.150819778 , 0.000242934184, 0.000559345 , -0.000472108484, -1.58929133 , -0.0134251146, 0.000158241324, 921.945251  , 32.171875   , 789.730652  , 3.29        , 3           , 255         , 0           , 0
-0.132332474, 9.786351    , 0.1531404   , 0.0006273838, -0.000100163481, 2.76287756E-05, -1.589285   , -0.01342482 , 0.000159237912, 921.945251  , 32.171875   , 789.730835  , 3.3         , 3           , 255         , 0           , 0
-0.137237757, 9.794369    , 0.147762313 , 0.00116422237, -0.000533000566, 0.000175986061, -1.5892477  , -0.0134300077, 0.000164187892, 921.945251  , 32.171875   , 789.6997    , 3.31        , 3           , 255         , 0           , 0
-0.134888455, 9.801483    , 0.159458473 , 0.00105161569, -0.0005807094, 0.000453642861, -1.58923709 , -0.0134253651, 0.0001699095, 921.945251  , 32.171875   , 789.6997    , 3.32        , 3           , 255         , 0           , 0
-0.136524215, 9.783102    , 0.14874053  , -0.0001350913, 0.000221713883, 0.0006254042, -1.58923852 , -0.0134191532, 0.000167578182, 921.9174    , 32.17323    , 789.6997    , 3.33        , 3           , 255         , 0           , 0
-0.13478215 , 9.800986    , 0.157264635 , -7.59847753E-05, -0.00015637459, 0.000466345751, -1.58923924 , -0.013414463, 0.000169054911, 921.9174    , 32.17323    , 789.6997    , 3.34        , 3           , 255         , 0           , 0
-0.124732867, 9.79608     , 0.16120556  , -0.000931963848, -0.000444418285, -3.75377567E-06, -1.58924866 , -0.0134144193, 0.000173500055, 921.9174    , 32.17323    , 789.6997    , 3.35        , 3           , 255         , 0           , 0
-0.118383609, 9.796949    , 0.165725142 , -0.001552637, -4.73209657E-05, 0.000309363269, -1.58926415 , -0.013411318, 0.000173915934, 921.9174    , 32.17323    , 789.6997    , 3.36        , 3           , 255         , 0           , 0
-0.128161818, 9.792349    , 0.157007188 , -0.00121376128, -0.000453974644, 0.000484346732, -1.58927631 , -0.01340639 , 0.000178365255, 921.9174    , 32.17323    , 789.6997    , 3.37        , 3           , 255         , 0           , 0
-0.12661007 , 9.796506    , 0.16134122  , -0.0006379359, -0.000339766266, 0.000190421153, -1.58928263 , -0.0134044262, 0.0001817276, 921.9174    , 32.17323    , 789.6997    , 3.38        , 3           , 255         , 0           , 0
-0.118627094, 9.796431    , 0.164888546 , -0.00105568417, -5.232112E-06, 0.000393174181, -1.58929312 , -0.013400496, 0.000181707117, 921.9174    , 32.17323    , 789.6997    , 3.39        , 3           , 255         , 0           , 0
-0.129898161, 9.798804    , 0.162543386 , -0.0007401646, 0.000237701228, 0.0002887828, -1.58930051 , -0.0133976517, 0.000179276612, 921.9174    , 32.17323    , 789.6997    , 3.4         , 3           , 255         , 0           , 0
-0.129437327, 9.792231    , 0.159834415 , -0.0002522698, -3.06257862E-05, -0.000334429147, -1.58926833 , -0.0133971525, 0.00017917926, 921.9174    , 32.17323    , 789.7126    , 3.41        , 3           , 255         , 0           , 0
-0.131296352, 9.784171    , 0.1734049   , -0.0008228766, 0.000126666651, -9.844553E-06, -1.58927643 , -0.0133972745, 0.000177913957, 921.9174    , 32.17323    , 789.712646  , 3.42        , 3           , 255         , 0           , 0
-0.125077277, 9.791651    , 0.163984343 , -1.81862815E-05, -0.000265160517, 2.42870738E-06, -1.58927667 , -0.0133972019, 0.000180564733, 921.972     , 32.1733665  , 789.7127    , 3.43        , 3           , 255         , 0           , 0
-0.126071826, 9.794242    , 0.168154314 , 5.626175E-05, -0.0002037427, -0.0005029703, -1.58927619 , -0.0134021929, 0.000182695338, 921.972     , 32.1733665  , 789.712769  , 3.44        , 3           , 255         , 0           , 0
-0.129503042, 9.79423     , 0.163684919 , 0.000125490827, 0.00014244538, -0.000219933019, -1.58927488 , -0.0134044159, 0.000181311756, 921.972     , 32.1733665  , 789.7128    , 3.45        , 3           , 255         , 0           , 0
-0.1302556  , 9.800871    , 0.1611736   , 0.0009797999, 2.61649548E-05, 0.0002018312, -1.589265   , -0.0134024033, 0.000181012787, 921.972     , 32.1733665  , 789.712952  , 3.46        , 3           , 255         , 0           , 0
-0.1380165  , 9.79439     , 0.1636137   , 0.00108467718, 0.000189686049, -8.977998E-05, -1.58925414 , -0.0134033356, 0.000179132723, 921.972     , 32.1733665  , 789.7131    , 3.47        , 3           , 255         , 0           , 0
-0.1322964  , 9.793322    , 0.1614232   , 0.000950174464, -0.000153990928, -0.000644457759, -1.5892446  , -0.0134097505, 0.0001807911, 921.972     , 32.1733665  , 789.7132    , 3.48        , 3           , 255         , 0           , 0
-0.132631525, 9.797667    , 0.15442808  , 0.000594347366, 6.194305E-05, -0.0003604693, -1.58923864 , -0.0134133659, 0.000180237388, 921.972     , 32.1733665  , 789.7133    , 3.49        , 3           , 255         , 0           , 0
-0.135518074, 9.788489    , 0.150644422 , -0.000383553444, 4.752472E-05, 1.4789548E-05, -1.58924246 , -0.0134132281, 0.0001797605, 921.972     , 32.1733665  , 789.71344   , 3.5         , 3           , 255         , 0           , 0
-0.129301772, 9.807497    , 0.157152891 , -0.0009437961, 0.0002873849, -0.0005032351, -1.58921766 , -0.01341781 , 0.000176521557, 921.972     , 32.1733665  , 789.6468    , 3.51        , 3           , 255         , 0           , 0
-0.131075814, 9.800406    , 0.160134166 , -7.242573E-05, -6.15495956E-05, -0.00128799141, -1.58921838 , -0.0134306764, 0.000177373367, 921.972     , 32.1733665  , 789.6465    , 3.52        , 3           , 255         , 0           , 0
-0.132535711, 9.79593849  , 0.162822783 , 0.000479356 , -0.000255937543, 4.81885945E-06, -1.58921361 , -0.0134305805, 0.000179931463, 921.921753  , 32.1737747  , 789.6462    , 3.53        , 3           , 255         , 0           , 0
-0.135593086, 9.798411    , 0.152095884 , 0.000219345588, 8.536791E-05, 0.0003567291, -1.58921134 , -0.0134270294, 0.0001790117, 921.921753  , 32.1737747  , 789.6459    , 3.54        , 3           , 255         , 0           , 0
-0.138367146, 9.791152    , 0.156547189 , 0.000121052748, 0.000479553215, -0.000121279976, -1.58921015 , -0.0134283295, 0.000174239642, 921.921753  , 32.1737747  , 789.645569  , 3.55        , 3           , 255         , 0           , 0
-0.126842648, 9.784732    , 0.155445874 , -0.000137582043, 0.00028520354, -3.565188E-05, -1.58921158 , -0.0134287393, 0.000171394655, 921.921753  , 32.1737747  , 789.645264  , 3.56        , 3           , 255         , 0           , 0
-0.131679982, 9.791071    , 0.162253112 , -0.00105938141, -1.39886979E-05, 0.000406663632, -1.58922207 , -0.0134246694, 0.000171458916, 921.921753  , 32.1737747  , 789.644958  , 3.57        , 3           , 255         , 0           , 0
-0.127327472, 9.799893    , 0.149922863 , 0.000254705228, -0.0003051661, 9.169507E-05, -1.58921957 , -0.0134236971, 0.0001744939, 921.921753  , 32.1737747  , 789.644653  , 3.58        , 3           , 255         , 0           , 0
-0.1316183  , 9.791716    , 0.1647627   , 0.0009729668, -0.00012246627, 0.000180057716, -1.58920979 , -0.0134218745, 0.0001756847, 921.921753  , 32.1737747  , 789.644348  , 3.59        , 3           , 255         , 0           , 0
-0.134007066, 9.798206    , 0.1620322   , 0.000525364245, 2.59691442E-05, -8.753301E-05, -1.58920467 , -0.0134227565, 0.0001754416, 921.921753  , 32.1737747  , 789.644043  , 3.6         , 3           , 255         , 0           , 0
-0.139920026, 9.792536    , 0.160232931 , 0.000444116566, 0.000116114214, 3.39208782E-06, -1.589167   , -0.0134231541, 0.000173834909, 921.921753  , 32.1737747  , 789.658752  , 3.61        , 3           , 255         , 0           , 0
-0.140777558, 9.802345    , 0.15339911  , 0.000150316555, -0.00014260356, 0.000101891179, -1.58916545 , -0.01342211 , 0.000175242269, 921.921753  , 32.1737747  , 789.658569  , 3.62        , 3           , 255         , 0           , 0
-0.141750187, 9.798376    , 0.1577784   , -0.000301481283, -0.000354361226, 0.000427225168, -1.58916855 , -0.0134177729, 0.000178706614, 921.910156  , 32.17072    , 789.6584    , 3.63        , 3           , 255         , 0           , 0
-0.134909466, 9.800128    , 0.158247948 , 0.0007587981, -8.19872657E-05, 0.000408704072, -1.58916092 , -0.0134136705, 0.000179450828, 921.910156  , 32.17072    , 789.6582    , 3.64        , 3           , 255         , 0           , 0
-0.139946237, 9.804602    , 0.159236059 , 0.000109279194, -0.0004644633, 6.06912945E-05, -1.58915985 , -0.0134129785, 0.000184084085, 921.910156  , 32.17072    , 789.658     , 3.65        , 3           , 255         , 0           , 0
-0.150115326, 9.804721    , 0.151104853 , 0.000444749632, -0.000155670656, 0.000198764668, -1.58915544 , -0.0134109631, 0.00018560412, 921.910156  , 32.17072    , 789.657837  , 3.66        , 3           , 255         , 0           , 0
-0.1383203  , 9.797124    , 0.153976709 , 0.000242757436, -7.188774E-05, -1.70299681E-05, -1.58915293 , -0.0134111186, 0.000186325517, 921.910156  , 32.17072    , 789.657654  , 3.67        , 3           , 255         , 0           , 0
-0.141211033, 9.798559    , 0.150326535 , 0.000225681491, -9.41936451E-05, -0.0005089255, -1.58915067 , -0.01341619 , 0.0001873603, 921.910156  , 32.17072    , 789.6575    , 3.68        , 3           , 255         , 0           , 0
-0.138444   , 9.786288    , 0.162223011 , 0.000160216136, 1.739894E-05, -0.000131644541, -1.58914912 , -0.0134175066, 0.0001872113, 921.910156  , 32.17072    , 789.6573    , 3.69        , 3           , 255         , 0           , 0
-0.13999252 , 9.791544    , 0.145756647 , 0.0002162666, 0.000461723685, -0.000400142482, -1.58914685 , -0.0134215923, 0.000182668373, 921.910156  , 32.17072    , 789.6571    , 3.7         , 3           , 255         , 0           , 0
-0.131288543, 9.79954052  , 0.156639725 , 0.00138488086, -0.00012833238, -0.000563005859, -1.58909953 , -0.0134394653, 0.000183605909, 921.910156  , 32.17072    , 789.6863    , 3.71        , 3           , 255         , 0           , 0
-0.11991594 , 9.80351     , 0.1485182   , 0.0005504484, -3.580848E-06, -0.0007839274, -1.58909416 , -0.0134473033, 0.000183785654, 921.910156  , 32.17072    , 789.6863    , 3.72        , 3           , 255         , 0           , 0
-0.118981741, 9.800644    , 0.149959221 , -0.0001277529, -7.73020147E-05, -0.000328819442, -1.58909547 , -0.0134505769, 0.000184619726, 921.916748  , 32.1690254  , 789.6863    , 3.73        , 3           , 255         , 0           , 0
-0.1289897  , 9.816212    , 0.149552062 , 0.0010802605, -0.000453567685, 0.000123972059, -1.58908474 , -0.0134492526, 0.000189131955, 921.916748  , 32.1690254  , 789.6863    , 3.74        , 3           , 255         , 0           , 0
-0.139866963, 9.80870152  , 0.154413372 , 0.00152145373, -3.49850452E-05, -0.000406144245, -1.5890696  , -0.0134533085, 0.0001895562, 921.916748  , 32.1690254  , 789.6863    , 3.75        , 3           , 255         , 0           , 0
-0.133027986, 9.797409    , 0.144376352 , 0.00183611328, 0.000166591257, 7.443859E-05, -1.58905113 , -0.0134525951, 0.000187877347, 921.916748  , 32.1690254  , 789.6863    , 3.76        , 3           , 255         , 0           , 0
-0.142078489, 9.80147     , 0.145801038 , 0.0016845311, 0.0002816664, -0.000404317456, -1.5890342  , -0.0134566892, 0.0001851353, 921.916748  , 32.1690254  , 789.6863    , 3.77        , 3           , 255         , 0           , 0
-0.125649735, 9.791395    , 0.1428775   , 0.0006729123, 9.994372E-05, -0.0013338509, -1.58902752 , -0.0134700416, 0.000184379038, 921.916748  , 32.1690254  , 789.6863    , 3.78        , 3           , 255         , 0           , 0
-0.128593042, 9.788116    , 0.154769778 , -0.000528380042, -0.000306554168, -0.000441577984, -1.58903277 , -0.0134744029, 0.000187524871, 921.916748  , 32.1690254  , 789.6863    , 3.79        , 3           , 255         , 0           , 0
-0.124212205, 9.791634    , 0.145457119 , -0.000451051048, -1.01637852E-05, -0.000217147986, -1.5890373  , -0.01347657 , 0.000187666461, 921.916748  , 32.1690254  , 789.6863    , 3.8         , 3           , 255         , 0           , 0
-0.12398275 , 9.794066    , 0.155996889 , -0.000464903074, -0.0007987028, -0.000142193254, -1.58900583 , -0.0134747159, 0.000195189874, 921.916748  , 32.1690254  , 789.7022    , 3.81        , 3           , 255         , 0           , 0
-0.134813935, 9.788732    , 0.142263219 , -0.000896334357, -2.80241075E-05, -0.000152822264, -1.58901489 , -0.0134762395, 0.000195498171, 921.916748  , 32.1690254  , 789.702332  , 3.82        , 3           , 255         , 0           , 0
-0.140271649, 9.792588    , 0.153340459 , -0.000963297032, 0.0006153419, 0.00020731175, -1.58902454 , -0.0134742782, 0.000189308514, 921.935547  , 32.1667862  , 789.702454  , 3.83        , 3           , 255         , 0           , 0
-0.137271553, 9.790258    , 0.1484228   , -0.0007004336, 4.83883778E-05, -0.000459242234, -1.58903146 , -0.013478878, 0.000188908467, 921.935547  , 32.1667862  , 789.7026    , 3.84        , 3           , 255         , 0           , 0
-0.138063833, 9.801908    , 0.168330342 , -0.0007223765, -0.0004002828, -0.0004056973, -1.58903873 , -0.0134828584, 0.000192984357, 921.935547  , 32.1667862  , 789.7027    , 3.85        , 3           , 255         , 0           , 0
-0.131507486, 9.798926    , 0.165725    , -0.00109746808, -8.398891E-05, -0.0007581464, -1.5890497  , -0.0134904226, 0.000193962347, 921.935547  , 32.1667862  , 789.7028    , 3.86        , 3           , 255         , 0           , 0
-0.1388736  , 9.787645    , 0.161613733 , -0.00119298149, 0.0001598068, 7.486203E-05, -1.58906162 , -0.0134897036, 0.000192350068, 921.935547  , 32.1667862  , 789.702942  , 3.87        , 3           , 255         , 0           , 0
-0.134375021, 9.796862    , 0.148280561 , -0.00115119468, 0.000296580547, 0.000844390946, -1.58907306 , -0.0134813134, 0.000189230763, 921.935547  , 32.1667862  , 789.703064  , 3.88        , 3           , 255         , 0           , 0
-0.133933112, 9.799101    , 0.169559076 , -0.000225575612, -0.000455415866, -0.000402774458, -1.58907545 , -0.0134852612, 0.000193858461, 921.935547  , 32.1667862  , 789.7032    , 3.89        , 3           , 255         , 0           , 0
-0.133482426, 9.803925    , 0.157193154 , 0.000417192758, -0.0006456978, -5.69624826E-05, -1.58907115 , -0.013485712, 0.000200324765, 921.935547  , 32.1667862  , 789.7033    , 3.9         , 3           , 255         , 0           , 0
-0.140912518, 9.797651    , 0.158146411 , 0.000698667369, 3.45541048E-05, 8.670916E-05, -1.589032   , -0.013488696, 0.000199530245, 921.935547  , 32.1667862  , 789.6901    , 3.91        , 3           , 255         , 0           , 0
-0.137429729, 9.81156     , 0.14828153  , -0.00025951548, -6.839703E-05, -0.0005916024, -1.58903456 , -0.0134946  , 0.000200321985, 921.935547  , 32.1667862  , 789.6902    , 3.92        , 3           , 255         , 0           , 0
-0.134635061, 9.78053     , 0.153059781 , -0.0004300969, 5.156896E-05, -0.000450192369, -1.589039   , -0.0134991091, 0.000199888411, 921.903442  , 32.1693649  , 789.690247  , 3.93        , 3           , 255         , 0           , 0
-0.133159846, 9.78914452  , 0.149766564 , -0.000560083543, 5.546445E-05, -6.76549753E-05, -1.58904457 , -0.0134997945, 0.000199345886, 921.903442  , 32.1693649  , 789.6903    , 3.94        , 3           , 255         , 0           , 0
-0.125327259, 9.779673    , 0.158534572 , -0.00120491325, 0.000452833221, 0.0009154055, -1.58905661 , -0.0134907262, 0.000194651584, 921.903442  , 32.1693649  , 789.690369  , 3.95        , 3           , 255         , 0           , 0
-0.130789   , 9.7909565   , 0.146679968 , -0.00133993337, 0.0001427986, -0.0003068195, -1.58907    , -0.013493821, 0.000193280081, 921.903442  , 32.1693649  , 789.6904    , 3.96        , 3           , 255         , 0           , 0
-0.133872837, 9.809012    , 0.150515586 , -0.00112871919, 0.0001415029, 0.0007938586, -1.58908129 , -0.0134859076, 0.00019172045, 921.903442  , 32.1693649  , 789.6905    , 3.97        , 3           , 255         , 0           , 0
-0.14108184 , 9.801571    , 0.15048109  , -0.00105892471, 0.0002767027, 0.0007897892, -1.58909178 , -0.0134780612, 0.0001888093, 921.903442  , 32.1693649  , 789.690552  , 3.98        , 3           , 255         , 0           , 0
-0.14564772 , 9.796451    , 0.152321428 , -0.000542278052, -1.16894371E-05, 0.000462232681, -1.58909714 , -0.01347344 , 0.0001888414, 921.903442  , 32.1693649  , 789.6906    , 3.99        , 3           , 255         , 0           , 0
-0.137170777, 9.798221    , 0.145447522 , -0.003343485, -0.000416979718, -0.000210773316, -1.58913052 , -0.0134754712, 0.000193048574, 921.903442  , 32.1693649  , 789.6907    , 4           , 3           , 0           , 9.540236    , 400
-0.1273872  , 9.803578    , 0.156489655 , -0.008409217, -0.0006442575, 0.000326308334, -1.58917427 , -0.0134776756, 0.000198884765, 921.903442  , 32.1693649  , 789.7248    , 4.01        , 3           , 1           , 0           , 0
-0.126431376, 9.79937     , 0.151406    , -0.0146220531, -8.463205E-05, 0.0007751297, -1.58932042 , -0.0134699121, 0.000199588409, 921.903442  , 32.1693649  , 789.7251    , 4.02        , 3           , 2           , 0           , 0
-0.126857668, 9.80336952  , 0.167654932 , -0.0219739936, 0.000130160712, 0.000468350132, -1.58954    , -0.0134652527, 0.000198198773, 921.952454  , 32.16916    , 789.7254    , 4.03        , 3           , 3           , 0           , 0
-0.128437445, 9.793741    , 0.158534363 , -0.0259769  , 4.76203277E-05, 0.000912474061, -1.58979976 , -0.01345614 , 0.000197550471, 921.952454  , 32.16916    , 789.7257    , 4.04        , 3           , 4           , 0           , 0
-0.13905929 , 9.78232     , 0.183361247 , -0.0266804677, 5.5100536E-05, 0.000400862482, -1.59006643 , -0.0134521425, 0.000196922221, 921.952454  , 32.16916    , 789.726     , 4.05        , 3           , 5           , 0           , 0
-0.137442321, 9.791185    , 0.184824854 , -0.0221104138, -6.314472E-05, 0.000821459631, -1.59028769 , -0.0134439142, 0.00019739398, 921.952454  , 32.16916    , 789.7263    , 4.06        , 3           , 6           , 0           , 0
-0.133642882, 9.795458    , 0.1961399   , -0.0141212372, 9.01428E-05 , 0.000320296851, -1.59042883 , -0.0134407347, 0.0001964304, 921.952454  , 32.16916    , 789.7266    , 4.07        , 3           , 7           , 0           , 0
-0.1275583  , 9.78430748  , 0.189245224 , -0.005160844, -3.39510152E-05, -3.54912481E-06, -1.59048033 , -0.0134407608, 0.0001967704, 921.952454  , 32.16916    , 789.7269    , 4.08        , 3           , 8           , 5           , 5
-0.136948228, 9.786473    , 0.180856168 , 0.00273454539, 0.0001252202, 3.12121774E-05, -1.590453   , -0.0134404721, 0.000195511588, 921.952454  , 32.16916    , 789.727234  , 4.09        , 3           , 9           , 5           , 0.1
-0.138030052, 9.793276    , 0.180519924 , 0.00740666129, 0.00045406734, 3.15947254E-05, -1.59037888 , -0.0134402458, 0.000190964929, 921.952454  , 32.16916    , 789.727539  , 4.1         , 3           , 10          , 0.1         , 0.1
-0.1326293  , 9.796277    , 0.170144543 , 0.008832534 , 0.000281297835, 0.0007085839, -1.5902698  , -0.0134338569, 0.000187734826, 921.952454  , 32.16916    , 789.6868    , 4.11        , 3           , 11          , 0.007132802 , 0.007132795
-0.144473732, 9.802899    , 0.162161067 , 0.00815929  , -0.000293767022, 0.00163059309, -1.59018815 , -0.0134174991, 0.000190354782, 921.952454  , 32.16916    , 789.6869    , 4.12        , 3           , 12          , 0.174648076 , 0
-0.144798964, 9.811377    , 0.152350217 , 0.00488293  , -7.588649E-06, 0.0003543254, -1.59013939 , -0.0134139555, 0.0001903627, 921.932556  , 32.17167    , 789.686951  , 4.13        , 3           , 13          , 0           , 0
-0.132405072, 9.798147    , 0.1558964   , 0.000694966 , 0.0001595373, 0.0008140753, -1.59013236 , -0.0134058474, 0.00018860976, 921.932556  , 32.17167    , 789.687     , 4.14        , 3           , 14          , 7.58604656E-05, -0.000369225163
