Acc X       , Acc Y       , Acc Z       , Gyro X      , Gyro Y      , Gyro Z      , Euler X     , Euler Y     , Euler Z     , Pres X      , Pres Y      , Pres Z      , Time        , Status      , LowRate X   , LowRate Y   , LowRate Z    
9.785481    , 0.100135252 , 0.174110785 , 0           , 0           , 0           , -2.61966538 , 1.55027366  , 0           , 921.965454  , 32.50423    , 789.348     , 0           , 2           , 0           , 5.04323149  , 0
9.789315    , 0.102301821 , 0.210141659 , -0.000232679071, 0.000637640944, -0.000443635217, -2.61966538 , 1.55026782  , 2.38418579E-06, 921.965454  , 32.50423    , 789.348     , 0.01        , 3           , 1           , 0           , 0
9.78536     , 0.09333886  , 0.2102445   , 0.000126490369, 0.003260958 , -0.0006721004, -2.61966538 , 1.550233    , 9.536743E-07, 921.965454  , 32.50423    , 789.348     , 0.02        , 3           , 2           , 0           , 0
9.787838    , 0.0985172242, 0.2061055   , 0.000119479548, 0.00566581869, -0.0003873563, -2.61966538 , 1.55018961  , -4.76837158E-07, 921.8877    , 32.094532   , 789.348     , 0.03        , 3           , 3           , 0           , 0
9.795469    , 0.100373372 , 0.2106239   , 0.000272865058, 0.007277373 , 0.000236228778, -2.61966538 , 1.55012608  , -3.57627869E-06, 921.8877    , 32.094532   , 789.348     , 0.04        , 3           , 4           , 0           , 0
9.802766    , 0.09610617  , 0.236293957 , -0.000128048181, 0.004197817 , 0.00011361103, -2.61966538 , 1.5500828   , -2.62260437E-06, 921.8877    , 32.094532   , 789.348     , 0.05        , 3           , 5           , 0           , 0
9.795843    , 0.106882177 , 0.235497549 , -0.000175930676, -0.00193725224, -0.000599152467, -2.61966538 , 1.55009723  , -7.15255737E-07, 921.8877    , 32.094532   , 789.348     , 0.06        , 3           , 6           , 0           , 0
9.783697    , 0.113356031 , 0.210197255 , -1.3571931E-05, -0.00308708544, 0.0004473853, -2.61966538 , 1.55012894  , -4.76837158E-07, 921.8877    , 32.094532   , 789.348     , 0.07        , 3           , 7           , 0           , 0
9.792253    , 0.09596805  , 0.209285051 , 0.000424894417, 0.000122096855, 0.000352223753, -2.61966538 , 1.55012894  , -4.76837158E-06, 921.8877    , 32.094532   , 789.348     , 0.08        , 3           , 8           , 5           , 5
9.79342     , 0.09770282  , 0.2156403   , 0.000456144451, 0.0007688049, 7.102976E-05, -2.61966538 , 1.5501231   , -9.298325E-06, 921.8877    , 32.094532   , 789.348     , 0.09        , 3           , 9           , 5           , 0.1
9.780114    , 0.105473414 , 0.218123883 , 0.000244496623, -0.0004747247, 0.000409340078, -2.61966538 , 1.5501318   , -1.168251E-05, 921.8877    , 32.094532   , 789.348     , 0.1         , 3           , 10          , 0.1         , 0.1
9.793793    , 0.09594538  , 0.238099888 , 0.00017864682, -0.006028272, 0.00014678888, -2.61966538 , 1.55003107  , -1.23977661E-05, 921.8877    , 32.094532   , 790.04834   , 0.11        , 19          , 11          , 0.0109544508, 0.0109544508
9.797469    , 0.09843298  , 0.214925617 , 0.0005172287, -0.0108199241, -0.0002473652, -2.61966538 , 1.55011737  , -1.692772E-05, 921.8877    , 32.094532   , 790.04834   , 0.12        , 19          , 12          , 0.174642488 , 0
9.786494    , 0.0916089   , 0.202619955 , 0.0005251401, -0.008751411, 6.34489E-05 , -2.61966538 , 1.55019534  , -2.169609E-05, 921.8989    , 32.13605    , 790.04834   , 0.13        , 19          , 13          , 0           , 0
9.78174     , 0.0976099148, 0.175609276 , 0.000218374451, -0.00479329936, 9.150182E-05, -2.61966538 , 1.550233    , -2.360344E-05, 921.8989    , 32.13605    , 790.04834   , 0.14        , 19          , 14          , -0.000567173469, -0.00316407252
9.783468    , 0.110507347 , 0.177396849 , 0.000349707843, 0.006426562 , 0.0004943047, -2.61966538 , 1.55018961  , -2.76565552E-05, 921.8989    , 32.13605    , 790.04834   , 0.15        , 19          , 15          , 0           , -1.87326186E-05
9.795179    , 0.103641972 , 0.2292865   , 0.000155732938, 0.009554379 , -0.0001003192, -2.61966538 , 1.55010879  , -2.95639038E-05, 921.8989    , 32.13605    , 790.04834   , 0.16        , 19          , 16          , 0           , 1.401298E-45
9.804932    , 0.09706288  , 0.2331132   , 0.000181078591, 0.00416725129, 0.0006806843, -2.61966538 , 1.55007136  , -3.170967E-05, 921.8989    , 32.13605    , 790.04834   , 0.17        , 19          , 20          , 0           , 0
9.810507    , 0.10515511  , 0.24110572  , 0.000668249268, -0.00288809882, -0.00041110054, -2.61966538 , 1.55009437  , -3.81469727E-05, 921.8989    , 32.13605    , 790.0484    , 0.18        , 19          , 21          , 0           , 0
9.794715    , 0.101295292 , 0.213805    , 0.0006209455, -0.007709072, -0.000148990235, -2.61966538 , 1.55016065  , -4.386902E-05, 921.8989    , 32.13605    , 790.048462  , 0.19        , 19          , 22          , 0           , 0
9.799123    , 0.104785129 , 0.2003859   , 0.000351592 , -0.00658040959, -0.000313526165, -2.61966538 , 1.55021274  , -4.696846E-05, 921.8989    , 32.13605    , 790.0485    , 0.2         , 19          , 40          , 0           , 0
9.784271    , 0.104659662 , 0.200515792 , 0.0006531899, -0.004677764, -1.40972588E-06, -2.61966538 , 1.55014622  , -5.2690506E-05, 921.8989    , 32.13605    , 789.998352  , 0.21        , 19          , 41          , 0           , 0
9.791675    , 0.103398278 , 0.2025199   , -7.23835E-05, -0.00246426114, -0.0001610743, -2.61966538 , 1.55016351  , -5.173683E-05, 921.8989    , 32.13605    , 789.9984    , 0.22        , 19          , 42          , 0           , 0
9.794467    , 0.09676969  , 0.217865467 , -0.0007127296, -0.00416147336, -0.00063954934, -2.61966538 , 1.5501982   , -4.45842743E-05, 921.882446  , 32.1605453  , 789.9985    , 0.23        , 19          , 255         , 0           , 0
9.799869    , 0.100547172 , 0.200728267 , -0.0005444694, -0.004808938, -0.000178213479, -2.61966538 , 1.55023587  , -3.862381E-05, 921.882446  , 32.1605453  , 789.998535  , 0.24        , 19          , 255         , 0           , 0
9.785247    , 0.09495381  , 0.202462792 , -0.000221783936, -0.00531086326, 7.693881E-05, -2.61966538 , 1.55029106  , -3.6239624E-05, 921.882446  , 32.1605453  , 789.9986    , 0.25        , 19          , 255         , 0           , 0
9.797406    , 0.0930115   , 0.203320146 , 0.000273630634, -0.005190213, 0.000734692847, -2.61966538 , 1.55033469  , -3.886223E-05, 921.882446  , 32.1605453  , 789.998657  , 0.26        , 19          , 255         , 0           , 0
9.795301    , 0.100889206 , 0.195240527 , -0.0003182186, -0.003678351, -0.000102615813, -2.61966538 , 1.55036676  , -3.528595E-05, 921.882446  , 32.1605453  , 789.9987    , 0.27        , 19          , 255         , 0           , 0
9.789629    , 0.101141334 , 0.17910859  , -5.14338026E-05, 0.000841987552, -1.09220946E-05, -2.61966538 , 1.55036092  , -3.48091125E-05, 921.882446  , 32.1605453  , 789.9988    , 0.28        , 19          , 255         , 0           , 0
9.793113    , 0.0926463753, 0.180866    , -0.0005987089, 0.00670276023, 0.000277727 , -2.61966538 , 1.55031145  , -2.93254852E-05, 921.882446  , 32.1605453  , 789.99884   , 0.29        , 19          , 255         , 0           , 0
9.79614449  , 0.09936355  , 0.205045909 , 0.0004988778, 0.006372887 , 0.0004923411, -2.61966538 , 1.55024755  , -3.4570694E-05, 921.882446  , 32.1605453  , 789.9989    , 0.3         , 19          , 255         , 0           , 0
9.793135    , 0.09768864  , 0.21344848  , 0.000100081554, 0.00484077167, 0.0003680144, -2.61966538 , 1.5501318   , -3.552437E-05, 921.882446  , 32.1605453  , 790.0317    , 0.31        , 19          , 255         , 0           , 0
9.79126     , 0.09697952  , 0.2139534   , -0.000291477772, 0.002598924 , 0.000638978439, -2.61966538 , 1.55011451  , -3.26633453E-05, 921.882446  , 32.1605453  , 790.031738  , 0.32        , 19          , 255         , 0           , 0
9.79653     , 0.0992578641, 0.211213544 , 0.0002863767, -0.000656284159, -0.0002554942, -2.61966538 , 1.5501231   , -3.552437E-05, 921.928955  , 32.17669    , 790.0318    , 0.33        , 19          , 255         , 0           , 0
9.803815    , 0.09540482  , 0.21692872  , 0.000180888019, -0.00278432085, -0.0003858856, -2.61966538 , 1.5501405   , -3.71933E-05, 921.928955  , 32.17669    , 790.03186   , 0.34        , 19          , 255         , 0           , 0
9.798289    , 0.09688468  , 0.200408772 , 0.000207840756, -0.0036290728, -0.0008205044, -2.61966538 , 1.55016649  , -3.886223E-05, 921.928955  , 32.17669    , 790.0319    , 0.35        , 19          , 255         , 0           , 0
9.78805     , 0.09426065  , 0.162524238 , -0.000372017035, 0.000814819 , -7.07526124E-06, -2.61966538 , 1.55016649  , -3.528595E-05, 921.928955  , 32.17669    , 790.032     , 0.36        , 19          , 255         , 0           , 0
9.780474    , 0.104927674 , 0.160242751 , 0.000295921869, 0.0109463977, 0.0008346434, -2.61966538 , 1.55007422  , -3.9100647E-05, 921.928955  , 32.17669    , 790.032043  , 0.37        , 19          , 255         , 0           , 0
9.788501    , 0.100166962 , 0.17355375  , 0.0001417418, 0.021679299 , 0.000377728662, -2.63082242 , 1.54989374  , -0.0111988755, 921.928955  , 32.17669    , 790.0321    , 0.38        , 19          , 255         , 0           , 0
9.79834     , 0.107597604 , 0.214812353 , 0.000274507445, 0.0240830984, 0.000203799835, -2.636479   , 1.54967809  , -0.01685898 , 921.928955  , 32.17669    , 790.032166  , 0.39        , 19          , 255         , 0           , 0
9.804916    , 0.1025761   , 0.2277734   , 0.0001875759, 0.0198278539, 0.000938972 , -2.64137077 , 1.549515    , -0.0217540264, 921.928955  , 32.17669    , 790.0322    , 0.4         , 19          , 255         , 0           , 0
9.792445    , 0.100816116 , 0.228377029 , 0.000416044029, 0.014762992 , 0.00059859897, -2.64667    , 1.54931712  , -0.0270584468, 921.928955  , 32.17669    , 789.941956  , 0.41        , 19          , 255         , 0           , 0
9.786535    , 0.104207493 , 0.221839875 , 0.000396706222, 0.009910272 , -0.000169987441, -2.64878035 , 1.54923117  , -0.0291723069, 921.928955  , 32.17669    , 789.942     , 0.42        , 19          , 255         , 0           , 0
9.786392    , 0.09600662  , 0.214836881 , 0.000161358883, 0.00720041664, 1.025459E-05, -2.65035844 , 1.54916775  , -0.0307520572, 921.897766  , 32.1887665  , 789.9421    , 0.43        , 19          , 255         , 0           , 0
9.78817     , 0.102367237 , 0.205109283 , 3.04755522E-05, 0.00711757  , 0.0007194846, -2.65219831 , 1.54910994  , -0.03259413 , 921.897766  , 32.1887665  , 789.942139  , 0.44        , 19          , 255         , 0           , 0
9.794504    , 0.101066113 , 0.2340767   , 8.468225E-06, 0.00651345262, 1.222384E-05, -2.653611   , 1.54904413  , -0.034006808, 921.897766  , 32.1887665  , 789.9422    , 0.45        , 19          , 255         , 0           , 0
9.798666    , 0.09241315  , 0.231762886 , -0.000388676068, 0.00249509513, 2.4719091E-05, -2.65416336 , 1.54902494  , -0.0345540829, 921.897766  , 32.1887665  , 789.942261  , 0.46        , 19          , 255         , 0           , 0
9.787528    , 0.09354559  , 0.192624912 , -9.529962E-05, 0.00282437121, -0.000696207455, -2.65448713 , 1.54899752  , -0.0348781645, 921.897766  , 32.1887665  , 789.9423    , 0.47        , 19          , 255         , 0           , 0
9.787025    , 0.0983770043, 0.1930264   , 0.0008653237, 0.00630710041, -0.0004427161, -2.65564919 , 1.54894841  , -0.0360488  , 921.897766  , 32.1887665  , 789.9424    , 0.48        , 19          , 255         , 0           , 0
9.78644     , 0.10154815  , 0.2049447   , 1.32077839E-05, 0.008241227 , -0.000310836971, -2.65727878 , 1.5488776   , -0.03767904 , 921.897766  , 32.1887665  , 789.942444  , 0.49        , 19          , 255         , 0           , 0
9.783781    , 0.09863153  , 0.211783051 , 0.000183761789, 0.01062413  , 6.211846E-05, -2.65954661 , 1.54876637  , -0.0399497747, 921.897766  , 32.1887665  , 789.9425    , 0.5         , 19          , 255         , 0           , 0
9.784448    , 0.10079243  , 0.218567818 , 0.000133202586, 0.0109201893, -0.0003680002, -2.66415882 , 1.548575    , -0.0445619635, 921.897766  , 32.1887665  , 789.945435  , 0.51        , 19          , 255         , 0           , 0
9.795842    , 0.103000678 , 0.233965844 , -0.000393181515, 0.00745792966, -2.75786024E-05, -2.66568875 , 1.548508    , -0.0460886  , 921.897766  , 32.1887665  , 789.9455    , 0.52        , 19          , 255         , 0           , 0
9.788792    , 0.0974195451, 0.215744257 , 0.0003809664, 0.00468198257, -0.000519002962, -2.666439   , 1.54846537  , -0.0468422733, 921.880554  , 32.1969757  , 789.945557  , 0.53        , 19          , 255         , 0           , 0
9.802796    , 0.09557787  , 0.24874191  , 0.0003184294, 0.00127977878, -0.0006481037, -2.66643977 , 1.548452    , -0.0468468145, 921.880554  , 32.1969757  , 789.9456    , 0.54        , 19          , 255         , 0           , 0
9.793141    , 0.0962075442, 0.245645851 , 0.000372106733, -0.00644803047, -0.000299971842, -2.66499352 , 1.54850006  , -0.04540385 , 921.880554  , 32.1969757  , 789.9457    , 0.55        , 19          , 255         , 0           , 0
9.800657    , 0.09503884  , 0.247817114 , 0.00043521577, -0.0129498551, -0.00014822818, -2.66225171 , 1.548618    , -0.0426659361, 921.880554  , 32.1969757  , 789.9458    , 0.56        , 19          , 255         , 0           , 0
9.784493    , 0.10392078  , 0.2071842   , 0.000104695122, -0.0155468481, 0.0005047799, -2.659198   , 1.54876637  , -0.03961251 , 921.880554  , 32.1969757  , 789.9459    , 0.57        , 19          , 255         , 0           , 0
9.787287    , 0.102496706 , 0.178801388 , -0.000313458673, -0.0103648771, -0.000309916883, -2.65688658 , 1.54886127  , -0.0372967273, 921.880554  , 32.1969757  , 789.946045  , 0.58        , 19          , 255         , 0           , 0
9.786258    , 0.09928879  , 0.1834797   , 0.000345690554, -0.002683263, -0.0006776094, -2.65603733 , 1.54887486  , -0.0364514776, 921.880554  , 32.1969757  , 789.946167  , 0.59        , 19          , 255         , 0           , 0
9.778242    , 0.103895307 , 0.190235585 , 0.0005511946, 0.00264542876, 0.000669711444, -2.6568644  , 1.54885578  , -0.0372837633, 921.880554  , 32.1969757  , 789.9463    , 0.6         , 19          , 255         , 0           , 0
9.787054    , 0.0913846642, 0.203417063 , -0.000466974336, 0.00556086935, 0.000588221359, -2.66014123 , 1.54872584  , -0.040555343, 921.880554  , 32.1969757  , 789.9754    , 0.61        , 19          , 255         , 0           , 0
9.790409    , 0.0880721658, 0.206727743 , 0.00040330537, 0.006900853 , 0.000191287865, -2.66165757 , 1.54867184  , -0.0420768969, 921.880554  , 32.1969757  , 789.9755    , 0.62        , 19          , 255         , 0           , 0
9.7936      , 0.09666372  , 0.206142947 , 0.000435039925, 0.009415761 , 0.000495400571, -2.66380882 , 1.54858851  , -0.0442330129, 921.8958    , 32.2045059  , 789.975647  , 0.63        , 19          , 255         , 0           , 0
9.803377    , 0.1026248   , 0.221682876 , 0.000387136271, 0.00740951672, 0.000406618754, -2.665496   , 1.54852676  , -0.0459251478, 921.8958    , 32.2045059  , 789.975769  , 0.64        , 19          , 255         , 0           , 0
9.799223    , 0.09645723  , 0.209528714 , -0.000296184735, 0.006136725 , -0.000729093561, -2.66646934 , 1.54846537  , -0.04689576 , 921.8958    , 32.2045059  , 789.9759    , 0.65        , 19          , 255         , 0           , 0
9.796212    , 0.106158659 , 0.226260468 , -7.10694E-05, 0.00415620953, -0.00012013087, -2.66727185 , 1.54842532  , -0.04769765 , 921.8958    , 32.2045059  , 789.976     , 0.66        , 19          , 255         , 0           , 0
9.784369    , 0.101891741 , 0.217288226 , -0.0004075225, 0.00159250654, 4.74546723E-05, -2.667619   , 1.54842532  , -0.0480407141, 921.8958    , 32.2045059  , 789.976135  , 0.67        , 19          , 255         , 0           , 0
9.795731    , 0.106209494 , 0.219628453 , 0.000245974341, 0.00115770451, 0.000405359548, -2.66801357 , 1.54840672  , -0.0484376922, 921.8958    , 32.2045059  , 789.976257  , 0.68        , 19          , 255         , 0           , 0
9.7914505   , 0.09856041  , 0.231069088 , -1.5009311E-05, -0.001465738, 0.0009177283, -2.668081   , 1.54842269  , -0.0485036559, 921.8958    , 32.2045059  , 789.9764    , 0.69        , 19          , 255         , 0           , 0
9.777304    , 0.112954043 , 0.195422143 , -0.000204269309, -0.0005078155, -0.000125417573, -2.66792846 , 1.54842794  , -0.0483508669, 921.8958    , 32.2045059  , 789.9765    , 0.7         , 19          , 255         , 0           , 0
9.790736    , 0.111135051 , 0.2000299   , -6.318488E-05, 0.00303223333, -0.0002557119, -2.669713   , 1.54834819  , -0.05013362 , 921.8958    , 32.2045059  , 789.97644   , 0.71        , 19          , 255         , 0           , 0
9.79713     , 0.106193982 , 0.183819771 , 0.0003562738, 0.00757463975, -0.000391964044, -2.6710825  , 1.54827929  , -0.0515073724, 921.8958    , 32.2045059  , 789.976563  , 0.72        , 19          , 255         , 0           , 0
9.788371    , 0.09948645  , 0.1963327   , 0.000251332676, 0.014137242 , -0.000119059885, -2.67386484 , 1.5481447   , -0.054292012, 921.867737  , 32.2066078  , 789.9767    , 0.73        , 19          , 255         , 0           , 0
9.782582    , 0.104512051 , 0.2167593   , -5.16272848E-06, 0.0155939013, -4.60995761E-06, -2.6769464  , 1.54801345  , -0.0573748276, 921.867737  , 32.2066078  , 789.9768    , 0.74        , 19          , 255         , 0           , 0
9.790096    , 0.107483089 , 0.2039073   , -0.000110106077, 0.0160728339, -0.0005411041, -2.679875   , 1.54786742  , -0.0603036024, 921.867737  , 32.2066078  , 789.9769    , 0.75        , 19          , 255         , 0           , 0
9.786799    , 0.0979402661, 0.214746952 , -0.000144746038, 0.0183413029, -0.000297428429, -2.6833005  , 1.5477016   , -0.06372805 , 921.867737  , 32.2066078  , 789.977051  , 0.76        , 19          , 255         , 0           , 0
9.789228    , 0.09999429  , 0.220114946 , 0.000152888155, 0.01771395  , 0.000244592316, -2.68676233 , 1.5475421   , -0.06719355 , 921.867737  , 32.2066078  , 789.9772    , 0.77        , 19          , 255         , 0           , 0
9.798001    , 0.103016578 , 0.227420047 , 0.000442200253, 0.0158263035, 0.000247470365, -2.68982458 , 1.547399    , -0.0702605  , 921.867737  , 32.2066078  , 789.9773    , 0.78        , 19          , 255         , 0           , 0
9.782888    , 0.103334859 , 0.219803333 , 0.000379929872, 0.0137912277, 4.33200839E-05, -2.69239736 , 1.54727709  , -0.0728379861, 921.867737  , 32.2066078  , 789.9774    , 0.79        , 19          , 255         , 0           , 0
9.78498     , 0.09717744  , 0.223055527 , -0.000251629855, 0.0131368041, -0.000693173963, -2.69454765 , 1.54715061  , -0.0749855638, 921.867737  , 32.2066078  , 789.977539  , 0.8         , 19          , 255         , 0           , 0
9.787485    , 0.109832011 , 0.208266616 , 0.000452608685, 0.0128912544, 0.00026972976, -2.697264   , 1.54700243  , -0.07770711 , 921.867737  , 32.2066078  , 790.0126    , 0.81        , 19          , 255         , 0           , 0
9.80168152  , 0.09581001  , 0.226504    , -0.0001120246, 0.0145638995, -0.00021788408, -2.69979882 , 1.54687     , -0.0802422762, 921.867737  , 32.2066078  , 790.012756  , 0.82        , 19          , 255         , 0           , 0
9.795453    , 0.09724499  , 0.248262122 , -0.000363591127, 0.01144189  , 0.000198629874, -2.7019124  , 1.54676306  , -0.08235313 , 921.9185    , 32.21251    , 790.012939  , 0.83        , 19          , 255         , 0           , 0
9.791235    , 0.106845282 , 0.2508567   , -0.0007095049, 0.00509337476, -0.000688479748, -2.70256019 , 1.54671848  , -0.08299374 , 921.9185    , 32.21251    , 790.0131    , 0.84        , 19          , 255         , 0           , 0
9.796854    , 0.10405843  , 0.252694935 , -0.000228951511, -0.002095932, 0.000470064842, -2.70237    , 1.54673088  , -0.0828001052, 921.9185    , 32.21251    , 790.0133    , 0.85        , 19          , 255         , 0           , 0
9.794101    , 0.09457394  , 0.227598146 , 9.871958E-05, -0.00561608374, 0.00114328694, -2.70180559 , 1.54679286  , -0.0822365358, 921.9185    , 32.21251    , 790.0135    , 0.86        , 19          , 255         , 0           , 0
9.78481     , 0.0967165455, 0.221196935 , -0.0005656252, -0.005186149, 0.000205069213, -2.70096564 , 1.54683757  , -0.08139135 , 921.9185    , 32.21251    , 790.0137    , 0.87        , 19          , 255         , 0           , 0
9.784075    , 0.08865471  , 0.201003358 , -0.0001670965, -0.00159927621, -4.844574E-05, -2.700664   , 1.54685259  , -0.0810869  , 921.9185    , 32.21251    , 790.013855  , 0.88        , 19          , 255         , 0           , 0
9.79677     , 0.09919107  , 0.225241274 , 0.000274577527, 0.00275112642, -0.0007324016, -2.70087385 , 1.54682767  , -0.08130005 , 921.9185    , 32.21251    , 790.014038  , 0.89        , 19          , 255         , 0           , 0
9.796469    , 0.0996845141, 0.246555179 , -0.000125739549, -0.00110347453, -0.0003116166, -2.70056272 , 1.54683018  , -0.08098723 , 921.9185    , 32.21251    , 790.0142    , 0.9         , 19          , 255         , 0           , 0
9.801935    , 0.102310441 , 0.255261272 , 0.000107198837, -0.008399113, 0.000194185224, -2.700094   , 1.54687     , -0.0805196539, 921.9185    , 32.21251    , 789.9834    , 0.91        , 19          , 255         , 0           , 0
9.80224     , 0.09755325  , 0.2198729   , 0.000104320061, -0.0131616611, -8.010909E-05, -2.69770169 , 1.54699242  , -0.0781284347, 921.9185    , 32.21251    , 789.9835    , 0.92        , 19          , 255         , 0           , 0
9.794111    , 0.09825185  , 0.20250313  , -0.0003019544, -0.010225255, -0.000609649345, -2.69562149 , 1.54708016  , -0.0760437846, 921.910339  , 32.2185478  , 789.9837    , 0.93        , 19          , 255         , 0           , 0
9.779201    , 0.102048233 , 0.193908334 , -7.895235E-05, -0.00496686064, 0.000207636549, -2.6947968  , 1.54712045  , -0.07521772 , 921.910339  , 32.2185478  , 789.9839    , 0.94        , 19          , 255         , 0           , 0
9.78875     , 0.100070573 , 0.18403247  , -0.000239047979, 0.00182653172, -0.000156925613, -2.69507217 , 1.5470978   , -0.0754913241, 921.910339  , 32.2185478  , 789.9841    , 0.95        , 19          , 255         , 0           , 0
9.79007149  , 0.09570669  , 0.191396683 , -0.000232806255, 0.008206423 , -0.000543664, -2.6963582  , 1.54703     , -0.07677607 , 921.910339  , 32.2185478  , 789.984253  , 0.96        , 19          , 255         , 0           , 0
9.788081    , 0.09149272  , 0.205495745 , 0.0003906679, 0.011065566 , -0.000461285352, -2.69817543 , 1.54692483  , -0.07859826 , 921.910339  , 32.2185478  , 789.984436  , 0.97        , 19          , 255         , 0           , 0
9.793388    , 0.09890803  , 0.22576943  , -0.0002510358, 0.00999712  , 0.0002898931, -2.700079   , 1.54683757  , -0.08049771 , 921.910339  , 32.2185478  , 789.9846    , 0.98        , 19          , 255         , 0           , 0
9.790608    , 0.09579561  , 0.228482723 , -0.0005791259, 0.007214915 , 0.000234186955, -2.7014544  , 1.54677057  , -0.0818687454, 921.910339  , 32.2185478  , 789.9848    , 0.99        , 19          , 255         , 0           , 0
9.789837    , 0.09405909  , 0.231862783 , -0.0005878321, 0.00364089035, -0.000241193091, -2.7020154  , 1.54673827  , -0.08242358 , 921.910339  , 32.2185478  , 789.985     , 1           , 19          , 0           , 6.04323626  , 100
9.791016    , 0.102393806 , 0.228811264 , 3.59861879E-05, 0.00081218197, -0.000278651365, -2.70258021 , 1.546721    , -0.08298855 , 921.910339  , 32.2185478  , 789.9683    , 1.01        , 19          , 1           , 0           , 0
9.787987    , 0.096901454 , 0.205544353 , -0.000231366255, 0.00115449633, -4.44359757E-05, -2.70277023 , 1.54671347  , -0.08317638 , 921.910339  , 32.2185478  , 789.968445  , 1.02        , 19          , 2           , 0           , 0
9.790135    , 0.105147704 , 0.2270354   , -0.000397680153, 0.005411213 , -0.000377026736, -2.703586   , 1.5466665   , -0.08398863 , 921.9451    , 32.2190933  , 789.968567  , 1.03        , 19          , 3           , 0           , 0
9.79514     , 0.102103963 , 0.235786676 , 3.31017654E-05, 0.00336246169, -0.000191141487, -2.70410323 , 1.54662955  , -0.08450579 , 921.9451    , 32.2190933  , 789.9687    , 1.04        , 19          , 4           , 0           , 0
9.789869    , 0.106625721 , 0.239878461 , 0.00015247392, -0.00197363016, 0.000630790135, -2.70399237 , 1.54664683  , -0.08439695 , 921.9451    , 32.2190933  , 789.9688    , 1.05        , 19          , 5           , 0           , 0
9.788754    , 0.101505019 , 0.208747864 , 0.000120338314, -0.00421370473, 0.000224416013, -2.70333481 , 1.5466913   , -0.0837406442, 921.9451    , 32.2190933  , 789.968933  , 1.06        , 19          , 6           , 0           , 0
9.785261    , 0.09227359  , 0.230402678 , -3.53679643E-05, -0.005479033, 0.0008554432, -2.70269    , 1.54673827  , -0.083095856, 921.9451    , 32.2190933  , 789.969055  , 1.07        , 19          , 7           , 0           , 0
9.794009    , 0.0978010148, 0.213427931 , -0.00012281118, -0.007246406, 3.54895456E-05, -2.7014215  , 1.54680526  , -0.0818241  , 921.9451    , 32.2190933  , 789.9692    , 1.08        , 19          , 8           , 5           , 5
9.77493     , 0.107774533 , 0.17391941  , -0.000230121834, -0.00271355384, 0.000108280765, -2.700982   , 1.54683018  , -0.0813828  , 921.9451    , 32.2190933  , 789.9693    , 1.09        , 19          , 9           , 5           , 0.1
9.779062    , 0.104513444 , 0.153389126 , -0.0003502153, 0.009453738 , 0.000432467 , -2.70282364 , 1.54675317  , -0.083221525, 921.9451    , 32.2190933  , 789.9694    , 1.1         , 19          , 10          , 0.1         , 0.1
9.786647    , 0.105243027 , 0.206921384 , -0.00037321978, 0.019744765 , 0.000209288308, -2.705966   , 1.54657781  , -0.08636106 , 921.9451    , 32.2190933  , 789.9183    , 1.11        , 19          , 11          , 0.009201114 , 0.009201115
9.790858    , 0.0980206057, 0.2399139   , -0.000168549246, 0.0188304558, 0.000148026156, -2.70928121 , 1.546406    , -0.0896756  , 921.9451    , 32.2190933  , 789.9183    , 1.12        , 19          , 12          , 0.174642846 , 0
9.777983    , 0.08611187  , 0.240367457 , 0.000124560262, 0.016327329 , 0.000131090288, -2.712116   , 1.5462575   , -0.09251279 , 921.944641  , 32.22228    , 789.9183    , 1.13        , 19          , 13          , 0           , 0
9.796069    , 0.09590711  , 0.257083654 , 0.000285825954, 0.0105717378, 9.257257E-06, -2.71390367 , 1.54616773  , -0.09430374 , 921.944641  , 32.22228    , 789.9183    , 1.14        , 19          , 14          , -0.0005671703, -0.003164382
9.803801    , 0.08634375  , 0.247382447 , 0.000323778571, 0.00183449069, -0.000271143217, -2.71410871 , 1.54614592  , -0.09451266 , 921.944641  , 32.22228    , 789.9183    , 1.15        , 19          , 15          , 0           , -1.87306869E-05
9.797937    , 0.09058118  , 0.2450833   , -0.000227411918, -0.00480486732, -0.000186759891, -2.713234   , 1.54618227  , -0.09363446 , 921.944641  , 32.22228    , 789.9183    , 1.16        , 19          , 16          , 0           , 1.401298E-45
9.793127    , 0.110245347 , 0.234860972 , 0.0005756324, -0.0100525059, 0.000257367326, -2.71161914 , 1.54627931  , -0.0920251757, 921.944641  , 32.22228    , 789.9183    , 1.17        , 19          , 20          , 0           , 0
9.793763    , 0.09756331  , 0.211477086 , 0.000152118213, -0.0108248042, 0.0005043447, -2.70995569 , 1.54638171  , -0.0903632343, 921.944641  , 32.22228    , 789.9183    , 1.18        , 19          , 21          , 0           , 0
9.791212    , 0.09306289  , 0.193952486 , -0.000284152862, -0.00642401166, 2.81094872E-05, -2.70886683 , 1.54644275  , -0.0892701745, 921.944641  , 32.22228    , 789.9183    , 1.19        , 19          , 22          , 0           , 0
9.786558    , 0.100116968 , 0.170009583 , 5.301443E-05, 0.00260288315, 9.692655E-05, -2.70934987 , 1.54641581  , -0.0897553638, 921.944641  , 32.22228    , 789.918335  , 1.2         , 19          , 40          , 0           , 0
9.781406    , 0.103259839 , 0.184503436 , 0.000402328878, 0.0120205954, -0.000293636142, -2.71190786 , 1.54629636  , -0.09231715 , 921.944641  , 32.22228    , 789.874451  , 1.21        , 19          , 41          , 0           , 0
9.794828    , 0.0932271   , 0.2057054   , 3.16455262E-05, 0.0157941375, 0.0009008397, -2.714911   , 1.54615808  , -0.09532099 , 921.944641  , 32.22228    , 789.8743    , 1.22        , 19          , 42          , 0           , 0
9.795206    , 0.09865058  , 0.2165111   , -2.65954877E-05, 0.016797334 , 0.0008337661, -2.71801972 , 1.54601085  , -0.09843114 , 921.926636  , 32.2253342  , 789.8742    , 1.23        , 19          , 255         , 0           , 0
9.782366    , 0.09713114  , 0.217469215 , -9.75157E-05, 0.0174105652, 7.774357E-05, -2.72092    , 1.54585028  , -0.101330936, 921.926636  , 32.2253342  , 789.8741    , 1.24        , 19          , 255         , 0           , 0
9.793027    , 0.09636965  , 0.221807361 , 0.000355597469, 0.0157076679, -0.000124955826, -2.72342682 , 1.54570973  , -0.103842109, 921.926636  , 32.2253342  , 789.873962  , 1.25        , 19          , 255         , 0           , 0
9.798872    , 0.100311734 , 0.2410877   , 0.0003206502, 0.0128283706, 8.65538E-05 , -2.725521   , 1.54558885  , -0.105941065, 921.926636  , 32.2253342  , 789.87384   , 1.26        , 19          , 255         , 0           , 0
9.788818    , 0.09791932  , 0.2342145   , -0.0002924254, 0.01034866  , 0.000249825651, -2.72726846 , 1.54549444  , -0.107684173, 921.926636  , 32.2253342  , 789.8737    , 1.27        , 19          , 255         , 0           , 0
9.79127     , 0.0972943455, 0.2407289   , -0.00021858816, 0.0075037037, -0.0006408405, -2.72822976 , 1.54542148  , -0.108643822, 921.926636  , 32.2253342  , 789.8736    , 1.28        , 19          , 255         , 0           , 0
9.792906    , 0.101115659 , 0.218825981 , -4.324934E-05, 0.007436191 , -4.495481E-05, -2.72938871 , 1.5453558   , -0.109803118, 921.926636  , 32.2253342  , 789.873535  , 1.29        , 19          , 255         , 0           , 0
9.799122    , 0.10085471  , 0.2218571   , -2.57521751E-05, 0.008794913 , -0.0007436847, -2.730501   , 1.5452739   , -0.110917263, 921.926636  , 32.2253342  , 789.8735    , 1.3         , 19          , 255         , 0           , 0
9.793906    , 0.0989681557, 0.232680276 , 0.00024476074, 0.008625698 , 0.0003187372, -2.73191833 , 1.54520392  , -0.112336561, 921.926636  , 32.2253342  , 789.8531    , 1.31        , 19          , 255         , 0           , 0
9.793752    , 0.09723537  , 0.2520568   , 0.0003181403, 0.00480244774, 0.0006792948, -2.73290539 , 1.54515743  , -0.113326386, 921.926636  , 32.2253342  , 789.8529    , 1.32        , 19          , 255         , 0           , 0
9.798562    , 0.0969059   , 0.242995232 , 0.0005452618, -0.000127383042, -0.000169849925, -2.73282027 , 1.5451597   , -0.113246478, 921.924744  , 32.2235031  , 789.8527    , 1.33        , 19          , 255         , 0           , 0
9.795607    , 0.0977187   , 0.235349059 , -0.000185178709, -0.00244912738, 0.0005242215, -2.732631   , 1.54518533  , -0.113055073, 921.924744  , 32.2235031  , 789.852539  , 1.34        , 19          , 255         , 0           , 0
9.79661751  , 0.101666011 , 0.2238532   , -0.0002993649, -0.0021995483, -0.000468033337, -2.73212433 , 1.54520619  , -0.112545818, 921.924744  , 32.2235031  , 789.8524    , 1.35        , 19          , 255         , 0           , 0
9.79456     , 0.0913227   , 0.2095855   , -0.000432992, 0.000403444748, 0.000647375 , -2.7324245  , 1.54520619  , -0.112841234, 921.924744  , 32.2235031  , 789.8523    , 1.36        , 19          , 255         , 0           , 0
9.78723049  , 0.09452695  , 0.237983346 , -3.76201351E-05, 0.002583416 , 0.000478836446, -2.73299766 , 1.54518533  , -0.113414578, 921.924744  , 32.2235031  , 789.8522    , 1.37        , 19          , 255         , 0           , 0
9.794094    , 0.111714043 , 0.235140324 , -0.000745900441, 0.0013584902, 0.0001712156, -2.73327613 , 1.54517138  , -0.113686085, 921.924744  , 32.2235031  , 789.852051  , 1.38        , 19          , 255         , 0           , 0
9.795276    , 0.09888728  , 0.245088622 , 0.000248892844, 0.0007806341, -0.0003825485, -2.73325777 , 1.545162    , -0.1136692  , 921.924744  , 32.2235031  , 789.8519    , 1.39        , 19          , 255         , 0           , 0
9.792087    , 0.09174015  , 0.239470437 , 4.123524E-05, -0.003400303, -6.152324E-06, -2.73272681 , 1.54519463  , -0.113138177, 921.924744  , 32.2235031  , 789.8518    , 1.4         , 19          , 255         , 0           , 0
9.783861    , 0.10712032  , 0.223209    , 0.000179256225, -0.004091289, -0.000607073656, -2.73219037 , 1.54521787  , -0.112604022, 921.924744  , 32.2235031  , 789.8358    , 1.41        , 19          , 255         , 0           , 0
9.787764    , 0.107154056 , 0.20028922  , 0.000753678032, -0.000586018665, -0.0007489988, -2.73182225 , 1.54521787  , -0.112244226, 921.924744  , 32.2235031  , 789.835632  , 1.42        , 19          , 255         , 0           , 0
9.793402    , 0.101771846 , 0.21639204  , 0.000607264461, 0.00311806425, 0.000415895774, -2.73245    , 1.54519     , -0.112877555, 921.9111    , 32.2296753  , 789.835449  , 1.43        , 19          , 255         , 0           , 0
9.795259    , 0.10538695  , 0.239119142 , 0.000443647616, 0.001581889 , 0.000177114925, -2.73275423 , 1.545176    , -0.113186382, 921.9111    , 32.2296753  , 789.835266  , 1.44        , 19          , 255         , 0           , 0
9.798719    , 0.0996253341, 0.23164764  , 0.000168256171, -0.0008635535, 0.000366979046, -2.73275    , 1.54518759  , -0.113184281, 921.9111    , 32.2296753  , 789.8351    , 1.45        , 19          , 255         , 0           , 0
9.797752    , 0.101150408 , 0.239550039 , 0.000406395266, -0.0036463635, -8.696793E-05, -2.73214769 , 1.54522026  , -0.11258588 , 921.9111    , 32.2296753  , 789.8349    , 1.46        , 19          , 255         , 0           , 0
9.785289    , 0.111305654 , 0.222340822 , 0.00011940609, -0.006379992, -0.0006017848, -2.730935   , 1.54528093  , -0.111373872, 921.9111    , 32.2296753  , 789.8347    , 1.47        , 19          , 255         , 0           , 0
9.78652     , 0.09650767  , 0.206532    , 0.00018933526, -0.00378514314, -3.58917823E-05, -2.73032784 , 1.545316    , -0.110767335, 921.9111    , 32.2296753  , 789.834534  , 1.48        , 19          , 255         , 0           , 0
9.802893    , 0.09091667  , 0.211830616 , 0.000262600777, -0.00167203322, -0.000113947186, -2.73002076 , 1.54533     , -0.11046309 , 921.9111    , 32.2296753  , 789.834351  , 1.49        , 19          , 255         , 0           , 0
9.790954    , 0.09821593  , 0.218025923 , 0.000372797425, -0.000255585182, -0.000128762971, -2.72992921 , 1.54533     , -0.110375442, 921.9111    , 32.2296753  , 789.834167  , 1.5         , 19          , 255         , 0           , 0
9.798056    , 0.11113435  , 0.2210078   , -7.606065E-05, 0.00118462578, 0.0005445299, -2.72975683 , 1.54533708  , -0.110203028, 921.9111    , 32.2296753  , 789.8341    , 1.51        , 19          , 255         , 0           , 0
9.790401    , 0.106850967 , 0.221594125 , 0.0005750746, 0.00185171142, 0.00066028547, -2.73027945 , 1.54532528  , -0.110731855, 921.9111    , 32.2296753  , 789.8339    , 1.52        , 19          , 255         , 0           , 0
9.787802    , 0.09471228  , 0.220999479 , 0.000556576531, 0.00166569825, -0.000198903392, -2.730464   , 1.545309    , -0.110921852, 921.8975    , 32.2290649  , 789.83374   , 1.53        , 19          , 255         , 0           , 0
9.79511452  , 0.0967939943, 0.224199921 , 0.000388429442, 0.00171166949, -0.000273052021, -2.73063    , 1.54529262  , -0.11109148 , 921.8975    , 32.2290649  , 789.833557  , 1.54        , 19          , 255         , 0           , 0
9.793225    , 0.09318682  , 0.241440132 , -8.380343E-05, -0.00162644056, -0.000323181681, -2.730259   , 1.54530656  , -0.110719405, 921.8975    , 32.2290649  , 789.8334    , 1.55        , 19          , 255         , 0           , 0
9.786399    , 0.09191543  , 0.224508971 , 8.628002E-05, -0.00631665532, 1.66758218E-05, -2.729272   , 1.54536045  , -0.109732553, 921.8975    , 32.2290649  , 789.8332    , 1.56        , 19          , 255         , 0           , 0
9.799791    , 0.09667198  , 0.213671237 , 0.000145061582, -0.008846344, -2.11041624E-05, -2.72786355 , 1.54544961  , -0.108325787, 921.8975    , 32.2290649  , 789.833     , 1.57        , 19          , 255         , 0           , 0
9.796732    , 0.112433791 , 0.212485224 , 6.903004E-05, -0.0104288738, 0.000470214523, -2.72637343 , 1.545551    , -0.106836185, 921.8975    , 32.2290649  , 789.8328    , 1.58        , 19          , 255         , 0           , 0
9.788684    , 0.103871904 , 0.188276917 , 0.0005067467, -0.005807449, -9.58195E-05, -2.72540426 , 1.54559588  , -0.10587126 , 921.8975    , 32.2290649  , 789.832642  , 1.59        , 19          , 255         , 0           , 0
9.791893    , 0.09537889  , 0.206479028 , 0.000132300949, -0.00166246458, 0.0006129125, -2.72535849 , 1.54561245  , -0.105827786, 921.8975    , 32.2290649  , 789.832458  , 1.6         , 19          , 255         , 0           , 0
9.794307    , 0.0984493047, 0.20588474  , -0.000501440431, 0.000615499448, -0.000378344528, -2.72485423 , 1.54563379  , -0.105317481, 921.8975    , 32.2290649  , 789.8471    , 1.61        , 19          , 255         , 0           , 0
9.786259    , 0.1038505   , 0.214779168 , -0.000141481345, 0.0006980591, -0.000122772588, -2.72492218 , 1.54562426  , -0.105384052, 921.8975    , 32.2290649  , 789.847     , 1.62        , 19          , 255         , 0           , 0
9.797903    , 0.104949988 , 0.21848695  , 5.524786E-05, -0.000297730323, 0.000144426565, -2.72492647 , 1.54563141  , -0.10538917 , 921.921936  , 32.2306252  , 789.846863  , 1.63        , 19          , 255         , 0           , 0
9.796971    , 0.100680374 , 0.224240467 , 0.000350018556, -0.0009982835, -0.000704972364, -2.72450638 , 1.54563379  , -0.104972273, 921.921936  , 32.2306252  , 789.8468    , 1.64        , 19          , 255         , 0           , 0
9.788155    , 0.110523067 , 0.215735868 , -9.46554355E-05, -0.00134077133, -0.0001419991, -2.72423983 , 1.54564321  , -0.104705513, 921.921936  , 32.2306252  , 789.846741  , 1.65        , 19          , 255         , 0           , 0
9.789406    , 0.100928225 , 0.20930247  , -0.000134720874, -0.0004639479, 0.000221802882, -2.72424769 , 1.54565036  , -0.10471113 , 921.921936  , 32.2306252  , 789.8467    , 1.66        , 19          , 255         , 0           , 0
9.786754    , 0.09440228  , 0.217731267 , -8.23767041E-05, 0.000688978471, 0.000497296336, -2.72454071 , 1.54565036  , -0.105003454, 921.921936  , 32.2306252  , 789.8466    , 1.67        , 19          , 255         , 0           , 0
9.786862    , 0.107370771 , 0.2116262   , 0.000363235129, 0.00123646983, 0.000117188261, -2.724777   , 1.54563856  , -0.105244488, 921.921936  , 32.2306252  , 789.846558  , 1.68        , 19          , 255         , 0           , 0
9.786047    , 0.09887394  , 0.203658074 , 3.522134E-05, 0.00237915572, -2.09203536E-05, -2.72515178 , 1.54561484  , -0.105619952, 921.921936  , 32.2306252  , 789.8465    , 1.69        , 19          , 255         , 0           , 0
9.783498    , 0.100860596 , 0.194842726 , -0.000143909128, 0.00475657126, -0.0004732679, -2.72574449 , 1.5455699   , -0.10621047 , 921.921936  , 32.2306252  , 789.846436  , 1.7         , 19          , 255         , 0           , 0
9.793356    , 0.108908787 , 0.19918257  , 0.00014379574, 0.007269253 , -0.0001881925, -2.72597146 , 1.54553688  , -0.106439151, 921.921936  , 32.2306252  , 789.833069  , 1.71        , 19          , 255         , 0           , 0
9.782763    , 0.0949123353, 0.212149531 , 0.000296878337, 0.0109756226, 0.000285961665, -2.7278192  , 1.54543555  , -0.1082899  , 921.921936  , 32.2306252  , 789.832947  , 1.72        , 19          , 255         , 0           , 0
9.789817    , 0.09448286  , 0.2161258   , 0.0003955075, 0.0125650633, 0.000143636091, -2.72984815 , 1.54532528  , -0.110324264, 921.907     , 32.2340164  , 789.8328    , 1.73        , 19          , 255         , 0           , 0
9.791959    , 0.103730917 , 0.212293357 , 0.0001222567, 0.0149815436, 0.000100165817, -2.7322228  , 1.545183    , -0.11270155 , 921.907     , 32.2340164  , 789.8327    , 1.74        , 19          , 255         , 0           , 0
9.799402    , 0.09736346  , 0.229225725 , 0.000148475752, 0.0136299636, -3.09297757E-05, -2.73431849 , 1.54506457  , -0.114798687, 921.907     , 32.2340164  , 789.8326    , 1.75        , 19          , 255         , 0           , 0
9.794751    , 0.09562147  , 0.24224034  , -1.55524467E-05, 0.009259863 , 0.000610542134, -2.73595619 , 1.54498124  , -0.116437562, 921.907     , 32.2340164  , 789.832458  , 1.76        , 19          , 255         , 0           , 0
9.802808    , 0.102748379 , 0.224508852 , -0.0006200369, 0.00615385873, 8.758333E-05, -2.73693323 , 1.544919    , -0.117407896, 921.907     , 32.2340164  , 789.832336  , 1.77        , 19          , 255         , 0           , 0
9.796682    , 0.09879098  , 0.212308452 , 0.000139881507, 0.0056129694, -0.000223458133, -2.7377038  , 1.544873    , -0.118180051, 921.907     , 32.2340164  , 789.8322    , 1.78        , 19          , 255         , 0           , 0
9.792311    , 0.100390412 , 0.218733072 , 0.0002916156, 0.006512368 , -0.000173726585, -2.73862481 , 1.54480863  , -0.119103424, 921.907     , 32.2340164  , 789.8321    , 1.79        , 19          , 255         , 0           , 0
9.788562    , 0.09315375  , 0.220009565 , 0.0008072804, 0.006403759 , 8.152314E-05, -2.7396102  , 1.54474449  , -0.120096847, 921.907     , 32.2340164  , 789.832     , 1.8         , 19          , 255         , 0           , 0
9.790843    , 0.09659807  , 0.218338728 , 0.000557721651, 0.007820788 , -9.04154658E-05, -2.7404108  , 1.5447011   , -0.120905   , 921.907     , 32.2340164  , 789.8369    , 1.81        , 19          , 255         , 0           , 0
9.786934    , 0.1015259   , 0.2243603   , 0.000151459448, 0.008252369 , 0.000498306064, -2.74181724 , 1.544628    , -0.122312777, 921.907     , 32.2340164  , 789.8368    , 1.82        , 19          , 255         , 0           , 0
9.793758    , 0.103575982 , 0.233489186 , 0.000154070178, 0.00621686131, -0.0005269151, -2.74255228 , 1.54456437  , -0.123050347, 921.8862    , 32.2321854  , 789.8367    , 1.83        , 19          , 255         , 0           , 0
9.797316    , 0.104542591 , 0.24373886  , 4.062784E-05, 0.001114184 , -4.36589835E-06, -2.742716   , 1.54455078  , -0.123214148, 921.8862    , 32.2321854  , 789.836548  , 1.84        , 19          , 255         , 0           , 0
9.796713    , 0.106648043 , 0.241087675 , 0.000591386459, -0.00378186861, 0.0005960838, -2.74235988 , 1.5445894   , -0.12286374 , 921.8862    , 32.2321854  , 789.8364    , 1.85        , 19          , 255         , 0           , 0
9.801842    , 0.118052281 , 0.212298244 , -3.764435E-05, -0.00585964369, 0.000335136283, -2.74160814 , 1.54465318  , -0.122110777, 921.8862    , 32.2321854  , 789.8363    , 1.86        , 19          , 255         , 0           , 0
9.795057    , 0.100877658 , 0.209306762 , 9.641191E-05, -0.00251598656, -6.350574E-05, -2.74121    , 1.54467142  , -0.121714257, 921.8862    , 32.2321854  , 789.8362    , 1.87        , 19          , 255         , 0           , 0
9.789984    , 0.09909296  , 0.224737808 , 0.000178678369, -0.00170658436, -0.000338186277, -2.74083376 , 1.54468739  , -0.121340543, 921.8862    , 32.2321854  , 789.83606   , 1.88        , 19          , 255         , 0           , 0
9.788619    , 0.101328731 , 0.221661478 , 0.0003546344, -0.00150230015, -0.000375696953, -2.74047375 , 1.5447011   , -0.12098369 , 921.8862    , 32.2321854  , 789.836     , 1.89        , 19          , 255         , 0           , 0
9.796026    , 0.1045018   , 0.21865797  , -0.000112193171, -0.000237526372, -0.000114183073, -2.7404     , 1.54469883  , -0.120908812, 921.8862    , 32.2321854  , 789.835938  , 1.9         , 19          , 255         , 0           , 0
9.801004    , 0.106648266 , 0.225357577 , 2.52231257E-06, 0.000223786337, 0.000535454659, -2.7399838  , 1.54471934  , -0.120491728, 921.8862    , 32.2321854  , 789.865051  , 1.91        , 19          , 255         , 0           , 0
9.797919    , 0.106597923 , 0.2476993   , -0.000115782954, -0.00434589665, 0.00063563243, -2.739557   , 1.54476285  , -0.120064937, 921.8862    , 32.2321854  , 789.8651    , 1.92        , 19          , 255         , 0           , 0
9.799462    , 0.0948142558, 0.230539531 , -0.000124808284, -0.0100448495, 0.0009918743, -2.73839617 , 1.54486382  , -0.118901461, 921.9383    , 32.2378845  , 789.865234  , 1.93        , 19          , 255         , 0           , 0
9.787091    , 0.107976675 , 0.2064986   , 0.000129629043, -0.0101753613, 0.0003350431, -2.73697    , 1.54495823  , -0.117474884, 921.9383    , 32.2378845  , 789.865356  , 1.94        , 19          , 255         , 0           , 0
9.78981     , 0.109461471 , 0.208705947 , 0.000629472954, -0.00750406552, 1.62797132E-05, -2.73582339 , 1.54502749  , -0.11633531 , 921.9383    , 32.2378845  , 789.8655    , 1.95        , 19          , 255         , 0           , 0
9.785082    , 0.09549545  , 0.218648165 , 0.000334473618, -0.00540242344, 0.0003661027, -2.73512244 , 1.54507148  , -0.115637973, 921.9383    , 32.2378845  , 789.8656    , 1.96        , 19          , 255         , 0           , 0
9.784004    , 0.092999056 , 0.203372285 , 0.00028311924, -0.00519021135, -0.000164804849, -2.734263   , 1.54511559  , -0.114780575, 921.9383    , 32.2378845  , 789.8657    , 1.97        , 19          , 255         , 0           , 0
9.789614    , 0.09923437  , 0.210524753 , 0.000396137 , -0.005027896, -0.0004886335, -2.73330569 , 1.54516673  , -0.113827378, 921.9383    , 32.2378845  , 789.865845  , 1.98        , 19          , 255         , 0           , 0
9.791908    , 0.0960854441, 0.197636008 , 0.0004376404, -0.00370159536, -5.0782488E-05, -2.73270917 , 1.54519689  , -0.1132362  , 921.9383    , 32.2378845  , 789.865967  , 1.99        , 19          , 255         , 0           , 0
9.790588    , 0.102066413 , 0.199026674 , 0.000366090127, 0.000261862529, -0.000120778226, -2.7327044  , 1.54519224  , -0.113233589, 921.9383    , 32.2378845  , 789.8661    , 2           , 19          , 0           , 7.04323626  , 200
9.790878    , 0.100661516 , 0.1955113   , 0.000390774163, 0.00534328958, 0.0002515277, -2.73286772 , 1.54519     , -0.113402493, 921.9383    , 32.2378845  , 789.8299    , 2.01        , 19          , 1           , 0           , 0
9.796483    , 0.09038123  , 0.1898831   , 0.0006433812, 0.009242706 , 0.0006472551, -2.734523   , 1.54510856  , -0.115063012, 921.9383    , 32.2378845  , 789.8298    , 2.02        , 19          , 2           , 0           , 0
9.792981    , 0.09461678  , 0.233193845 , 0.000167575723, 0.00892088749, 3.96816831E-05, -2.73590374 , 1.54502058  , -0.1164464  , 921.9165    , 32.23768    , 789.829651  , 2.03        , 19          , 3           , 0           , 0
9.794252    , 0.10025768  , 0.229541972 , -0.0002079368, 0.00503213564, 0.000275951228, -2.73677278 , 1.54496968  , -0.117312692, 921.9165    , 32.23768    , 789.8295    , 2.04        , 19          , 4           , 0           , 0
9.788755    , 0.09628246  , 0.208514065 , 0.000192275242, 0.003935395 , -0.000289278745, -2.737266   , 1.54493284  , -0.117809109, 921.9165    , 32.23768    , 789.8294    , 2.05        , 19          , 5           , 0           , 0
9.797286    , 0.0968649238, 0.200522736 , 0.000403954 , 0.00704365363, -0.000458054419, -2.73816752 , 1.54487526  , -0.11871472 , 921.9165    , 32.23768    , 789.8293    , 2.06        , 19          , 6           , 0           , 0
9.798631    , 0.09492867  , 0.202596381 , -0.0006021044, 0.009258486 , -0.000306459959, -2.73946285 , 1.54478574  , -0.120003879, 921.9165    , 32.23768    , 789.829163  , 2.07        , 19          , 7           , 0           , 0
9.790727    , 0.0963371545, 0.201132685 , -0.000443226134, 0.0120261665, -5.96760146E-05, -2.74124837 , 1.54466915  , -0.121785417, 921.9165    , 32.23768    , 789.829041  , 2.08        , 19          , 8           , 5           , 5
9.78208     , 0.104770042 , 0.20884569  , -0.0003027529, 0.015029002 , 0.000624164764, -2.74370027 , 1.5445416   , -0.12423674 , 921.9165    , 32.23768    , 789.8289    , 2.09        , 19          , 9           , 5           , 0.1
9.78583     , 0.106109954 , 0.192227855 , 0.0002464707, 0.01940237  , -1.77289858E-05, -2.7465353  , 1.54436064  , -0.127074063, 921.9165    , 32.23768    , 789.8288    , 2.1         , 19          , 10          , 0.1         , 0.1
9.798519    , 0.104072377 , 0.211887434 , -0.000516385364, 0.0254842415, 0.0005184617, -2.74965119 , 1.54417634  , -0.1301865  , 921.9165    , 32.23768    , 789.8231    , 2.11        , 19          , 11          , 0.008112613 , 0.008112617
9.795866    , 0.10315533  , 0.213694528 , -8.47685151E-05, 0.0277949665, 0.0005473306, -2.75379157 , 1.54392231  , -0.134327739, 921.9165    , 32.23768    , 789.823     , 2.12        , 19          , 12          , 0.174643889 , 0
9.797344    , 0.103283785 , 0.232587725 , -0.000508440135, 0.0281121917, 0.0004918305, -2.757882   , 1.54366839  , -0.138415441, 921.903     , 32.2379532  , 789.8229    , 2.13        , 19          , 13          , 0           , 0
9.803128    , 0.105638482 , 0.264091074 , -0.000254395418, 0.0205674618, 0.000229699843, -2.76078033 , 1.54348     , -0.1413125  , 921.903     , 32.2379532  , 789.822754  , 2.14        , 19          , 14          , -0.00056717667, -0.00316380314
9.7864      , 0.111588672 , 0.2732871   , 0.0002391169, 0.0116155213, 9.795411E-05, -2.76238465 , 1.54337335  , -0.142919436, 921.903     , 32.2379532  , 789.822632  , 2.15        , 19          , 15          , 0           , -1.87140649E-05
9.793872    , 0.105347335 , 0.2571459   , 0.0005184685, 0.00258531  , -0.000687137537, -2.7624948  , 1.54334509  , -0.143034846, 921.903     , 32.2379532  , 789.8225    , 2.16        , 19          , 16          , 0           , 1.401298E-45
9.789877    , 0.09775467  , 0.2334311   , 0.0005321981, -0.00100465235, 5.37185224E-05, -2.76237345 , 1.5433538   , -0.142917871, 921.903     , 32.2379532  , 789.8224    , 2.17        , 19          , 20          , 0           , 0
9.78467751  , 0.0995041654, 0.221370265 , 0.0006687438, 0.000607542461, 0.000284390757, -2.76254559 , 1.5433495   , -0.143097088, 921.903     , 32.2379532  , 789.822266  , 2.18        , 19          , 21          , 0           , 0
9.794477    , 0.120007016 , 0.233893037 , 0.0002476662, -0.0007025318, -1.482966E-05, -2.76244235 , 1.543356    , -0.1429956  , 921.903     , 32.2379532  , 789.822144  , 2.19        , 19          , 22          , 0           , 0
9.787332    , 0.104081973 , 0.220016718 , 0.0005780969, -0.000206382014, -0.000208047728, -2.7623384  , 1.543356    , -0.142898485, 921.903     , 32.2379532  , 789.822     , 2.2         , 19          , 40          , 0           , 0
9.779989    , 0.103776954 , 0.2204247   , 0.000514701242, 0.00292509771, -0.000713839254, -2.76175213 , 1.543343    , -0.142317176, 921.903     , 32.2379532  , 789.8342    , 2.21        , 19          , 41          , 0           , 0
9.791593    , 0.09868069  , 0.235751316 , 0.0007206244, 0.00267123943, -0.000371109578, -2.761981   , 1.54331684  , -0.142553732, 921.903     , 32.2379532  , 789.834167  , 2.22        , 19          , 42          , 0           , 0
9.79552     , 0.103175379 , 0.239076734 , 0.0003687648, 0.00122194132, -0.000259430875, -2.76205254 , 1.5433017   , -0.142628953, 921.9439    , 32.2403946  , 789.8341    , 2.23        , 19          , 255         , 0           , 0
9.791163    , 0.106173694 , 0.251970351 , 0.000397789117, -0.003449157, 3.140742E-05, -2.76159525 , 1.54333866  , -0.142175242, 921.9439    , 32.2403946  , 789.834045  , 2.24        , 19          , 255         , 0           , 0
9.794473    , 0.103119053 , 0.221408933 , 0.000259258755, -0.0047334535, 1.47366682E-05, -2.76095867 , 1.543382    , -0.141539469, 921.9439    , 32.2403946  , 789.834     , 2.25        , 19          , 255         , 0           , 0
9.79242     , 0.09874174  , 0.224879622 , 0.00068680133, -0.003031289, 0.000398584234, -2.76067519 , 1.5434103   , -0.141263857, 921.9439    , 32.2403946  , 789.8339    , 2.26        , 19          , 255         , 0           , 0
9.793278    , 0.105354831 , 0.227139443 , 0.0004133655, -0.00199042377, -0.0002415166, -2.76031876 , 1.54342771  , -0.14091149 , 921.9439    , 32.2403946  , 789.8339    , 2.27        , 19          , 255         , 0           , 0
9.793204    , 0.112864986 , 0.244193763 , 0.0005377405, -0.002974056, -2.34178478E-05, -2.75990057 , 1.54345393  , -0.140499115, 921.9439    , 32.2403946  , 789.8339    , 2.28        , 19          , 255         , 0           , 0
9.795675    , 0.104969546 , 0.234546348 , 0.000169533188, -0.00657594856, -9.20234161E-05, -2.758969   , 1.54351723  , -0.139568359, 921.9439    , 32.2403946  , 789.8339    , 2.29        , 19          , 255         , 0           , 0
9.790671    , 0.0981282   , 0.224195242 , 0.0001408493, -0.008451424, 0.0004862653, -2.757975   , 1.54359818  , -0.1385748  , 921.9439    , 32.2403946  , 789.8339    , 2.3         , 19          , 255         , 0           , 0
9.789268    , 0.09021755  , 0.211287335 , 5.47652E-05 , -0.00724864332, 0.0005967878, -2.75641251 , 1.54369473  , -0.137014315, 921.9439    , 32.2403946  , 789.7917    , 2.31        , 19          , 255         , 0           , 0
9.790983    , 0.09621576  , 0.214621425 , -6.597367E-05, -0.00709155155, 1.61379139E-05, -2.75543427 , 1.54376745  , -0.136034638, 921.9439    , 32.2403946  , 789.7914    , 2.32        , 19          , 255         , 0           , 0
9.793004    , 0.111180663 , 0.223268837 , 0.000202786 , -0.0062390524, 0.000359670463, -2.75468516 , 1.5438205   , -0.135286883, 921.953552  , 32.24114    , 789.7911    , 2.33        , 19          , 255         , 0           , 0
9.793135    , 0.103429779 , 0.214556649 , 5.185994E-05, -0.00601216732, -6.80517551E-05, -2.75381947 , 1.54388022  , -0.13442114 , 921.953552  , 32.24114    , 789.7908    , 2.34        , 19          , 255         , 0           , 0
9.795935    , 0.100819707 , 0.210716575 , 3.73931252E-05, -0.004909895, -0.0004542428, -2.75297022 , 1.54391789  , -0.133572847, 921.953552  , 32.24114    , 789.790466  , 2.35        , 19          , 255         , 0           , 0
9.792788    , 0.107956447 , 0.2097359   , -0.000197961228, -0.00342072314, -9.794124E-05, -2.75245523 , 1.54394889  , -0.133056074, 921.953552  , 32.24114    , 789.790161  , 2.36        , 19          , 255         , 0           , 0
9.789772    , 0.104527816 , 0.229933649 , 0.0003333704, -0.004101124, 0.000430897227, -2.75202    , 1.54398668  , -0.1326241  , 921.953552  , 32.24114    , 789.789856  , 2.37        , 19          , 255         , 0           , 0
9.805255    , 0.103282109 , 0.236804292 , -0.000121151446, -0.008495169, -3.702537E-05, -2.75080228 , 1.54407585  , -0.131404266, 921.953552  , 32.24114    , 789.789551  , 2.38        , 19          , 255         , 0           , 0
9.794499    , 0.103648447 , 0.217210725 , 7.141061E-05, -0.0120783933, 0.000366923923, -2.74920034 , 1.54418528  , -0.129802525, 921.953552  , 32.24114    , 789.789246  , 2.39        , 19          , 255         , 0           , 0
9.782946    , 0.09797722  , 0.204444379 , 0.000219987589, -0.0104499869, 1.31755014E-05, -2.7476964  , 1.54428411  , -0.128299475, 921.953552  , 32.24114    , 789.78894   , 2.4         , 19          , 255         , 0           , 0
9.790607    , 0.102586247 , 0.19932501  , 6.09101262E-05, -0.009087982, -0.000149556377, -2.74540758 , 1.54441035  , -0.126011178, 921.953552  , 32.24114    , 789.739441  , 2.41        , 19          , 255         , 0           , 0
9.79563     , 0.109069742 , 0.194401935 , 0.0001088063, -0.00579960458, -0.000262964051, -2.74446416 , 1.54446912  , -0.1250689  , 921.953552  , 32.24114    , 789.738831  , 2.42        , 19          , 255         , 0           , 0
9.787046    , 0.104360841 , 0.202384859 , -4.58991271E-05, -0.00278994348, 2.534747E-05, -2.74406385 , 1.54448724  , -0.124668665, 921.934631  , 32.24114    , 789.7382    , 2.43        , 19          , 255         , 0           , 0
9.796176    , 0.09400088  , 0.209531263 , -0.000173441309, -0.00180557091, -0.000518921646, -2.743619   , 1.54450309  , -0.12422169 , 921.934631  , 32.24114    , 789.7376    , 2.44        , 19          , 255         , 0           , 0
9.79446     , 0.09506514  , 0.215279222 , 0.000141249271, -0.00258094957, 3.05360118E-06, -2.74323869 , 1.544528    , -0.123842143, 921.934631  , 32.24114    , 789.737     , 2.45        , 19          , 255         , 0           , 0
9.792173    , 0.100157596 , 0.223266646 , 9.007927E-06, -0.004472427, 0.000493605 , -2.742751   , 1.5445689   , -0.123354383, 921.934631  , 32.24114    , 789.7364    , 2.46        , 19          , 255         , 0           , 0
9.787555    , 0.101292491 , 0.212020636 , 0.000118032651, -0.006058869, 0.0005519647, -2.74204636 , 1.54463494  , -0.122649975, 921.934631  , 32.24114    , 789.7358    , 2.47        , 19          , 255         , 0           , 0
9.78801     , 0.09553802  , 0.199892908 , 0.000255185732, -0.00481006969, 0.000714421156, -2.74157953 , 1.54467368  , -0.1221862  , 921.934631  , 32.24114    , 789.7352    , 2.48        , 19          , 255         , 0           , 0
9.789301    , 0.09515412  , 0.188684672 , 0.000320635532, -0.0007627397, 0.000267219759, -2.741557   , 1.54468286  , -0.122166976, 921.934631  , 32.24114    , 789.7347    , 2.49        , 19          , 255         , 0           , 0
9.79376     , 0.09575995  , 0.2029076   , 4.64856275E-05, 0.003822006 , 0.000320325518, -2.74223828 , 1.54464626  , -0.122848816, 921.934631  , 32.24114    , 789.734131  , 2.5         , 19          , 255         , 0           , 0
9.802691    , 0.11122217  , 0.216685623 , -9.38240555E-05, 0.00293559069, -0.000791666855, -2.741393   , 1.54468048  , -0.122003518, 921.934631  , 32.24114    , 789.716553  , 2.51        , 19          , 255         , 0           , 0
9.78599     , 0.104035661 , 0.188767135 , 0.000423544552, 0.004194863 , -3.81736427E-05, -2.742      , 1.54464173  , -0.122614928, 921.934631  , 32.24114    , 789.7159    , 2.52        , 19          , 255         , 0           , 0
9.787372    , 0.101092875 , 0.183443457 , 0.000322284672, 0.009057528 , -0.000527296856, -2.74315548 , 1.5445621   , -0.123773292, 921.9328    , 32.2444649  , 789.7152    , 2.53        , 19          , 255         , 0           , 0
9.789383    , 0.103387989 , 0.215104818 , 0.000333358068, 0.0109538641, 0.0005399622, -2.74495363 , 1.54446232  , -0.125576362, 921.9328    , 32.2444649  , 789.714539  , 2.54        , 19          , 255         , 0           , 0
9.785689    , 0.09253004  , 0.223620132 , -0.000219629437, 0.008404951 , 0.0005321206, -2.74637055 , 1.54438317  , -0.126991481, 921.9328    , 32.2444649  , 789.713867  , 2.55        , 19          , 255         , 0           , 0
9.803011    , 0.09044209  , 0.251499265 , -0.00011258584, 0.0005980949, -0.000100148653, -2.74642467 , 1.5443809   , -0.12704435 , 921.9328    , 32.2444649  , 789.7132    , 2.56        , 19          , 255         , 0           , 0
9.798852    , 0.09756408  , 0.239539862 , 0.000240191 , -0.009469533, -0.0001559064, -2.74498343 , 1.54446459  , -0.125604555, 921.9328    , 32.2444649  , 789.7125    , 2.57        , 19          , 255         , 0           , 0
9.783766    , 0.100356579 , 0.21345894  , 3.142614E-05, -0.0145853013, -0.0001831328, -2.74276853 , 1.544603    , -0.123388804, 921.9328    , 32.2444649  , 789.711853  , 2.58        , 19          , 255         , 0           , 0
9.78806     , 0.0955799446, 0.197681755 , 8.56596453E-05, -0.0149222165, -0.000169403909, -2.74048376 , 1.54474223  , -0.12110398 , 921.9328    , 32.2444649  , 789.7112    , 2.59        , 19          , 255         , 0           , 0
9.790852    , 0.100336649 , 0.199672773 , 0.000614784 , -0.0148403682, -0.000126588566, -2.73819733 , 1.54487062  , -0.11882329 , 921.9328    , 32.2444649  , 789.7105    , 2.6         , 19          , 255         , 0           , 0
9.79536     , 0.0985616446, 0.188472152 , 0.0004101806, -0.01273299 , 0.000679314835, -2.73568869 , 1.545039    , -0.11631982 , 921.9328    , 32.2444649  , 789.6984    , 2.61        , 19          , 255         , 0           , 0
9.778104    , 0.09571857  , 0.1631468   , -0.000218092755, -0.008861659, 0.00032994707, -2.73444772 , 1.54512024  , -0.115074411, 921.9328    , 32.2444649  , 789.6977    , 2.62        , 19          , 255         , 0           , 0
9.783355    , 0.09350518  , 0.166120544 , -0.000401865342, -7.493142E-05, 7.414548E-05, -2.73446655 , 1.54512489  , -0.115089327, 921.937439  , 32.2443275  , 789.69696   , 2.63        , 19          , 255         , 0           , 0
9.790666    , 0.0970395952, 0.176700562 , -0.0002992506, 0.005161918 , -0.000289005227, -2.73515964 , 1.54508078  , -0.115780294, 921.937439  , 32.2443275  , 789.6962    , 2.64        , 19          , 255         , 0           , 0
9.793438    , 0.111590862 , 0.187890813 , -0.000243634335, 0.00772328256, 0.000182011325, -2.73641181 , 1.54501128  , -0.117031068, 921.937439  , 32.2443275  , 789.6955    , 2.65        , 19          , 255         , 0           , 0
9.798049    , 0.109706119 , 0.210859746 , -5.12693659E-05, 0.008844903 , 0.00102652085, -2.73812532 , 1.54493284  , -0.118742913, 921.937439  , 32.2443275  , 789.694763  , 2.66        , 19          , 255         , 0           , 0
9.7968      , 0.108125471 , 0.193170711 , 3.571622E-06, 0.0106456345, 9.21048E-05 , -2.73976684 , 1.54483616  , -0.120385818, 921.937439  , 32.2443275  , 789.694031  , 2.67        , 19          , 255         , 0           , 0
9.796733    , 0.0983118   , 0.21041207  , -0.000292910729, 0.0107016042, 0.000591985 , -2.74158573 , 1.54473531  , -0.122202404, 921.937439  , 32.2443275  , 789.6933    , 2.68        , 19          , 255         , 0           , 0
9.79432     , 0.104646109 , 0.21998176  , -0.000112032751, 0.00776701933, -1.48578893E-05, -2.74273944 , 1.54466915  , -0.123355351, 921.937439  , 32.2443275  , 789.692566  , 2.69        , 19          , 255         , 0           , 0
9.803419    , 0.0960055441, 0.222709581 , -0.000376755954, 0.00332993758, 3.05401663E-05, -2.74324822 , 1.54463267  , -0.123861834, 921.937439  , 32.2443275  , 789.691833  , 2.7         , 19          , 255         , 0           , 0
9.800768    , 0.100756787 , 0.233651564 , 0.000409898174, -0.00327071082, -0.0004926202, -2.741402   , 1.5447216   , -0.122018658, 921.937439  , 32.2443275  , 789.6759    , 2.71        , 19          , 255         , 0           , 0
9.787214    , 0.107444122 , 0.20350568  , 0.000405520084, -0.006758901, -0.00109735329, -2.73999786 , 1.544788    , -0.120618917, 921.937439  , 32.2443275  , 789.6751    , 2.72        , 19          , 255         , 0           , 0
9.790006    , 0.109244823 , 0.1970363   , 0.000106927764, -0.0075495583, -0.000211647712, -2.738784   , 1.54485226  , -0.119406022, 921.9303    , 32.2470436  , 789.6743    , 2.73        , 19          , 255         , 0           , 0
9.787028    , 0.101583958 , 0.1796177   , -0.0001707208, -0.00381801836, -0.000327860937, -2.738093   , 1.54488683  , -0.118711784, 921.9303    , 32.2470436  , 789.6735    , 2.74        , 19          , 255         , 0           , 0
9.781559    , 0.106875621 , 0.171206713 , 0.000305302266, 0.001793693 , -0.000162338445, -2.73830271 , 1.54486609  , -0.118924677, 921.9303    , 32.2470436  , 789.6727    , 2.75        , 19          , 255         , 0           , 0
9.780571    , 0.106191777 , 0.177692458 , 0.000641309249, 0.009003339 , 0.000701451732, -2.73990226 , 1.54479027  , -0.120531425, 921.9303    , 32.2470436  , 789.671936  , 2.76        , 19          , 255         , 0           , 0
9.794606    , 0.0955014452, 0.176241562 , 0.000698723947, 0.01568704  , 0.0004132759, -2.74238586 , 1.54464865  , -0.123022787, 921.9303    , 32.2470436  , 789.671143  , 2.77        , 19          , 255         , 0           , 0
9.798773    , 0.102269195 , 0.185869962 , 9.319067E-05, 0.02039338  , 0.000175218069, -2.74545455 , 1.54446232  , -0.126093656, 921.9303    , 32.2470436  , 789.670349  , 2.78        , 19          , 255         , 0           , 0
9.793119    , 0.09370757  , 0.2062867   , -0.000241213653, 0.0219278429, -0.000555778737, -2.74845028 , 1.54425263  , -0.129086912, 921.9303    , 32.2470436  , 789.669556  , 2.79        , 19          , 255         , 0           , 0
9.791563    , 0.0999102741, 0.216931626 , 0.00019341911, 0.0173869468, -0.0002939786, -2.75084019 , 1.54409814  , -0.131480336, 921.9303    , 32.2470436  , 789.668762  , 2.8         , 19          , 255         , 0           , 0
9.80247     , 0.107859574 , 0.224520281 , 9.234605E-05, 0.0122669544, 0.000238472552, -2.75124121 , 1.5440557   , -0.131884038, 921.9303    , 32.2470436  , 789.6662    , 2.81        , 19          , 255         , 0           , 0
9.805593    , 0.101325393 , 0.230574816 , 0.0001931951, 0.005543122 , -0.000295142323, -2.75192451 , 1.544009    , -0.1325679  , 921.9303    , 32.2470436  , 789.6654    , 2.82        , 19          , 255         , 0           , 0
9.795852    , 0.104174331 , 0.215238884 , 0.00038460613, 0.00344597176, -0.0002724115, -2.75231361 , 1.54397118  , -0.132962227, 921.9395    , 32.2454147  , 789.6646    , 2.83        , 19          , 255         , 0           , 0
9.793429    , 0.09750636  , 0.21188657  , 0.000108663284, 0.002004437 , -9.171054E-05, -2.752565   , 1.54396009  , -0.133214578, 921.9395    , 32.2454147  , 789.6638    , 2.84        , 19          , 255         , 0           , 0
9.786456    , 0.09365648  , 0.209945112 , 6.61826343E-05, 0.00167898112, 0.000695700059, -2.75304079 , 1.54394007  , -0.13369076 , 921.9395    , 32.2454147  , 789.663     , 2.85        , 19          , 255         , 0           , 0
9.78477     , 0.102079883 , 0.19891122  , 0.000467142323, 0.003552166 , 0.0003494793, -2.75365639 , 1.543909    , -0.134312063, 921.9395    , 32.2454147  , 789.662231  , 2.86        , 19          , 255         , 0           , 0
9.79414749  , 0.0953434855, 0.224106461 , -4.239747E-05, 0.00271551451, -0.000237381479, -2.75395656 , 1.54388463  , -0.134611771, 921.9395    , 32.2454147  , 789.661438  , 2.87        , 19          , 255         , 0           , 0
9.78629     , 0.094713755 , 0.210913926 , 0.0002430455, -0.00119999284, -0.000329792383, -2.753672   , 1.54389346  , -0.13432847 , 921.9395    , 32.2454147  , 789.660645  , 2.88        , 19          , 255         , 0           , 0
9.788846    , 0.09608962  , 0.176870391 , 9.820491E-05, 0.00263298629, 8.44739043E-05, -2.75406837 , 1.54386914  , -0.134727761, 921.9395    , 32.2454147  , 789.659851  , 2.89        , 19          , 255         , 0           , 0
9.79427052  , 0.09990011  , 0.214137718 , 0.000300308922, 0.00349078514, -0.000394086324, -2.75441933 , 1.54383588  , -0.1350811  , 921.9395    , 32.2454147  , 789.659058  , 2.9         , 19          , 255         , 0           , 0
9.803407    , 0.101253942 , 0.210791633 , 0.000460316922, 0.0005508573, 4.08601845E-05, -2.75374675 , 1.54388237  , -0.13441439 , 921.9395    , 32.2454147  , 789.6449    , 2.91        , 19          , 255         , 0           , 0
9.805959    , 0.104429387 , 0.213300228 , 2.09370628E-05, -0.0004230477, 0.00047508537, -2.7538507  , 1.543889    , -0.134517521, 921.9395    , 32.2454147  , 789.644043  , 2.92        , 19          , 255         , 0           , 0
9.784879    , 0.09646121  , 0.21892938  , 0.000473713444, -0.00268467981, 0.000254963728, -2.75355649 , 1.54391122  , -0.134228   , 921.9226    , 32.2456169  , 789.6432    , 2.93        , 19          , 255         , 0           , 0
9.787853    , 0.0921686143, 0.210960478 , 0.00100243592, -0.003928819, -0.000374939031, -2.75286365 , 1.54394674  , -0.133546352, 921.9226    , 32.2456169  , 789.642334  , 2.94        , 19          , 255         , 0           , 0
9.790714    , 0.101167858 , 0.219556257 , 0.000410267385, -0.005202571, -0.0005193463, -2.7519455  , 1.54400229  , -0.1326313  , 921.9226    , 32.2456169  , 789.6415    , 2.95        , 19          , 255         , 0           , 0
9.786474    , 0.110635981 , 0.205613762 , 0.000416446826, -0.007255829, -0.000359348342, -2.750787   , 1.5440557   , -0.1314768  , 921.9226    , 32.2456169  , 789.6406    , 2.96        , 19          , 255         , 0           , 0
9.7943325   , 0.10352876  , 0.194746748 , 0.000279881962, -0.00491943862, -3.07341E-06, -2.75008178 , 1.54410708  , -0.130773321, 921.9226    , 32.2456169  , 789.6398    , 2.97        , 19          , 255         , 0           , 0
9.788275    , 0.102743506 , 0.203028753 , -9.253097E-05, -0.0038012513, -5.56561135E-05, -2.74951935 , 1.54413831  , -0.13020888 , 921.9226    , 32.2456169  , 789.6389    , 2.98        , 19          , 255         , 0           , 0
9.784451    , 0.100654677 , 0.204687715 , -0.000250167854, -0.00365579035, 0.000335807272, -2.749114   , 1.54417193  , -0.129800513, 921.9226    , 32.2456169  , 789.638062  , 2.99        , 19          , 255         , 0           , 0
9.787452    , 0.102322876 , 0.208176821 , -0.000271507539, -0.004647822, 4.752339E-05, -2.74846315 , 1.54421222  , -0.129148886, 921.9226    , 32.2456169  , 789.6372    , 3           , 19          , 0           , 8.043237    , 300
9.792653    , 0.102826357 , 0.192185342 , 0.000477394 , -0.00522993132, -0.000217879264, -2.74653149 , 1.544329    , -0.127222329, 921.9226    , 32.2456169  , 789.6501    , 3.01        , 19          , 1           , 0           , 0
9.782317    , 0.103924975 , 0.169303447 , 3.98749835E-05, -0.00111586764, 0.000153011555, -2.74642324 , 1.54433584  , -0.127112985, 921.9226    , 32.2456169  , 789.6493    , 3.02        , 19          , 2           , 0           , 0
9.795172    , 0.102739736 , 0.172817692 , 0.0002108455, 0.00619036425, -0.00061615475, -2.74710631 , 1.54428184  , -0.127798021, 921.907959  , 32.2504349  , 789.6485    , 3.03        , 19          , 3           , 0           , 0
9.78982     , 0.0963855758, 0.195449337 , 0.0006463795, 0.009362707 , -0.000249310368, -2.7483654  , 1.54419649  , -0.12906462 , 921.907959  , 32.2504349  , 789.6477    , 3.04        , 19          , 4           , 0           , 0
9.794037    , 0.100215912 , 0.1879029   , 0.000453279325, 0.0117674293, 5.55487131E-05, -2.750069   , 1.54408467  , -0.130772367, 921.907959  , 32.2504349  , 789.6469    , 3.05        , 19          , 5           , 0           , 0
9.803255    , 0.09632474  , 0.1861623   , 0.0003356106, 0.016011266 , -0.00031634036, -2.75222945 , 1.543929    , -0.132937983, 921.907959  , 32.2504349  , 789.6461    , 3.06        , 19          , 6           , 0           , 0
9.787971    , 0.100535229 , 0.192452475 , 0.000204653945, 0.0178682767, 0.000302481058, -2.754839   , 1.54377186  , -0.135550365, 921.907959  , 32.2504349  , 789.6453    , 3.07        , 19          , 7           , 0           , 0
9.790931    , 0.102469169 , 0.2020739   , 5.09674428E-05, 0.0183694586, 0.0007047611, -2.75762582 , 1.54360032  , -0.13833864 , 921.907959  , 32.2504349  , 789.644531  , 3.08        , 19          , 8           , 5           , 5
9.803329    , 0.0913951546, 0.223016113 , -7.08389562E-05, 0.0148045355, 0.000556272862, -2.759844   , 1.543467    , -0.140557274, 921.907959  , 32.2504349  , 789.643738  , 3.09        , 19          , 9           , 5           , 0.1
9.800603    , 0.0884471759, 0.209601551 , -0.000144203659, 0.011482331 , -0.000127307925, -2.76136065 , 1.54336035  , -0.142072111, 921.907959  , 32.2504349  , 789.642944  , 3.1         , 19          , 10          , 0.1         , 0.1
9.79262352  , 0.09925788  , 0.2095139   , -6.928982E-05, 0.0116770444, 4.78661823E-05, -2.76194668 , 1.54332769  , -0.142659619, 921.907959  , 32.2504349  , 789.676     , 3.11        , 19          , 11          , 0.00736543536, 0.00736544328
9.809537    , 0.093894884 , 0.2301965   , -3.25734145E-05, 0.008926261 , 6.263945E-05, -2.76316953 , 1.54324329  , -0.143881246, 921.907959  , 32.2504349  , 789.6755    , 3.12        , 19          , 12          , 0.174645633 , 0
9.791087    , 0.09590883  , 0.219154209 , -2.28813733E-05, 0.00494076964, 0.0012177868, -2.7642405  , 1.5432086   , -0.144953415, 921.917664  , 32.2498932  , 789.6749    , 3.13        , 19          , 13          , 0           , 0
9.795188    , 0.09634288  , 0.209111214 , 0.000172662 , 0.00360697927, 0.000707055442, -2.76495862 , 1.54317188  , -0.145673424, 921.917664  , 32.2498932  , 789.6744    , 3.14        , 19          , 14          , -0.000567204843, -0.003161312
9.788907    , 0.09436195  , 0.1939238   , 0.000375398668, 0.0054581305, -0.000247393735, -2.76559639 , 1.54312229  , -0.146315053, 921.917664  , 32.2498932  , 789.6738    , 3.15        , 19          , 15          , 0           , -1.85967911E-05
9.786627    , 0.105538845 , 0.198913738 , 0.000469883234, 0.008303994 , 0.000328625058, -2.766801   , 1.54304707  , -0.147524968, 921.917664  , 32.2498932  , 789.6733    , 3.16        , 19          , 16          , 0           , 1.401298E-45
9.793729    , 0.0998828858, 0.213265732 , 0.000105505023, 0.0118237352, 0.000705993967, -2.76858854 , 1.54293776  , -0.149314538, 921.917664  , 32.2498932  , 789.6727    , 3.17        , 19          , 20          , 0           , 0
9.79113     , 0.100005984 , 0.206694916 , 0.000278670253, 0.0113132345, -0.000126139, -2.77001786 , 1.54283309  , -0.1507475  , 921.917664  , 32.2498932  , 789.6722    , 3.18        , 19          , 21          , 0           , 0
9.786817    , 0.09734594  , 0.20578976  , 7.581635E-05, 0.0129397279, -0.000361797865, -2.77157044 , 1.54270542  , -0.152299687, 921.917664  , 32.2498932  , 789.671631  , 3.19        , 19          , 22          , 0           , 0
9.793127    , 0.107303895 , 0.219562933 , 0.000641502149, 0.0141911581, -0.000713960559, -2.7731452  , 1.542572    , -0.1538832  , 921.917664  , 32.2498932  , 789.6711    , 3.2         , 19          , 40          , 0           , 0
9.795998    , 0.108011127 , 0.237859249 , 0.000404999562, 0.009748569 , 0.0007479527, -2.77375913 , 1.54254889  , -0.1545009  , 921.917664  , 32.2498932  , 789.6867    , 3.21        , 19          , 41          , 0           , 0
9.801473    , 0.11226292  , 0.24244377  , 0.00020309785, 0.00136734615, 0.000430619315, -2.77407265 , 1.54253614  , -0.1548166  , 921.917664  , 32.2498932  , 789.6863    , 3.22        , 19          , 42          , 0           , 0
9.796305    , 0.114652373 , 0.2353824   , -3.17895319E-06, -0.0055706175, 0.000544838 , -2.773543   , 1.54259527  , -0.154287353, 921.8743    , 32.2505035  , 789.685852  , 3.23        , 19          , 255         , 0           , 0
9.799147    , 0.105048314 , 0.225228861 , -0.000154936162, -0.008766617, 0.0002379783, -2.77250147 , 1.54267573  , -0.153243929, 921.8743    , 32.2505035  , 789.6854    , 3.24        , 19          , 255         , 0           , 0
9.787781    , 0.102051064 , 0.213768244 , 0.000406579929, -0.009995781, 0.000746440841, -2.77146    , 1.54277551  , -0.15220578 , 921.8743    , 32.2505035  , 789.685     , 3.25        , 19          , 255         , 0           , 0
9.79265     , 0.100382306 , 0.205205411 , 0.0005529933, -0.0103692068, 0.0005146766, -2.7702837  , 1.54287148  , -0.1510345  , 921.8743    , 32.2505035  , 789.6846    , 3.26        , 19          , 255         , 0           , 0
9.797155    , 0.09032484  , 0.199208856 , 0.000414018665, -0.008768164, 0.000458118273, -2.76929    , 1.54295266  , -0.150045276, 921.8743    , 32.2505035  , 789.684143  , 3.27        , 19          , 255         , 0           , 0
9.793521    , 0.0957049   , 0.211213708 , 0.000321193947, -0.009974944, 0.000185554789, -2.768042   , 1.54304707  , -0.148799539, 921.8743    , 32.2505035  , 789.6837    , 3.28        , 19          , 255         , 0           , 0
9.80081     , 0.09543415  , 0.219314665 , 0.000515765161, -0.0140435295, -0.0005844059, -2.76598668 , 1.54317844  , -0.1467479  , 921.8743    , 32.2505035  , 789.6833    , 3.29        , 19          , 255         , 0           , 0
9.812806    , 0.09982855  , 0.238338977 , 0.000229692727, -0.0195861757, -0.000854904065, -2.76307678 , 1.54336035  , -0.143838957, 921.8743    , 32.2505035  , 789.682861  , 3.3         , 19          , 255         , 0           , 0
9.804301    , 0.100615129 , 0.1969082   , -0.000214130559, -0.024967853, -0.000777280657, -2.75871062 , 1.54362011  , -0.139470235, 921.8743    , 32.2505035  , 789.7582    , 3.31        , 19          , 255         , 0           , 0
9.82488251  , 0.09752465  , 0.295569837 , 0.000110871217, -0.0356227681, 0.000143881291, -2.75380254 , 1.54394674  , -0.134561285, 921.8743    , 32.2505035  , 789.75824   , 3.32        , 19          , 255         , 0           , 0
9.814651    , 0.104142413 , 0.255864948 , -0.000442269084, -0.0615081675, 0.000562693342, -2.74515581 , 1.544528    , -0.125906959, 921.944031  , 32.2507744  , 789.7583    , 3.33        , 19          , 255         , 0           , 0
9.794077    , 0.1037599   , 0.234547853 , 0.000124014216, -0.06967072 , -0.000824603834, -2.73436522 , 1.54516673  , -0.115115128, 921.944031  , 32.2507744  , 789.758362  , 3.34        , 19          , 255         , 0           , 0
9.81799     , 0.1073883   , 0.32175073  , 0.000155902235, -0.097477   , -0.0005010596, -2.71857929 , 1.54604948  , -0.09932503 , 921.944031  , 32.2507744  , 789.7584    , 3.35        , 19          , 255         , 0           , 0
9.809385    , 0.09704189  , 0.192465857 , -0.0007871596, -0.115693569, -0.000122034362, -2.69849944 , 1.54710531  , -0.07923124 , 921.944031  , 32.2507744  , 789.758545  , 3.36        , 19          , 255         , 0           , 0
9.82207     , 0.09941117  , 0.2638077   , -0.0003314435, -0.130503029, 0.000538048451, -2.67387581 , 1.54827929  , -0.05459846 , 921.944031  , 32.2507744  , 789.758667  , 3.37        , 19          , 255         , 0           , 0
9.826006    , 0.09674096  , 0.3062122   , 0.000466816069, -0.165172309, -7.63375E-05, -2.638477   , 1.54973745  , -0.0191949289, 921.944031  , 32.2507744  , 789.7588    , 3.38        , 19          , 255         , 0           , 0
9.808234    , 0.101328745 , 0.186438873 , 0.0007874602, -0.193372533, -0.000126443527, -2.638477   , 1.55140257  , -0.01919341 , 921.944031  , 32.2507744  , 789.7589    , 3.39        , 19          , 255         , 0           , 0
9.815939    , 0.106972836 , 0.122885011 , 4.7430105E-05, -0.204805285, -0.000953883, -2.638477   , 1.5531199   , -0.0191833973, 921.944031  , 32.2507744  , 789.759033  , 3.4         , 19          , 255         , 0           , 0
9.810598    , 0.115032874 , 0.115074024 , -5.380565E-05, -0.211049125, -0.000720364857, -2.638477   , 1.5547719   , -0.0191719532, 921.944031  , 32.2507744  , 789.724854  , 3.41        , 19          , 255         , 0           , 0
9.767237    , 0.105415359 , -0.0660926  , -0.0004857839, -0.202939272, -0.000813632039, -2.638477   , 1.556295    , -0.0191566944, 921.944031  , 32.2507744  , 789.724731  , 3.42        , 19          , 255         , 0           , 0
9.805821    , 0.102806553 , 0.119780168 , -0.000653531752, -0.186410949, -0.000313206168, -2.638477   , 1.557554    , -0.01914072 , 921.9218    , 32.2520638  , 789.7246    , 3.43        , 19          , 255         , 0           , 0
9.859712    , 0.0966024548, 0.316012353 , -0.0006561676, -0.243644267, -0.000264039554, -2.638477   , 1.558951    , -0.0191216469, 921.9218    , 32.2520638  , 789.7245    , 3.44        , 19          , 255         , 0           , 0
9.834701    , 0.0910992846, 0.23586905  , -0.0005686744, -0.3090472  , -0.000877860235, -2.638477   , 1.560188    , -0.01910019 , 921.9218    , 32.2520638  , 789.7244    , 3.45        , 19          , 255         , 0           , 0
9.814641    , 0.0804833   , 0.09728481  , -0.003520638, -0.3566202  , -0.00132143789, -2.638477   , 1.56056571  , -0.0190467834, 921.9218    , 32.2520638  , 789.724365  , 3.46        , 19          , 255         , 0           , 0
9.896769    , -0.0538010523, 0.189574331 , -0.09650022 , -0.414148927, -0.00381812081, -2.638477   , 1.559497    , -0.0180606842, 921.9218    , 32.2520638  , 789.7243    , 3.47        , 19          , 255         , 0           , 0
9.736514    , 0.0659449548, -0.756800354, -0.2210967  , -0.411797553, 0.00667893374, -2.638477   , 1.557291    , -0.015828371, 921.9218    , 32.2520638  , 789.724243  , 3.48        , 19          , 255         , 0           , 0
9.699541    , -0.0227715336, -0.5547699  , -0.207780033, -0.23230496 , 0.003256487 , -2.638477   , 1.55569494  , -0.0137388706, 921.9218    , 32.2520638  , 789.7242    , 3.49        , 19          , 255         , 0           , 0
10.004715   , -0.09148099 , 0.3514914   , -0.340349764, -0.3110121  , -0.00104149245, -2.638477   , 1.55327237  , -0.0103194714, 921.9218    , 32.2520638  , 789.7241    , 3.5         , 19          , 255         , 0           , 0
10.0314474  , 0.254442662 , -0.00122791226, -0.450353146, -0.4997582  , 0.00149070588, -0.4912629  , 1.54902494  , 2.14142251  , 921.9218    , 32.2520638  , 789.7268    , 3.51        , 19          , 255         , 0           , 0
10.0411     , 0.32144466  , -0.169287845, -0.41918382 , -0.702233732, 0.001608293 , -0.3765066  , 1.542646    , 2.26040888  , 921.9218    , 32.2520638  , 789.7268    , 3.52        , 19          , 255         , 0           , 0
10.030714   , 0.296827972 , -0.336576939, -0.415692747, -0.93953985 , 0.009485072 , -0.284324616, 1.53378129  , 2.356798    , 921.9398    , 32.2528763  , 789.726868  , 3.53        , 19          , 255         , 0           , 0
9.820843    , 0.284189135 , -0.751115441, -0.370720863, -1.11268532 , 0.00968787447, -0.220294178, 1.52302873  , 2.424594    , 921.9398    , 32.2528763  , 789.7269    , 3.54        , 19          , 255         , 0           , 0
9.695735    , 0.2186975   , -0.442979723, -0.3262487  , -1.11265242 , 0.0124965934, -0.179752782, 1.5121454   , 2.46846     , 921.9398    , 32.2528763  , 789.727     , 3.55        , 19          , 255         , 0           , 0
9.754977    , 0.209618449 , -0.142380118, -0.344914019, -1.10543406 , 0.0160199981, -0.152278215, 1.50126779  , 2.499447    , 921.9398    , 32.2528763  , 789.727051  , 3.56        , 19          , 255         , 0           , 0
9.930571    , 0.186882    , 0.355115652 , -0.416924626, -1.19544733 , 0.0288569219, -0.130383849, 1.48947179  , 2.52558446  , 921.9398    , 32.2528763  , 789.7271    , 3.57        , 19          , 255         , 0           , 0
10.0150318  , 0.155681178 , 0.213365167 , -0.489822775, -1.398964   , 0.0350842029, -0.11221952 , 1.47562826  , 2.54873729  , 921.9398    , 32.2528763  , 789.7272    , 3.58        , 19          , 255         , 0           , 0
10.408556   , 0.215663165 , -0.7616874  , -0.6060244  , -1.51864135 , 0.037422765 , -0.0991371349, 1.46056354  , 2.56798     , 921.9398    , 32.2528763  , 789.7273    , 3.59        , 19          , 255         , 0           , 0
10.3119364  , -0.193397686, -1.9621464  , -0.6553488  , -1.39026582 , -0.0439131856, -0.0978071839, 1.44668412  , 2.575916    , 921.9398    , 32.2528763  , 789.7275    , 3.6         , 19          , 255         , 0           , 0
9.779933    , 0.08432646  , -2.10973716 , -0.8143644  , -1.182822   , -0.143855229, -0.107639849, 1.43477023  , 2.57421279  , 921.9398    , 32.2528763  , 789.704346  , 3.61        , 19          , 255         , 0           , 0
10.4979534  , 0.736763358 , -1.18768787 , -1.05619764 , -1.307927   , -0.1637375  , -0.119213074, 1.42158973  , 2.57319164  , 921.9398    , 32.2528763  , 789.704468  , 3.62        , 19          , 255         , 0           , 0
11.164525   , 0.654198766 , -1.58130634 , -1.21543038 , -1.66327047 , -0.222708747, -0.132143348, 1.40480828  , 2.572405    , 921.9181    , 32.2535553  , 789.7048    , 3.63        , 19          , 255         , 0           , 0
11.2113857  , 0.280724347 , -2.43598437 , -1.2915349  , -1.82237732 , -0.348049343, -0.15004687 , 1.38627565  , 2.56733823  , 921.9181    , 32.2535553  , 789.705261  , 3.64        , 19          , 255         , 0           , 0
10.9176159  , 0.5138313   , -2.78291249 , -1.31754673 , -1.78337371 , -0.431563228, -0.170441508, 1.36798048  , 2.559981    , 921.9181    , 32.2535553  , 789.7059    , 3.65        , 19          , 255         , 0           , 0
10.6915455  , 0.493610561 , -2.96925426 , -1.30235243 , -1.668109   , -0.470096529, -0.191041917, 1.35072577  , 2.55223131  , 921.9181    , 32.2535553  , 789.7066    , 3.66        , 19          , 255         , 0           , 0
10.6180315  , 0.596246362 , -3.08673358 , -1.21760774 , -1.53377068 , -0.484535843, -0.210493982, 1.33472919  , 2.544762    , 921.9181    , 32.2535553  , 789.707458  , 3.67        , 19          , 255         , 0           , 0
10.3948336  , 0.462106079 , -3.2205863  , -1.08274615 , -1.42284846 , -0.5066767  , -0.2287426  , 1.31973827  , 2.53711462  , 921.9181    , 32.2535553  , 789.708435  , 3.68        , 19          , 255         , 0           , 0
10.1570024  , 0.6306322   , -3.14602351 , -0.9346206  , -1.33602178 , -0.5147489  , -0.245156437, 1.30554259  , 2.52980518  , 921.9181    , 32.2535553  , 789.709534  , 3.69        , 19          , 255         , 0           , 0
9.971601    , 0.829798043 , -3.22725439 , -0.7689465  , -1.32070076 , -0.497449428, -0.258311659, 1.29151344  , 2.5241313   , 921.9181    , 32.2535553  , 789.7107    , 3.7         , 19          , 255         , 0           , 0
9.820189    , 0.937231541 , -3.37944174 , -0.614706635, -1.32355833 , -0.4388768  , -0.267177641, 1.27759135  , 2.521298    , 921.9181    , 32.2535553  , 789.7236    , 3.71        , 19          , 255         , 0           , 0
9.847719    , 0.938341141 , -3.30368042 , -0.602107346, -1.249384   , -0.378631651, -0.274199158, 1.2645402   , 2.5202508   , 921.9181    , 32.2535553  , 789.7249    , 3.72        , 19          , 255         , 0           , 0
9.867742    , 0.875601649 , -3.23050356 , -0.7085027  , -1.12576473 , -0.3701174  , -0.282728285, 1.25269842  , 2.51873279  , 921.9305    , 32.2578964  , 789.7263    , 3.73        , 19          , 255         , 0           , 0
10.01431    , 1.05509317  , -3.19014168 , -0.865254045, -1.00058448 , -0.381937355, -0.293826044, 1.24201989  , 2.51615334  , 921.9305    , 32.2578964  , 789.7278    , 3.74        , 19          , 255         , 0           , 0
10.2025528  , 0.9917061   , -3.019319   , -1.13780892 , -0.9044784  , -0.439553648, -0.309565246, 1.23207641  , 2.51153684  , 921.9305    , 32.2578964  , 789.7294    , 3.75        , 19          , 255         , 0           , 0
10.3211088  , 1.09391081  , -3.11316323 , -1.42757952 , -0.861064434, -0.5424399  , -0.330661476, 1.22219586  , 2.50429225  , 921.9305    , 32.2578964  , 789.7311    , 3.76        , 19          , 255         , 0           , 0
10.1808147  , 1.04106164  , -3.01405263 , -1.66920233 , -0.885071754, -0.6641649  , -0.3562154  , 1.2116251   , 2.49484468  , 921.9305    , 32.2578964  , 789.732849  , 3.77        , 19          , 255         , 0           , 0
10.2663555  , 1.170671    , -3.413931   , -1.7170018  , -0.922402   , -0.756664455, -0.383124352, 1.20028913  , 2.48442     , 921.9305    , 32.2578964  , 789.734741  , 3.78        , 19          , 255         , 0           , 0
10.0879831  , 1.62669468  , -3.23806524 , -1.57470691 , -1.10983407 , -0.81891644 , -0.407155663, 1.18689418  , 2.47551131  , 921.9305    , 32.2578964  , 789.7367    , 3.79        , 19          , 255         , 0           , 0
9.697344    , 1.63734055  , -3.48361158 , -1.46860087 , -1.27398813 , -0.8647364  , -0.4284633  , 1.17174149  , 2.4683485   , 921.9305    , 32.2578964  , 789.7387    , 3.8         , 19          , 255         , 0           , 0
9.283818    , 1.71191752  , -3.19261551 , -1.46964562 , -1.280023   , -0.8517088  , -0.448451847, 1.15653563  , 2.46258688  , 921.9305    , 32.2578964  , 789.7319    , 3.81        , 19          , 255         , 0           , 0
9.079031    , 1.66371286  , -2.90184045 , -1.555328   , -1.22237527 , -0.824825   , -0.4684398  , 1.14192438  , 2.45772719  , 921.9305    , 32.2578964  , 789.7339    , 3.82        , 19          , 255         , 0           , 0
9.267085    , 1.85897422  , -2.77717471 , -1.60238636 , -1.1582197  , -0.7668995  , -0.4876493  , 1.12811351  , 2.454214    , 921.869     , 32.2567444  , 789.7359    , 3.83        , 19          , 255         , 0           , 0
9.653315    , 1.80730975  , -3.444371   , -1.59331775 , -1.00532687 , -0.698096752, -0.5063738  , 1.11594582  , 2.45111442  , 921.869     , 32.2567444  , 789.738     , 3.84        , 19          , 255         , 0           , 0
9.726725    , 1.95594466  , -3.46108127 , -1.40596139 , -0.737956   , -0.6816162  , -0.5250593  , 1.1061635   , 2.4459517   , 921.869     , 32.2567444  , 789.7401    , 3.85        , 19          , 255         , 0           , 0
9.705529    , 1.87569261  , -3.16825    , -1.22386074 , -0.5980935  , -0.7061035  , -0.5432791  , 1.09741974  , 2.43924618  , 921.869     , 32.2567444  , 789.7423    , 3.86        , 19          , 255         , 0           , 0
9.772784    , 1.95158827  , -3.07084227 , -1.03750193 , -0.630884945, -0.8032342  , -0.5604627  , 1.087835    , 2.431578    , 921.869     , 32.2567444  , 789.744568  , 3.87        , 19          , 255         , 0           , 0
9.598771    , 2.27259874  , -2.81698656 , -0.772148669, -0.8538751  , -0.9701683  , -0.57491827 , 1.07541847  , 2.42395115  , 921.869     , 32.2567444  , 789.7468    , 3.88        , 19          , 255         , 0           , 0
9.470959    , 2.31578016  , -2.74258757 , -0.577304363, -1.20082808 , -1.15520167 , -0.5862618  , 1.0590409   , 2.417593    , 921.869     , 32.2567444  , 789.749146  , 3.89        , 19          , 255         , 0           , 0
9.143199    , 2.51063848  , -3.00992846 , -0.357887745, -1.42823231 , -1.287954   , -0.594617963, 1.04000568  , 2.41208482  , 921.869     , 32.2567444  , 789.751465  , 3.9         , 19          , 255         , 0           , 0
8.606059    , 2.453504    , -2.84184456 , -0.104365222, -1.503288   , -1.34564114 , -0.6001019  , 1.02000654  , 2.40690541  , 921.869     , 32.2567444  , 789.830444  , 3.91        , 19          , 255         , 0           , 0
8.093449    , 2.28618455  , -2.78579473 , 0.16947633  , -1.34522915 , -1.25353718 , -0.602744   , 1.00182128  , 2.40178585  , 921.869     , 32.2567444  , 789.833069  , 3.92        , 19          , 255         , 0           , 0
7.752404    , 2.27686429  , -2.70253444 , 0.491929442 , -0.9842271  , -1.044267   , -0.6024709  , 0.9877929   , 2.39624357  , 921.8786    , 32.2566071  , 789.8356    , 3.93        , 19          , 255         , 0           , 0
7.628064    , 2.332478    , -2.64277887 , 0.828410864 , -0.565082669, -0.803498745, -0.5993304  , 0.9785886   , 2.39006138  , 921.8786    , 32.2566071  , 789.8379    , 3.94        , 19          , 255         , 0           , 0
7.603517    , 2.27761436  , -2.60388613 , 1.0570097   , -0.195559114, -0.5988934  , -0.5944527  , 0.9736051   , 2.383188    , 921.8786    , 32.2566071  , 789.8401    , 3.95        , 19          , 255         , 0           , 0
7.57013464  , 2.195002    , -2.58736229 , 1.13340473  , -0.0190179832, -0.4798627  , -0.588802338, 0.9707698   , 2.376308    , 921.8786    , 32.2566071  , 789.8421    , 3.96        , 19          , 255         , 0           , 0
7.65979147  , 2.44535565  , -2.38266134 , 1.1183461   , -0.09539688 , -0.44794178 , -0.582291365, 0.967499256 , 2.370641    , 921.8786    , 32.2566071  , 789.844     , 3.97        , 19          , 255         , 0           , 0
7.87867737  , 2.25165725  , -2.41064644 , 0.962114453 , -0.3191866  , -0.5123593  , -0.576341748, 0.96202296  , 2.36617517  , 921.8786    , 32.2566071  , 789.8457    , 3.98        , 19          , 255         , 0           , 0
7.987626    , 2.38763976  , -2.30961418 , 0.9023934   , -0.732562959, -0.6701066  , -0.5696803  , 0.952233434 , 2.36328769  , 921.8786    , 32.2566071  , 789.8473    , 3.99        , 19          , 255         , 0           , 0
7.849196    , 2.318585    , -2.106025   , 0.8875174   , -1.20563936 , -0.851624   , -0.5618161  , 0.937490046 , 2.36204123  , 921.8786    , 32.2566071  , 789.8487    , 4           , 19          , 0           , 9.043237    , 400
7.36236858  , 2.13972235  , -2.344811   , 0.8526749   , -1.52726352 , -1.00261211 , -0.553854942, 0.9192256   , 2.36133456  , 921.8786    , 32.2566071  , 789.896545  , 4.01        , 19          , 1           , 0           , 0
6.85971928  , 2.18157458  , -2.74283886 , 0.856578231 , -1.62838757 , -1.045545   , -0.545809269, 0.8998777   , 2.360676    , 921.8786    , 32.2566071  , 789.8978    , 4.02        , 19          , 2           , 0           , 0
6.260427    , 2.291081    , -3.145984   , 0.938916147 , -1.64335811 , -0.9835307  , -0.536376953, 0.880725443 , 2.360733    , 921.896362  , 32.2564049  , 789.898865  , 4.03        , 19          , 3           , 0           , 0
5.5182      , 2.2349422   , -3.17642069 , 0.9191981   , -1.75070691 , -0.9269852  , -0.5261514  , 0.8609338   , 2.36208725  , 921.896362  , 32.2564049  , 789.8996    , 4.04        , 19          , 4           , 0           , 0
7.0838995   , 2.14747548  , -4.686686   , 0.688953042 , -1.631895   , -0.7537684  , -0.517429352, 0.8430299   , 2.364521    , 921.896362  , 32.2564049  , 789.9002    , 4.05        , 19          , 5           , 0           , 0
6.745393    , 2.58963013  , -5.575348   , 0.8154129   , -1.17264175 , -0.602253437, -0.5087078  , 0.829857349 , 2.36528516  , 921.896362  , 32.2564049  , 789.900757  , 4.06        , 19          , 6           , 0           , 0
6.726725    , 2.51202059  , -4.62713671 , 0.874227166 , -1.08851838 , -0.5211293  , -0.499218583, 0.81780833  , 2.36630368  , 921.896362  , 32.2564049  , 789.9012    , 4.07        , 19          , 7           , 0           , 0
6.97644567  , 2.54314113  , -4.9936657  , 0.796777666 , -1.10688818 , -0.504602134, -0.4903908  , 0.8056712   , 2.36748862  , 921.896362  , 32.2564049  , 789.90155   , 4.08        , 19          , 8           , 5           , 5
7.57146931  , 2.87401462  , -5.18167353 , 0.7713753   , -0.9858805  , -0.4943762  , -0.4824309  , 0.7946451   , 2.367831    , 921.896362  , 32.2564049  , 789.901855  , 4.09        , 19          , 9           , 5           , 0.1
7.329811    , 2.86986232  , -4.49618864 , 0.659643233 , -0.957842648, -0.5145024  , -0.475987852, 0.783773839 , 2.36761427  , 921.896362  , 32.2564049  , 789.9021    , 4.1         , 19          , 10          , 0.1         , 0.1
6.65867853  , 3.10023642  , -3.75611115 , 0.2431898   , -1.25092244 , -0.6812561  , -0.4738985  , 0.769533753 , 2.36712813  , 921.896362  , 32.2564049  , 789.9131    , 4.11        , 3           , 11          , 0.00733601535, 0.007378212
7.64174652  , 3.08280253  , -5.673789   , -0.225696877, -1.21419787 , -0.5104399  , -0.475192934, 0.7564012   , 2.36852121  , 921.896362  , 32.2564049  , 789.913269  , 4.12        , 3           , 12          , 0.174654722 , 0
5.5716157   , 0.987268746 , -6.78297329 , 0.01953999  , -0.8318046  , -0.535946846, -0.475883722, 0.74655205  , 2.367218    , 921.883362  , 32.2582359  , 789.9133    , 4.13        , 3           , 13          , 0           , 0
5.020048    , 1.70441842  , -5.322517   , 0.497031629 , -0.803943336, -0.854438245, -0.4744993  , 0.735492647 , 2.36190844  , 921.883362  , 32.2582359  , 789.913147  , 4.14        , 3           , 14          , -0.000567208335, -0.00316063431
5.00376034  , 2.93568826  , -4.177876   , 0.756222069 , -1.08344448 , -0.7153794  , -0.468239963, 0.7225883   , 2.3599596   , 921.883362  , 32.2582359  , 789.912659  , 4.15        , 3           , 15          , 0           , -1.87540554E-05
3.8701694   , 2.22989368  , -4.522432   , 0.872902751 , -1.47826374 , -0.492778063, -0.45761162 , 0.707158744 , 2.362862    , 921.883362  , 32.2582359  , 789.911865  , 4.16        , 3           , 16          , 0           , 1.401298E-45
