Acc X       , Acc Y       , Acc Z       , Gyro X      , Gyro Y      , Gyro Z      , Euler X     , Euler Y     , Euler Z     , Pres X      , Pres Y      , Pres Z      , Time        , Status      , LowRate X   , LowRate Y   , LowRate Z    
-0.178204492, 0.08934619  , -9.785946   , 0           , 0           , 0           , -0.009129798, -0.0182074755, 0           , 923.5347    , 31.53192    , 775.2539    , 0           , 2           , 0           , 5.01723146  , 0
-0.17275843 , 0.09469856  , -9.79159451 , -0.000243296643, 0.000213613748, -0.000561283669, -0.009132027, -0.0182057563, -5.632903E-06, 923.5347    , 31.53192    , 775.2539    , 0.01        , 3           , 1           , 0           , 0
-0.168646753, 0.09523279  , -9.8050375  , 0.000119785633, 0.000250350451, -6.514121E-06, -0.009130829, -0.0182032529, -5.72092767E-06, 923.5347    , 31.53192    , 775.2539    , 0.02        , 3           , 2           , 0           , 0
-0.17131336 , 0.0876274   , -9.787229   , -0.000117250864, -2.63094844E-05, -0.00069161295, -0.009131874, -0.0182035789, -1.26353389E-05, 923.501465  , 31.0994263  , 775.2539    , 0.03        , 3           , 3           , 0           , 0
-0.181154072, 0.09325491  , -9.789385   , -0.000118895521, -0.0002637539, 0.0007101075, -0.009133192, -0.01820615 , -5.509475E-06, 923.501465  , 31.0994263  , 775.2539    , 0.04        , 3           , 4           , 0           , 0
-0.179464862, 0.0869993642, -9.783864   , 0.0002592208, -0.000317331258, -0.0002518924, -0.009130555, -0.0182093456, -7.99967E-06, 923.501465  , 31.0994263  , 775.2539    , 0.05        , 3           , 5           , 0           , 0
-0.177559361, 0.08906877  , -9.794697   , 0.000573204 , -0.000195110537, -5.77256433E-05, -0.009124812, -0.0182113014, -8.559168E-06, 923.501465  , 31.0994263  , 775.2539    , 0.06        , 3           , 6           , 0           , 0
-0.18026647 , 0.0878899246, -9.792185   , 0.0006616351, 0.000280916342, 0.000182644653, -0.009118229, -0.0182084758, -6.758164E-06, 923.501465  , 31.0994263  , 775.2539    , 0.07        , 3           , 7           , 0           , 0
-0.175070614, 0.0841887146, -9.788843   , 0.0007230211, -0.000224443822, 0.000671733054, -0.009111121, -0.0182106588, -1.97283914E-08, 923.501465  , 31.0994263  , 775.2539    , 0.08        , 3           , 8           , 5           , 5
-0.176672667, 0.08485913  , -9.790137   , 0.000109500455, -0.0003718234, 0.0006787343, -0.009110148, -0.0182143115, 6.80214771E-06, 923.501465  , 31.0994263  , 775.2539    , 0.09        , 3           , 9           , 5           , 0.1
-0.1741638  , 0.09099345  , -9.789276   , 0.000348386151, 0.000382624945, 0.000328296679, -0.009106726, -0.0182104539, 1.00505868E-05, 923.501465  , 31.0994263  , 775.2539    , 0.1         , 3           , 10          , 0.1         , 0.1
-0.17954649 , 0.0988201946, -9.792294   , 0.000438162 , 0.000161189062, 0.0004902319, -0.009102741, -0.018197231, 1.49443322E-05, 923.501465  , 31.0994263  , 775.5526    , 0.11        , 3           , 11          , 0.0109544508, 0.0109544508
-0.177883163, 0.09714173  , -9.78893852 , 0.000117246411, -0.000248309167, 0.000281206565, -0.009101619, -0.0181996878, 1.77792754E-05, 923.501465  , 31.0994263  , 775.5526    , 0.12        , 3           , 12          , 0.174642488 , 0
-0.177128792, 0.0978205651, -9.784424   , -0.000247627118, -0.0001823185, 0.0004385991, -0.009104176, -0.0182014722, 2.21823011E-05, 923.5216    , 31.1380978  , 775.5526    , 0.13        , 3           , 13          , 0           , 0
-0.1817363  , 0.0886887237, -9.792607   , -0.000469092833, -0.00014514057, -5.94659359E-05, -0.009108854, -0.01820293 , 2.16007975E-05, 923.5216    , 31.1380978  , 775.5526    , 0.14        , 3           , 14          , -0.000378081138, -0.000455625879
-0.175924346, 0.08728975  , -9.787774   , 1.265874E-05, -4.857895E-05, 0.000530355552, -0.009108825, -0.0182033684, 2.69093052E-05, 923.5216    , 31.1380978  , 775.5526    , 0.15        , 3           , 15          , 0           , -0.000136644609
-0.180495769, 0.08873378  , -9.787036   , -0.000289196, -1.69882842E-05, 0.0002876926, -0.0091117695, -0.0182035118, 2.97880688E-05, 923.5216    , 31.1380978  , 775.5526    , 0.16        , 3           , 16          , 0           , 1.401298E-45
-0.1779408  , 0.08127551  , -9.792445   , -0.000594053534, -0.0004035434, 0.000164749537, -0.009117739, -0.0182075277, 3.14725039E-05, 923.5216    , 31.1380978  , 775.5526    , 0.17        , 3           , 20          , 0           , 0
-0.1701824  , 0.0799571946, -9.789736   , 0.0005102032, -0.000698773947, 0.000470735773, -0.009112724, -0.0182144735, 3.6244026E-05, 923.5216    , 31.1380978  , 775.5526    , 0.18        , 3           , 21          , 0           , 0
-0.180583149, 0.0895996243, -9.792162   , 0.000139910844, -0.000309522962, 0.0008766798, -0.009111485, -0.01821749 , 4.5039902E-05, 923.5216    , 31.1380978  , 775.5526    , 0.19        , 3           , 22          , 0           , 0
-0.174953461, 0.101737425 , -9.798579   , 0.000173661538, -0.0002581844, 0.0002969476, -0.009109803, -0.0182200428, 4.803319E-05, 923.5216    , 31.1380978  , 775.5526    , 0.2         , 3           , 40          , 0           , 0
-0.175291717, 0.0979338437, -9.793199   , 0.000219770445, -0.000603610766, -0.0008230261, -0.0091160275, -0.0182234328, 4.00132958E-05, 923.5216    , 31.1380978  , 775.462769  , 0.21        , 3           , 41          , 0           , 0
-0.190768123, 0.09510253  , -9.80579948 , 0.000245052448, -6.92109461E-06, 1.77399343E-05, -0.009113581, -0.0182235017, 4.019135E-05, 923.5216    , 31.1380978  , 775.4628    , 0.22        , 3           , 42          , 0           , 0
-0.178472891, 0.093664825 , -9.77995    , -0.000163382443, 0.000668776571, 0.0007278737, -0.009115345, -0.0182167441, 4.74098451E-05, 923.5484    , 31.1653023  , 775.4629    , 0.23        , 3           , 255         , 0           , 0
-0.180835247, 0.0989012346, -9.787255   , -0.000187282392, 0.00022120052, 0.001172011 , -0.009117431, -0.0182144288, 5.91109529E-05, 923.5484    , 31.1653023  , 775.462952  , 0.24        , 3           , 255         , 0           , 0
-0.176000282, 0.08864483  , -9.795706   , 1.766099E-05, -0.000383453356, 0.0003479672, -0.009117317, -0.01821823 , 6.262593E-05, 923.5484    , 31.1653023  , 775.463     , 0.25        , 3           , 255         , 0           , 0
-0.173403665, 0.08036779  , -9.791921   , -0.000156156486, -0.0006659834, 5.104114E-05, -0.00911889 , -0.0182248857, 6.319712E-05, 923.5484    , 31.1653023  , 775.4631    , 0.26        , 3           , 255         , 0           , 0
-0.181975335, 0.08621506  , -9.79198    , 1.43080542E-05, -0.000159850722, -5.550057E-06, -0.009118746, -0.0182264838, 6.31561852E-05, 923.5484    , 31.1653023  , 775.463135  , 0.27        , 3           , 255         , 0           , 0
-0.178684875, 0.08707245  , -9.79167    , 0.0003534641, -0.0003261492, 9.759489E-05, -0.00911523 , -0.0182297342, 6.416198E-05, 923.5484    , 31.1653023  , 775.4632    , 0.28        , 3           , 255         , 0           , 0
-0.174914241, 0.09281961  , -9.79176    , -8.516357E-05, 0.0002449499, 0.0009218698, -0.009116247, -0.0182272028, 7.335925E-05, 923.5484    , 31.1653023  , 775.463257  , 0.29        , 3           , 255         , 0           , 0
-0.176852018, 0.07773699  , -9.788721   , -0.000429996522, 0.0003594843, -0.0002851495, -0.009120495, -0.01822363 , 7.047468E-05, 923.5484    , 31.1653023  , 775.4633    , 0.3         , 3           , 255         , 0           , 0
-0.176205784, 0.0790259838, -9.782736   , -0.0004219582, 0.000166616635, 0.0003043802, -0.009126987, -0.0182231776, 7.35440044E-05, 923.5484    , 31.1653023  , 775.3525    , 0.31        , 3           , 255         , 0           , 0
-0.175628975, 0.08695731  , -9.78865    , 0.000200117182, 4.67441278E-05, 0.000374456868, -0.009125055, -0.0182226747, 7.728468E-05, 923.5484    , 31.1653023  , 775.352539  , 0.32        , 3           , 255         , 0           , 0
-0.184807748, 0.08906393  , -9.786819   , 0.000165648307, 3.18966631E-05, 0.0006754772, -0.009123521, -0.0182222947, 8.403722E-05, 923.4977    , 31.1820583  , 775.3526    , 0.33        , 3           , 255         , 0           , 0
-0.172433227, 0.08552815  , -9.796984   , -0.0007650327, 0.0004210981, 0.0005304114, -0.009131268, -0.0182180367, 8.930341E-05, 923.4977    , 31.1820583  , 775.352661  , 0.34        , 3           , 255         , 0           , 0
-0.177791029, 0.08770103  , -9.798434   , 0.000398610457, 0.000223939729, 0.000186403136, -0.009127314, -0.0182157755, 9.11471652E-05, 923.4977    , 31.1820583  , 775.3527    , 0.35        , 3           , 255         , 0           , 0
-0.1778507  , 0.09231488  , -9.79168    , 0.0006512052, 4.74886619E-05, 0.000190084858, -0.009120838, -0.0182152838, 9.304388E-05, 923.4977    , 31.1820583  , 775.3528    , 0.36        , 3           , 255         , 0           , 0
-0.180754855, 0.09528892  , -9.792967   , 0.000201266055, 2.73917976E-05, -0.000108086911, -0.009118806, -0.01821502 , 9.196039E-05, 923.4977    , 31.1820583  , 775.352844  , 0.37        , 3           , 255         , 0           , 0
-0.195764542, 0.09396131  , -9.804489   , -0.000301832421, 0.0002540946, 0.0004577418, -0.009121906, -0.0182124376, 9.65151E-05 , 923.4977    , 31.1820583  , 775.3529    , 0.38        , 3           , 255         , 0           , 0
-0.185794413, 0.08865297  , -9.795031   , -0.000341543782, 0.000117265648, 0.0009841243, -0.009125499, -0.0182111748, 0.000106346604, 923.4977    , 31.1820583  , 775.352966  , 0.39        , 3           , 255         , 0           , 0
-0.182045862, 0.09356959  , -9.789159   , -0.000104554347, -9.772106E-05, 0.000610672 , -0.009126658, -0.0182120968, 0.000112462854, 923.4977    , 31.1820583  , 775.353     , 0.4         , 3           , 255         , 0           , 0
-0.178276509, 0.0902319849, -9.791348   , 0.000415286981, -0.000335344841, 0.0006309933, -0.009121941, -0.018224176, 0.000118791657, 923.4977    , 31.1820583  , 775.4126    , 0.41        , 3           , 255         , 0           , 0
-0.180291861, 0.0810581148, -9.796119   , 0.000260332046, -0.000176889385, 0.000221374939, -0.009119379, -0.0182259232, 0.00012102176, 923.4977    , 31.1820583  , 775.412659  , 0.42        , 3           , 255         , 0           , 0
-0.1863805  , 0.08547023  , -9.784519   , -0.000416917785, 5.49673E-05 , -0.000519054942, -0.009123453, -0.0182254221, 0.000115825685, 923.5444    , 31.1901321  , 775.4127    , 0.43        , 3           , 255         , 0           , 0
-0.176240534, 0.08275338  , -9.796164   , 0.000462643162, 0.00022810472, 0.000198633235, -0.009118862, -0.0182231218, 0.000117791409, 923.5444    , 31.1901321  , 775.4128    , 0.44        , 3           , 255         , 0           , 0
-0.1738245  , 0.08520601  , -9.80343    , 0.000368357258, 1.07381784E-05, 1.93747546E-05, -0.009115183, -0.0182230137, 0.000117984207, 923.5444    , 31.1901321  , 775.412842  , 0.45        , 3           , 255         , 0           , 0
-0.1809494  , 0.09126681  , -9.789649   , 0.0004625173, -0.000306801841, 0.000504476 , -0.009110649, -0.0182260368, 0.000123057427, 923.5444    , 31.1901321  , 775.4129    , 0.46        , 3           , 255         , 0           , 0
-0.184145644, 0.0909844041, -9.789345   , -0.000210654223, -0.000261578622, 0.0006487231, -0.009112874, -0.0182285924, 0.000129569133, 923.5444    , 31.1901321  , 775.412964  , 0.47        , 3           , 255         , 0           , 0
-0.181758776, 0.08505285  , -9.787281   , -0.0008216953, -6.105992E-05, -0.000389870343, -0.009121019, -0.0182292387, 0.000125675608, 923.5444    , 31.1901321  , 775.413     , 0.48        , 3           , 255         , 0           , 0
-0.171919659, 0.0929879248, -9.790951   , -0.000161985052, -0.000262491027, -8.09780759E-05, -0.009122624, -0.0182318669, 0.000124889673, 923.5444    , 31.1901321  , 775.4131    , 0.49        , 3           , 255         , 0           , 0
-0.187446833, 0.09769852  , -9.792685   , 9.88077954E-05, -0.0001015671, 0.00021868429, -0.009121676, -0.0182328615, 0.000127086 , 923.5444    , 31.1901321  , 775.413147  , 0.5         , 3           , 255         , 0           , 0
-0.181618169, 0.09087566  , -9.789556   , -1.38737669E-05, -0.000583563349, -9.36917641E-05, -0.009118244, -0.0182445683, 0.000126137355, 923.5444    , 31.1901321  , 775.3632    , 0.51        , 3           , 255         , 0           , 0
-0.183469653, 0.100564137 , -9.792447   , -0.000337052828, -0.000425101054, -0.0003836642, -0.009121544, -0.01824885 , 0.000122339086, 923.5444    , 31.1901321  , 775.3633    , 0.52        , 3           , 255         , 0           , 0
-0.182521775, 0.09134915  , -9.7940855  , 0.0004854537, -0.000258837623, -0.0004084485, -0.009116616, -0.0182514768, 0.000118277807, 923.501     , 31.1974583  , 775.363342  , 0.53        , 3           , 255         , 0           , 0
-0.184273958, 0.0879938453, -9.781602   , 0.000110152236, 8.77766E-05 , -0.0008381714, -0.009115362, -0.0182506759, 0.000109887253, 923.501     , 31.1974583  , 775.3634    , 0.54        , 3           , 255         , 0           , 0
-0.182219937, 0.0871118158, -9.785492   , 0.000257975742, -2.82882538E-05, -0.000219455731, -0.00911274 , -0.0182509776, 0.000107695043, 923.501     , 31.1974583  , 775.363464  , 0.55        , 3           , 255         , 0           , 0
-0.174095318, 0.07970419  , -9.786085   , -9.587608E-05, 0.000203587813, 0.0006214406, -0.009113812, -0.0182488859, 0.000113891525, 923.501     , 31.1974583  , 775.3635    , 0.56        , 3           , 255         , 0           , 0
-0.175647974, 0.08307432  , -9.789493   , 0.000291785429, 0.0003066518, -1.36863673E-05, -0.009110891, -0.01824582 , 0.000113726688, 923.501     , 31.1974583  , 775.3636    , 0.57        , 3           , 255         , 0           , 0
-0.178915292, 0.08763855  , -9.787023   , 0.000337614358, 8.75367259E-05, -0.000282695983, -0.009107463, -0.0182449687, 0.000110891473, 923.501     , 31.1974583  , 775.363647  , 0.58        , 3           , 255         , 0           , 0
-0.182932943, 0.07948031  , -9.78952    , 1.20057375E-05, -0.000211304548, 0.000469912135, -0.00910743 , -0.0182470419, 0.00011561031, 923.501     , 31.1974583  , 775.3637    , 0.59        , 3           , 255         , 0           , 0
-0.175639734, 0.08116944  , -9.794013   , -0.000421042874, 0.000286440132, 0.000225418713, -0.00911168 , -0.0182441548, 0.000117838623, 923.501     , 31.1974583  , 775.3638    , 0.6         , 3           , 255         , 0           , 0
-0.18917577 , 0.08082606  , -9.795726   , 0.00012230553, 6.709073E-06, 0.000242167182, -0.009100242, -0.01825048 , 0.000120072677, 923.501     , 31.1974583  , 775.3979    , 0.61        , 3           , 255         , 0           , 0
-0.1884952  , 0.08401272  , -9.790556   , 0.000130366243, -0.000153125729, 0.000144824167, -0.009098963, -0.0182519965, 0.000121534984, 923.501     , 31.1974583  , 775.398     , 0.62        , 3           , 255         , 0           , 0
-0.1829314  , 0.09447347  , -9.786293   , -0.000236900989, -0.0001735196, -0.000436279573, -0.009101253, -0.0182537716, 0.000117187541, 923.5165    , 31.20465    , 775.398132  , 0.63        , 3           , 255         , 0           , 0
-0.182444811, 0.09567623  , -9.792274   , 0.0004067424, -7.04960548E-05, -0.000382447441, -0.009097117, -0.0182545111, 0.000113369111, 923.5165    , 31.20465    , 775.398254  , 0.64        , 3           , 255         , 0           , 0
-0.182053611, 0.100509383 , -9.78357    , 0.00052565604, -0.000303141074, -0.000311319658, -0.009091804, -0.0182575714, 0.000110283152, 923.5165    , 31.20465    , 775.3984    , 0.65        , 3           , 255         , 0           , 0
-0.187540635, 0.08999084  , -9.786848   , -8.848324E-05, -9.264785E-05, 0.000460746669, -0.009092773, -0.0182584561, 0.0001148995, 923.5165    , 31.20465    , 775.3985    , 0.66        , 3           , 255         , 0           , 0
-0.193677425, 0.09024517  , -9.795471   , 0.00015158458, 3.773693E-05, 0.0006848665, -0.009091383, -0.0182580166, 0.000121745441, 923.5165    , 31.20465    , 775.3986    , 0.67        , 3           , 255         , 0           , 0
-0.1801294  , 0.101296626 , -9.794573   , 0.000182678414, 5.49705874E-05, -2.48909637E-05, -0.009089551, -0.01825747 , 0.000121491525, 923.5165    , 31.20465    , 775.398743  , 0.68        , 3           , 255         , 0           , 0
-0.184537858, 0.09975567  , -9.788582   , -0.0002558172, -0.000180260919, 0.000682801066, -0.009092234, -0.0182592068, 0.000128336585, 923.5165    , 31.20465    , 775.398865  , 0.69        , 3           , 255         , 0           , 0
-0.181226522, 0.09808414  , -9.787775   , 6.303287E-05, -0.000287708128, -0.0002744912, -0.009091555, -0.0182621088, 0.000125617575, 923.5165    , 31.20465    , 775.399     , 0.7         , 3           , 255         , 0           , 0
-0.180708125, 0.08654787  , -9.7906065  , 5.45157236E-05, -0.0002788258, -0.000619973638, -0.009107674, -0.01828928 , 0.000119749391, 923.5165    , 31.20465    , 775.402161  , 0.71        , 3           , 255         , 0           , 0
-0.1886661  , 0.08475889  , -9.791891   , -0.00029827957, -0.0003718228, -0.000362583669, -0.00911058951, -0.0182930324, 0.000116157054, 923.5165    , 31.20465    , 775.4023    , 0.72        , 3           , 255         , 0           , 0
-0.180883288, 0.0887867361, -9.785883   , -0.0002789013, -0.0001315396, 0.0003906549, -0.009113451, -0.0182943121, 0.000120075987, 923.557739  , 31.2068882  , 775.4024    , 0.73        , 3           , 255         , 0           , 0
-0.1753358  , 0.0908074   , -9.789701   , 3.03247361E-06, -0.000263807422, 0.000161273827, -0.00911345 , -0.0182969347, 0.000121712932, 923.557739  , 31.2068882  , 775.4025    , 0.74        , 3           , 255         , 0           , 0
-0.170083448, 0.08266227  , -9.794358   , 0.000191181753, -0.000221654889, 0.000503085146, -0.009111629, -0.0182991065, 0.000126764484, 923.557739  , 31.2068882  , 775.402649  , 0.75        , 3           , 255         , 0           , 0
-0.173145622, 0.0783286244, -9.785626   , -0.0006410936, -0.0003536241, -8.2279E-05 , -0.009118025, -0.0183026474, 0.00012597382, 923.557739  , 31.2068882  , 775.4028    , 0.76        , 3           , 255         , 0           , 0
-0.176039547, 0.08078703  , -9.79791451 , 4.82179748E-05, 5.077495E-05, 0.000450168562, -0.009117625, -0.0183020979, 0.000130471337, 923.557739  , 31.2068882  , 775.4029    , 0.77        , 3           , 255         , 0           , 0
-0.168069631, 0.0898839161, -9.798064   , 0.000262098969, 7.497604E-05, -0.000424335944, -0.009114926, -0.0183013845, 0.000126220708, 923.557739  , 31.2068882  , 775.403     , 0.78        , 3           , 255         , 0           , 0
-0.1721003  , 0.09647381  , -9.795755   , 0.000181557465, -5.97124454E-05, -2.26376724E-05, -0.009113107, -0.0183019862, 0.000125999766, 923.557739  , 31.2068882  , 775.403137  , 0.79        , 3           , 255         , 0           , 0
-0.178607464, 0.08890934  , -9.790106   , -0.000241906731, -7.298606E-05, 0.0004035433, -0.009115599, -0.0183026791, 0.000130042245, 923.557739  , 31.2068882  , 775.403259  , 0.8         , 3           , 255         , 0           , 0
-0.178169653, 0.0922030658, -9.800431   , -0.000168482162, -0.0003061464, -0.00034042247, -0.009109376, -0.0182966255, 0.000126522034, 923.557739  , 31.2068882  , 775.3543    , 0.81        , 3           , 255         , 0           , 0
-0.1868752  , 0.09214741  , -9.795504   , 0.0001190702, 0.0004761196, -0.00047890775, -0.009108098, -0.01829191 , 0.0001216891, 923.557739  , 31.2068882  , 775.3544    , 0.82        , 3           , 255         , 0           , 0
-0.177276447, 0.0839718655, -9.801455   , -0.000305897236, 0.0004694449, 0.0005199885, -0.009111251, -0.018287167, 0.000126846746, 923.5272    , 31.2136726  , 775.354431  , 0.83        , 3           , 255         , 0           , 0
-0.177246764, 0.08710502  , -9.788885   , -0.0004466827, 0.000462064025, 0.000340361148, -0.009115779, -0.0182825159, 0.000130208588, 923.5272    , 31.2136726  , 775.3545    , 0.84        , 3           , 255         , 0           , 0
-0.182842329, 0.09440257  , -9.787872   , 0.000199739952, 0.000434174377, -0.000398218137, -0.009113708, -0.0182782132, 0.000126186409, 923.5272    , 31.2136726  , 775.3546    , 0.85        , 3           , 255         , 0           , 0
-0.177212849, 0.09338807  , -9.789116   , 0.000152652472, 0.000134510454, 0.000430795 , -0.009112259, -0.0182768255, 0.000130482513, 923.5272    , 31.2136726  , 775.354736  , 0.86        , 3           , 255         , 0           , 0
-0.183287114, 0.08979304  , -9.788141   , 0.0005887931, 2.360766E-05, -0.000117886491, -0.009106349, -0.0182765983, 0.000129301377, 923.5272    , 31.2136726  , 775.354858  , 0.87        , 3           , 255         , 0           , 0
-0.180902958, 0.0905130655, -9.793552   , 8.907681E-05, -4.85735945E-05, -0.0008417694, -0.009105305, -0.01827716 , 0.000120887256, 923.5272    , 31.2136726  , 775.355     , 0.88        , 3           , 255         , 0           , 0
-0.173578411, 0.0917293057, -9.785431   , 0.0003421654, 9.311596E-06, -0.000591955148, -0.009101775, -0.01827712 , 0.000114966264, 923.5272    , 31.2136726  , 775.3551    , 0.89        , 3           , 255         , 0           , 0
-0.18090722 , 0.08474077  , -9.788752   , -0.000477377471, 0.000229880068, -0.000474931236, -0.009106461, -0.018274866, 0.000110195535, 923.5272    , 31.2136726  , 775.3552    , 0.9         , 3           , 255         , 0           , 0
-0.173542023, 0.08769549  , -9.793985   , -6.537131E-05, 0.000320929743, 0.0008692046, -0.009109606, -0.0182740968, 0.000118901873, 923.5272    , 31.2136726  , 775.3513    , 0.91        , 3           , 255         , 0           , 0
-0.179881781, 0.08876844  , -9.794321   , 0.0001465833, -0.000196820329, 0.000283557078, -0.009108193, -0.01827604 , 0.000121755664, 923.5272    , 31.2136726  , 775.35144   , 0.92        , 3           , 255         , 0           , 0
-0.187517449, 0.0828654245, -9.801282   , 0.000396741729, -0.0001722904, 0.00052866363, -0.009104322, -0.018277714, 0.00012705852, 923.528748  , 31.2131977  , 775.351563  , 0.93        , 3           , 255         , 0           , 0
-0.183676854, 0.08791295  , -9.795744   , 0.00026318623, 8.611014E-05, 0.000478067959, -0.009101776, -0.0182768088, 0.000131831854, 923.528748  , 31.2131977  , 775.3517    , 0.94        , 3           , 255         , 0           , 0
-0.190546289, 0.08944444  , -9.784686   , 0.000311410753, -0.000177145965, 0.000452626933, -0.009098746, -0.01827854 , 0.000136374685, 923.528748  , 31.2131977  , 775.3518    , 0.95        , 3           , 255         , 0           , 0
-0.184810251, 0.0935228541, -9.794596   , -1.93671731E-05, 6.09144627E-05, 0.000193176384, -0.009098975, -0.0182779115, 0.0001383011, 923.528748  , 31.2131977  , 775.3519    , 0.96        , 3           , 255         , 0           , 0
-0.184562787, 0.09262359  , -9.7999115  , -5.35575964E-05, -0.000104795996, 0.000105244719, -0.009099529, -0.01827895 , 0.0001393632, 923.528748  , 31.2131977  , 775.352051  , 0.97        , 3           , 255         , 0           , 0
-0.182298139, 0.08421134  , -9.80261    , -0.000351442, 0.000163758028, 0.00032479575, -0.009103103, -0.0182772838, 0.000142596575, 923.528748  , 31.2131977  , 775.3522    , 0.98        , 3           , 255         , 0           , 0
-0.175696209, 0.08733617  , -9.800763   , 0.000159409188, -0.000220792921, 0.00117830769, -0.009101724, -0.0182793867, 0.000154400928, 923.528748  , 31.2131977  , 775.3523    , 0.99        , 3           , 255         , 0           , 0
-0.169858545, 0.0812302   , -9.79385948 , -3.30553448E-05, -8.900327E-05, 8.883804E-05, -0.009102071, -0.0182802659, 0.000155297486, 923.528748  , 31.2131977  , 775.3524    , 1           , 3           , 0           , 6.017236    , 100
-0.1814434  , 0.07921937  , -9.788539   , -0.000108218432, 7.79794645E-05, -0.00011297669, -0.00909945 , -0.0182845071, 0.00015409317, 923.528748  , 31.2131977  , 775.3475    , 1.01        , 3           , 1           , 0           , 0
-0.168198526, 0.08958803  , -9.790094   , -0.0001273124, -0.0005143575, 0.0005781609, -0.009100829, -0.0182895977, 0.000159922172, 923.528748  , 31.2131977  , 775.3476    , 1.02        , 3           , 2           , 0           , 0
-0.170380831, 0.085969314 , -9.793775   , 0.000309073424, -0.000457180664, 0.000162540862, -0.009097771, -0.0182941556, 0.000161589356, 923.5348    , 31.2159119  , 775.3477    , 1.03        , 3           , 3           , 0           , 0
-0.173310235, 0.0961397439, -9.796514   , 5.39633329E-05, -0.000155865215, 0.000352791045, -0.009097297, -0.0182956774, 0.0001651318, 923.5348    , 31.2159119  , 775.347839  , 1.04        , 3           , 4           , 0           , 0
-0.175228685, 0.08026013  , -9.785784   , -3.797261E-05, 0.000230943042, -0.000401630066, -0.009097602, -0.018293405, 0.000161094082, 923.5348    , 31.2159119  , 775.347961  , 1.05        , 3           , 5           , 0           , 0
-0.1784111  , 0.08570464  , -9.786416   , -1.44526712E-06, 0.000837023836, 8.135874E-06, -0.009097616, -0.0182850342, 0.000161099291, 923.5348    , 31.2159119  , 775.3481    , 1.06        , 3           , 6           , 0           , 0
-0.177061945, 0.08987204  , -9.79637    , -0.000444229663, 0.000266348972, 0.000105967563, -0.009102077, -0.0182823613, 0.000162134835, 923.5348    , 31.2159119  , 775.3482    , 1.07        , 3           , 7           , 0           , 0
-0.178460717, 0.08604976  , -9.791394   , -0.0002864383, 0.000117764052, 9.639611E-06, -0.009104944, -0.0182811841, 0.000162220516, 923.5348    , 31.2159119  , 775.3483    , 1.08        , 3           , 8           , 5           , 5
-0.185146511, 0.09008657  , -9.795866   , -4.86901554E-05, 0.000305539754, 0.000725704 , -0.009105562, -0.01827806 , 0.000169450461, 923.5348    , 31.2159119  , 775.34845   , 1.09        , 3           , 9           , 5           , 0.1
-0.18209894 , 0.0903502   , -9.796152   , -0.0003029432, 0.00043781873, 5.14870844E-05, -0.009108602, -0.0182736777, 0.000169925523, 923.5348    , 31.2159119  , 775.3486    , 1.1         , 3           , 10          , 0.1         , 0.1
-0.1777632  , 0.0889034048, -9.786949   , -0.000177317619, 0.000220531583, 0.000223926763, -0.009105235, -0.0182650089, 0.0001720503, 923.5348    , 31.2159119  , 775.337769  , 1.11        , 3           , 11          , 0.009127826 , 0.009127826
-0.182830721, 0.0906155556, -9.798881   , -6.502285E-05, -0.000180432515, 0.0004302008, -0.009105964, -0.0182667729, 0.000176369169, 923.5348    , 31.2159119  , 775.3379    , 1.12        , 3           , 12          , 0.174642846 , 0
-0.182593465, 0.089472726 , -9.785802   , -0.000187089463, -0.000301668828, -3.5891062E-05, -0.009107829, -0.0182697941, 0.000176037676, 923.541748  , 31.2195072  , 775.338     , 1.13        , 3           , 13          , 0           , 0
-0.189675242, 0.08152958  , -9.794627   , -0.0006191748, -0.000135782873, 0.000502288633, -0.00911411 , -0.0182711072, 0.000181073454, 923.541748  , 31.2195072  , 775.338135  , 1.14        , 3           , 14          , -0.000378090743, -0.0004556055
-0.178780854, 0.08623626  , -9.800572   , 1.42270874E-05, -0.0005891468, 0.00010186014, -0.009113988, -0.0182769839, 0.000182145843, 923.541748  , 31.2195072  , 775.338257  , 1.15        , 3           , 15          , 0           , -0.000136644288
-0.177762359, 0.0851494   , -9.787255   , -0.000357197336, -0.00014138344, 6.865796E-05, -0.0091175735, -0.018278392, 0.000182845382, 923.541748  , 31.2195072  , 775.3384    , 1.16        , 3           , 16          , 0           , 1.401298E-45
-0.178863734, 0.08187969  , -9.797255   , -0.000289706368, 0.0001339782, -0.000122102152, -0.009120446, -0.0182770621, 0.000181612 , 923.541748  , 31.2195072  , 775.3385    , 1.17        , 3           , 20          , 0           , 0
-0.174508378, 0.08277057  , -9.794755   , -0.0005853794, -0.000301528547, -0.000105137558, -0.009126282, -0.0182800889, 0.000180588031, 923.541748  , 31.2195072  , 775.3386    , 1.18        , 3           , 21          , 0           , 0
-0.180101663, 0.0864615   , -9.793432   , 0.000149970525, -0.000241673435, -1.86473626E-05, -0.009124779, -0.0182825029, 0.0001804236, 923.541748  , 31.2195072  , 775.338745  , 1.19        , 3           , 22          , 0           , 0
-0.173116654, 0.09123061  , -9.786715   , 4.176487E-05, -7.25092832E-07, 0.0004354952, -0.009124442, -0.0182824712, 0.000184779055, 923.541748  , 31.2195072  , 775.338867  , 1.2         , 3           , 40          , 0           , 0
-0.168311283, 0.09284059  , -9.79003048 , 0.000300608459, 9.535521E-05, -0.0005285979, -0.009113571, -0.0182832554, 0.0001793418, 923.541748  , 31.2195072  , 775.3224    , 1.21        , 3           , 41          , 0           , 0
-0.1742585  , 0.09143566  , -9.80497551 , -0.000115308561, -0.000198850961, -0.00019575574, -0.009114687, -0.0182852615, 0.000177402166, 923.541748  , 31.2195072  , 775.322449  , 1.22        , 3           , 42          , 0           , 0
-0.193058223, 0.0853220448, -9.77891    , -0.0005560519, -0.0002520644, 0.000122078389, -0.009120271, -0.01828777 , 0.000178646049, 923.5309    , 31.2198467  , 775.3225    , 1.23        , 3           , 255         , 0           , 0
-0.1901379  , 0.08647241  , -9.78541851 , 0.000136947609, 0.000117284158, 0.000244580267, -0.009118947, -0.0182865746, 0.0001810814, 923.5309    , 31.2198467  , 775.3226    , 1.24        , 3           , 255         , 0           , 0
-0.17111145 , 0.08023475  , -9.789548   , 0.000398111762, 2.78816733E-05, -0.0002968643, -0.009114912, -0.0182863232, 0.000178109942, 923.5309    , 31.2198467  , 775.322632  , 1.25        , 3           , 255         , 0           , 0
-0.178952023, 0.09743266  , -9.77762    , -0.00019012345, 6.866921E-05, -0.0004701048, -0.009116726, -0.01828568 , 0.000173402164, 923.5309    , 31.2198467  , 775.3227    , 1.26        , 3           , 255         , 0           , 0
-0.1794903  , 0.09279979  , -9.793161   , 0.000193735032, -1.208263E-05, 0.000149549945, -0.009114817, -0.0182857867, 0.000174898916, 923.5309    , 31.2198467  , 775.322754  , 1.27        , 3           , 255         , 0           , 0
-0.178802714, 0.08721299  , -9.779146   , 7.32892659E-07, 0.000396894029, 0.000308780232, -0.009114865, -0.0182817932, 0.000177950846, 923.5309    , 31.2198467  , 775.3228    , 1.28        , 3           , 255         , 0           , 0
-0.170923457, 0.09017625  , -9.779439   , 0.000279305852, 9.469455E-05, -0.0001256881, -0.009112049, -0.0182808619, 0.000176685207, 923.5309    , 31.2198467  , 775.3229    , 1.29        , 3           , 255         , 0           , 0
-0.181464836, 0.09358456  , -9.787209   , -0.000409967732, -9.7787095E-05, 0.000338122278, -0.00911621 , -0.0182818044, 0.000180075673, 923.5309    , 31.2198467  , 775.322937  , 1.3         , 3           , 255         , 0           , 0
-0.175359175, 0.0849029049, -9.792668   , 2.17946945E-05, -0.000242157024, 0.000145458936, -0.009118433, -0.0182826761, 0.00018159661, 923.5309    , 31.2198467  , 775.319153  , 1.31        , 3           , 255         , 0           , 0
-0.1812257  , 0.0746296644, -9.806573   , -0.000493477855, 0.000208133279, 0.000352509727, -0.00912343152, -0.018280562, 0.000185103068, 923.5309    , 31.2198467  , 775.3192    , 1.32        , 3           , 255         , 0           , 0
-0.178145856, 0.08187557  , -9.777524   , -0.000133246474, 0.000365768938, 0.00120075908, -0.009124984, -0.018276792, 0.00019707848, 923.4947    , 31.2189655  , 775.3193    , 1.33        , 3           , 255         , 0           , 0
-0.172985017, 0.08427771  , -9.79483    , 0.0001940622, 0.000241483183, 0.000334796438, -0.009123103, -0.0182743482, 0.000200404742, 923.4947    , 31.2189655  , 775.319336  , 1.34        , 3           , 255         , 0           , 0
-0.179878086, 0.09120188  , -9.784877   , 0.000170475789, -0.000308645249, 0.0006482657, -0.009121517, -0.0182773732, 0.0002069162, 923.4947    , 31.2189655  , 775.3194    , 1.35        , 3           , 255         , 0           , 0
-0.1768015  , 0.09139827  , -9.788488   , 0.0005661444, 0.00023031373, 0.000487802667, -0.009115946, -0.0182750262, 0.000211773746, 923.4947    , 31.2189655  , 775.319458  , 1.36        , 3           , 255         , 0           , 0
-0.175190955, 0.0855923146, -9.784639   , -0.0002401176, 0.000138224335, -0.000486976933, -0.009118259, -0.0182736889, 0.000206890865, 923.4947    , 31.2189655  , 775.3195    , 1.37        , 3           , 255         , 0           , 0
-0.181470439, 0.08948309  , -9.79019    , -0.000541157846, 4.90964158E-06, -0.000673554, -0.009123546, -0.0182737  , 0.000200154187, 923.4947    , 31.2189655  , 775.3196    , 1.38        , 3           , 255         , 0           , 0
-0.176937342, 0.09181184  , -9.790735   , -0.000463247474, 6.928138E-05, -0.0002660175, -0.00912813 , -0.0182730332, 0.000197487447, 923.4947    , 31.2189655  , 775.319641  , 1.39        , 3           , 255         , 0           , 0
-0.181012437, 0.09143765  , -9.800091   , -0.0001002652, 3.6634272E-05, 0.0004684741, -0.009129218, -0.0182726234, 0.0002021693, 923.4947    , 31.2189655  , 775.3197    , 1.4         , 3           , 255         , 0           , 0
-0.175258756, 0.09628383  , -9.795191   , 0.000315427838, -0.0003182034, 0.000841343543, -0.009118587, -0.0182726569, 0.000210473183, 923.4947    , 31.2189655  , 775.3536    , 1.41        , 3           , 255         , 0           , 0
-0.1720814  , 0.09193991  , -9.796414   , 0.000158464973, -4.314672E-05, 0.0001237982, -0.009117027, -0.0182730779, 0.000211715247, 923.4947    , 31.2189655  , 775.3538    , 1.42        , 3           , 255         , 0           , 0
-0.176951513, 0.08820082  , -9.797098   , 0.000114924856, -5.616265E-05, -0.0008505881, -0.009115721, -0.0182737168, 0.000203213611, 923.54834   , 31.22039    , 775.354065  , 1.43        , 3           , 255         , 0           , 0
-0.172484785, 0.09734428  , -9.7857     , 0.000334427168, 0.000406616455, -9.38811E-05, -0.009112359, -0.0182696581, 0.000202237643, 923.54834   , 31.22039    , 775.3543    , 1.44        , 3           , 255         , 0           , 0
-0.171183884, 0.09467268  , -9.778741   , 7.872848E-05, -0.000232450722, 0.000366757216, -0.009111639, -0.01827195 , 0.000205926757, 923.54834   , 31.22039    , 775.354553  , 1.45        , 3           , 255         , 0           , 0
-0.184079736, 0.08653499  , -9.786009   , -0.000765317, -0.00021165103, 0.00073955406, -0.00911943 , -0.018274   , 0.000213342326, 923.54834   , 31.22039    , 775.3548    , 1.46        , 3           , 255         , 0           , 0
-0.186581641, 0.0965360254, -9.796312   , -0.000387939974, -0.000366211985, 0.0003982023, -0.00912338 , -0.01827762 , 0.000217358131, 923.54834   , 31.22039    , 775.355042  , 1.47        , 3           , 255         , 0           , 0
-0.168938175, 0.08417711  , -9.789472   , 7.976015E-05, 0.000459455827, 0.0002209037, -0.009122622, -0.0182730071, 0.0002195255, 923.54834   , 31.22039    , 775.3553    , 1.48        , 3           , 255         , 0           , 0
-0.17218399 , 0.0877701044, -9.793524   , -0.0006838137, 0.000176902278, 0.0003064329, -0.009129516, -0.01827121 , 0.000222573974, 923.54834   , 31.22039    , 775.3555    , 1.49        , 3           , 255         , 0           , 0
-0.1725074  , 0.09223808  , -9.7882185  , -0.0004885332, 0.000227269862, 0.0002154908, -0.009134441, -0.0182689186, 0.000224708332, 923.54834   , 31.22039    , 775.3558    , 1.5         , 3           , 255         , 0           , 0
-0.177463874, 0.09105736  , -9.785793   , -0.000239492976, -8.906383E-05, -0.000285713119, -0.009143571, -0.0182592031, 0.000221983049, 923.54834   , 31.22039    , 775.3302    , 1.51        , 3           , 255         , 0           , 0
-0.180201977, 0.0882329345, -9.7961235  , -0.000482438249, -0.000140419113, -0.0004699473, -0.009148311, -0.01826065 , 0.000217295921, 923.54834   , 31.22039    , 775.3303    , 1.52        , 3           , 255         , 0           , 0
-0.1768464  , 0.08413988  , -9.792869   , -0.0009275835, 2.97844526E-05, 0.000246855547, -0.009157632, -0.0182603244, 0.000219761976, 923.5365    , 31.2214756  , 775.330444  , 1.53        , 3           , 255         , 0           , 0
-0.179554075, 0.09208715  , -9.781475   , -3.51036142E-05, 0.00011456912, 0.000946306565, -0.009158155, -0.0182590932, 0.000229215511, 923.5365    , 31.2214756  , 775.330566  , 1.54        , 3           , 255         , 0           , 0
-0.174767882, 0.09031597  , -9.785616   , -2.70174933E-05, 0.000408802327, 1.778159E-05, -0.009158427, -0.0182550065, 0.000229355879, 923.5365    , 31.2214756  , 775.3307    , 1.55        , 3           , 255         , 0           , 0
-0.1723397  , 0.08188851  , -9.789839   , 2.80304812E-05, -2.60266534E-05, -0.000132533271, -0.009158122, -0.0182552766, 0.00022803279, 923.5365    , 31.2214756  , 775.3308    , 1.56        , 3           , 255         , 0           , 0
-0.174459577, 0.08604935  , -9.789472   , 7.389381E-05, 7.12176261E-05, 0.000381056569, -0.009157453, -0.01825453 , 0.000231837214, 923.5365    , 31.2214756  , 775.330933  , 1.57        , 3           , 255         , 0           , 0
-0.178028718, 0.09641166  , -9.795313   , -0.000245466945, 7.331182E-05, 0.000410103938, -0.009159982, -0.0182537585, 0.000235931919, 923.5365    , 31.2214756  , 775.331055  , 1.58        , 3           , 255         , 0           , 0
-0.18005003 , 0.09399024  , -9.793808   , -0.000451073982, -0.000202544848, 0.000316418445, -0.00916455 , -0.0182557553, 0.00023911499, 923.5365    , 31.2214756  , 775.3312    , 1.59        , 3           , 255         , 0           , 0
-0.179789171, 0.08914041  , -9.79439449 , -0.0003433358, 5.60196058E-05, -0.0002193126, -0.009167944, -0.0182552151, 0.000236916516, 923.5365    , 31.2214756  , 775.3313    , 1.6         , 3           , 255         , 0           , 0
-0.170606211, 0.0919912   , -9.793669   , 0.000233374027, 7.3584466E-05, 0.0002866025, -0.009164707, -0.0182504188, 0.00023975865, 923.5365    , 31.2214756  , 775.320435  , 1.61        , 3           , 255         , 0           , 0
-0.176663712, 0.101701416 , -9.791124   , 0.00010716528, -0.000431532419, 0.000195576722, -0.009163673, -0.0182547159, 0.000241754169, 923.5365    , 31.2214756  , 775.3205    , 1.62        , 3           , 255         , 0           , 0
-0.180541843, 0.08775664  , -9.790809   , 0.000371487229, -0.0003914593, 0.000238065273, -0.009160001, -0.01825861 , 0.000244170922, 923.519653  , 31.2242565  , 775.320557  , 1.63        , 3           , 255         , 0           , 0
-0.1817656  , 0.08190003  , -9.790595   , 0.00019367  , 0.000137146446, 0.000155523885, -0.009158092, -0.0182572268, 0.000245713745, 923.519653  , 31.2242565  , 775.3206    , 1.64        , 3           , 255         , 0           , 0
-0.173901409, 0.0890408754, -9.788742   , -1.01956248E-05, -0.000380712474, -0.000231150072, -0.009158152, -0.0182610527, 0.00024343688, 923.519653  , 31.2242565  , 775.3207    , 1.65        , 3           , 255         , 0           , 0
-0.172810465, 0.0822861   , -9.784708   , 0.000165123536, 0.000316894264, 0.000283355941, -0.009156551, -0.0182578582, 0.000246241718, 923.519653  , 31.2242565  , 775.32074   , 1.66        , 3           , 255         , 0           , 0
-0.167740852, 0.0903749   , -9.792806   , 0.000560034532, -0.000475500681, 0.0007121203, -0.00915108249, -0.0182625446, 0.000253407139, 923.519653  , 31.2242565  , 775.3208    , 1.67        , 3           , 255         , 0           , 0
-0.178571433, 0.08298318  , -9.791605   , 0.000240859663, -0.00024982114, -7.438495E-05, -0.009148661, -0.01826505 , 0.000252686063, 923.519653  , 31.2242565  , 775.320862  , 1.68        , 3           , 255         , 0           , 0
-0.16855821 , 0.07716295  , -9.794893   , -0.0003356834, 0.0005259846, 0.0003543435, -0.009152081, -0.0182597619, 0.000256181724, 923.519653  , 31.2242565  , 775.3209    , 1.69        , 3           , 255         , 0           , 0
-0.177127808, 0.07916484  , -9.787249   , -4.51102678E-05, 8.69648647E-05, -0.0004749345, -0.009152445, -0.0182589348, 0.000251423946, 923.519653  , 31.2242565  , 775.321     , 1.7         , 3           , 255         , 0           , 0
-0.171026364, 0.08468232  , -9.791955   , -0.000153725065, 0.000266017916, 0.000497407862, -0.009145183, -0.0182453021, 0.000256211963, 923.519653  , 31.2242565  , 775.329468  , 1.71        , 3           , 255         , 0           , 0
-0.1766032  , 0.08632869  , -9.799388   , 2.70818709E-05, 4.17737756E-05, 0.00113356975, -0.009145116, -0.01824478 , 0.000267544965, 923.519653  , 31.2242565  , 775.3296    , 1.72        , 3           , 255         , 0           , 0
-0.185439631, 0.09493214  , -9.793291   , -7.98075343E-05, -0.00021673867, 0.000368701352, -0.00914598349, -0.0182469133, 0.000271252153, 923.5158    , 31.2226963  , 775.3297    , 1.73        , 3           , 255         , 0           , 0
-0.17095311 , 0.0921713   , -9.791102   , -7.567063E-05, -0.000436198374, -0.000135084818, -0.009146716, -0.0182512868, 0.000269941054, 923.5158    , 31.2226963  , 775.329834  , 1.74        , 3           , 255         , 0           , 0
-0.181691244, 0.09154339  , -9.788922   , -0.000271189929, -0.0003114387, -0.000336800062, -0.009149367, -0.01825443 , 0.000266601215, 923.5158    , 31.2226963  , 775.329956  , 1.75        , 3           , 255         , 0           , 0
-0.184325129, 0.08750419  , -9.787363   , 1.73685839E-05, -3.95221869E-05, -0.000181136333, -0.009149161, -0.0182548426, 0.0002647933, 923.5158    , 31.2226963  , 775.3301    , 1.76        , 3           , 255         , 0           , 0
-0.167287469, 0.0957548246, -9.796455   , -0.0003148607, -0.0001998191, -0.0004004934, -0.009152237, -0.0182568766, 0.000260806264, 923.5158    , 31.2226963  , 775.3302    , 1.77        , 3           , 255         , 0           , 0
-0.173068374, 0.09870645  , -9.788446   , -0.000288021431, -0.00016206858, 0.000709788 , -0.0091552455, -0.0182584338, 0.000267919677, 923.5158    , 31.2226963  , 775.3303    , 1.78        , 3           , 255         , 0           , 0
-0.189399332, 0.09946255  , -9.792695   , -0.000267808762, -9.320339E-05, 0.000120715071, -0.009157946, -0.0182593539, 0.0002691355, 923.5158    , 31.2226963  , 775.330444  , 1.79        , 3           , 255         , 0           , 0
-0.184185147, 0.08498745  , -9.783801   , -0.000308606046, 8.743917E-05, 4.65323246E-05, -0.009161041, -0.0182584748, 0.000269592827, 923.5158    , 31.2226963  , 775.330566  , 1.8         , 3           , 255         , 0           , 0
-0.173757315, 0.08257637  , -9.799253   , 4.082697E-05, -0.000122912432, -0.000439473544, -0.009165658, -0.0182588547, 0.000265302137, 923.5158    , 31.2226963  , 775.342834  , 1.81        , 3           , 255         , 0           , 0
-0.176737636, 0.084957324 , -9.801378   , -0.000139902288, 0.000185141136, 0.000377868477, -0.009167125, -0.0182569679, 0.0002690642, 923.5158    , 31.2226963  , 775.343     , 1.82        , 3           , 255         , 0           , 0
-0.175391182, 0.07884375  , -9.784096   , 0.000341764942, 3.78818077E-05, 0.000180463045, -0.009163743, -0.018256573, 0.000270865537, 923.525452  , 31.22385    , 775.343262  , 1.83        , 3           , 255         , 0           , 0
-0.1684926  , 0.0780835748, -9.790748   , -0.0007582759, 4.04103776E-06, 0.000549985154, -0.009171425, -0.0182564817, 0.00027636555, 923.525452  , 31.22385    , 775.3435    , 1.84        , 3           , 255         , 0           , 0
-0.176293775, 0.088827    , -9.794088   , -0.000316821621, 7.108634E-05, 0.0005185154, -0.009174689, -0.0182557236, 0.000281544722, 923.525452  , 31.22385    , 775.34375   , 1.85        , 3           , 255         , 0           , 0
-0.181210428, 0.0859692   , -9.79841    , -0.000327945978, 0.000574026548, -6.549612E-05, -0.009177955, -0.01824999 , 0.000280837034, 923.525452  , 31.22385    , 775.344     , 1.86        , 3           , 255         , 0           , 0
-0.17643705 , 0.09431945  , -9.798461   , -0.00018913456, 3.826109E-05, 0.000383662817, -0.009179916, -0.0182495713, 0.000284670532, 923.525452  , 31.22385    , 775.344238  , 1.87        , 3           , 255         , 0           , 0
-0.169788674, 0.08638092  , -9.794779   , -0.000125683669, -3.77116667E-05, 0.000849663746, -0.009181329, -0.0182498712, 0.00029317147, 923.525452  , 31.22385    , 775.3445    , 1.88        , 3           , 255         , 0           , 0
-0.173353374, 0.08009639  , -9.786644   , 0.0005411124, 0.0004865271, 0.00132659951, -0.009176158, -0.0182448849, 0.000306394126, 923.525452  , 31.22385    , 775.3447    , 1.89        , 3           , 255         , 0           , 0
-0.169862151, 0.0897059962, -9.793842   , 0.000423588062, 5.157737E-05, 0.00120106968, -0.00917214248, -0.0182442553, 0.000318401231, 923.525452  , 31.22385    , 775.345     , 1.9         , 3           , 255         , 0           , 0
-0.175225019, 0.100042664 , -9.788401   , -5.258422E-05, -3.28313035E-05, 0.000486520177, -0.009162801, -0.0182349458, 0.0003230884, 923.525452  , 31.22385    , 775.344666  , 1.91        , 3           , 255         , 0           , 0
-0.1777812  , 0.09705715  , -9.792822   , 8.729758E-05, -4.43716126E-05, 6.765916E-05, -0.009161941, -0.0182353836, 0.000323769142, 923.525452  , 31.22385    , 775.3449    , 1.92        , 3           , 255         , 0           , 0
-0.174986929, 0.08074334  , -9.785654   , -0.000135061127, 5.880129E-05, -7.021414E-05, -0.009163279, -0.0182348024, 0.00032306154, 923.522949  , 31.2199821  , 775.345154  , 1.93        , 3           , 255         , 0           , 0
-0.182217255, 0.08322362  , -9.792616   , 6.71903254E-05, 4.504231E-05, -0.000438784831, -0.00916252751, -0.01823439 , 0.000318669132, 923.522949  , 31.2199821  , 775.3454    , 1.94        , 3           , 255         , 0           , 0
-0.180742517, 0.0843157843, -9.789868   , -0.000206860917, 0.000472386077, -4.81421448E-05, -0.009164585, -0.01822967 , 0.000318144361, 923.522949  , 31.2199821  , 775.345642  , 1.95        , 3           , 255         , 0           , 0
-0.17854695 , 0.0846317858, -9.788925   , 0.000121160963, 0.0001068447, 0.000256301515, -0.009163421, -0.01822858 , 0.000320697844, 923.522949  , 31.2199821  , 775.3459    , 1.96        , 3           , 255         , 0           , 0
-0.173722163, 0.0868170857, -9.791814   , -6.88555E-05, 8.45626346E-06, -0.000139426571, -0.009164083, -0.0182285067, 0.000319302635, 923.522949  , 31.2199821  , 775.3461    , 1.97        , 3           , 255         , 0           , 0
-0.177757338, 0.0841205642, -9.792923   , -0.0004145459, 9.253257E-05, 0.0004126476, -0.009168302, -0.0182275437, 0.00032342106, 923.522949  , 31.2199821  , 775.3464    , 1.98        , 3           , 255         , 0           , 0
-0.1857827  , 0.09718995  , -9.788807   , -0.000494749867, -0.000193266867, 0.000683054 , -0.009173376, -0.0182294138, 0.000330269977, 923.522949  , 31.2199821  , 775.3466    , 1.99        , 3           , 255         , 0           , 0
-0.183420017, 0.08368232  , -9.790327   , 5.480612E-05, 6.96390343E-05, 0.0004817979, -0.00917291548, -0.0182286724, 0.000335082063, 923.522949  , 31.2199821  , 775.346863  , 2           , 3           , 0           , 7.017236    , 200
-0.179087967, 0.08955426  , -9.796402   , -0.000125357881, -0.000164555153, 0.000469514169, -0.00917021 , -0.0182315931, 0.0003397191, 923.522949  , 31.2199821  , 775.3491    , 2.01        , 3           , 1           , 0           , 0
-0.182344988, 0.0885143   , -9.798254   , -0.0004333192, -0.000312134041, 0.000564017333, -0.009174647, -0.0182346646, 0.000345388427, 923.522949  , 31.2199821  , 775.349365  , 2.02        , 3           , 2           , 0           , 0
-0.177894145, 0.09780148  , -9.793265   , 0.000133381516, -0.000307837618, -0.000113547285, -0.009173294, -0.0182377528, 0.000344281085, 923.551     , 31.223917   , 775.3496    , 2.03        , 3           , 3           , 0           , 0
-0.1763527  , 0.0948895   , -9.786791   , 0.0003012826, -0.000201508286, -0.000339686725, -0.009170217, -0.018239798, 0.000340902334, 923.551     , 31.223917   , 775.349854  , 2.04        , 3           , 4           , 0           , 0
-0.17438516 , 0.09604054  , -9.802773   , 9.483815E-05, 0.000424347265, 0.00059271  , -0.009169378, -0.018235499, 0.000346791116, 923.551     , 31.223917   , 775.3501    , 2.05        , 3           , 5           , 0           , 0
-0.1751781  , 0.0850186646, -9.794581   , -0.000566290342, 0.0004459658, -0.000319481682, -0.009174983, -0.0182310678, 0.0003435551, 923.551     , 31.223917   , 775.350342  , 2.06        , 3           , 6           , 0           , 0
-0.18147704 , 0.09564151  , -9.784269   , -0.00016631902, 0.0002939412, -7.994962E-05, -0.009176631, -0.018228136, 0.000342728541, 923.551     , 31.223917   , 775.3506    , 2.07        , 3           , 7           , 0           , 0
-0.170568824, 0.09171493  , -9.786107   , -0.000142367091, 0.00017245562, -0.000388678425, -0.009177983, -0.0182264484, 0.000338825543, 923.551     , 31.223917   , 775.3508    , 2.08        , 3           , 8           , 5           , 5
-0.1706402  , 0.09044625  , -9.79265    , 0.000179466791, -6.888801E-05, 4.99702874E-05, -0.009176197, -0.018227132, 0.000339331629, 923.551     , 31.223917   , 775.3511    , 2.09        , 3           , 9           , 5           , 0.1
-0.1755244  , 0.0802929848, -9.792621   , -0.000418265758, -0.0002286061, -0.000440222648, -0.009180302, -0.0182294585, 0.00033494996, 923.551     , 31.223917   , 775.3513    , 2.1         , 3           , 10          , 0.1         , 0.1
-0.170743555, 0.0819849744, -9.790808   , -0.0003235046, -0.000396894524, 8.481597E-05, -0.009186089, -0.01822858 , 0.0003358809, 923.551     , 31.223917   , 775.3186    , 2.11        , 3           , 11          , 0.007928973 , 0.00792897
-0.172634989, 0.09191992  , -9.787252   , -0.000124313956, 1.2682227E-05, -1.05320214E-05, -0.00918733049, -0.0182284545, 0.000335774384, 923.551     , 31.223917   , 775.318665  , 2.12        , 3           , 12          , 0.174643889 , 0
-0.167632729, 0.0942824259, -9.785978   , 0.0002684532, 5.111855E-06, 0.0001963287, -0.009184682, -0.0182283856, 0.00033773738, 923.5282    , 31.2248669  , 775.3187    , 2.13        , 3           , 13          , 0           , 0
-0.174137026, 0.0969322   , -9.784934   , -9.83739446E-05, 0.000195925881, 6.922433E-05, -0.009185677, -0.01822642 , 0.000338411715, 923.5282    , 31.2248669  , 775.3188    , 2.14        , 3           , 14          , -0.000378138473, -0.0004557037
-0.186632723, 0.0910904258, -9.787832   , -8.495615E-05, -2.03239033E-05, 0.000223049632, -0.009186568, -0.0182266049, 0.0003406443, 923.5282    , 31.2248669  , 775.318848  , 2.15        , 3           , 15          , 0           , -0.0001366443
-0.182554722, 0.09240198  , -9.799713   , 0.000254531857, 0.0003282169, 0.0003324559, -0.009184082, -0.0182232913, 0.000343939028, 923.5282    , 31.2248669  , 775.3189    , 2.16        , 3           , 16          , 0           , 1.401298E-45
-0.187503025, 0.09396674  , -9.785985   , 0.000225350508, 0.00029487125, -0.000540069363, -0.00918173 , -0.0182203911, 0.000338510756, 923.5282    , 31.2248669  , 775.319     , 2.17        , 3           , 20          , 0           , 0
-0.18639043 , 0.0899009556, -9.787779   , -0.00014527372, 0.000354511518, 0.000132644855, -0.009183207, -0.01821684 , 0.00033980477, 923.5282    , 31.2248669  , 775.319031  , 2.18        , 3           , 21          , 0           , 0
-0.181027338, 0.0971598551, -9.790082   , -0.000122191472, -1.49384432E-05, -0.000106593085, -0.00918441 , -0.0182169955, 0.000338740036, 923.5282    , 31.2248669  , 775.3191    , 2.19        , 3           , 22          , 0           , 0
-0.174956948, 0.09994068  , -9.792768   , -0.000364599662, -0.000370285939, 0.000327902671, -0.009188114, -0.0182206687, 0.000342053449, 923.5282    , 31.2248669  , 775.319153  , 2.2         , 3           , 40          , 0           , 0
-0.177154168, 0.0907657743, -9.788396   , -0.000353099662, 0.000118499505, -0.0003586229, -0.009199795, -0.0182194263, 0.0003386056, 923.5282    , 31.2248669  , 775.318665  , 2.21        , 3           , 41          , 0           , 0
-0.173466727, 0.08191875  , -9.787066   , 0.000361464 , 0.000279481435, 0.000123829639, -0.009196202, -0.0182166211, 0.0003398183, 923.5282    , 31.2248669  , 775.3187    , 2.22        , 3           , 42          , 0           , 0
-0.184781834, 0.08847908  , -9.791484   , 0.000417664647, 0.000104468956, 1.9394487E-05, -0.00919203 , -0.018215578, 0.000340002676, 923.537842  , 31.2230358  , 775.3188    , 2.23        , 3           , 255         , 0           , 0
-0.186247423, 0.08871166  , -9.805342   , -5.941422E-05, 0.000100973179, -9.251626E-05, -0.009192606, -0.0182145759, 0.000339068152, 923.537842  , 31.2230358  , 775.318848  , 2.24        , 3           , 255         , 0           , 0
-0.178348735, 0.08248202  , -9.791829   , -3.03948182E-05, -0.000311742246, -0.000314812671, -0.009192854, -0.01821772 , 0.0003359484, 923.537842  , 31.2230358  , 775.3189    , 2.25        , 3           , 255         , 0           , 0
-0.18447116 , 0.0890971   , -9.793529   , 7.435883E-05, -0.0001517401, 0.000280158827, -0.009192162, -0.0182192121, 0.00033876425, 923.537842  , 31.2230358  , 775.319     , 2.26        , 3           , 255         , 0           , 0
-0.17547965 , 0.08181011  , -9.789291   , -0.000326826936, 0.000224671414, -0.000162395037, -0.00919539947, -0.01821698 , 0.000337119447, 923.537842  , 31.2230358  , 775.319031  , 2.27        , 3           , 255         , 0           , 0
-0.186863691, 0.09013083  , -9.791197   , 0.000243203627, -0.000315248733, 0.00084201165, -0.009193121, -0.0182200558, 0.000345569366, 923.537842  , 31.2230358  , 775.3191    , 2.28        , 3           , 255         , 0           , 0
-0.192377582, 0.0805856   , -9.797669   , 0.00030689803, -0.000171730877, 4.623602E-05, -0.009190062, -0.01822177 , 0.000346047542, 923.537842  , 31.2230358  , 775.319153  , 2.29        , 3           , 255         , 0           , 0
-0.191268086, 0.08585246  , -9.791567   , 0.000309944036, -0.00033204275, -0.000411826215, -0.009186888, -0.01822513 , 0.000341959443, 923.537842  , 31.2230358  , 775.3192    , 2.3         , 3           , 255         , 0           , 0
-0.179659843, 0.09025605  , -9.794522   , -0.000102496619, -7.1801187E-06, 2.10499275E-05, -0.009179724, -0.0182345845, 0.000342021231, 923.537842  , 31.2230358  , 775.3062    , 2.31        , 3           , 255         , 0           , 0
-0.177780122, 0.08020627  , -9.787785   , -0.000222088158, 0.000324065215, 0.0006368994, -0.009182059, -0.0182312913, 0.0003483611, 923.537842  , 31.2230358  , 775.3062    , 2.32        , 3           , 255         , 0           , 0
-0.181737751, 0.08735218  , -9.793427   , 0.000227338882, 0.000521458045, 6.560823E-05, -0.009179797, -0.0182260722, 0.000348969363, 923.5382    , 31.2236462  , 775.3062    , 2.33        , 3           , 255         , 0           , 0
-0.1816893  , 0.08522175  , -9.796758   , 0.000283808273, -0.000116025418, -0.000262887625, -0.009176911, -0.018227255, 0.000346350862, 923.5382    , 31.2236462  , 775.3062    , 2.34        , 3           , 255         , 0           , 0
-0.179646164, 0.0800249949, -9.790753   , 0.000471504318, 0.000161167118, 0.000415824528, -0.009172274, -0.0182256065, 0.000350494782, 923.5382    , 31.2236462  , 775.3062    , 2.35        , 3           , 255         , 0           , 0
-0.179357335, 0.0859438255, -9.785669   , 0.0004625023, -9.23035841E-05, 0.0007535208, -0.009167785, -0.0182264615, 0.000358039135, 923.5382    , 31.2236462  , 775.3062    , 2.36        , 3           , 255         , 0           , 0
-0.174102932, 0.0885710642, -9.795153   , -0.000466565049, -1.27754174E-05, 1.61763164E-05, -0.00917245448, -0.0182265863, 0.0003582021, 923.5382    , 31.2236462  , 775.3062    , 2.37        , 3           , 255         , 0           , 0
-0.18145439 , 0.0900587   , -9.798643   , 0.000420496362, 0.000205915625, 0.000222085218, -0.009168289, -0.0182245076, 0.000360404316, 923.5382    , 31.2236462  , 775.3062    , 2.38        , 3           , 255         , 0           , 0
-0.185841277, 0.08842229  , -9.791464   , 0.000133363152, 0.000169073435, -1.83055818E-05, -0.009166951, -0.0182228163, 0.0003602057, 923.5382    , 31.2236462  , 775.3062    , 2.39        , 3           , 255         , 0           , 0
-0.182823122, 0.09319432  , -9.787838   , -2.07818812E-05, 0.000169671112, 9.605507E-05, -0.009167176, -0.018221112, 0.000361150829, 923.5382    , 31.2236462  , 775.3062    , 2.4         , 3           , 255         , 0           , 0
-0.181738392, 0.09579088  , -9.784696   , 6.485838E-05, 6.73222239E-05, 0.0009666539, -0.009160674, -0.018224299, 0.000370702241, 923.5382    , 31.2236462  , 775.2943    , 2.41        , 3           , 255         , 0           , 0
-0.176831484, 0.09592568  , -9.7847805  , 0.000229354308, 9.6742966E-05, 0.0005372574, -0.009158479, -0.01822328 , 0.000376066455, 923.5382    , 31.2236462  , 775.29425   , 2.42        , 3           , 255         , 0           , 0
-0.1710274  , 0.08943985  , -9.791554   , -3.22645064E-06, -0.000368165434, -4.961544E-05, -0.009158502, -0.0182269663, 0.000375603966, 923.534851  , 31.2270374  , 775.2942    , 2.43        , 3           , 255         , 0           , 0
-0.172470972, 0.09034097  , -9.79638    , -0.000368113047, -0.0004727518, 0.000300887681, -0.009162238, -0.0182316639, 0.000378656434, 923.534851  , 31.2270374  , 775.2941    , 2.44        , 3           , 255         , 0           , 0
-0.16418609 , 0.08503911  , -9.79944    , -0.00048954977, -0.000235518324, 0.0001612522, -0.009167162, -0.018234   , 0.0003802907, 923.534851  , 31.2270374  , 775.294067  , 2.45        , 3           , 255         , 0           , 0
-0.177125052, 0.09519233  , -9.798421   , 0.00024083  , 0.0005372371, 5.44790819E-05, -0.009164763, -0.018228624, 0.000380786281, 923.534851  , 31.2270374  , 775.294     , 2.46        , 3           , 255         , 0           , 0
-0.178603619, 0.093195565 , -9.795337   , -5.08693338E-05, 0.0003793521, 0.000309408235, -0.009165328, -0.0182248056, 0.0003838459, 923.534851  , 31.2270374  , 775.293945  , 2.47        , 3           , 255         , 0           , 0
-0.171947747, 0.09574602  , -9.794327   , 8.91144155E-05, 0.0005270674, 0.000432930246, -0.009164515, -0.0182194971, 0.000388127344, 923.534851  , 31.2270374  , 775.2939    , 2.48        , 3           , 255         , 0           , 0
-0.184087321, 0.09114691  , -9.79581    , -0.0004302166, 0.000189707323, 0.0004953092, -0.009168906, -0.0182175543, 0.000393063528, 923.534851  , 31.2270374  , 775.2938    , 2.49        , 3           , 255         , 0           , 0
-0.187220544, 0.0856955051, -9.785929   , -9.26351058E-05, 0.000296484854, 0.0004961926, -0.00916992 , -0.0182145424, 0.000397998752, 923.534851  , 31.2270374  , 775.293762  , 2.5         , 3           , 255         , 0           , 0
-0.180515289, 0.07927451  , -9.796587   , 0.00017021579, 0.000357770361, 0.000196714536, -0.009172188, -0.0182069018, 0.0004000049, 923.534851  , 31.2270374  , 775.2877    , 2.51        , 3           , 255         , 0           , 0
-0.1855176  , 0.07934868  , -9.789923   , -0.0001222594, -0.000281273, -0.000192885229, -0.00917337649, -0.0182097331, 0.000398101663, 923.534851  , 31.2270374  , 775.287659  , 2.52        , 3           , 255         , 0           , 0
-0.1845578  , 0.0841837451, -9.799355   , -0.00019771498, 8.400329E-05, 0.0004686185, -0.009175439, -0.01820885 , 0.000402780628, 923.538635  , 31.2285976  , 775.2876    , 2.53        , 3           , 255         , 0           , 0
-0.186736077, 0.08719739  , -9.79272652 , 0.000273443351, 0.0002498458, 0.000361066952, -0.009172769, -0.0182063188, 0.0004063687, 923.538635  , 31.2285976  , 775.287537  , 2.54        , 3           , 255         , 0           , 0
-0.19137685 , 0.09571625  , -9.788741   , -0.000269612268, -0.000257365667, 0.00029333675, -0.00917552 , -0.0182088651, 0.000409325963, 923.538635  , 31.2285976  , 775.2875    , 2.55        , 3           , 255         , 0           , 0
-0.182022125, 0.0960709751, -9.79417    , 0.000500760041, -0.000199650793, 6.18105551E-05, -0.009170525, -0.0182108562, 0.000409962522, 923.538635  , 31.2285976  , 775.2874    , 2.56        , 3           , 255         , 0           , 0
-0.185030371, 0.0977193   , -9.792673   , 0.000472464541, -0.000327278016, 0.0004593577, -0.009165884, -0.01821409 , 0.000414586568, 923.538635  , 31.2285976  , 775.287354  , 2.57        , 3           , 255         , 0           , 0
-0.179380372, 0.0881215557, -9.787096   , 0.0002928458, 2.74732884E-05, -0.0001439095, -0.00916293 , -0.0182138272, 0.000413144822, 923.538635  , 31.2285976  , 775.2873    , 2.58        , 3           , 255         , 0           , 0
-0.176312238, 0.09371613  , -9.785661   , -0.000299896667, 0.000279919244, 3.73046059E-05, -0.009165935, -0.018211022, 0.000413492264, 923.538635  , 31.2285976  , 775.287231  , 2.59        , 3           , 255         , 0           , 0
-0.183423728, 0.0917680338, -9.790422   , 0.0002443244, 0.000326021167, 0.000473006978, -0.009163577, -0.01820772 , 0.0004181929, 923.538635  , 31.2285976  , 775.2872    , 2.6         , 3           , 255         , 0           , 0
-0.1761145  , 0.08916731  , -9.796707   , -0.000236082444, 0.0001262317, 0.000161843665, -0.009164892, -0.0182170458, 0.000419780379, 923.538635  , 31.2285976  , 775.2768    , 2.61        , 3           , 255         , 0           , 0
-0.188654318, 0.0912679359, -9.793512   , -0.000464670564, -0.0002097131, -0.00067907857, -0.0091694165, -0.0182192028, 0.000413008122, 923.538635  , 31.2285976  , 775.2767    , 2.62        , 3           , 255         , 0           , 0
-0.178835839, 0.09223707  , -9.799222   , -0.0003921164, 0.0004099395, -0.0006517329, -0.009173219, -0.0182151627, 0.000406452542, 923.579651  , 31.2264271  , 775.27655   , 2.63        , 3           , 255         , 0           , 0
-0.178269535, 0.08743634  , -9.796538   , -9.18355945E-05, -0.000463037955, -4.256556E-05, -0.009174131, -0.0182197969, 0.000406069332, 923.579651  , 31.2264271  , 775.2764    , 2.64        , 3           , 255         , 0           , 0
-0.187259719, 0.09072996  , -9.793406   , -0.0001285825, -0.000101319369, -0.000336792378, -0.009175356, -0.01822084 , 0.000402710371, 923.579651  , 31.2264271  , 775.2763    , 2.65        , 3           , 255         , 0           , 0
-0.177678287, 0.08571712  , -9.783221   , -7.2351686E-05, -0.000165407109, -0.000171768057, -0.00917604752, -0.01822251 , 0.0004010077, 923.579651  , 31.2264271  , 775.2762    , 2.66        , 3           , 255         , 0           , 0
-0.1718283  , 0.08481653  , -9.785486   , 3.60678241E-05, -0.000250859855, -0.000273847836, -0.009175638, -0.018225044, 0.000398291973, 923.579651  , 31.2264271  , 775.276062  , 2.67        , 3           , 255         , 0           , 0
-0.17479226 , 0.0936071   , -9.794918   , -0.0004852784, -8.893179E-05, -0.000910269329, -0.009180324, -0.0182260126, 0.000389196532, 923.579651  , 31.2264271  , 775.27594   , 2.68        , 3           , 255         , 0           , 0
-0.180564567, 0.09708759  , -9.790864   , -0.000283740315, 0.0002291056, -0.0003228924, -0.009183101, -0.0182237513, 0.000385946245, 923.579651  , 31.2264271  , 775.2758    , 2.69        , 3           , 255         , 0           , 0
-0.18483752 , 0.09663581  , -9.790037   , 0.0004201114, -8.850358E-06, -0.000683408463, -0.009178775, -0.0182239022, 0.0003791123, 923.579651  , 31.2264271  , 775.2757    , 2.7         , 3           , 255         , 0           , 0
-0.178120062, 0.09265693  , -9.79532051 , -0.000246122741, -0.0003089222, -0.000183401571, -0.009183176, -0.0182297733, 0.0003773424, 923.579651  , 31.2264271  , 775.2107    , 2.71        , 3           , 255         , 0           , 0
-0.181823954, 0.09228615  , -9.797375   , -0.0003135804, 0.00015923928, 0.000410831417, -0.009186385, -0.0182281416, 0.0003814365, 923.579651  , 31.2264271  , 775.210144  , 2.72        , 3           , 255         , 0           , 0
-0.188697547, 0.07890107  , -9.790584   , -1.3623503E-07, 0.000293188583, 0.00062667497, -0.0091865  , -0.0182251539, 0.000387676933, 923.539246  , 31.2267666  , 775.2096    , 2.73        , 3           , 255         , 0           , 0
-0.175684   , 0.0910975039, -9.795163   , 0.000102969265, -5.601876E-06, 0.0002339796, -0.009185513, -0.0182251874, 0.000390017463, 923.539246  , 31.2267666  , 775.209045  , 2.74        , 3           , 255         , 0           , 0
-0.183276713, 0.093086265 , -9.79841    , -0.000444329955, -0.000331169169, 0.0003854085, -0.009190026, -0.018228462, 0.00039390233, 923.539246  , 31.2267666  , 775.2085    , 2.75        , 3           , 255         , 0           , 0
-0.177484587, 0.09698379  , -9.793158   , -5.28451346E-05, -0.000164437515, 0.000117493379, -0.009190575, -0.0182300955, 0.0003950925, 923.539246  , 31.2267666  , 775.208     , 2.76        , 3           , 255         , 0           , 0
-0.167853281, 0.08755134  , -9.793665   , -0.000265251525, -0.000131744833, 0.000655326061, -0.009193348, -0.0182313528, 0.0004016585, 923.539246  , 31.2267666  , 775.2075    , 2.77        , 3           , 255         , 0           , 0
-0.177468956, 0.0937719047, -9.794911   , 0.000386429077, -0.0004094657, 0.0007902464, -0.009189628, -0.0182353742, 0.000409599335, 923.539246  , 31.2267666  , 775.207031  , 2.78        , 3           , 255         , 0           , 0
-0.17364265 , 0.09433783  , -9.788416   , 0.000179994677, 7.641938E-05, -0.00017595457, -0.009187795, -0.0182346255, 0.000407832616, 923.539246  , 31.2267666  , 775.206543  , 2.79        , 3           , 255         , 0           , 0
-0.1776616  , 0.08564444  , -9.784002   , 0.000192339008, 0.000106253865, -0.000632706, -0.009185757, -0.01823362 , 0.0004014952, 923.539246  , 31.2267666  , 775.206055  , 2.8         , 3           , 255         , 0           , 0
-0.1753604  , 0.08165492  , -9.786189   , 0.0007262231, -6.90368761E-05, -0.000382799, -0.009179597, -0.0182337  , 0.000397694559, 923.539246  , 31.2267666  , 775.206055  , 2.81        , 3           , 255         , 0           , 0
-0.180355877, 0.08823726  , -9.798223   , 0.000414594018, -0.000450187916, -0.000395053619, -0.00917538 , -0.018238239, 0.000393784925, 923.539246  , 31.2267666  , 775.205566  , 2.82        , 3           , 255         , 0           , 0
-0.179036945, 0.0811811239, -9.792239   , 7.96435052E-05, -0.000264246162, -0.0006902616, -0.009174458, -0.0182409454, 0.0003869059, 923.5328    , 31.22853    , 775.2051    , 2.83        , 3           , 255         , 0           , 0
-0.175548717, 0.08020759  , -9.787437   , -0.000381120073, -0.0005910427, 0.000250448065, -0.009178314, -0.0182468332, 0.0003894649, 923.5328    , 31.22853    , 775.2046    , 2.84        , 3           , 255         , 0           , 0
-0.17966181 , 0.07944644  , -9.789658   , 0.0003901189, -0.0003745931, 0.00016368716, -0.009174444, -0.0182505641, 0.000391136273, 923.5328    , 31.22853    , 775.2041    , 2.85        , 3           , 255         , 0           , 0
-0.181828886, 0.08638433  , -9.792852   , -1.028314E-05, 0.000323557935, 0.00103779533, -0.009174735, -0.0182472356, 0.0004014855, 923.5328    , 31.22853    , 775.2036    , 2.86        , 3           , 255         , 0           , 0
-0.183605522, 0.08942063  , -9.796707   , 0.000219394729, 0.000411308021, 0.0013245513, -0.009172783, -0.0182429943, 0.00041469463, 923.5328    , 31.22853    , 775.2031    , 2.87        , 3           , 255         , 0           , 0
-0.174049646, 0.0909701362, -9.795743   , 0.000265471637, -7.193562E-05, 0.0003965428, -0.009170201, -0.0182436779, 0.0004186671, 923.5328    , 31.22853    , 775.202637  , 2.88        , 3           , 255         , 0           , 0
-0.17196393 , 0.09579966  , -9.793341   , 0.000176792208, -0.0001835154, 0.00013362203, -0.009168458, -0.0182455014, 0.000420020224, 923.5328    , 31.22853    , 775.202148  , 2.89        , 3           , 255         , 0           , 0
-0.182285339, 0.09196701  , -9.796092   , -7.225413E-05, -0.000289669348, 0.0005489971, -0.00916928053, -0.01824835 , 0.000425537321, 923.5328    , 31.22853    , 775.20166   , 2.9         , 3           , 255         , 0           , 0
-0.176898777, 0.09169662  , -9.797722   , -0.000343000051, 6.96692441E-05, 0.00082714844, -0.009166815, -0.01824691 , 0.000433692941, 923.5328    , 31.22853    , 775.2114    , 2.91        , 3           , 255         , 0           , 0
-0.178087518, 0.09113477  , -9.804985   , 0.000131259265, -1.08235108E-05, -0.000202907177, -0.009165467, -0.0182470363, 0.000431664637, 923.5328    , 31.22853    , 775.211     , 2.92        , 3           , 255         , 0           , 0
-0.178385213, 0.08402099  , -9.798812   , 0.000175704321, -0.000432220055, -0.000363740372, -0.009163644, -0.0182513911, 0.0004280665, 923.5095    , 31.2266979  , 775.2106    , 2.93        , 3           , 255         , 0           , 0
-0.182042211, 0.094384    , -9.78754    , 0.000301105581, 0.00012168751, 0.000352150819, -0.009160697, -0.0182501432, 0.0004315772, 923.5095    , 31.2266979  , 775.210144  , 2.94        , 3           , 255         , 0           , 0
-0.177554086, 0.09300331  , -9.791883   , 3.1755364E-05, -0.000136869377, -0.000336411758, -0.009160318, -0.018251542, 0.000428225321, 923.5095    , 31.2266979  , 775.2097    , 2.95        , 3           , 255         , 0           , 0
-0.176531821, 0.08488461  , -9.793315   , 0.00022321241, 5.910857E-05, 0.000420115946, -0.00915816147, -0.0182509124, 0.0004324215, 923.5095    , 31.2266979  , 775.2093    , 2.96        , 3           , 255         , 0           , 0
-0.183967471, 0.08738658  , -9.793086   , 9.767298E-05, -0.0005469252, 0.000106485051, -0.009157205, -0.01825637 , 0.0004335365, 923.5095    , 31.2266979  , 775.208862  , 2.97        , 3           , 255         , 0           , 0
-0.17146042 , 0.080045    , -9.787874   , 0.000415602059, -0.000139518117, 6.077985E-05, -0.00915306248, -0.0182577614, 0.000434157148, 923.5095    , 31.2266979  , 775.208435  , 2.98        , 3           , 255         , 0           , 0
-0.184527755, 0.08086916  , -9.787767   , -9.587177E-05, -8.9076E-05 , 5.962629E-05, -0.009154031, -0.0182586461, 0.0004347616, 923.5095    , 31.2266979  , 775.208     , 2.99        , 3           , 255         , 0           , 0
-0.185547262, 0.08757079  , -9.79299    , -0.000222147442, 0.000112967362, -0.000143861122, -0.009156224, -0.01825753 , 0.0004333125, 923.5095    , 31.2266979  , 775.2076    , 3           , 3           , 0           , 8.017237    , 300
-0.1756458  , 0.0962992162, -9.793851   , -2.18067726E-05, 0.000548572 , -1.66654791E-05, -0.009152685, -0.0182532836, 0.000433027075, 923.5095    , 31.2266979  , 775.2493    , 3.01        , 3           , 1           , 0           , 0
-0.182529673, 0.09093117  , -9.789831   , -3.41009E-05, 0.000564658665, -0.00023272245, -0.009152983, -0.0182476584, 0.000430647953, 923.5095    , 31.2266979  , 775.2492    , 3.02        , 3           , 2           , 0           , 0
-0.181264013, 0.0788906962, -9.791235   , -0.00036791258, -4.904752E-06, -0.000700691133, -0.009156532, -0.018247772, 0.0004236408, 923.5296    , 31.22731    , 775.2491    , 3.03        , 3           , 3           , 0           , 0
-0.1791306  , 0.084138535 , -9.784485   , -0.000430933957, -0.000265751733, -0.000597763341, -0.009160734, -0.0182504822, 0.000417686882, 923.5296    , 31.22731    , 775.248962  , 3.04        , 3           , 4           , 0           , 0
-0.187690973, 0.0920545757, -9.787159   , -0.00033338397, -3.33021744E-05, -0.0005186327, -0.009163973, -0.0182508621, 0.000412503083, 923.5296    , 31.22731    , 775.24884   , 3.05        , 3           , 5           , 0           , 0
-0.177891821, 0.08778714  , -9.786524   , 0.000169760751, 0.000217039254, 0.00043903786, -0.009162354, -0.018248653, 0.000416873983, 923.5296    , 31.22731    , 775.2487    , 3.06        , 3           , 6           , 0           , 0
-0.171520248, 0.0835787356, -9.788908   , 0.000470019877, 8.983983E-05, 0.000493652362, -0.009157743, -0.01824771 , 0.0004218028, 923.5296    , 31.22731    , 775.2486    , 3.07        , 3           , 7           , 0           , 0
-0.1784086  , 0.08393476  , -9.793238   , 0.000106480031, -0.000207212754, 0.000404223218, -0.009156753, -0.0182497445, 0.000425864419, 923.5296    , 31.22731    , 775.2485    , 3.08        , 3           , 8           , 5           , 5
-0.180241659, 0.0811796   , -9.78329849 , -0.000127114356, -0.000308909919, 0.000191830739, -0.009158059, -0.0182528161, 0.000427811232, 923.5296    , 31.22731    , 775.248352  , 3.09        , 3           , 9           , 5           , 0.1
-0.180992052, 0.07860214  , -9.786535   , -0.000451042666, -0.000327819027, 0.00026829954, -0.00916262 , -0.0182560682, 0.000430524466, 923.5296    , 31.22731    , 775.2482    , 3.1         , 3           , 10          , 0.1         , 0.1
-0.171496555, 0.08479811  , -9.794165   , -0.0003200571, -0.000592255, -0.000259086431, -0.009155958, -0.0182641409, 0.0004278084, 923.5296    , 31.22731    , 775.2563    , 3.11        , 3           , 11          , 0.00720493449, 0.007204932
-0.169922024, 0.08434229  , -9.78891    , -0.000109411281, -0.000116078241, 1.27712992E-05, -0.009157055, -0.0182653014, 0.000427946739, 923.5296    , 31.22731    , 775.2562    , 3.12        , 3           , 12          , 0.174645633 , 0
-0.177570283, 0.08425237  , -9.784898   , -0.0001946091, 0.0001697283, 0.000753278029, -0.009159138, -0.0182635337, 0.000435464724, 923.5217    , 31.2253418  , 775.256165  , 3.13        , 3           , 13          , 0           , 0
-0.174440518, 0.08818573  , -9.78891    , -0.000407085638, -0.000377323537, -2.92693E-05, -0.009163204, -0.01826731 , 0.000435206544, 923.5217    , 31.2253418  , 775.2561    , 3.14        , 3           , 14          , -0.000378235185, -0.000455607253
-0.182919458, 0.09198683  , -9.796946   , 0.000417890522, -8.253014E-05, 0.000255237275, -0.009159071, -0.0182681121, 0.00043776675, 923.5217    , 31.2253418  , 775.256042  , 3.15        , 3           , 15          , 0           , -0.000136641655
-0.187839538, 0.09366823  , -9.794347   , -3.03329434E-05, -0.000288406271, 0.0006022388, -0.009159486, -0.0182709415, 0.000443816127, 923.5217    , 31.2253418  , 775.256     , 3.16        , 3           , 16          , 0           , 1.401298E-45
-0.179924563, 0.08541014  , -9.797171   , 0.000167080449, 0.000347046473, 0.0005480623, -0.009157915, -0.01826742 , 0.000449265528, 923.5217    , 31.2253418  , 775.2559    , 3.17        , 3           , 20          , 0           , 0
-0.18093735 , 0.0870732442, -9.79302    , 5.121893E-05, 0.000192940177, 0.000442076416, -0.009157483, -0.0182654485, 0.000453669054, 923.5217    , 31.2253418  , 775.255859  , 3.18        , 3           , 21          , 0           , 0
-0.176262081, 0.09312385  , -9.795566   , -0.000345846056, 0.000314522156, 0.000184363875, -0.009160975, -0.0182622857, 0.000455484085, 923.5217    , 31.2253418  , 775.2558    , 3.19        , 3           , 22          , 0           , 0
-0.18421483 , 0.09168337  , -9.794657   , -0.000173928624, -0.000150345149, -0.00019916876, -0.00916267652, -0.0182638075, 0.000453505956, 923.5217    , 31.2253418  , 775.255737  , 3.2         , 3           , 40          , 0           , 0
-0.175284535, 0.0899777561, -9.784128   , -0.000329774775, -7.80480041E-05, -0.000284436537, -0.009163766, -0.0182639826, 0.000450629072, 923.5217    , 31.2253418  , 775.274     , 3.21        , 3           , 41          , 0           , 0
-0.170811757, 0.09433567  , -9.786176   , 0.000544038136, -0.0002688997, -0.000530326855, -0.00915822852, -0.0182667188, 0.0004453499, 923.5217    , 31.2253418  , 775.274048  , 3.22        , 3           , 42          , 0           , 0
-0.17605032 , 0.08550233  , -9.786403   , 0.000204930766, -0.000182690885, 0.00030575358, -0.00915623549, -0.01826852 , 0.0004484245, 923.5392    , 31.2271729  , 775.2741    , 3.23        , 3           , 255         , 0           , 0
-0.185414225, 0.07606704  , -9.793795   , 0.0001704862, -0.000207473611, 0.0006143787, -0.009154644, -0.01827054 , 0.0004545879, 923.5392    , 31.2271729  , 775.2742    , 3.24        , 3           , 255         , 0           , 0
-0.1769426  , 0.08024068  , -9.794867   , 0.000260578032, -0.000236521853, 0.0007085367, -0.009152169, -0.01827284 , 0.00046169557, 923.5392    , 31.2271729  , 775.274231  , 3.25        , 3           , 255         , 0           , 0
-0.184239939, 0.08952021  , -9.78262    , -7.05619459E-06, 0.000267437659, 0.0006301741, -0.009152356, -0.018270107, 0.00046797347, 923.5392    , 31.2271729  , 775.2743    , 3.26        , 3           , 255         , 0           , 0
-0.173973739, 0.091621764 , -9.787474   , 0.000479982817, -0.000221804163, 0.00062983745, -0.009147672, -0.0182722677, 0.0004742928, 923.5392    , 31.2271729  , 775.274353  , 3.27        , 3           , 255         , 0           , 0
-0.17880407 , 0.08531377  , -9.79507351 , -0.000183811848, -5.455411E-05, 0.00102656032, -0.00914969947, -0.0182727166, 0.000484564429, 923.5392    , 31.2271729  , 775.2744    , 3.28        , 3           , 255         , 0           , 0
-0.174902186, 0.08875869  , -9.787589   , 0.00038719704, 3.70433845E-05, 0.000446268 , -0.009145908, -0.0182723086, 0.000489024154, 923.5392    , 31.2271729  , 775.2745    , 3.29        , 3           , 255         , 0           , 0
-0.173155621, 0.09511544  , -9.786762   , -0.000150095642, 0.000624346 , -0.000137682975, -0.009147382, -0.0182660762, 0.0004875901, 923.5392    , 31.2271729  , 775.274536  , 3.3         , 3           , 255         , 0           , 0
-0.174397916, 0.0950904638, -9.793038   , 0.00021440236, 0.00040136688, -1.99710485E-05, -0.009140545, -0.01825745 , 0.000487268058, 923.5392    , 31.2271729  , 775.2652    , 3.31        , 3           , 255         , 0           , 0
-0.180690676, 0.08859273  , -9.790714   , 7.985174E-05, 0.000105094281, -0.000115507763, -0.009139726, -0.01825641 , 0.000486103265, 923.5392    , 31.2271729  , 775.2652    , 3.32        , 3           , 255         , 0           , 0
-0.183474988, 0.08693061  , -9.796972   , -9.048107E-05, -5.509E-05  , 0.000534560066, -0.009140727, -0.01825691 , 0.000491454441, 923.5504    , 31.2300224  , 775.2652    , 3.33        , 3           , 255         , 0           , 0
-0.189292774, 0.0921462   , -9.79598    , -0.000327271642, -4.367606E-05, 0.000476270739, -0.009144087, -0.018257305, 0.0004962216, 923.5504    , 31.2300224  , 775.2652    , 3.34        , 3           , 255         , 0           , 0
-0.184633017, 0.09327288  , -9.790601   , -0.000238627545, 7.860246E-06, 1.00830366E-05, -0.009146476, -0.0182572268, 0.000496321649, 923.5504    , 31.2300224  , 775.2652    , 3.35        , 3           , 255         , 0           , 0
-0.179553539, 0.08602684  , -9.789831   , 0.000298786 , -4.07492626E-05, 5.278644E-05, -0.009143497, -0.01825763 , 0.0004968533, 923.5504    , 31.2300224  , 775.2652    , 3.36        , 3           , 255         , 0           , 0
-0.174053922, 0.08274263  , -9.7989     , 9.379763E-05, 0.00041638274, 0.000359636848, -0.009142623, -0.01825343 , 0.000500412 , 923.5504    , 31.2300224  , 775.2652    , 3.37        , 3           , 255         , 0           , 0
-0.1788866  , 0.07213114  , -9.79315    , 0.000279912521, -0.000198534166, -0.000247725518, -0.009139782, -0.01825544 , 0.0004979526, 923.5504    , 31.2300224  , 775.2652    , 3.38        , 3           , 255         , 0           , 0
-0.183905989, 0.07758979  , -9.792475   , -0.000246131269, -4.98132431E-06, -0.0004092023, -0.009142169, -0.0182555262, 0.0004938607, 923.5504    , 31.2300224  , 775.2652    , 3.39        , 3           , 255         , 0           , 0
-0.180100575, 0.09127293  , -9.79216    , 0.00033109478, 0.00048041757, 0.000401588448, -0.009138931, -0.01825069 , 0.000497833 , 923.5504    , 31.2300224  , 775.2652    , 3.4         , 3           , 255         , 0           , 0
-0.181443632, 0.089699015 , -9.786827   , 0.000496722758, 0.000511817 , -0.000289567659, -0.00912916 , -0.0182488877, 0.0004948036, 923.5504    , 31.2300224  , 775.2414    , 3.41        , 3           , 255         , 0           , 0
-0.182817861, 0.09028865  , -9.793734   , -7.77705864E-05, 0.0003014418, 0.000281265355, -0.009129989, -0.0182458479, 0.000497589062, 923.5504    , 31.2300224  , 775.2413    , 3.42        , 3           , 255         , 0           , 0
-0.1809065  , 0.09655481  , -9.793949   , -0.0002653805, 0.000389763329, -5.22454357E-05, -0.009132631, -0.0182419531, 0.000497030967, 923.5221    , 31.2268353  , 775.24115   , 3.43        , 3           , 255         , 0           , 0
-0.187201589, 0.0834258   , -9.793699   , -0.000557160471, -0.000216423767, 7.642832E-05, -0.009138219, -0.0182441119, 0.0004978151, 923.5221    , 31.2268353  , 775.241     , 3.44        , 3           , 255         , 0           , 0
-0.1788313  , 0.07479118  , -9.78534    , -0.0006980919, 1.14247669E-05, 0.0008245633, -0.009145348, -0.0182439219, 0.000506060431, 923.5221    , 31.2268353  , 775.2409    , 3.45        , 3           , 255         , 0           , 0
-0.170339808, 0.0756538361, -9.794001   , -0.000976837, 0.000365252956, 3.05018038E-05, -0.009155121, -0.0182402637, 0.0005063321, 923.5221    , 31.2268353  , 775.2408    , 3.46        , 3           , 255         , 0           , 0
-0.172459885, 0.09061015  , -9.791845   , -0.0006194543, -0.000246936164, 4.95356144E-05, -0.009161325, -0.01824273 , 0.0005068501, 923.5221    , 31.2268353  , 775.240662  , 3.47        , 3           , 255         , 0           , 0
-0.181627512, 0.0929063857, -9.800514   , -0.000284735375, -0.0001515483, -0.000156886, -0.009164145, -0.0182442572, 0.0005052949, 923.5221    , 31.2268353  , 775.24054   , 3.48        , 3           , 255         , 0           , 0
-0.178479642, 0.09143839  , -9.790603   , 0.000613885757, 0.000107435422, -1.595878E-05, -0.009158001, -0.0182431843, 0.0005051255, 923.5221    , 31.2268353  , 775.2404    , 3.49        , 3           , 255         , 0           , 0
-0.183449551, 0.09127259  , -9.793451   , 0.000382871629, -8.77413E-05, 0.0003126587, -0.009154231, -0.0182440337, 0.0005082604, 923.5221    , 31.2268353  , 775.2403    , 3.5         , 3           , 255         , 0           , 0
-0.182821319, 0.0912020653, -9.794977   , 0.000211265287, -0.000135085458, 0.000470919651, -0.009149078, -0.018247148, 0.0005129254, 923.5221    , 31.2268353  , 775.260132  , 3.51        , 3           , 255         , 0           , 0
-0.17508994 , 0.09213923  , -9.795292   , 0.000376522425, -0.000482439325, 3.18558232E-05, -0.00914531853, -0.0182519667, 0.000513288134, 923.5221    , 31.2268353  , 775.260132  , 3.52        , 3           , 255         , 0           , 0
-0.171959162, 0.0914637148, -9.799686   , 0.00028464658, -4.811355E-05, 0.0007162701, -0.009142603, -0.0182523839, 0.000520455942, 923.528931  , 31.22697    , 775.260132  , 3.53        , 3           , 255         , 0           , 0
-0.177332878, 0.08639043  , -9.793775   , -7.37023656E-05, 0.000433906476, -0.000417831237, -0.009143262, -0.0182480849, 0.0005162375, 923.528931  , 31.22697    , 775.260132  , 3.54        , 3           , 255         , 0           , 0
-0.186865255, 0.09026225  , -9.791811   , -0.000480005081, 0.000365402142, -0.000184372257, -0.00914803 , -0.0182444472, 0.0005143602, 923.528931  , 31.22697    , 775.260132  , 3.55        , 3           , 255         , 0           , 0
-0.181324959, 0.09285165  , -9.783383   , -0.0003173553, 0.000313769648, 3.793261E-05, -0.009151208, -0.0182413068, 0.0005147109, 923.528931  , 31.22697    , 775.260132  , 3.56        , 3           , 255         , 0           , 0
-0.179274485, 0.0954844   , -9.788103   , -0.00089418923, 0.0001581265, 0.00085768773, -0.009160306, -0.0182396434, 0.000523274066, 923.528931  , 31.22697    , 775.2602    , 3.57        , 3           , 255         , 0           , 0
-0.183479786, 0.0977883339, -9.789499   , -0.000183011784, 0.0005520278, 0.0005070311, -0.009162229, -0.0182340816, 0.00052829436, 923.528931  , 31.22697    , 775.260254  , 3.58        , 3           , 255         , 0           , 0
-0.185066849, 0.094483085 , -9.800482   , -0.0002542823, 0.000395602081, 0.0003863545, -0.009164841, -0.01823009 , 0.000532122038, 923.528931  , 31.22697    , 775.2603    , 3.59        , 3           , 255         , 0           , 0
-0.18879278 , 0.09254104  , -9.789144   , 7.855185E-05, 0.00040018998, -0.000356538454, -0.009163992, -0.01822612 , 0.0005285196, 923.528931  , 31.22697    , 775.2604    , 3.6         , 3           , 255         , 0           , 0
-0.186857983, 0.09133109  , -9.796212   , 0.000182540025, 8.43236048E-05, 7.936389E-05, -0.009166862, -0.01822931 , 0.000529391 , 923.528931  , 31.22697    , 775.267761  , 3.61        , 3           , 255         , 0           , 0
-0.185432419, 0.08414922  , -9.792235   , 0.000316448015, 0.0001666632, -0.0001262613, -0.009163675, -0.0182276536, 0.0005281129, 923.528931  , 31.22697    , 775.2678    , 3.62        , 3           , 255         , 0           , 0
-0.184103236, 0.08726382  , -9.787867   , -0.000500063063, 0.000255336781, 0.00023543241, -0.009168717, -0.01822508 , 0.0005304441, 923.5407    , 31.2283955  , 775.2679    , 3.63        , 3           , 255         , 0           , 0
-0.17687133 , 0.08916207  , -9.794569   , -0.000617321348, -0.0002502827, 0.000201198724, -0.009174928, -0.0182275642, 0.000532479258, 923.5407    , 31.2283955  , 775.267944  , 3.64        , 3           , 255         , 0           , 0
-0.1808695  , 0.09534726  , -9.79422951 , 0.0009690006, 1.72213477E-05, -0.000319172, -0.009165178, -0.0182274226, 0.000529285637, 923.5407    , 31.2283955  , 775.268     , 3.65        , 3           , 255         , 0           , 0
-0.180217952, 0.0891410857, -9.794895   , 3.39806429E-05, 5.66873059E-05, 7.364985E-05, -0.009164851, -0.0182268489, 0.000530017 , 923.5407    , 31.2283955  , 775.2681    , 3.66        , 3           , 255         , 0           , 0
-0.176841632, 0.0892986059, -9.797579   , -4.85362252E-05, 4.884464E-05, -5.158197E-05, -0.009165327, -0.0182263646, 0.00052949664, 923.5407    , 31.2283955  , 775.26825   , 3.67        , 3           , 255         , 0           , 0
-0.179783046, 0.09528272  , -9.798376   , -0.000594443758, -4.66264319E-05, 0.000234712759, -0.009171315, -0.0182268117, 0.0005318483, 923.5407    , 31.2283955  , 775.2684    , 3.68        , 3           , 255         , 0           , 0
-0.1721903  , 0.0910271   , -9.79550648 , -0.00026119416, -0.000440867385, 0.000510434038, -0.00917402 , -0.0182311684, 0.0005369935, 923.5407    , 31.2283955  , 775.2685    , 3.69        , 3           , 255         , 0           , 0
-0.180815026, 0.08899385  , -9.795842   , -0.000225895055, -0.000523955736, -0.000416661584, -0.009176202, -0.0182364471, 0.000532874546, 923.5407    , 31.2283955  , 775.2686    , 3.7         , 3           , 255         , 0           , 0
-0.177912384, 0.08916122  , -9.794622   , 0.000265127863, -0.000424875325, -0.000576990831, -0.00917385 , -0.018243311, 0.000527150347, 923.5407    , 31.2283955  , 775.25824   , 3.71        , 3           , 255         , 0           , 0
-0.184391156, 0.0919908658, -9.790735   , -8.7461056E-05, -4.31704975E-05, -0.000137693612, -0.009174699, -0.0182437543, 0.0005257772, 923.5407    , 31.2283955  , 775.2583    , 3.72        , 3           , 255         , 0           , 0
-0.193173558, 0.08875747  , -9.794919   , 0.000182429678, -0.000177610753, 0.000215600245, -0.009172915, -0.01824551 , 0.0005279497, 923.5584    , 31.229887   , 775.258362  , 3.73        , 3           , 255         , 0           , 0
-0.182018235, 0.09391229  , -9.792967   , 0.0003218843, 4.26415936E-05, -0.0005591172, -0.00916959252, -0.0182451364, 0.000522354152, 923.5584    , 31.229887   , 775.2584    , 3.74        , 3           , 255         , 0           , 0
-0.1794363  , 0.09478947  , -9.793529   , -0.0004286742, 4.83737967E-05, -0.000140173521, -0.009173853, -0.018244667, 0.0005209478, 923.5584    , 31.229887   , 775.2585    , 3.75        , 3           , 255         , 0           , 0
-0.183489591, 0.103278019 , -9.792517   , -0.000213405438, 1.21909252E-05, 0.000228483361, -0.009176027, -0.0182445236, 0.000523231749, 923.5584    , 31.229887   , 775.258545  , 3.76        , 3           , 255         , 0           , 0
-0.179135352, 0.105003417 , -9.797856   , -0.0004291416, -0.00045748023, -0.000432781817, -0.009180241, -0.0182491373, 0.000518945453, 923.5584    , 31.229887   , 775.2586    , 3.77        , 3           , 255         , 0           , 0
-0.183203846, 0.09429793  , -9.791272   , 0.0006339223, -0.000206806319, -4.78507427E-05, -0.009173894, -0.0182512086, 0.0005184859, 923.5584    , 31.229887   , 775.258667  , 3.78        , 3           , 255         , 0           , 0
-0.169974387, 0.0888889655, -9.79427052 , 0.000188716163, 0.000263542577, 0.000239364716, -0.00917205 , -0.01824855 , 0.000520855654, 923.5584    , 31.229887   , 775.2587    , 3.79        , 3           , 255         , 0           , 0
-0.177506417, 0.09358632  , -9.79506    , 6.634512E-05, 0.0002147684, 0.000603698951, -0.009171497, -0.0182463545, 0.000526873569, 923.5584    , 31.229887   , 775.2588    , 3.8         , 3           , 255         , 0           , 0
-0.185517877, 0.08687146  , -9.796262   , -0.0001475923, -0.000335888442, 0.000660889 , -0.009179707, -0.0182530116, 0.000533634564, 923.5584    , 31.229887   , 775.224731  , 3.81        , 3           , 255         , 0           , 0
-0.178209513, 0.09048251  , -9.786759   , -0.000480013638, 0.000162894576, -0.000199170885, -0.00918446947, -0.0182514023, 0.000531627738, 923.5584    , 31.229887   , 775.224548  , 3.82        , 3           , 255         , 0           , 0
-0.18248333 , 0.0890069455, -9.793979   , 0.000179290888, -0.0001476238, -0.000543298549, -0.009182578, -0.0182529278, 0.0005262078, 923.561462  , 31.2293453  , 775.224365  , 3.83        , 3           , 255         , 0           , 0
-0.196859851, 0.08865026  , -9.7898     , 0.0005059241, 0.000188428414, 0.000759547343, -0.009177657, -0.0182509739, 0.000533786661, 923.561462  , 31.2293453  , 775.2242    , 3.84        , 3           , 255         , 0           , 0
-0.183007032, 0.08940202  , -9.787697   , 0.0005588988, 0.000148106454, -0.000134740825, -0.009172043, -0.0182495043, 0.000532425533, 923.561462  , 31.2293453  , 775.22406   , 3.85        , 3           , 255         , 0           , 0
-0.181275338, 0.0818733051, -9.795298   , 5.43961651E-05, 0.000207600184, 7.023328E-05, -0.009171511, -0.0182474218, 0.000533108949, 923.561462  , 31.2293453  , 775.223938  , 3.86        , 3           , 255         , 0           , 0
-0.176110387, 0.08050782  , -9.789015   , 0.0002574294, 0.000272110046, 0.0004981277, -0.009169028, -0.01824466 , 0.0005380658, 923.561462  , 31.2293453  , 775.2238    , 3.87        , 3           , 255         , 0           , 0
-0.180534407, 0.0856295   , -9.7957     , 0.0004634661, 0.000258548185, 0.00117073453, -0.009164607, -0.0182419624, 0.0005497506, 923.561462  , 31.2293453  , 775.2237    , 3.88        , 3           , 255         , 0           , 0
-0.178841114, 0.08490486  , -9.795093   , -0.0001420432, -0.000309468218, -0.000164780053, -0.009165998, -0.0182450712, 0.000548130949, 923.561462  , 31.2293453  , 775.2236    , 3.89        , 3           , 255         , 0           , 0
-0.178121313, 0.0891117156, -9.7889185  , -1.28632819E-05, 0.00010290154, -0.0003133376, -0.00916606747, -0.0182440709, 0.0005449878, 923.561462  , 31.2293453  , 775.22345   , 3.9         , 3           , 255         , 0           , 0
-0.179066837, 0.08480062  , -9.781138   , -0.000488168735, -0.000161614589, -2.1984466E-05, -0.009165693, -0.0182512309, 0.0005446868, 923.561462  , 31.2293453  , 775.1903    , 3.91        , 3           , 255         , 0           , 0
-0.185070187, 0.08523799  , -9.78837    , -4.37895069E-05, -1.20597251E-05, -4.05094761E-05, -0.009166123, -0.0182513557, 0.000544282841, 923.561462  , 31.2293453  , 775.189941  , 3.92        , 3           , 255         , 0           , 0
-0.183451682, 0.0919061452, -9.794194   , 0.0002799061, 0.000213023 , 6.76457639E-05, -0.009163337, -0.0182492211, 0.00054493983, 923.504456  , 31.2296162  , 775.1896    , 3.93        , 3           , 255         , 0           , 0
-0.174446419, 0.0899931043, -9.790987   , -0.000307386334, -0.000234056, -6.616008E-05, -0.009166399, -0.0182515662, 0.0005442996, 923.504456  , 31.2296162  , 775.1892    , 3.94        , 3           , 255         , 0           , 0
-0.171328038, 0.0973922238, -9.799007   , -0.0001465035, -0.000236842985, -6.985308E-05, -0.009167851, -0.0182539411, 0.000543622766, 923.504456  , 31.2296162  , 775.188843  , 3.95        , 3           , 255         , 0           , 0
-0.1810153  , 0.0977228954, -9.792627   , 5.02825424E-05, 0.000106910156, 0.0005011527, -0.009167439, -0.0182528272, 0.000548625 , 923.504456  , 31.2296162  , 775.1885    , 3.96        , 3           , 255         , 0           , 0
-0.1753972  , 0.09341349  , -9.791536   , -3.50847258E-05, -0.000345696026, -0.000619932, -0.009167676, -0.0182563365, 0.00054245675, 923.504456  , 31.2296162  , 775.1881    , 3.97        , 3           , 255         , 0           , 0
-0.172804132, 0.09814326  , -9.79445    , -0.000301078369, -9.457438E-05, -0.00033133 , -0.009170627, -0.0182573143, 0.0005391517, 923.504456  , 31.2296162  , 775.187744  , 3.98        , 3           , 255         , 0           , 0
-0.172498241, 0.09263641  , -9.791971   , -0.0004563743, -0.000232906343, 0.00046572194, -0.009175277, -0.0182596017, 0.0005438308, 923.504456  , 31.2296162  , 775.187439  , 3.99        , 3           , 255         , 0           , 0
-0.184092373, 0.07939235  , -9.79236    , -0.000192882435, -6.366134E-05, -2.984525E-05, -0.0091772005, -0.0182602387, 0.000543538132, 923.504456  , 31.2296162  , 775.187134  , 4           , 3           , 0           , 9.017237    , 400
-0.17497173 , 0.0865779743, -9.793539   , -0.00014876487, 0.000227279568, 6.87152351E-05, -0.009180842, -0.0182565767, 0.0005442436, 923.504456  , 31.2296162  , 775.2398    , 4.01        , 3           , 1           , 0           , 0
-0.181014463, 0.08930523  , -9.79376    , -0.000326013425, 0.0006040316, 0.000181055424, -0.009184133, -0.01825052 , 0.0005459989, 923.504456  , 31.2296162  , 775.2398    , 4.02        , 3           , 2           , 0           , 0
-0.183644727, 0.09299238  , -9.789378   , -9.12770047E-05, -0.00017091108, 0.000196582521, -0.009185083, -0.01825221 , 0.0005479806, 923.5233    , 31.228735   , 775.2398    , 4.03        , 3           , 3           , 0           , 0
-0.1749158  , 0.09183876  , -9.785036   , 1.77973416E-05, 0.000350492424, -0.000219482172, -0.009184863, -0.0182487275, 0.0005457534, 923.5233    , 31.228735   , 775.2398    , 4.04        , 3           , 4           , 0           , 0
-0.177514717, 0.08956407  , -9.791594   , 5.418784E-06, 0.000301913678, 0.0002196868, -0.00918485 , -0.0182456858, 0.00054792274, 923.5233    , 31.228735   , 775.2398    , 4.05        , 3           , 5           , 0           , 0
-0.175254658, 0.09559282  , -9.793649   , 0.000291605538, 3.978194E-05, -0.0004484093, -0.009181852, -0.01824533 , 0.0005434345, 923.5233    , 31.228735   , 775.2398    , 4.06        , 3           , 6           , 0           , 0
-0.1800718  , 0.08608023  , -9.788938   , 0.000325929926, -0.000386377273, -0.0006654518, -0.009178473, -0.0182492565, 0.000536814856, 923.5233    , 31.228735   , 775.2398    , 4.07        , 3           , 7           , 0           , 0
-0.183373272, 0.0891368   , -9.785504   , 8.204725E-05, -0.0005057707, -0.000535276, -0.009177555, -0.0182543639, 0.000531508 , 923.5233    , 31.228735   , 775.2398    , 4.08        , 3           , 8           , 5           , 5
-0.185851127, 0.09651588  , -9.786523   , 0.000199829941, -0.000380810583, 9.654577E-05, -0.009175576, -0.0182581637, 0.0005325085, 923.5233    , 31.228735   , 775.2398    , 4.09        , 3           , 9           , 5           , 0.1
-0.189289659, 0.09690271  , -9.786365   , 0.0003429406, 8.209207E-05, -0.000340098166, -0.009172085, -0.0182573758, 0.0005290996, 923.5233    , 31.228735   , 775.2398    , 4.1         , 3           , 10          , 0.1         , 0.1
-0.182342768, 0.09209845  , -9.79674149 , 9.389868E-05, 0.00025093797, -0.000324465072, -0.009174057, -0.018258648, 0.0005258859, 923.5233    , 31.228735   , 775.2583    , 4.11        , 3           , 11          , 0.00664661871, 0.00664661452
-0.175516859, 0.08686142  , -9.795952   , 0.000112213311, -0.0002434213, 0.000552926445, -0.009173036, -0.01826103 , 0.00053143804, 923.5233    , 31.228735   , 775.2584    , 4.12        , 3           , 12          , 0.174648076 , 0
-0.18154344 , 0.08916343  , -9.797233   , -2.51926831E-05, -0.000418604, -0.0008899574, -0.009173124, -0.0182652939, 0.0005225759, 923.550659  , 31.2279873  , 775.258545  , 4.13        , 3           , 13          , 0           , 0
-0.179059416, 0.08646133  , -9.792896   , 9.590076E-05, 0.000676474359, -0.0006075582, -0.009172053, -0.0182585865, 0.0005164377, 923.550659  , 31.2279873  , 775.258667  , 4.14        , 3           , 14          , -0.00037824118, -0.000455482455
-0.1730142  , 0.0719704852, -9.793722   , -4.123646E-05, 0.0001156237, 8.314865E-05, -0.009172481, -0.0182574224, 0.000517258653, 923.550659  , 31.2279873  , 775.2588    , 4.15        , 3           , 15          , 0           , -0.000136640418
-0.179259747, 0.08246019  , -9.799444   , 0.000293810066, -0.000142275356, -6.674956E-05, -0.009169529, -0.018258851, 0.0005166041, 923.550659  , 31.2279873  , 775.2589    , 4.16        , 3           , 16          , 0           , 1.401298E-45
-0.183021337, 0.0856796354, -9.794133   , 0.000158913128, -0.000319877465, 0.000661149155, -0.009168061, -0.01826199 , 0.0005232456, 923.550659  , 31.2279873  , 775.259033  , 4.17        , 3           , 20          , 0           , 0
-0.175016791, 0.08714215  , -9.79664    , -8.003667E-05, 9.97934258E-05, 0.0005299852, -0.009168957, -0.0182609428, 0.0005285368, 923.550659  , 31.2279873  , 775.259155  , 4.18        , 3           , 21          , 0           , 0
-0.181497231, 0.0920702443, -9.80059052 , 0.0003511331, -2.78546941E-06, -0.0003600841, -0.00916538 , -0.0182610042, 0.0005249359, 923.550659  , 31.2279873  , 775.2593    , 4.19        , 3           , 22          , 0           , 0
-0.183677554, 0.09248694  , -9.787706   , 0.000574841164, -4.99651069E-05, 9.34656637E-05, -0.00915965 , -0.0182614941, 0.00052587525, 923.550659  , 31.2279873  , 775.2594    , 4.2         , 3           , 40          , 0           , 0
-0.183516115, 0.09754344  , -9.796727   , 0.000235276326, -0.000187255326, 0.0009217572, -0.009153466, -0.0182639379, 0.000535037834, 923.550659  , 31.2279873  , 775.2364    , 4.21        , 3           , 41          , 0           , 0
-0.174098939, 0.09717042  , -9.79205    , -0.000231893675, -0.0003900543, 0.0005045853, -0.009155876, -0.01826779 , 0.0005401199, 923.550659  , 31.2279873  , 775.2364    , 4.22        , 3           , 42          , 0           , 0
-0.181515068, 0.09106882  , -9.792936   , 0.000251017569, -0.000278034422, 0.0003893657, -0.009153437, -0.0182705354, 0.000544039358, 923.567     , 31.2296829  , 775.2364    , 4.23        , 3           , 255         , 0           , 0
-0.1850104  , 0.09537955  , -9.784986   , 0.0004889982, -1.67377875E-05, 0.000511112565, -0.00914864149, -0.0182706546, 0.000549152552, 923.567     , 31.2296829  , 775.2364    , 4.24        , 3           , 255         , 0           , 0
-0.184678957, 0.10219904  , -9.792608   , -0.000243026938, 0.000518393761, -0.000466182479, -0.009150986, -0.0182655137, 0.0005444428, 923.567     , 31.2296829  , 775.2364    , 4.25        , 3           , 255         , 0           , 0
-0.184824765, 0.08971031  , -9.7936     , 0.000154748181, 0.000111885951, -0.000219235968, -0.009149398, -0.0182644147, 0.00054224  , 923.567     , 31.2296829  , 775.2364    , 4.26        , 3           , 255         , 0           , 0
-0.1861951  , 0.09639101  , -9.797875   , 0.000322353939, -0.000102291058, 7.20351E-05 , -0.009146187, -0.0182654317, 0.0005429698, 923.567     , 31.2296829  , 775.2364    , 4.27        , 3           , 255         , 0           , 0
-0.17351836 , 0.0846625   , -9.79245    , -7.194161E-05, -0.000532883452, 0.000334474957, -0.009146969, -0.01827073 , 0.0005463636, 923.567     , 31.2296829  , 775.2364    , 4.28        , 3           , 255         , 0           , 0
-0.175791055, 0.098133    , -9.799662   , 0.000137260155, -0.0002988415, 0.00021379719, -0.009145635, -0.0182736982, 0.000548529148, 923.567     , 31.2296829  , 775.2364    , 4.29        , 3           , 255         , 0           , 0
-0.1763684  , 0.0934165642, -9.793409   , 8.98542057E-05, 0.000236930791, 0.000154541442, -0.009144764, -0.0182713158, 0.000550053 , 923.567     , 31.2296829  , 775.2364    , 4.3         , 3           , 255         , 0           , 0
-0.180276   , 0.08242203  , -9.78193951 , 0.000362968451, 6.514485E-05, -0.00029972737, -0.009147883, -0.0182729159, 0.00054717384, 923.567     , 31.2296829  , 775.193848  , 4.31        , 3           , 255         , 0           , 0
-0.187667608, 0.0805279538, -9.79474449 , -2.29966536E-05, -0.000399659737, -0.000703141, -0.009147986, -0.0182769783, 0.0005401782, 923.567     , 31.2296829  , 775.1936    , 4.32        , 3           , 255         , 0           , 0
-0.186552316, 0.08905744  , -9.79326248 , 0.000359093567, -0.0002287539, 0.000434962421, -0.009144475, -0.0182792246, 0.000544549257, 923.5104    , 31.2266979  , 775.193359  , 4.33        , 3           , 255         , 0           , 0
-0.183113575, 0.09040098  , -9.785502   , 0.00047606806, -0.000125897757, 0.000271534664, -0.009139765, -0.01828046 , 0.0005472764, 923.5104    , 31.2266979  , 775.1931    , 4.34        , 3           , 255         , 0           , 0
-0.1797117  , 0.09238939  , -9.792566   , 6.37357E-05 , -0.000251532474, 0.00066423614, -0.009139248, -0.01828291 , 0.000553942344, 923.5104    , 31.2266979  , 775.1929    , 4.35        , 3           , 255         , 0           , 0
-0.1775979  , 0.08708179  , -9.795593   , -0.000332881085, -0.000517729437, 3.55379962E-05, -0.009142584, -0.0182880815, 0.000554345141, 923.5104    , 31.2266979  , 775.1926    , 4.36        , 3           , 255         , 0           , 0
-0.173759073, 0.09580979  , -9.79014    , 4.86512145E-05, -0.0003790515, 0.0002419408, -0.009142144, -0.0182918534, 0.000556799467, 923.5104    , 31.2266979  , 775.1924    , 4.37        , 3           , 255         , 0           , 0
-0.181931376, 0.09652144  , -9.787443   , -0.000519235269, 0.0002474296, 0.000110716574, -0.009147356, -0.0182893667, 0.0005578841, 923.5104    , 31.2266979  , 775.192139  , 4.38        , 3           , 255         , 0           , 0
-0.181468755, 0.09637503  , -9.788318   , -0.00032180277, 0.000115699979, -9.69041139E-05, -0.009150556, -0.0182882175, 0.000556904357, 923.5104    , 31.2266979  , 775.1919    , 4.39        , 3           , 255         , 0           , 0
-0.179928347, 0.09817822  , -9.796494   , -1.36974559E-05, -4.76630521E-05, 3.49713664E-05, -0.009150699, -0.01828869 , 0.000557258434, 923.5104    , 31.2266979  , 775.19165   , 4.4         , 3           , 255         , 0           , 0
-0.174537614, 0.09564001  , -9.789303   , -0.000166625716, -0.000109371933, 0.000395229959, -0.009154789, -0.0182934273, 0.000561264169, 923.5104    , 31.2266979  , 775.2354    , 4.41        , 3           , 255         , 0           , 0
-0.183476835, 0.09854502  , -9.795704   , -0.0007117673, 1.7968996E-06, 0.000327989517, -0.009161967, -0.0182933789, 0.0005645443, 923.5104    , 31.2266979  , 775.2355    , 4.42        , 3           , 255         , 0           , 0
-0.173327222, 0.09342559  , -9.796334   , -9.848096E-05, 5.01558825E-05, 0.000206720186, -0.00916298851, -0.01829286 , 0.00056660705, 923.5318    , 31.2284622  , 775.235535  , 4.43        , 3           , 255         , 0           , 0
-0.17850168 , 0.09198018  , -9.791903   , 8.675124E-05, -0.000226615841, 0.0004891386, -0.009162211, -0.0182950813, 0.0005715197, 923.5318    , 31.2284622  , 775.2356    , 4.44        , 3           , 255         , 0           , 0
-0.178942233, 0.0855063945, -9.79830551 , 0.0001771937, -0.000432238361, 0.000217748078, -0.009160479, -0.01829938 , 0.000573736965, 923.5318    , 31.2284622  , 775.235657  , 4.45        , 3           , 255         , 0           , 0
-0.184432909, 0.09296095  , -9.792424   , -6.10796E-05, 0.000761722564, 0.0007530111, -0.009161226, -0.0182916932, 0.000581197964, 923.5318    , 31.2284622  , 775.2357    , 4.46        , 3           , 255         , 0           , 0
-0.181700483, 0.0920741558, -9.785037   , 0.00031531867, 0.000186200283, 0.000167136983, -0.009158102, -0.01828982 , 0.000582852459, 923.5318    , 31.2284622  , 775.2358    , 4.47        , 3           , 255         , 0           , 0
-0.179408222, 0.07993807  , -9.784735   , 1.958097E-05, -0.000120903976, -4.886258E-05, -0.009157898, -0.01829103 , 0.0005823749, 923.5318    , 31.2284622  , 775.23584   , 4.48        , 3           , 255         , 0           , 0
-0.181003958, 0.08145519  , -9.790858   , 0.000123667327, -0.00020028968, 0.000463938282, -0.009156746, -0.0182929914, 0.0005870331, 923.5318    , 31.2284622  , 775.2359    , 4.49        , 3           , 255         , 0           , 0
-0.178551748, 0.0878689438, -9.790312   , -0.000263415452, -0.000261001434, -6.622898E-05, -0.00915936753, -0.0182956066, 0.00058639457, 923.5318    , 31.2284622  , 775.235962  , 4.5         , 3           , 255         , 0           , 0
-0.182125255, 0.0919547752, -9.799009   , -0.0003413706, -7.43207638E-05, 3.06266666E-05, -0.009163153, -0.0182966534, 0.0005867143, 923.5318    , 31.2284622  , 775.2431    , 4.51        , 3           , 255         , 0           , 0
-0.194129229, 0.09820726  , -9.781333   , -0.000274423481, -1.69294071E-06, 4.876352E-05, -0.009165906, -0.0182966646, 0.0005872022, 923.5318    , 31.2284622  , 775.2432    , 4.52        , 3           , 255         , 0           , 0
-0.184845418, 0.0932795256, -9.793816   , 6.760622E-05, 2.918957E-05, 0.000168457322, -0.009165261, -0.0182963572, 0.0005888842, 923.5139    , 31.22982    , 775.243347  , 4.53        , 3           , 255         , 0           , 0
-0.1804041  , 0.09211405  , -9.79449749 , -0.000197431567, -0.000412395515, -9.618583E-06, -0.009167234, -0.0183004811, 0.000588825962, 923.5139    , 31.22982    , 775.243469  , 4.54        , 3           , 255         , 0           , 0
-0.179533914, 0.09195316  , -9.788388   , -0.000236718828, 1.30353146E-05, 0.000101436839, -0.00916961953, -0.0183003433, 0.0005898392, 923.5139    , 31.22982    , 775.2436    , 4.55        , 3           , 255         , 0           , 0
-0.178569034, 0.09052481  , -9.789322   , 0.000127705658, -0.00034400454, 0.000172196043, -0.009168375, -0.0183037668, 0.0005915928, 923.5139    , 31.22982    , 775.2437    , 4.56        , 3           , 255         , 0           , 0
-0.176727846, 0.0916219056, -9.78873    , 0.000467219332, -0.00027692935, 0.0002327764, -0.009163748, -0.0183065142, 0.0005939462, 923.5139    , 31.22982    , 775.243835  , 4.57        , 3           , 255         , 0           , 0
-0.176787123, 0.0816099644, -9.79189    , 7.690146E-05, 0.000235998392, -6.211293E-05, -0.009162967, -0.0183041617, 0.000593303354, 923.5139    , 31.22982    , 775.243958  , 4.58        , 3           , 255         , 0           , 0
-0.1801616  , 0.0893078744, -9.794635   , -0.000175188034, 0.0005247931, 0.000393397 , -0.009164789, -0.0182988755, 0.0005971897, 923.5139    , 31.22982    , 775.2441    , 4.59        , 3           , 255         , 0           , 0
-0.1770231  , 0.0936239   , -9.795043   , 0.000121421821, 0.00013914649, 0.000109339984, -0.009163595, -0.018297473, 0.000598270446, 923.5139    , 31.22982    , 775.2442    , 4.6         , 3           , 255         , 0           , 0
-0.1810255  , 0.08933328  , -9.798219   , -0.000191426981, -0.0005039314, -0.0002011856, -0.009167954, -0.0183052719, 0.000596349942, 923.5139    , 31.22982    , 775.2755    , 4.61        , 3           , 255         , 0           , 0
-0.180467442, 0.0884043947, -9.798203   , -0.000379074743, 0.000225773852, 5.31574333E-05, -0.009171755, -0.01830301 , 0.0005968609, 923.5139    , 31.22982    , 775.2758    , 4.62        , 3           , 255         , 0           , 0
-0.178723559, 0.08597487  , -9.799997   , -0.000521452632, 0.00017930023, 0.000401118945, -0.009177041, -0.01830118 , 0.0006008559, 923.5432    , 31.2271061  , 775.2761    , 4.63        , 3           , 255         , 0           , 0
-0.17195794 , 0.0866900459, -9.792486   , -0.000112508045, -0.000369699934, 0.000389109424, -0.009178238, -0.01830484 , 0.000604781439, 923.5432    , 31.2271061  , 775.2764    , 4.64        , 3           , 255         , 0           , 0
-0.177937314, 0.09004252  , -9.789511   , 9.043774E-05, -0.00024880722, 9.150071E-05, -0.00917734951, -0.0183073189, 0.0006057193, 923.5432    , 31.2271061  , 775.276733  , 4.65        , 3           , 255         , 0           , 0
-0.177515835, 0.08969508  , -9.792021   , -3.159081E-05, -0.000335775461, -0.000118075128, -0.009177644, -0.0183106847, 0.0006045693, 923.5432    , 31.2271061  , 775.277039  , 4.66        , 3           , 255         , 0           , 0
-0.1799494  , 0.09409776  , -9.783142   , 0.000250267651, -0.000290768367, -0.000340289262, -0.009175081, -0.0183136258, 0.000601192645, 923.5432    , 31.2271061  , 775.277344  , 4.67        , 3           , 255         , 0           , 0
-0.193203524, 0.08966426  , -9.78430748 , -0.000118750875, -0.0002435541, -0.000668947934, -0.009176144, -0.01831612 , 0.0005945248, 923.5432    , 31.2271061  , 775.277649  , 4.68        , 3           , 255         , 0           , 0
-0.19047685 , 0.0916943848, -9.793803   , -0.0005179745, 0.0002983529, 0.000173999491, -0.009181356, -0.0183131229, 0.0005962376, 923.5432    , 31.2271061  , 775.277954  , 4.69        , 3           , 255         , 0           , 0
-0.1891017  , 0.09678704  , -9.793073   , 1.146007E-05, 0.000108859007, 0.0007518313, -0.009181378, -0.0183119625, 0.0006037467, 923.5432    , 31.2271061  , 775.278259  , 4.7         , 3           , 255         , 0           , 0
-0.182694361, 0.09432642  , -9.795714   , 0.000193017579, 7.7724806E-05, 0.000558946864, -0.009180062, -0.018315   , 0.000609338866, 923.5432    , 31.2271061  , 775.263245  , 4.71        , 3           , 255         , 0           , 0
-0.175134331, 0.0927611142, -9.79057    , -7.20512762E-05, -9.822598E-05, -4.40590375E-05, -0.009180776, -0.0183159858, 0.0006089073, 923.5432    , 31.2271061  , 775.2635    , 4.72        , 3           , 255         , 0           , 0
-0.1743068  , 0.0805089846, -9.788777   , -0.0005758458, 0.00013335055, -0.000223098, -0.009186493, -0.0183146726, 0.000606663758, 923.5326    , 31.2301579  , 775.263733  , 4.73        , 3           , 255         , 0           , 0
-0.173572868, 0.08752534  , -9.783915   , -0.0003961206, 5.074253E-05, 1.14610448E-05, -0.009190456, -0.018314166, 0.0006067738, 923.5326    , 31.2301579  , 775.264     , 4.74        , 3           , 255         , 0           , 0
-0.17993769 , 0.08334557  , -9.787791   , -0.000247391115, -0.0001778196, 0.0004995002, -0.009193021, -0.0183158964, 0.0006117857, 923.5326    , 31.2301579  , 775.2642    , 4.75        , 3           , 255         , 0           , 0
-0.173909664, 0.08650243  , -9.79252052 , -3.14022182E-05, -0.000204876153, 0.000688972534, -0.009193462, -0.018317882, 0.000618694932, 923.5326    , 31.2301579  , 775.264465  , 4.76        , 3           , 255         , 0           , 0
-0.1770126  , 0.0862038061, -9.784541   , 0.000105261133, 0.0004119337, 0.000289349351, -0.009192461, -0.0183137357, 0.000621550833, 923.5326    , 31.2301579  , 775.2647    , 4.77        , 3           , 255         , 0           , 0
-0.185798973, 0.0898672044, -9.789138   , 0.00027452872, 0.000345146633, 0.000103477752, -0.009189733, -0.0183102749, 0.000622554042, 923.5326    , 31.2301579  , 775.264954  , 4.78        , 3           , 255         , 0           , 0
-0.180758387, 0.08847548  , -9.788057   , 0.000464995246, -0.00025676607, -0.000404914346, -0.009185011, -0.0183128789, 0.0006185281, 923.5326    , 31.2301579  , 775.2652    , 4.79        , 3           , 255         , 0           , 0
-0.180081785, 0.09170014  , -9.792009   , -5.788941E-05, 0.000211362931, -0.000419780234, -0.009185513, -0.0183108039, 0.0006143105, 923.5326    , 31.2301579  , 775.265442  , 4.8         , 3           , 255         , 0           , 0
-0.179593086, 0.0904696   , -9.790026   , 0.000374020281, -0.000520663569, 0.000947693537, -0.009178593, -0.0183141269, 0.0006237747, 923.5326    , 31.2301579  , 775.2676    , 4.81        , 3           , 255         , 0           , 0
-0.186738521, 0.09152616  , -9.800486   , -0.000161042815, -0.0004998341, 0.00113393192, -0.009180413, -0.0183190163, 0.000635161 , 923.5326    , 31.2301579  , 775.2678    , 4.82        , 3           , 255         , 0           , 0
-0.183270186, 0.0877134651, -9.789167   , 2.03667441E-05, 0.000186659454, -0.000139973636, -0.00918018352, -0.018317163, 0.000633744057, 923.570068  , 31.2308369  , 775.268066  , 4.83        , 3           , 255         , 0           , 0
-0.18485269 , 0.09401043  , -9.79663849 , 3.21473344E-05, 2.074259E-06, 7.00951641E-05, -0.009179875, -0.0183171369, 0.0006344449, 923.570068  , 31.2308369  , 775.2683    , 4.84        , 3           , 255         , 0           , 0
-0.1775617  , 0.08840446  , -9.788233   , -5.962359E-05, 0.000123039965, 2.8129085E-05, -0.009180476, -0.0183159038, 0.000634714845, 923.570068  , 31.2308369  , 775.268555  , 4.85        , 3           , 255         , 0           , 0
-0.177167624, 0.0887918   , -9.78665352 , 0.000453320332, 3.23752174E-05, 0.000138754884, -0.009175968, -0.0183155667, 0.0006360996, 923.570068  , 31.2308369  , 775.2688    , 4.86        , 3           , 255         , 0           , 0
-0.182701677, 0.0908819   , -9.78422    , 0.000284300244, 0.0001721062, -0.000263835653, -0.009173078, -0.0183138717, 0.000633445161, 923.570068  , 31.2308369  , 775.269043  , 4.87        , 3           , 255         , 0           , 0
-0.18362245 , 0.105363868 , -9.78574848 , 0.000217500929, 0.0003052664, 5.431904E-05, -0.009170911, -0.0183108132, 0.0006339605, 923.570068  , 31.2308369  , 775.2693    , 4.88        , 3           , 255         , 0           , 0
-0.185981825, 0.09705511  , -9.786671   , 0.0001738501, -4.95050044E-05, -9.9337456E-05, -0.009169155, -0.018311318, 0.0006329716, 923.570068  , 31.2308369  , 775.269531  , 4.89        , 3           , 255         , 0           , 0
-0.177354217, 0.08648827  , -9.787344   , 0.000167149235, -0.000141762692, 0.000487359765, -0.00916757248, -0.0183126926, 0.00063785864, 923.570068  , 31.2308369  , 775.2698    , 4.9         , 3           , 255         , 0           , 0
-0.190489486, 0.0884191   , -9.791972   , -4.857281E-05, -0.000119828735, 0.000886402733, -0.009172005, -0.0183181949, 0.000646803761, 923.570068  , 31.2308369  , 775.21814   , 4.91        , 3           , 255         , 0           , 0
-0.190473869, 0.08975686  , -9.800461   , 0.000121510093, -6.619509E-05, 0.00151928188, -0.009171069, -0.0183187183, 0.000662004168, 923.570068  , 31.2308369  , 775.2181    , 4.92        , 3           , 255         , 0           , 0
-0.178968146, 0.0927456245, -9.78495    , 0.000285368646, -0.000277931045, 0.0005509519, -0.009168314, -0.0183214433, 0.0006675397, 923.5462    , 31.22826    , 775.218     , 4.93        , 3           , 255         , 0           , 0
-0.176622078, 0.087480925 , -9.799311   , 7.178483E-05, -0.000384296116, -0.000112371723, -0.009167576, -0.018325299, 0.000666451058, 923.5462    , 31.22826    , 775.217957  , 4.94        , 3           , 255         , 0           , 0
