Acc X       , Acc Y       , Acc Z       , Gyro X      , Gyro Y      , Gyro Z      , Euler X     , Euler Y     , Euler Z     , Pres X      , Pres Y      , Pres Z      , Time        , Status      , LowRate X   , LowRate Y   , LowRate Z    
-0.14142105 , 9.785711    , 0.127183452 , 0           , 0           , 0           , -1.58379245 , -0.0144495638, 0           , 918.0965    , 31.9733     , 824.1791    , 0           , 2           , 0           , 5.60623169  , 0
-0.1419466  , 9.803317    , 0.124250814 , 3.82215367E-05, -0.000445578131, 0.0004825928, -1.58379209 , -0.0144443726, 4.39350742E-06, 918.0965    , 31.9733     , 824.1791    , 0.01        , 3           , 1           , 0           , 0
-0.142492115, 9.797845    , 0.128217131 , -7.7778066E-05, -0.0006673607, 7.32173939E-05, -1.583793   , -0.0144435568, 1.10582805E-05, 918.0965    , 31.9733     , 824.1791    , 0.02        , 3           , 2           , 0           , 0
-0.138758063, 9.798221    , 0.127428159 , -7.58756651E-05, 1.59165938E-05, 3.86184547E-05, -1.58379376 , -0.0144431721, 1.08938857E-05, 918.1251    , 31.5266953  , 824.1791    , 0.03        , 3           , 3           , 0           , 0
-0.1499978  , 9.803259    , 0.130699843 , 0.000450883061, -1.31569686E-05, -0.000182752759, -1.58378923 , -0.0144449975, 1.10494339E-05, 918.1251    , 31.5266953  , 824.1791    , 0.04        , 3           , 4           , 0           , 0
-0.143120572, 9.800274    , 0.130063236 , 0.0004556058, -0.000552133541, -0.000754134438, -1.5837847  , -0.0144524658, 1.666869E-05, 918.1251    , 31.5266953  , 824.1791    , 0.05        , 3           , 5           , 0           , 0
-0.137229681, 9.803289    , 0.129998982 , 0.000275715545, -0.000467827776, -0.000585805043, -1.583782   , -0.0144582633, 2.142266E-05, 918.1251    , 31.5266953  , 824.1791    , 0.06        , 3           , 6           , 0           , 0
-0.13597551 , 9.788662    , 0.131024629 , -0.0002729615, 0.0001557132, 0.000151964909, -1.5837847  , -0.0144567648, 1.98457656E-05, 918.1251    , 31.5266953  , 824.1791    , 0.07        , 3           , 7           , 0           , 0
-0.138993368, 9.797545    , 0.129880026 , -0.000577590137, 0.0002512012, 0.0004557121, -1.58379042 , -0.01445224 , 1.72736472E-05, 918.1251    , 31.5266953  , 824.1791    , 0.08        , 3           , 8           , 5           , 5
-0.141123861, 9.793766    , 0.132107213 , -5.78603358E-05, -6.286008E-05, 0.0001814208, -1.5837909  , -0.0144504178, 1.78790688E-05, 918.1251    , 31.5266953  , 824.1791    , 0.09        , 3           , 9           , 5           , 0.1
-0.1304948  , 9.792403    , 0.1305727   , 0.000315686339, -0.0002579352, 0.000177341964, -1.5837878  , -0.0144486111, 2.0433954E-05, 918.1251    , 31.5266953  , 824.1791    , 0.1         , 3           , 10          , 0.1         , 0.1
-0.141222909, 9.796391    , 0.1300876   , -0.0002492221, 0.000324095774, 5.369236E-05, -1.58379662 , -0.0144433687, 1.72773689E-05, 918.1251    , 31.5266953  , 823.9204    , 0.11        , 3           , 11          , 0.0109544508, 0.0109544508
-0.14214091 , 9.79688     , 0.127248064 , -0.000960291945, -0.000208469108, -5.017937E-05, -1.58380628 , -0.0144438418, 1.936934E-05, 918.1251    , 31.5266953  , 823.9204    , 0.12        , 3           , 12          , 0.174642488 , 0
-0.143518418, 9.793573    , 0.125869676 , 1.80723146E-06, -0.00025721 , 5.06152428E-05, -1.58380628 , -0.0144433016, 2.19340054E-05, 918.078552  , 31.5677414  , 823.9204    , 0.13        , 3           , 13          , 0           , 0
-0.144183546, 9.790462    , 0.119435966 , 0.000429005828, 0.000278201 , 0.000286559953, -1.58380187 , -0.0144404732, 1.91150611E-05, 918.078552  , 31.5677414  , 823.9204    , 0.14        , 3           , 14          , -0.000650885631, -0.0005439919
-0.134623557, 9.7945385   , 0.130030036 , -0.00019747176, 0.000149543921, 0.0007503515, -1.58380389 , -0.0144329891, 1.75218665E-05, 918.078552  , 31.5677414  , 823.9205    , 0.15        , 3           , 15          , 0           , -0.000204353826
-0.141707063, 9.79598     , 0.1221354   , 0.000147709856, 9.708057E-05, -0.00023210686, -1.58380234 , -0.014435322, 1.65816E-05 , 918.078552  , 31.5677414  , 823.920532  , 0.16        , 3           , 16          , 0           , 1.401298E-45
-0.140367836, 9.802112    , 0.12355689  , 0.000143153826, -0.000146847509, 0.000241449277, -1.58380091 , -0.0144328894, 1.80187781E-05, 918.078552  , 31.5677414  , 823.9206    , 0.17        , 3           , 20          , 0           , 0
-0.132443637, 9.790927    , 0.116434552 , 4.87013021E-05, 0.000462551572, -0.000299052743, -1.58380044 , -0.0144359395, 1.34320026E-05, 918.078552  , 31.5677414  , 823.920654  , 0.18        , 3           , 21          , 0           , 0
-0.140873119, 9.790092    , 0.120095804 , 0.000506969 , -2.02781521E-05, -0.000297595863, -1.58379531 , -0.0144389132, 1.3674171E-05, 918.078552  , 31.5677414  , 823.9207    , 0.19        , 3           , 22          , 0           , 0
-0.128271416, 9.785552    , 0.11895851  , 0.000222514966, 5.83668E-05 , 8.634191E-05, -1.58379316 , -0.0144380573, 1.3078994E-05, 918.078552  , 31.5677414  , 823.9208    , 0.2         , 3           , 40          , 0           , 0
-0.129396871, 9.806038    , 0.12591584  , -0.000122510653, -0.000109515327, -0.000555217033, -1.58377945 , -0.01443443 , 1.403044E-05, 918.078552  , 31.5677414  , 824.131165  , 0.21        , 3           , 41          , 0           , 0
-0.127713591, 9.793044    , 0.127854258 , -0.000145563332, -0.000313513156, 4.37074341E-05, -1.583781   , -0.014433952, 1.716001E-05, 918.078552  , 31.5677414  , 824.1312    , 0.22        , 3           , 42          , 0           , 0
-0.1470929  , 9.783859    , 0.129444614 , -0.000291368866, -0.000113572634, 0.000481462484, -1.58378386 , -0.0144291241, 1.82325384E-05, 918.1336    , 31.5927067  , 824.1313    , 0.23        , 3           , 255         , 0           , 0
-0.14697209 , 9.799067    , 0.128305227 , -0.000199902744, -0.000524062838, 0.0005753184, -1.58378589 , -0.0144233042, 2.33986557E-05, 918.1336    , 31.5927067  , 824.131348  , 0.24        , 3           , 255         , 0           , 0
-0.132658124, 9.799859    , 0.128977031 , -0.000350316928, -5.93780424E-05, -0.00053501653, -1.58378947 , -0.0144286472, 2.40622921E-05, 918.1336    , 31.5927067  , 824.1314    , 0.25        , 3           , 255         , 0           , 0
-0.140680119, 9.796256    , 0.124047205 , -0.0006861074, 0.000162491429, 0.000247292832, -1.58379626 , -0.0144261932, 2.24048326E-05, 918.1336    , 31.5927067  , 824.1315    , 0.26        , 3           , 255         , 0           , 0
-0.141957447, 9.799948    , 0.126808017 , -0.000264446542, 0.000183071039, 4.01307334E-05, -1.583799   , -0.0144258169, 2.056947E-05, 918.1336    , 31.5927067  , 824.131531  , 0.27        , 3           , 255         , 0           , 0
-0.1321849  , 9.797122    , 0.139486909 , -0.000661617552, 0.000451203261, 5.058624E-06, -1.58380544 , -0.0144258263, 1.60567415E-05, 918.1336    , 31.5927067  , 824.1316    , 0.28        , 3           , 255         , 0           , 0
-0.129858449, 9.798718    , 0.133445635 , 2.28059944E-05, -0.000385702064, 0.000200989161, -1.58380532 , -0.0144237662, 1.98867383E-05, 918.1336    , 31.5927067  , 824.131653  , 0.29        , 3           , 255         , 0           , 0
-0.137376726, 9.791977    , 0.136237621 , -7.684104E-05, -0.000183556345, -0.000389017863, -1.58380616 , -0.0144276312, 2.17737943E-05, 918.1336    , 31.5927067  , 824.1317    , 0.3         , 3           , 255         , 0           , 0
-0.152191   , 9.797813    , 0.129820749 , -0.00016646774, -0.000106834341, 0.000181511146, -1.58381629 , -0.0144114681, 2.29385332E-05, 918.1336    , 31.5927067  , 824.0352    , 0.31        , 3           , 255         , 0           , 0
-0.149790943, 9.786519    , 0.136294618 , -0.0004066151, 0.000179955619, -0.000455121626, -1.58382022 , -0.0144160418, 2.11981769E-05, 918.1336    , 31.5927067  , 824.0353    , 0.32        , 3           , 255         , 0           , 0
-0.137353808, 9.789425    , 0.1300263   , -0.0007471336, -0.00024046161, -5.39478642E-05, -1.58382785 , -0.0144165494, 2.36100877E-05, 918.0907    , 31.606411   , 824.035339  , 0.33        , 3           , 255         , 0           , 0
-0.133525565, 9.784353    , 0.12127322  , 0.000151553308, -0.000460747571, -0.000455656031, -1.5838263  , -0.0144210467, 2.82765E-05 , 918.0907    , 31.606411   , 824.0354    , 0.34        , 3           , 255         , 0           , 0
-0.1360999  , 9.7919      , 0.111317441 , -0.000331650954, -5.468697E-05, 0.000353898038, -1.58382976 , -0.0144174993, 2.8777602E-05, 918.0907    , 31.606411   , 824.035461  , 0.35        , 3           , 255         , 0           , 0
-0.134753436, 9.788721    , 0.12912643  , -3.25987348E-05, -0.000108754553, 0.000410913955, -1.58383    , -0.0144133791, 2.981147E-05, 918.0907    , 31.606411   , 824.0355    , 0.36        , 3           , 255         , 0           , 0
-0.145999461, 9.79906     , 0.123230219 , -0.000232184888, 0.000431206223, 7.952914E-05, -1.58383238 , -0.0144126378, 2.54892238E-05, 918.0907    , 31.606411   , 824.0356    , 0.37        , 3           , 255         , 0           , 0
-0.1459761  , 9.785662    , 0.130374581 , -0.0001522713, 0.000566208 , 0.000364144973, -1.58383393 , -0.0144090718, 1.978055E-05, 918.0907    , 31.606411   , 824.035645  , 0.38        , 3           , 255         , 0           , 0
-0.142959327, 9.78426552  , 0.132370844 , 0.000121308491, -0.000376354961, -0.000322626962, -1.58383274 , -0.0144122476, 2.35863354E-05, 918.0907    , 31.606411   , 824.0357    , 0.39        , 3           , 255         , 0           , 0
-0.13883242 , 9.798685    , 0.127503619 , -3.565394E-05, -0.00061794027, 0.000256505446, -1.583833   , -0.0144096045, 2.97322986E-05, 918.0907    , 31.606411   , 824.035767  , 0.4         , 3           , 255         , 0           , 0
-0.13642782 , 9.793795    , 0.1294013   , -0.0007345255, 0.000272354 , 0.0006321691, -1.58383834 , -0.0144057041, 2.689799E-05, 918.0907    , 31.606411   , 824.0858    , 0.41        , 3           , 255         , 0           , 0
-0.130908757, 9.814555    , 0.1323848   , -0.000101056183, 0.0003737913, 0.000375062227, -1.5838393  , -0.0144020021, 2.31108388E-05, 918.0907    , 31.606411   , 824.0859    , 0.42        , 3           , 255         , 0           , 0
-0.142515361, 9.792146    , 0.132869169 , 5.544012E-05, -0.000163120974, 0.000383250415, -1.58383882 , -0.0143981483, 2.46928539E-05, 918.1125    , 31.6174011  , 824.085938  , 0.43        , 3           , 255         , 0           , 0
-0.143683568, 9.787386    , 0.133196682 , 0.0004780586, -0.0003434046, -0.000420788652, -1.583834   , -0.0144023122, 2.81814846E-05, 918.1125    , 31.6174011  , 824.086     , 0.44        , 3           , 255         , 0           , 0
-0.15152894 , 9.795069    , 0.126468882 , 0.00056829903, 9.75373259E-05, -0.000168736224, -1.58382845 , -0.0144040128, 2.722771E-05, 918.1125    , 31.6174011  , 824.08606   , 0.45        , 3           , 255         , 0           , 0
-0.139615089, 9.801696    , 0.127233118 , 8.889334E-05, -0.000252970378, -0.00034474727, -1.58382761 , -0.0144074233, 2.980309E-05, 918.1125    , 31.6174011  , 824.0861    , 0.46        , 3           , 255         , 0           , 0
-0.141180649, 9.791872    , 0.1313602   , 0.000127902313, 2.633559E-05, -0.00018470372, -1.58382618 , -0.0144092739, 2.9563249E-05, 918.1125    , 31.6174011  , 824.0862    , 0.47        , 3           , 255         , 0           , 0
-0.140395239, 9.788202    , 0.117582276 , 0.0001349054, -0.000304872927, 0.00019683312, -1.583825   , -0.014407265, 3.258664E-05, 918.1125    , 31.6174011  , 824.0863    , 0.48        , 3           , 255         , 0           , 0
-0.132956386, 9.797905    , 0.120761037 , 5.90243144E-05, -0.000307629351, 0.000377276621, -1.58382428 , -0.0144034522, 3.561328E-05, 918.1125    , 31.6174011  , 824.0864    , 0.49        , 3           , 255         , 0           , 0
-0.144249961, 9.789936    , 0.122556604 , 7.888069E-06, 0.000230343838, -0.000232429142, -1.58382428 , -0.0144058065, 3.33401549E-05, 918.1125    , 31.6174011  , 824.086548  , 0.5         , 3           , 255         , 0           , 0
-0.136991858, 9.78908     , 0.125992656 , 0.000229419733, -2.80323438E-05, -0.000222920731, -1.583821   , -0.0144057376, 3.363774E-05, 918.1125    , 31.6174011  , 824.076     , 0.51        , 3           , 255         , 0           , 0
-0.14025043 , 9.787094    , 0.123339653 , -0.000229368976, -0.0005437629, 0.000294840953, -1.58382356 , -0.0144027192, 3.90362475E-05, 918.1125    , 31.6174011  , 824.0761    , 0.52        , 3           , 255         , 0           , 0
-0.142624989, 9.800019    , 0.127478749 , 9.93688E-05 , -6.073073E-05, 0.000360445818, -1.58382249 , -0.0143991066, 3.95960269E-05, 918.0918    , 31.6272373  , 824.076233  , 0.53        , 3           , 255         , 0           , 0
-0.136698961, 9.797987    , 0.133238286 , -9.008881E-05, 0.000103063154, 0.000476730755, -1.58382332 , -0.0143943559, 3.8503E-05  , 918.0918    , 31.6272373  , 824.076355  , 0.54        , 3           , 255         , 0           , 0
-0.134761572, 9.788584    , 0.133325428 , 0.000397645315, -8.563785E-05, 0.000348385744, -1.58381939 , -0.0143908588, 3.93147347E-05, 918.0918    , 31.6272373  , 824.0765    , 0.55        , 3           , 255         , 0           , 0
-0.134835422, 9.78925     , 0.126117662 , 0.000239831221, -0.000488961639, -0.0006168129, -1.58381712 , -0.0143969627, 4.42843229E-05, 918.0918    , 31.6272373  , 824.0766    , 0.56        , 3           , 255         , 0           , 0
-0.144749328, 9.787928    , 0.123222604 , -0.0002158641, -0.000308837334, -0.000358508783, -1.58381927 , -0.0144005064, 4.74190165E-05, 918.0918    , 31.6272373  , 824.0767    , 0.57        , 3           , 255         , 0           , 0
-0.146663427, 9.794003    , 0.131991535 , -0.000522162358, -9.42014158E-05, 0.0002410579, -1.58382452 , -0.014398085, 4.832994E-05, 918.0918    , 31.6272373  , 824.076843  , 0.58        , 3           , 255         , 0           , 0
-0.139156878, 9.791448    , 0.130350873 , -1.58277689E-05, 4.500308E-05, -0.000128312764, -1.58382463 , -0.0143993739, 4.78963666E-05, 918.0918    , 31.6272373  , 824.076965  , 0.59        , 3           , 255         , 0           , 0
-0.1517764  , 9.795578    , 0.131728917 , -0.0001937885, -0.000367433182, 2.730667E-06, -1.58382666 , -0.0143992975, 5.156989E-05, 918.0918    , 31.6272373  , 824.0771    , 0.6         , 3           , 255         , 0           , 0
-0.1476257  , 9.793421    , 0.126102641 , 0.000502877461, 5.931541E-05, -0.000272928155, -1.58382559 , -0.0144016724, 5.10701866E-05, 918.0918    , 31.6272373  , 824.102539  , 0.61        , 3           , 255         , 0           , 0
-0.129294381, 9.792117    , 0.1348984   , 0.0006229022, -0.0002646239, 0.000222094561, -1.58381939 , -0.0143994167, 5.36874722E-05, 918.0918    , 31.6272373  , 824.102661  , 0.62        , 3           , 255         , 0           , 0
-0.13907522 , 9.791011    , 0.125704587 , 0.000143693353, 0.000260396133, -0.0001599404, -1.583818   , -0.01440105 , 5.11046455E-05, 918.1242    , 31.6317158  , 824.1028    , 0.63        , 3           , 255         , 0           , 0
-0.13741979 , 9.797739    , 0.127330914 , 0.000173165579, 7.907045E-05, -0.000153088666, -1.58381629 , -0.0144025916, 5.03338961E-05, 918.1242    , 31.6317158  , 824.1029    , 0.64        , 3           , 255         , 0           , 0
-0.1418352  , 9.793804    , 0.122558556 , 0.0002039498, 7.978553E-05, -0.000521459035, -1.58381426 , -0.0144078154, 4.96036664E-05, 918.1242    , 31.6317158  , 824.103     , 0.65        , 3           , 255         , 0           , 0
-0.139693528, 9.791871    , 0.123868421 , -0.000273745274, -0.000433403067, -0.000283587258, -1.583817   , -0.0144105954, 5.397435E-05, 918.1242    , 31.6317158  , 824.103149  , 0.66        , 3           , 255         , 0           , 0
-0.1450588  , 9.79457     , 0.119483814 , 0.000356723438, -0.000395175419, -0.0001115022, -1.58381343 , -0.014411659, 5.79408E-05 , 918.1242    , 31.6317158  , 824.1033    , 0.67        , 3           , 255         , 0           , 0
