Acc X       , Acc Y       , Acc Z       , Gyro X      , Gyro Y      , Gyro Z      , Euler X     , Euler Y     , Euler Z     , Pres X      , Pres Y      , Pres Z      , Time        , Status      , LowRate X   , LowRate Y   , LowRate Z    
-0.177374527, -0.0141871274, -9.783606   , 0           , 0           , 0           , 0.0014500909, -0.0181277655, -1.06153345 , 920.9303    , 30.1620541  , 798.6569    , 0           , 2           , 0           , 5.4852314   , 0
-0.205678016, -9.793495   , 0.14218159  , -0.00119436649, -0.000242602662, 0.000302434026, 0.00143806136, -0.0181301255, -1.06153023 , 920.9303    , 30.1620541  , 798.655945  , 0.01        , 7           , 1           , 0           , 0
-0.207482427, -9.791098   , 0.142023847 , -0.00146993308, -8.10884E-05, 0.0009698515, 0.00142318686, -0.0181309488, -1.06152046 , 920.9303    , 30.1620541  , 798.654     , 0.02        , 7           , 2           , 0           , 0
-0.211010009, -9.7865715  , 0.144476146 , -0.00154954579, 7.72215E-05 , 0.0003985285, 0.00140761852, -0.0181301814, -1.0615164  , 920.921143  , 29.7221     , 798.651     , 0.03        , 7           , 3           , 0           , 0
-0.2063233  , -9.795657   , 0.13641867  , -0.00176537514, 0.0001230884, 0.000276999839, 0.00138991419, -0.0181289557, -1.06151354 , 920.921143  , 29.7221     , 798.647034  , 0.04        , 7           , 4           , 0           , 0
-0.203201652, -9.808793   , 0.126164213 , -0.00172637764, 0.000645830063, 0.000483496435, 0.00137256342, -0.0181225054, -1.06150866 , 920.921143  , 29.7221     , 798.6421    , 0.05        , 7           , 5           , 0           , 0
-0.202413157, -9.799898   , 0.130863026 , -0.00153950753, -0.000137535477, -9.23758562E-05, 0.001357186 , -0.0181238782, -1.06150961 , 920.921143  , 29.7221     , 798.636169  , 0.06        , 7           , 6           , 0           , 0
-0.196469873, -9.801689   , 0.136121348 , -0.00133070245, 0.000105133367, 0.0005669593, 0.00134377566, -0.0181228351, -1.06150389 , 920.921143  , 29.7221     , 798.6292    , 0.07        , 7           , 7           , 0           , 0
-0.19686015 , -9.799497   , 0.136535645 , -0.00137762178, -4.089965E-05, 0.000324461755, 0.00132994016, -0.0181232449, -1.06150055 , 920.921143  , 29.7221     , 798.6213    , 0.08        , 7           , 8           , 5           , 5
-0.202968076, -9.790277   , 0.1336343   , -0.00126654224, -0.000201092713, 0.000330654584, 0.00131721376, -0.01812526 , -1.06149709 , 920.921143  , 29.7221     , 798.612366  , 0.09        , 7           , 9           , 5           , 0.1
-0.208261967, -9.785677   , 0.13590537  , -0.000428200234, 0.00044968797, -6.912802E-05, 0.00131294364, -0.0181207582, -1.06149769 , 920.921143  , 29.7221     , 798.6025    , 0.1         , 7           , 10          , 0.1         , 0.1
-0.200869635, -9.792763   , 0.132397547 , -0.0005384736, 0.00018233055, 3.32357E-05 , 0.0328590721, -0.0187746435, -1.06207168 , 920.921143  , 29.7221     , 798.6323    , 0.11        , 7           , 11          , 0.0109544508, 0.0109544508
-0.199285984, -9.798227   , 0.132939681 , -0.0003268154, 0.000306470436, 0.00086873665, 0.0328556374, -0.0187718645, -1.06206286 , 920.921143  , 29.7221     , 798.6205    , 0.12        , 7           , 12          , 0.0346410163, 0
-0.205610946, -9.800863   , 0.145473525 , 0.000214854779, 0.0004320221, 0.0007716167, 0.03285764  , -0.018767802, -1.06205487 , 920.9504    , 29.7590046  , 798.6077    , 0.13        , 7           , 13          , 0           , 0
-0.1970513  , -9.796892   , 0.134850666 , 0.00039474736, 2.14501051E-06, 0.000297337683, 0.0328615271, -0.0187678766, -1.06205189 , 920.9504    , 29.7590046  , 798.594     , 0.14        , 7           , 14          , -0.0006799232, -9.266945E-05
-0.195657268, -9.79330349 , 0.135449186 , 0.000395039 , 0.0002574145, -1.1121665E-06, 0.03286548  , -0.0187653024, -1.06205177 , 920.9504    , 29.7590046  , 798.5793    , 0.15        , 7           , 15          , 0           , 0.0001048102
-0.200616091, -9.784524   , 0.138638541 , 0.0002907838, 0.000146858452, 8.148374E-05, 0.03286837  , -0.0187638644, -1.06205094 , 920.9504    , 29.7590046  , 798.56366   , 0.16        , 7           , 16          , 0           , 1.401298E-45
-0.203292415, -9.786236   , 0.1384745   , 0.000237621833, 0.000259589666, -2.02614319E-05, 0.03287075  , -0.0187612623, -1.062051   , 920.9504    , 29.7590046  , 798.547058  , 0.17        , 7           , 20          , 0           , 0
-0.2015516  , -9.79706    , 0.133988291 , 0.0005028397, 0.0003068751, 0.000614848454, 0.0328756571, -0.0187583938, -1.06204486 , 920.9504    , 29.7590046  , 798.5295    , 0.18        , 7           , 21          , 0           , 0
-0.197521761, -9.79932    , 0.132096857 , 0.00013229897, 0.000746880542, 0.000464521261, 0.03287689  , -0.0187510829, -1.06204    , 920.9504    , 29.7590046  , 798.5109    , 0.19        , 7           , 22          , 0           , 0
-0.1976678  , -9.797539   , 0.133475885 , 4.33612149E-05, 0.000195711589, 0.0004747254, 0.0328772329, -0.0187492818, -1.0620352  , 920.9504    , 29.7590046  , 798.491455  , 0.2         , 7           , 40          , 0           , 0
-0.193933889, -9.79935551 , 0.132255    , -4.301424E-05, -8.961219E-05, -0.0005947728, 0.06464229  , -0.0193783082, -1.06263828 , 920.9504    , 29.7590046  , 798.368347  , 0.21        , 7           , 41          , 0           , 0
-0.197348446, -9.787901   , 0.128979936 , 0.0002754801, 0.0004881043, -0.000145521073, 0.06464505  , -0.01937334 , -1.06263947 , 920.9504    , 29.7590046  , 798.347     , 0.22        , 7           , 42          , 1           , 0
-0.202406839, -9.790505   , 0.127519339 , 0.000289711141, -0.000181553725, 3.260764E-06, 0.0646479651, -0.0193751547, -1.06263959 , 920.9637    , 29.7825451  , 798.3247    , 0.23        , 7           , 255         , 0           , 0
-0.199680477, -9.789269   , 0.1328106   , 0.000482034346, -0.000232438979, -0.000117622665, 0.0646528   , -0.0193774  , -1.06264091 , 920.9637    , 29.7825451  , 798.3015    , 0.24        , 7           , 255         , 0           , 0
-0.2031888  , -9.792825   , 0.134131238 , 0.0004745704, 2.71916724E-05, 0.000238628665, 0.0646575   , -0.01937728 , -1.06263864 , 920.9637    , 29.7825451  , 798.2774    , 0.25        , 7           , 255         , 0           , 0
-0.203236908, -9.792534   , 0.13727212  , 0.000516215 , -0.000251933874, 0.000161650518, 0.06466264  , -0.0193798952, -1.06263721 , 920.9637    , 29.7825451  , 798.2524    , 0.26        , 7           , 255         , 0           , 0
-0.200109765, -9.789862   , 0.131992877 , 0.0005016384, -4.997273E-06, -0.0006819734, 0.06466779  , -0.0193795133, -1.062644   , 920.9637    , 29.7825451  , 798.2264    , 0.27        , 7           , 255         , 0           , 0
-0.195653558, -9.78259    , 0.131272122 , 0.00106414827, 4.35345719E-05, 0.000256145315, 0.06467838  , -0.0193792488, -1.06264138 , 920.9637    , 29.7825451  , 798.199463  , 0.28        , 7           , 255         , 0           , 0
-0.189866   , -9.78669548 , 0.133292988 , 0.000596179161, 0.000232456456, 0.000539649569, 0.06468424  , -0.01937728 , -1.06263578 , 920.9637    , 29.7825451  , 798.171631  , 0.29        , 7           , 255         , 0           , 0
-0.190915748, -9.796053   , 0.1280922   , -0.0009374773, -0.000448463485, 0.00207329  , 0.06467446  , -0.0193830933, -1.06261528 , 920.9637    , 29.7825451  , 798.1429    , 0.3         , 7           , 255         , 0           , 0
-0.205940813, -9.800153   , 0.117381692 , 0.00106079353, 0.000362071267, -0.00114801875, 0.104355238 , -0.0201278627, -1.06339633 , 920.9637    , 29.7825451  , 798.091431  , 0.31        , 7           , 255         , 0           , 0
-0.199799791, -9.799884   , 0.142878249 , 0.000976359937, 0.000288411218, 0.000290224154, 0.104364924 , -0.0201252978, -1.063393   , 920.9637    , 29.7825451  , 798.0609    , 0.32        , 7           , 255         , 0           , 0
-0.1979164  , -9.789766   , 0.132006139 , -0.0001794927, 0.000104112172, 0.000618111168, 0.104363009 , -0.0201249029, -1.0633868  , 920.922058  , 29.8039169  , 798.0295    , 0.33        , 7           , 255         , 0           , 0
-0.2048715  , -9.791142   , 0.13798517  , 0.000749809144, 0.000142522913, -0.00016640118, 0.104370527 , -0.0201233122, -1.06338823 , 920.922058  , 29.8039169  , 797.9972    , 0.34        , 7           , 255         , 0           , 0
-0.211728737, -9.787958   , 0.1316915   , 4.86014178E-05, -0.00015448255, 0.000902838132, 0.104370832 , -0.0201257933, -1.06337941 , 920.922058  , 29.8039169  , 797.964     , 0.35        , 7           , 255         , 0           , 0
-0.208695129, -9.795762   , 0.131872118 , 4.27932828E-05, 0.0003297241, -0.000140879914, 0.104371272 , -0.0201223623, -1.06338048 , 920.922058  , 29.8039169  , 797.9299    , 0.36        , 7           , 255         , 0           , 0
-0.204921812, -9.79338    , 0.132276371 , 0.000165238627, 0.0007007306, 0.000294370635, 0.104372859 , -0.0201157  , -1.0633769  , 920.922058  , 29.8039169  , 797.8949    , 0.37        , 7           , 255         , 0           , 0
-0.201283857, -9.786558   , 0.11626476  , 0.000844900147, 0.000435215945, 0.0003496292, 0.104381226 , -0.02011174 , -1.063373   , 920.922058  , 29.8039169  , 797.859     , 0.38        , 7           , 255         , 0           , 0
-0.194110528, -9.777777   , 0.124682046 , 0.00136317045, 0.000157257135, -0.0004996802, 0.104394957 , -0.0201096535, -1.06337774 , 920.922058  , 29.8039169  , 797.822266  , 0.39        , 7           , 255         , 0           , 0
-0.185496375, -9.784554   , 0.14179647  , 0.00128883636, 0.000382059952, 0.000111348869, 0.1044078   , -0.0201059636, -1.06337619 , 920.922058  , 29.8039169  , 797.7846    , 0.4         , 7           , 255         , 0           , 0
-0.203860253, -9.792264   , 0.140823185 , 0.000583205 , 0.000245681731, -0.000117772885, 0.142468676 , -0.0208076835, -1.0641427  , 920.922058  , 29.8039169  , 797.894     , 0.41        , 7           , 255         , 0           , 0
-0.199703053, -9.795001   , 0.145266458 , 0.00038519752, -0.000436590461, -7.59301038E-05, 0.14247258  , -0.0208118949, -1.064144   , 920.922058  , 29.8039169  , 797.8546    , 0.42        , 7           , 255         , 0           , 0
-0.195178062, -9.786701   , 0.14246662  , -0.000313132536, 0.0001795034, -9.089104E-06, 0.142469436 , -0.0208100975, -1.06414378 , 920.9477    , 29.8100224  , 797.814453  , 0.43        , 7           , 255         , 0           , 0
-0.190368623, -9.79418    , 0.139224589 , -0.000333967037, -0.0002855581, 0.000483048061, 0.142466009 , -0.0208136085, -1.06413949 , 920.9477    , 29.8100224  , 797.773438  , 0.44        , 7           , 255         , 0           , 0
-0.192389637, -9.795676   , 0.1334851   , -0.000272885547, -0.000185428158, 0.0005094113, 0.142463192 , -0.0208161641, -1.0641346  , 920.9477    , 29.8100224  , 797.731567  , 0.45        , 7           , 255         , 0           , 0
-0.18935129 , -9.798526   , 0.128919274 , -0.0004679627, 9.199221E-05, 0.000282050431, 0.142458454 , -0.0208156612, -1.06413174 , 920.9477    , 29.8100224  , 797.688843  , 0.46        , 7           , 255         , 0           , 0
-0.199111268, -9.793997   , 0.136682749 , -3.882812E-05, -1.6805614E-05, 0.000451898522, 0.142457962 , -0.0208164621, -1.06412733 , 920.9477    , 29.8100224  , 797.645264  , 0.47        , 7           , 255         , 0           , 0
-0.191157654, -9.789417   , 0.136672288 , 9.717478E-06, -0.000192728185, 0.000104451748, 0.142458051 , -0.0208185185, -1.06412661 , 920.9477    , 29.8100224  , 797.6008    , 0.48        , 7           , 255         , 0           , 0
-0.200159937, -9.793209   , 0.141202122 , 4.06004838E-05, 0.000135469832, 7.832492E-05, 0.142458454 , -0.02081729 , -1.06412566 , 920.9477    , 29.8100224  , 797.555542  , 0.49        , 7           , 255         , 0           , 0
-0.188162789, -9.795232   , 0.136559814 , 0.0001651512, 0.000206145211, 0.000353470532, 0.142460018 , -0.02081575 , -1.06412184 , 920.9477    , 29.8100224  , 797.5094    , 0.5         , 7           , 255         , 0           , 0
-0.18716912 , -9.79749    , 0.132093281 , 0.000384984829, 0.000182583914, 0.000322504784, 0.173023015 , -0.0213383082, -1.06475341 , 920.9477    , 29.8100224  , 797.574158  , 0.51        , 7           , 255         , 0           , 0
-0.192377865, -9.795317   , 0.13079159  , 0.000748162041, 0.0005259552, 4.246356E-05, 0.173030451 , -0.0213332046, -1.0647521  , 920.9477    , 29.8100224  , 797.526367  , 0.52        , 7           , 255         , 0           , 0
-0.195201784, -9.789558   , 0.1398966   , 0.000974529 , 8.8863846E-05, -0.00016484347, 0.173040226 , -0.0213320423, -1.06475365 , 920.964539  , 29.8187733  , 797.4778    , 0.53        , 7           , 255         , 0           , 0
-0.199054867, -9.792028   , 0.137281269 , 0.0004813834, 3.37177262E-05, -0.0008401141, 0.1730452   , -0.0213302746, -1.06476176 , 920.964539  , 29.8187733  , 797.428345  , 0.54        , 7           , 255         , 0           , 0
-0.200043082, -9.789091   , 0.136546582 , 0.000383250474, 0.000586353359, -5.01955765E-05, 0.173049033 , -0.021324411, -1.06476116 , 920.964539  , 29.8187733  , 797.3781    , 0.55        , 7           , 255         , 0           , 0
-0.20140323 , -9.789683   , 0.135136634 , 0.000103739556, -9.358962E-05, 3.85859676E-05, 0.173050076 , -0.021325402, -1.06476092 , 920.964539  , 29.8187733  , 797.327     , 0.56        , 7           , 255         , 0           , 0
-0.206282184, -9.80016    , 0.129701585 , 0.000221129856, -6.13531956E-05, -0.000442286953, 0.173052356 , -0.021325253, -1.06476533 , 920.964539  , 29.8187733  , 797.275146  , 0.57        , 7           , 255         , 0           , 0
-0.202968746, -9.796408   , 0.132302359 , 0.00152680231, 0.0005895243, -0.0006382136, 0.173067749 , -0.0213183518, -1.06477058 , 920.964539  , 29.8187733  , 797.2224    , 0.58        , 7           , 255         , 0           , 0
-0.207343131, -9.794359   , 0.137650251 , 0.0001009283, 0.000483169424, -2.47855423E-05, 0.173068762 , -0.0213135444, -1.06477    , 920.964539  , 29.8187733  , 797.1689    , 0.59        , 7           , 255         , 0           , 0
-0.202377081, -9.792559   , 0.131695688 , 0.000270136516, 0.000452048233, -0.000227024866, 0.173071474 , -0.0213087015, -1.06477153 , 920.964539  , 29.8187733  , 797.1145    , 0.6         , 7           , 255         , 0           , 0
-0.209494516, -9.798548   , 0.138873309 , 0.0008351913, 0.000159941381, 0.0004405652, 0.202107012 , -0.0217998456, -1.06538451 , 920.964539  , 29.8187733  , 797.1829    , 0.61        , 7           , 255         , 0           , 0
-0.214171678, -9.80835    , 0.139998138 , 6.924232E-05, 3.830207E-05, 0.000550232769, 0.202107579 , -0.0218005758, -1.065379   , 920.964539  , 29.8187733  , 797.127     , 0.62        , 7           , 255         , 0           , 0
-0.205364659, -9.781492   , 0.135665223 , 0.000607572962, 0.000199308037, -0.000168751838, 0.202113673 , -0.021798281, -1.06538033 , 920.9569    , 29.8246078  , 797.0703    , 0.63        , 7           , 255         , 0           , 0
-0.207074448, -9.79236    , 0.141425624 , 0.000152887544, -0.0002672936, -0.000111230926, 0.202115238 , -0.0218006652, -1.065382   , 920.9569    , 29.8246078  , 797.0128    , 0.64        , 7           , 255         , 0           , 0
-0.20032385 , -9.783608   , 0.1367073   , 0.0005901187, -0.000359735, 0.000480831164, 0.202121079 , -0.0218051523, -1.065378   , 920.9569    , 29.8246078  , 796.9545    , 0.65        , 7           , 255         , 0           , 0
-0.20452857 , -9.795297   , 0.133126125 , 0.000464805722, 0.000160823955, 2.57909051E-05, 0.202125683 , -0.02180363 , -1.06537747 , 920.9569    , 29.8246078  , 796.895447  , 0.66        , 7           , 255         , 0           , 0
-0.196925819, -9.789938   , 0.134177268 , -0.0002691578, 0.0006505805, 0.000140004267, 0.202122942 , -0.02179755 , -1.06537473 , 920.9569    , 29.8246078  , 796.8356    , 0.67        , 7           , 255         , 0           , 0
-0.202081472, -9.792592   , 0.138476849 , 1.76079338E-05, 0.000865101465, -0.0001974421, 0.2021231   , -0.0217886828, -1.065375   , 920.9569    , 29.8246078  , 796.7749    , 0.68        , 7           , 255         , 0           , 0
-0.20021677 , -9.80118    , 0.139383435 , 0.000360880338, 0.0005267616, -0.000128401793, 0.202126727 , -0.02178328 , -1.06537509 , 920.9569    , 29.8246078  , 796.71344   , 0.69        , 7           , 255         , 0           , 0
-0.193641573, -9.798081   , 0.145467848 , -0.0005469251, 0.0003287415, -0.000171477091, 0.202121228 , -0.0217797235, -1.065376   , 920.9569    , 29.8246078  , 796.6512    , 0.7         , 7           , 255         , 0           , 0
-0.19424808 , -9.788208   , 0.134917378 , -0.00022723485, -6.276683E-05, -0.000593513134, 0.2291943   , -0.0222329851, -1.06597078 , 920.9569    , 29.8246078  , 796.7666    , 0.71        , 7           , 255         , 0           , 0
-0.193658918, -9.79012    , 0.124766827 , 5.256763E-05, 0.000137496681, -0.000198390509, 0.22919485  , -0.0222312119, -1.06597233 , 920.9569    , 29.8246078  , 796.702942  , 0.72        , 7           , 255         , 0           , 0
-0.200161979, -9.787752   , 0.118730709 , -0.000237626547, -0.000289432355, -0.000336020952, 0.22919254  , -0.0222332682, -1.06597638 , 920.9558    , 29.8274574  , 796.6385    , 0.73        , 7           , 255         , 0           , 0
-0.2094963  , -9.789635   , 0.117115118 , 0.000184605189, -0.000285525224, -0.000319500919, 0.229194432 , -0.0222353265, -1.06598    , 920.9558    , 29.8274574  , 796.5733    , 0.74        , 7           , 255         , 0           , 0
-0.20922105 , -9.797056   , 0.136961892 , 0.000481203664, -0.0002521494, -5.21868969E-05, 0.22919926  , -0.02223768 , -1.065981   , 920.9558    , 29.8274574  , 796.5073    , 0.75        , 7           , 255         , 0           , 0
-0.207846448, -9.794434   , 0.137056783 , 0.0003816326, 0.000180938659, 0.000139166383, 0.229203045 , -0.0222362578, -1.06597924 , 920.9558    , 29.8274574  , 796.440552  , 0.76        , 7           , 255         , 0           , 0
-0.205616325, -9.797438   , 0.143882677 , 3.38436221E-05, 9.134096E-05, 0.0007549336, 0.229203209 , -0.0222370774, -1.06597161 , 920.9558    , 29.8274574  , 796.373047  , 0.77        , 7           , 255         , 0           , 0
-0.2098693  , -9.798487   , 0.145191818 , 6.615231E-05, -0.000140139717, -0.0004592117, 0.229203984 , -0.02223739 , -1.0659765  , 920.9558    , 29.8274574  , 796.304749  , 0.78        , 7           , 255         , 0           , 0
-0.205423474, -9.795737   , 0.1394821   , 0.000215395645, -0.000307323062, -0.0004559944, 0.229206264 , -0.0222393349, -1.06598163 , 920.9558    , 29.8274574  , 796.2357    , 0.79        , 7           , 255         , 0           , 0
-0.208346725, -9.783144   , 0.124595143 , 0.0005409786, -6.75149E-05, 0.000173344873, 0.229211643 , -0.0222404  , -1.06598008 , 920.9558    , 29.8274574  , 796.1659    , 0.8         , 7           , 255         , 0           , 0
-0.2052     , -9.787345   , 0.126046434 , -0.000207663572, -6.33532545E-05, -0.00017761247, 0.258850843 , -0.0227222927, -1.0666399  , 920.9558    , 29.8274574  , 796.315247  , 0.81        , 7           , 255         , 0           , 0
-0.198895335, -9.789163   , 0.127104551 , -0.0003264901, -0.0002909048, -7.635394E-05, 0.258847564 , -0.0227249  , -1.06664133 , 920.9558    , 29.8274574  , 796.244141  , 0.82        , 7           , 255         , 0           , 0
-0.199640736, -9.799917   , 0.132008031 , 9.478384E-05, -0.000154352543, -0.000179774157, 0.2588486   , -0.0227259286, -1.0666436  , 920.9393    , 29.8324776  , 796.1723    , 0.83        , 7           , 255         , 0           , 0
-0.191015646, -9.795931   , 0.140356    , -4.458707E-05, -0.000345329667, 0.000166312268, 0.258848131 , -0.0227297079, -1.06664288 , 920.9393    , 29.8324776  , 796.099731  , 0.84        , 7           , 255         , 0           , 0
-0.197337955, -9.79989    , 0.1462166   , 0.0006875385, 0.000270670862, 0.0014244233, 0.258854717 , -0.0227307435, -1.06662822 , 920.9393    , 29.8324776  , 796.0264    , 0.85        , 7           , 255         , 0           , 0
-0.190008551, -9.793404   , 0.149686262 , 0.00142782857, 0.000222616858, 0.0004134279, 0.258868843 , -0.0227296557, -1.06662369 , 920.9393    , 29.8324776  , 795.9524    , 0.86        , 7           , 255         , 0           , 0
-0.1958547  , -9.782812   , 0.140116617 , 0.000621790066, -1.2447199E-06, 0.0006717988, 0.258874953 , -0.0227313768, -1.06661725 , 920.9393    , 29.8324776  , 795.8776    , 0.87        , 7           , 255         , 0           , 0
-0.186886847, -9.789896   , 0.127277285 , 0.0004722209, -0.000361215381, 0.000193838787, 0.258879662 , -0.0227353722, -1.06661618 , 920.9393    , 29.8324776  , 795.8021    , 0.88        , 7           , 255         , 0           , 0
-0.188759118, -9.794847   , 0.120954275 , -0.000189027225, -0.000449924817, -8.600012E-05, 0.258877784 , -0.0227395073, -1.0666182  , 920.9393    , 29.8324776  , 795.7259    , 0.89        , 7           , 255         , 0           , 0
-0.193522722, -9.78899    , 0.127425879 , 0.000394567032, -3.58343823E-06, -0.0009594053, 0.258881956 , -0.0227371  , -1.06662726 , 920.9393    , 29.8324776  , 795.6489    , 0.9         , 7           , 255         , 0           , 0
-0.195316166, -9.786549   , 0.131727591 , 0.0005342413, 0.0003178062, -0.000436276954, 0.2877709   , -0.0231540035, -1.06728482 , 920.9393    , 29.8324776  , 795.851257  , 0.91        , 7           , 255         , 0           , 0
-0.203653291, -9.791946   , 0.1494262   , 0.0007161439, 0.000255006831, -0.000266120274, 0.2877781   , -0.0231507979, -1.06728661 , 920.9393    , 29.8324776  , 795.773254  , 0.92        , 7           , 255         , 0           , 0
-0.205490828, -9.789261   , 0.135909587 , 0.000390173722, 0.000148812964, 0.000617224141, 0.287781864 , -0.02315111 , -1.06728029 , 920.9919    , 29.8304424  , 795.6945    , 0.93        , 7           , 255         , 0           , 0
-0.202638224, -9.789124   , 0.124382637 , 0.000219032692, -0.000184205739, -0.0002618198, 0.287784129 , -0.0231521539, -1.06728339 , 920.9919    , 29.8304424  , 795.615051  , 0.94        , 7           , 255         , 0           , 0
-0.2024293  , -9.790149   , 0.1260151   , -0.000170374056, -0.000440276315, 0.0005822419, 0.287782282 , -0.0231580269, -1.06727886 , 920.9919    , 29.8304424  , 795.5349    , 0.95        , 7           , 255         , 0           , 0
-0.209981844, -9.794194   , 0.145516887 , -0.000187405152, -0.000150649226, 0.000173747525, 0.2877804   , -0.0231599733, -1.06727767 , 920.9919    , 29.8304424  , 795.454041  , 0.96        , 7           , 255         , 0           , 0
-0.19976072 , -9.794461   , 0.14458023  , -8.636748E-05, 0.0002810296, 4.63178876E-05, 0.2877795   , -0.0231574159, -1.06727636 , 920.9919    , 29.8304424  , 795.372437  , 0.97        , 7           , 255         , 0           , 0
-0.195877761, -9.788921   , 0.137242585 , 0.000680835336, 0.0003728093, -0.0009745519, 0.2877865   , -0.0231510811, -1.06728458 , 920.9919    , 29.8304424  , 795.290161  , 0.98        , 7           , 255         , 0           , 0
-0.196142346, -9.800011   , 0.133559853 , 0.0005404105, 0.0002825485, -0.000559285341, 0.287792    , -0.0231467821, -1.067289   , 920.9919    , 29.8304424  , 795.207153  , 0.99        , 7           , 255         , 0           , 0
-0.192738578, -9.803614   , 0.13382256  , 0.0005501487, 4.745885E-05, -0.000940114667, 0.287797749 , -0.0231436659, -1.06729794 , 920.9919    , 29.8304424  , 795.1234    , 1           , 7           , 0           , 6.485236    , 100
-0.202406317, -9.792866   , 0.127328634 , 0.00140174944, -6.006802E-05, -0.00137849455, 0.314342231 , -0.0235251728, -1.06792307 , 920.9919    , 29.8304424  , 795.3025    , 1.01        , 7           , 1           , 0           , 0
-0.200822279, -9.800018   , 0.1352624   , 0.00101071293, 0.0007539453, -0.0004914251, 0.3143524   , -0.0235164836, -1.06792533 , 920.9919    , 29.8304424  , 795.2179    , 1.02        , 7           , 2           , 0           , 0
-0.199199826, -9.791659   , 0.138861746 , 0.000646325 , 0.000228279285, -2.99934545E-05, 0.31435883  , -0.0235142168, -1.06792486 , 920.9493    , 29.8338337  , 795.1326    , 1.03        , 7           , 3           , 0           , 0
-0.200721353, -9.788744   , 0.14797619  , 0.001106397 , -0.000107671483, -0.000449461659, 0.314369977 , -0.02351386 , -1.06792939 , 920.9493    , 29.8338337  , 795.0467    , 1.04        , 7           , 4           , 0           , 0
-0.196435243, -9.789734   , 0.152218387 , 0.00110504951, -0.000263981929, -8.300431E-05, 0.3143811   , -0.02351614 , -1.06793094 , 920.9493    , 29.8338337  , 794.96      , 1.05        , 7           , 5           , 0           , 0
-0.196950465, -9.783684   , 0.147865742 , 0.00103460182, -0.0003249253, -0.00055788795, 0.314391553 , -0.0235175267, -1.06793714 , 920.9493    , 29.8338337  , 794.8727    , 1.06        , 7           , 6           , 0           , 0
-0.193260565, -9.780428   , 0.129691243 , 0.000612642267, 0.000286350958, -0.00033675952, 0.314397722 , -0.0235137548, -1.0679394  , 920.9493    , 29.8338337  , 794.784668  , 1.07        , 7           , 7           , 0           , 0
-0.199693829, -9.782607   , 0.121025637 , 0.00193858251, 8.600199E-05, 0.000346176064, 0.314416975 , -0.0235140231, -1.06793582 , 920.9493    , 29.8338337  , 794.696     , 1.08        , 7           , 8           , 5           , 5
-0.19215253 , -9.798329   , 0.131193563 , 0.00208504312, 0.000243930117, -0.000223639479, 0.314437836 , -0.023511013, -1.06793714 , 920.9493    , 29.8338337  , 794.606567  , 1.09        , 7           , 9           , 5           , 0.1
-0.204996347, -9.79154    , 0.132521912 , 0.00105278112, 0.000350701623, -0.000191381871, 0.3144484   , -0.0235070921, -1.06793785 , 920.9493    , 29.8338337  , 794.5165    , 1.1         , 7           , 10          , 0.1         , 0.1
-0.2037073  , -9.803675   , 0.140576169 , 0.00215942273, -1.46842576E-05, -0.000536132662, 0.34581247  , -0.0239348318, -1.06867623 , 920.9493    , 29.8338337  , 794.788452  , 1.11        , 7           , 11          , 0.009334669 , 0.009334693
-0.206688672, -9.792391   , 0.147091717 , 0.000829729 , 7.206996E-05, -0.000398157, 0.345820785 , -0.0239328053, -1.06867981 , 920.9493    , 29.8338337  , 794.697937  , 1.12        , 7           , 12          , 0.03464281  , 0
-0.205931216, -9.793278   , 0.145062685 , 0.000403179933, 0.0006597123, 9.525695E-05, 0.3458248   , -0.0239269026, -1.06867671 , 920.9697    , 29.8372269  , 794.6068    , 1.13        , 7           , 13          , 0           , 0
-0.208791584, -9.789925   , 0.13145712  , 0.000124781043, 0.000201805757, -2.835667E-05, 0.34582603  , -0.0239249188, -1.06867623 , 920.9697    , 29.8372269  , 794.515     , 1.14        , 7           , 14          , -0.0008859115, -8.84128E-05
-0.209817216, -9.79807949 , 0.128711417 , 0.000487472542, 4.40234E-05 , -0.000138971489, 0.345830977 , -0.0239240248, -1.06867743 , 920.9697    , 29.8372269  , 794.422546  , 1.15        , 7           , 15          , 0           , 0.00010852977
-0.21688211 , -9.794165   , 0.12877439  , 0.000163974066, -0.000146707433, 7.3217976E-05, 0.345832616 , -0.023925649, -1.06867719 , 920.9697    , 29.8372269  , 794.3294    , 1.16        , 7           , 16          , 0           , 1.401298E-45
-0.211460829, -9.7922     , 0.1340604   , 0.000234174309, -5.724736E-05, -1.28705215E-05, 0.34583497  , -0.0239261724, -1.06867754 , 920.9697    , 29.8372269  , 794.2356    , 1.17        , 7           , 20          , 0           , 0
-0.2054226  , -9.784349   , 0.1418097   , 0.000235701969, 5.49606739E-05, -0.0005509406, 0.345837444 , -0.0239237864, -1.06868255 , 920.9697    , 29.8372269  , 794.1412    , 1.18        , 7           , 21          , 0           , 0
-0.203258187, -9.786087   , 0.1297789   , 0.000543502334, 0.000282070221, -0.000224927178, 0.345842868 , -0.0239204038, -1.06868362 , 920.9697    , 29.8372269  , 794.0461    , 1.19        , 7           , 22          , 0           , 0
-0.212712333, -9.78597    , 0.140189514 , 0.001085745 , -0.000145952479, 2.41847738E-05, 0.3458537   , -0.0239218343, -1.06868386 , 920.9697    , 29.8372269  , 793.9503    , 1.2         , 7           , 40          , 0           , 0
-0.203489155, -9.800682   , 0.131570145 , 0.000532257371, 0.0005487779, 0.0003526668, 0.371453881 , -0.0242777616, -1.06928909 , 920.9697    , 29.8372269  , 794.247437  , 1.21        , 7           , 41          , 0           , 0
-0.192569181, -9.803058   , 0.1347709   , 0.0006428779, 0.000426075858, -5.04374257E-05, 0.371460259 , -0.0242736042, -1.0692879  , 920.9697    , 29.8372269  , 794.1516    , 1.22        , 7           , 42          , 1           , 0
-0.20126164 , -9.792555   , 0.139292434 , 0.0005504362, -0.000191770087, 0.000421748176, 0.371465653 , -0.0242769271, -1.06928456 , 920.9308    , 29.8391266  , 794.0552    , 1.23        , 7           , 255         , 0           , 0
-0.202833563, -9.796152   , 0.134402186 , -0.00057766895, 3.47847163E-05, -4.12030058E-05, 0.3714599   , -0.02427648 , -1.06928492 , 920.9308    , 29.8391266  , 793.958069  , 1.24        , 7           , 255         , 0           , 0
-0.195886672, -9.802493   , 0.138812408 , -0.000435889757, 7.690522E-05, 0.000307685463, 0.371455431 , -0.0242768824, -1.06928182 , 920.9308    , 29.8391266  , 793.860352  , 1.25        , 7           , 255         , 0           , 0
-0.202716589, -9.799555   , 0.143536568 , 0.000440774922, 0.0002260376, 0.000566839 , 0.371459723 , -0.0242768377, -1.06927574 , 920.9308    , 29.8391266  , 793.762     , 1.26        , 7           , 255         , 0           , 0
-0.189100474, -9.792882   , 0.141137913 , 4.343805E-06, -0.000179995957, -4.49414147E-05, 0.371459782 , -0.0242783427, -1.06927681 , 920.9308    , 29.8391266  , 793.663     , 1.27        , 7           , 255         , 0           , 0
-0.193933144, -9.791162   , 0.1339814   , -0.0007464438, -0.00015534964, 0.000521584647, 0.371452242 , -0.0242816824, -1.0692724  , 920.9308    , 29.8391266  , 793.5634    , 1.28        , 7           , 255         , 0           , 0
-0.194933578, -9.796015   , 0.134475544 , -0.000460951182, 7.494713E-05, 0.0006163172, 0.371447474 , -0.0242832471, -1.06926632 , 920.9308    , 29.8391266  , 793.463135  , 1.29        , 7           , 255         , 0           , 0
-0.188160881, -9.79365349 , 0.137603611 , -0.000367673754, 0.000155770555, 0.001067182 , 0.3714435   , -0.024285648, -1.06925583 , 920.9308    , 29.8391266  , 793.362244  , 1.3         , 7           , 255         , 0           , 0
-0.200382739, -9.794621   , 0.14106971  , -0.000181963318, -0.000588592549, 0.00037723346, 0.3904478   , -0.0245246589, -1.06971443 , 920.9308    , 29.8391266  , 793.7535    , 1.31        , 7           , 255         , 0           , 0
-0.197821543, -9.80292    , 0.138035983 , 0.000257950276, -0.000576749444, 0.00018761275, 0.390450358 , -0.0245307256, -1.0697149  , 920.9308    , 29.8391266  , 793.653137  , 1.32        , 7           , 255         , 0           , 0
-0.2045025  , -9.788319   , 0.129833147 , -0.000378736877, -0.000241558155, -0.0007460227, 0.390446782 , -0.0245301146, -1.06972277 , 920.949     , 29.83838    , 793.5522    , 1.33        , 7           , 255         , 0           , 0
-0.195831135, -9.790136   , 0.14086321  , -6.526115E-05, -8.47697156E-05, -0.0005131798, 0.3904462   , -0.0245289523, -1.06972778 , 920.949     , 29.83838    , 793.4506    , 1.34        , 7           , 255         , 0           , 0
-0.196206048, -9.787981   , 0.132432923 , 0.000279341475, -0.000144723774, 0.0003788319, 0.390448928 , -0.0245317388, -1.06972468 , 920.949     , 29.83838    , 793.34845   , 1.35        , 7           , 255         , 0           , 0
-0.186475009, -9.793205   , 0.12788257  , 0.000654107251, 0.0001737487, 0.000734122936, 0.390455276 , -0.0245329458, -1.06971729 , 920.949     , 29.83838    , 793.245667  , 1.36        , 7           , 255         , 0           , 0
-0.199527428, -9.790739   , 0.1343122   , -1.2404169E-05, 0.00050022814, 0.0003158324, 0.390455    , -0.0245295335, -1.0697124  , 920.949     , 29.83838    , 793.1423    , 1.37        , 7           , 255         , 0           , 0
-0.199594453, -9.796598   , 0.136269778 , 0.0008346469, 0.000561394147, -1.29826512E-05, 0.390463322 , -0.0245243013, -1.06971037 , 920.949     , 29.83838    , 793.038269  , 1.38        , 7           , 255         , 0           , 0
-0.204606682, -9.801477   , 0.138056    , 0.0008982354, 0.000243835646, 0.0009253969, 0.390472054 , -0.0245255828, -1.069701   , 920.949     , 29.83838    , 792.9336    , 1.39        , 7           , 255         , 0           , 0
-0.2025692  , -9.798215   , 0.143241674 , 0.000370748865, 0.000347933674, -0.000532057835, 0.390475839 , -0.02452035 , -1.06970453 , 920.949     , 29.83838    , 792.8283    , 1.4         , 7           , 255         , 0           , 0
-0.2046643  , -9.784994   , 0.140152767 , 0.0006358567, -0.000161385455, -0.000827912241, 0.411498159 , -0.0247700661, -1.07022619 , 920.949     , 29.83838    , 793.2561    , 1.41        , 7           , 255         , 0           , 0
-0.197744966, -9.796106   , 0.132587165 , 0.0006342693, -8.109529E-05, -0.000273293932, 0.4115046   , -0.0247697383, -1.07022893 , 920.949     , 29.83838    , 793.151855  , 1.42        , 7           , 255         , 0           , 0
-0.194465563, -9.783996   , 0.137899563 , 0.0006434736, 7.27194856E-05, -0.000317102065, 0.411511064 , -0.024767844, -1.07023156 , 920.939758  , 29.8421116  , 793.047058  , 1.43        , 7           , 255         , 0           , 0
-0.1989333  , -9.786667   , 0.142271712 , 0.0006171144, 0.000131834386, -0.000278963067, 0.4115173   , -0.0247655045, -1.07023358 , 920.939758  , 29.8421116  , 792.94165   , 1.44        , 7           , 255         , 0           , 0
-0.193670377, -9.789213   , 0.1353412   , 0.000925006461, -0.0003227615, -5.94789E-05, 0.411526561 , -0.0247682184, -1.07023537 , 920.939758  , 29.8421116  , 792.835632  , 1.45        , 7           , 255         , 0           , 0
-0.192677751, -9.785539   , 0.139006719 , 0.000552007463, -0.000508083845, -0.000150566062, 0.411532134 , -0.0247722715, -1.07023883 , 920.939758  , 29.8421116  , 792.729     , 1.46        , 7           , 255         , 0           , 0
-0.187877014, -9.790648   , 0.140173271 , 0.0008596637, -9.846855E-05, 0.000156266862, 0.411540747 , -0.0247738212, -1.07023776 , 920.939758  , 29.8421116  , 792.621765  , 1.47        , 7           , 255         , 0           , 0
-0.181091428, -9.793205   , 0.147676155 , 0.0006546049, 0.0001862728, 0.000164915415, 0.4115472   , -0.0247727633, -1.07023549 , 920.939758  , 29.8421116  , 792.5139    , 1.48        , 7           , 255         , 0           , 0
-0.187633365, -9.788049   , 0.141441539 , -0.0001463237, 0.000457064918, -0.000245072646, 0.411545753 , -0.02476759 , -1.07023585 , 920.939758  , 29.8421116  , 792.4055    , 1.49        , 7           , 255         , 0           , 0
-0.184153363, -9.794236   , 0.142014578 , 9.080395E-06, -6.51757E-05, -0.000201150688, 0.4115459   , -0.0247673821, -1.070238   , 920.939758  , 29.8421116  , 792.2965    , 1.5         , 7           , 255         , 0           , 0
-0.185964018, -9.796442   , 0.13853994  , -6.53509051E-06, -0.000265376875, -0.0003099694, 0.440704346 , -0.0250797924, -1.07095933 , 920.939758  , 29.8421116  , 792.7967    , 1.51        , 7           , 255         , 0           , 0
-0.1814296  , -9.798426   , 0.137781233 , -0.000325293629, 0.0001434375, -0.000189250131, 0.440701157 , -0.0250776764, -1.07096052 , 920.939758  , 29.8421116  , 792.6894    , 1.52        , 7           , 255         , 0           , 0
-0.1843532  , -9.793945   , 0.136404276 , -9.167893E-05, 0.000222043949, 0.000260287226, 0.440700144 , -0.0250767823, -1.07095718 , 920.953247  , 29.8414326  , 792.5815    , 1.53        , 7           , 255         , 0           , 0
-0.179513291, -9.793634   , 0.131803349 , 0.0001364954, 0.0005387387, 0.000697720854, 0.440701276 , -0.02507489 , -1.0709486  , 920.953247  , 29.8414326  , 792.473     , 1.54        , 7           , 255         , 0           , 0
-0.19019711 , -9.800987   , 0.1322237   , 0.0007106985, 0.000485344761, 0.000189340179, 0.44070822  , -0.0250713117, -1.07094479 , 920.953247  , 29.8414326  , 792.364     , 1.55        , 7           , 255         , 0           , 0
-0.191090122, -9.79335    , 0.133226514 , 0.00181873713, 0.000102136226, -0.000123716236, 0.440726459 , -0.0250698812, -1.07094538 , 920.953247  , 29.8414326  , 792.2544    , 1.56        , 7           , 255         , 0           , 0
-0.1896458  , -9.78953552 , 0.131651431 , 0.00177904684, 0.000497511937, -0.000179577459, 0.440744221 , -0.02506462 , -1.07094491 , 920.953247  , 29.8414326  , 792.1442    , 1.57        , 7           , 255         , 0           , 0
-0.1919351  , -9.788938   , 0.1380688   , 0.00134755  , 0.000357591838, -0.000407006737, 0.440757722 , -0.0250596553, -1.07094717 , 920.953247  , 29.8414326  , 792.0335    , 1.58        , 7           , 255         , 0           , 0
-0.196804717, -9.795926   , 0.1445512   , -5.26449876E-05, 0.000405055616, -0.000292408047, 0.440757215 , -0.025054751, -1.070948   , 920.953247  , 29.8414326  , 791.9222    , 1.59        , 7           , 255         , 0           , 0
-0.203251511, -9.804984   , 0.1442699   , -0.0008975187, 0.000156875 , 0.0006312163, 0.440748066 , -0.0250560176, -1.07094169 , 920.953247  , 29.8414326  , 791.8103    , 1.6         , 7           , 255         , 0           , 0
-0.200104669, -9.798024   , 0.132644862 , -0.00142526824, -0.000105495405, 2.252149E-05, 0.459170341 , -0.0252358429, -1.0714016  , 920.953247  , 29.8414326  , 792.361267  , 1.61        , 7           , 255         , 0           , 0
-0.202306554, -9.806996   , 0.120108351 , -0.00108172616, -0.000398969161, -0.0004939927, 0.459159672 , -0.0252372436, -1.07140779 , 920.953247  , 29.8414326  , 792.251648  , 1.62        , 7           , 255         , 0           , 0
-0.20042479 , -9.80092049 , 0.122940496 , 0.000263515627, 0.0003644487, -0.000107212545, 0.459162265 , -0.0252335034, -1.07140708 , 920.936035  , 29.8397369  , 792.1415    , 1.63        , 7           , 255         , 0           , 0
-0.204081386, -9.803438   , 0.12461672  , 0.000931301969, 9.506551E-05, 0.000129003165, 0.459171563 , -0.0252332352, -1.07140553 , 920.936035  , 29.8397369  , 792.030762  , 1.64        , 7           , 255         , 0           , 0
-0.2180798  , -9.799414   , 0.132129639 , 0.0008402823, -0.000591702759, 0.0006854577, 0.459179878 , -0.0252415519, -1.07140207 , 920.936035  , 29.8397369  , 791.9195    , 1.65        , 7           , 255         , 0           , 0
-0.232697532, -9.795188   , 0.12221577  , 0.00137601711, -0.000263711845, 0.000605486 , 0.459193468 , -0.0252465755, -1.07139778 , 920.936035  , 29.8397369  , 791.8077    , 1.66        , 7           , 255         , 0           , 0
-0.227272585, -9.79097748 , 0.129383057 , 0.00218638126, -0.000184584453, 0.000168391416, 0.459215373 , -0.02524899 , -1.07139719 , 920.936035  , 29.8397369  , 791.695251  , 1.67        , 7           , 255         , 0           , 0
-0.218744278, -9.788106   , 0.128457159 , 0.00369055849, 0.000135880051, 0.000384826184, 0.459252179 , -0.0252494365, -1.07139313 , 920.936035  , 29.8397369  , 791.5823    , 1.68        , 7           , 255         , 0           , 0
-0.216564447, -9.792604   , 0.129724458 , 0.00342519162, -5.8367732E-05, -0.000340580067, 0.459286481 , -0.0252484679, -1.07139647 , 920.936035  , 29.8397369  , 791.46875   , 1.69        , 7           , 255         , 0           , 0
-0.220597312, -9.799699   , 0.151366457 , 0.00260248221, -2.13949534E-05, -0.000587348943, 0.459312618 , -0.0252460688, -1.07140172 , 920.936035  , 29.8397369  , 791.3547    , 1.7         , 7           , 255         , 0           , 0
-0.224458173, -9.800882   , 0.138292834 , 0.00180730631, -2.21850933E-05, -0.0009313741, 0.47524038  , -0.0254331678, -1.07181084 , 920.936035  , 29.8397369  , 791.9937    , 1.71        , 7           , 255         , 0           , 0
-0.215466529, -9.797565   , 0.129358381 , 0.00154917547, -2.31840531E-05, -0.00107221748, 0.475256056 , -0.0254285019, -1.0718205  , 920.936035  , 29.8397369  , 791.8827    , 1.72        , 7           , 255         , 0           , 0
-0.210940212, -9.794191   , 0.126251027 , 0.00145023421, 0.000341208943, -0.000175869238, 0.475270569 , -0.0254246425, -1.07182038 , 920.9148    , 29.8419075  , 791.7711    , 1.73        , 7           , 255         , 0           , 0
-0.200701267, -9.791296   , 0.133087665 , 0.00275300816, 0.000148279621, -6.56089251E-05, 0.475298047 , -0.0254230164, -1.07182038 , 920.9148    , 29.8419075  , 791.659     , 1.74        , 7           , 255         , 0           , 0
-0.200177714, -9.78833    , 0.119788647 , 0.00340123288, -0.00028044777, -0.0008730179, 0.47533226  , -0.0254214965, -1.07182932 , 920.9148    , 29.8419075  , 791.5463    , 1.75        , 7           , 255         , 0           , 0
-0.185505882, -9.794077   , 0.136295423 , 0.00373478467, -0.000310011266, -0.00133719551, 0.47536996  , -0.0254181419, -1.07184243 , 920.9148    , 29.8419075  , 791.4331    , 1.76        , 7           , 255         , 0           , 0
-0.189323485, -9.798052   , 0.125204027 , 0.00571382325, -0.00041783147, -0.0005793655, 0.47542727  , -0.0254191719, -1.0718497  , 920.9148    , 29.8419075  , 791.319336  , 1.77        , 7           , 255         , 0           , 0
-0.182334453, -9.796112   , 0.13306877  , 0.0107626738, -0.000436725328, -0.00145688525, 0.4755353   , -0.0254163686, -1.07186472 , 920.9148    , 29.8419075  , 791.205     , 1.78        , 7           , 255         , 0           , 0
-0.1786525  , -9.817647   , 0.01703373  , 0.0231197551, 5.482405E-05, -0.0008165929, 0.475766659 , -0.0254121646, -1.07187164 , 920.9148    , 29.8419075  , 791.0902    , 1.79        , 7           , 255         , 0           , 0
-0.188504964, -9.865416   , -0.127115861, 0.07203609  , -1.46393359E-05, -0.00217464357, 0.476487547 , -0.025402328, -1.07189107 , 920.9148    , 29.8419075  , 790.974854  , 1.8         , 7           , 255         , 0           , 0
-0.1946729  , -9.84189    , -0.0389230363, 0.127785578 , -8.194584E-06, -0.004697766, 0.489748746 , -0.0254954752, -1.072236   , 920.9148    , 29.8419075  , 791.7051    , 1.81        , 7           , 255         , 0           , 0
-0.175839081, -9.802243   , 0.195564076 , 0.148607582 , 2.2234919E-05, -0.00675911829, 0.491236359 , -0.0254634563, -1.07229555 , 920.9148    , 29.8419075  , 791.593567  , 1.82        , 7           , 255         , 0           , 0
-0.163359553, -9.705041   , 0.5465392   , 0.108948179 , -0.000252026628, -0.0034322436, 0.4923266   , -0.0254494455, -1.072327   , 920.9449    , 29.8417721  , 791.481445  , 1.83        , 7           , 255         , 0           , 0
-0.159405142, -9.676152   , 0.6775836   , 0.0109976744, 0.000147059429, 0.000118073069, 0.4924365   , -0.0254487451, -1.07232523 , 920.9449    , 29.8417721  , 791.3688    , 1.84        , 7           , 255         , 0           , 0
-0.1589922  , -9.723948   , 0.49777022  , -0.07310789 , 0.000142367935, 0.00268249679, 0.491704822 , -0.0254601333, -1.07230091 , 920.9449    , 29.8417721  , 791.255554  , 1.85        , 7           , 255         , 0           , 0
-0.168771386, -9.737967   , 0.434312344 , -0.12678732 , 0.0003716558, 0.00556904  , 0.4904357   , -0.0254831184, -1.07225    , 920.9449    , 29.8417721  , 791.1418    , 1.86        , 7           , 255         , 0           , 0
-0.191322282, -9.755283   , 0.316828281 , -0.1723059  , 0.000509444159, 0.005866998 , 0.4887112   , -0.0255062524, -1.07219577 , 920.9449    , 29.8417721  , 791.027466  , 1.87        , 7           , 255         , 0           , 0
-0.2065775  , -9.964707   , -0.5906064  , -0.11913272 , 0.000825930154, 0.00282860384, 0.487519234 , -0.02551217 , -1.07216692 , 920.9449    , 29.8417721  , 790.912659  , 1.88        , 7           , 255         , 0           , 0
-0.200542733, -9.821765   , 0.00379484287, -0.002520639, 0.000409561442, 0.000667230051, 0.487493783 , -0.0255116932, -1.072159   , 920.9449    , 29.8417721  , 790.797363  , 1.89        , 7           , 255         , 0           , 0
-0.195929483, -9.794151   , 0.122924671 , 0.00212266878, 0.0002839669, 0.0007867464, 0.487514764 , -0.0255128257, -1.07215071 , 920.9449    , 29.8417721  , 790.6815    , 1.9         , 7           , 255         , 0           , 0
-0.199183062, -9.7931     , 0.107754514 , 0.005386994 , 1.38282558E-05, 0.000596310943, 0.537159741 , -0.0258960612, -1.07339227 , 920.9449    , 29.8417721  , 791.4389    , 1.91        , 7           , 255         , 0           , 0
-0.204524443, -9.807602   , 0.125129476 , 0.008396426 , 0.000118946351, 0.0006440248, 0.5372435   , -0.0258983113, -1.07338607 , 920.9449    , 29.8417721  , 791.3273    , 1.92        , 7           , 255         , 0           , 0
-0.203544259, -9.811054   , 0.009584608 , 0.0192307681, 0.0005127313, 3.56838282E-05, 0.5374358   , -0.0258940924, -1.07338333 , 920.9439    , 29.8429928  , 791.215149  , 1.93        , 7           , 255         , 0           , 0
-0.218003586, -9.857796   , -0.09556883 , 0.06354782  , 0.000399518234, -0.000783862663, 0.538071334 , -0.0258866549, -1.07338786 , 920.9439    , 29.8429928  , 791.1026    , 1.94        , 7           , 255         , 0           , 0
-0.220912859, -9.810884   , 0.09690241  , 0.09647532  , 0.000390618516, -0.00311975437, 0.539036751 , -0.0258673076, -1.07341266 , 920.9439    , 29.8429928  , 790.989563  , 1.95        , 7           , 255         , 0           , 0
-0.209378883, -9.735048   , 0.407515347 , 0.0747830644, 0.00047200144, -0.00175362173, 0.5397849   , -0.0258542635, -1.07342529 , 920.9439    , 29.8429928  , 790.876038  , 1.96        , 7           , 255         , 0           , 0
-0.190548733, -9.637304   , 0.77858007  , -0.0163664445, 0.0001852463, 0.00240470213, 0.5396206   , -0.02586507 , -1.07340372 , 920.9439    , 29.8429928  , 790.761963  , 1.97        , 7           , 255         , 0           , 0
-0.193583935, -9.679635   , 0.6486017   , -0.153297752, 0.00100992725, 0.005367031 , 0.538086355 , -0.0258838981, -1.07335258 , 920.9439    , 29.8429928  , 790.647339  , 1.98        , 7           , 255         , 0           , 0
-0.223646134, -9.993932   , -0.718162656, -0.09846532 , 0.00347844954, 0.003646668 , 0.5371005   , -0.0258726887, -1.07330334 , 920.9439    , 29.8429928  , 790.5323    , 1.99        , 7           , 255         , 0           , 0
-0.206086829, -9.805779   , 0.0798744   , -0.00363574 , 0.000712212932, 0.00124567957, 0.5370637   , -0.0258729421, -1.073289   , 920.9439    , 29.8429928  , 790.416748  , 2           , 7           , 0           , 7.485236    , 200
-0.207190365, -9.79611    , 0.138984054 , -0.00184064824, 0.0004950007, 0.0007174659, 0.5547193   , -0.0260389373, -1.07373583 , 920.9439    , 29.8429928  , 791.236633  , 2.01        , 7           , 1           , 0           , 0
-0.205083773, -9.781884   , 0.136425525 , 0.000151307322, 0.0002788731, 0.000515415042, 0.5547207   , -0.02603928 , -1.07373    , 920.9439    , 29.8429928  , 791.1259    , 2.02        , 7           , 2           , 0           , 0
-0.196937531, -9.800442   , 0.135140315 , 0.00127911824, 0.000120018682, 0.0004068844, 0.554733336 , -0.0260404125, -1.07372582 , 920.9661    , 29.8434677  , 791.0147    , 2.03        , 7           , 3           , 0           , 0
-0.196200013, -9.796255   , 0.133437723 , 0.00156978169, 0.0003400054, 0.0002199346, 0.554749    , -0.02603864 , -1.07372224 , 920.9661    , 29.8434677  , 790.903     , 2.04        , 7           , 4           , 0           , 0
-0.205381662, -9.80726051 , 0.1393652   , 0.00221752352, 0.00100715458, 0.000386639964, 0.5547709   , -0.0260321237, -1.07371366 , 920.9661    , 29.8434677  , 790.790833  , 2.05        , 7           , 5           , 0           , 0
-0.196880788, -9.789647   , 0.13741082  , 0.00186851819, 0.000204957585, -0.00080294034, 0.5547897   , -0.0260261316, -1.07371938 , 920.9661    , 29.8434677  , 790.6782    , 2.06        , 7           , 6           , 0           , 0
-0.192346841, -9.789919   , 0.144292355 , 0.0006195744, 0.000174875342, -0.00103640964, 0.5547961   , -0.0260191858, -1.07372725 , 920.9661    , 29.8434677  , 790.5651    , 2.07        , 7           , 7           , 0           , 0
-0.190766364, -9.79105    , 0.1443046   , 0.000310695963, 0.000177269321, -0.000339215854, 0.554799259 , -0.0260158926, -1.07372916 , 920.9661    , 29.8434677  , 790.451538  , 2.08        , 7           , 8           , 5           , 5
-0.192610651, -9.790268   , 0.142768651 , 0.000445844722, -0.000126584928, -0.000599606, 0.554803848 , -0.02601379 , -1.073735   , 920.9661    , 29.8434677  , 790.337463  , 2.09        , 7           , 9           , 5           , 0.1
-0.204235286, -9.799059   , 0.145845413 , -0.0009650574, -2.85691713E-05, -0.000295224658, 0.554794252 , -0.0260124635, -1.07373774 , 920.9661    , 29.8434677  , 790.222961  , 2.1         , 7           , 10          , 0.1         , 0.1
-0.197025269, -9.798217   , 0.137634963 , -0.00108676916, -9.385047E-06, 1.80018033E-05, 0.5712046   , -0.0261421185, -1.07416284 , 920.9661    , 29.8434677  , 791.0702    , 2.11        , 7           , 11          , 0.008193831 , 0.00819406752
-0.1913031  , -9.780744   , 0.139496326 , -0.0009889342, -6.4904234E-06, -7.169891E-05, 0.5711947   , -0.0261417739, -1.07416344 , 920.9661    , 29.8434677  , 790.960754  , 2.12        , 7           , 12          , 0.0346479751, 0
-0.1938795  , -9.79168    , 0.13303259  , -0.000361389248, 0.000145853672, 0.000128587126, 0.571191    , -0.0261412375, -1.07416165 , 920.975159  , 29.8434677  , 790.8508    , 2.13        , 7           , 13          , 0           , 0
-0.187250942, -9.790773   , 0.137755945 , -3.14111821E-06, 0.00041071212, 0.0002080414, 0.571190953 , -0.026138898, -1.0741576  , 920.975159  , 29.8434677  , 790.7405    , 2.14        , 7           , 14          , -0.00136229955, -7.873211E-05
-0.1996891  , -9.7916     , 0.136447608 , 0.0003748776, -0.000242379057, 0.000251615 , 0.5711946   , -0.0261423122, -1.07415676 , 920.975159  , 29.8434677  , 790.629639  , 2.15        , 7           , 15          , 0           , 0.000117160547
-0.193334579, -9.795064   , 0.142351761 , 7.155351E-05, -0.000508166268, 0.0007658872, 0.571195245 , -0.0261507034, -1.07415318 , 920.975159  , 29.8434677  , 790.5184    , 2.16        , 7           , 16          , 0           , 1.401298E-45
-0.197220832, -9.793745   , 0.149536416 , 0.0009308258, -0.00012022908, 0.00022767522, 0.5712045   , -0.02615291 , -1.07415187 , 920.975159  , 29.8434677  , 790.4066    , 2.17        , 7           , 20          , 0           , 0
-0.193007469, -9.783463   , 0.141334459 , 0.000862938061, 0.000379864738, 0.000188909733, 0.571213    , -0.026150763, -1.07414818 , 920.975159  , 29.8434677  , 790.294434  , 2.18        , 7           , 21          , 0           , 0
-0.186729535, -9.797499   , 0.1369789   , 0.000882708759, 0.000139879237, 0.000529511832, 0.57122165  , -0.026152432, -1.07414293 , 920.975159  , 29.8434677  , 790.181763  , 2.19        , 7           , 22          , 0           , 0
-0.1903438  , -9.795672   , 0.141488284 , 0.00085226947, 0.000169968262, -0.0005971052, 0.5712303   , -0.0261477828, -1.07414711 , 920.975159  , 29.8434677  , 790.068665  , 2.2         , 7           , 40          , 0           , 0
-0.198862031, -9.798741   , 0.138939142 , 0.000574418053, 0.00047981253, -0.000122617421, 0.5898749   , -0.02626973 , -1.07463014 , 920.975159  , 29.8434677  , 790.953369  , 2.21        , 7           , 41          , 0           , 0
-0.193040878, -9.796363   , 0.1330951   , 0.00106086838, 0.0005113933, -1.47942847E-05, 0.5898854   , -0.0262653623, -1.0746274  , 920.975159  , 29.8434677  , 790.8457    , 2.22        , 7           , 42          , 1           , 0
-0.202661678, -9.793722   , 0.136673644 , 0.00125943648, 0.000283978879, -2.397618E-05, 0.589898    , -0.0262629036, -1.07462609 , 920.9862    , 29.8449612  , 790.7376    , 2.23        , 7           , 255         , 0           , 0
-0.193807   , -9.784416   , 0.126005352 , 0.0013389698, 0.000130558066, -0.000185807468, 0.589911342 , -0.0262607858, -1.07462692 , 920.9862    , 29.8449612  , 790.629     , 2.24        , 7           , 255         , 0           , 0
-0.201043367, -9.787462   , 0.130699545 , 0.00170625816, 2.54236729E-05, 0.000142806341, 0.5899284   , -0.026261339, -1.07462561 , 920.9862    , 29.8449612  , 790.52      , 2.25        , 7           , 255         , 0           , 0
-0.209281236, -9.801844   , 0.141876027 , 0.00162399106, 0.0002713801, -6.36222248E-05, 0.5899446   , -0.02625876 , -1.07462454 , 920.9862    , 29.8449612  , 790.4106    , 2.26        , 7           , 255         , 0           , 0
-0.206650257, -9.803375   , 0.138168663 , 0.00155340426, 0.000370150869, -9.216051E-05, 0.5899601   , -0.0262551513, -1.07462335 , 920.9862    , 29.8449612  , 790.300659  , 2.27        , 7           , 255         , 0           , 0
-0.21062167 , -9.791347   , 0.135304958 , 0.00159771  , 0.000768512546, -0.0006048718, 0.589976132 , -0.0262453742, -1.07462406 , 920.9862    , 29.8449612  , 790.1903    , 2.28        , 7           , 255         , 0           , 0
-0.205004975, -9.786884   , 0.137362584 , 0.00165687676, 0.0003714508, -0.0005097989, 0.5899927   , -0.02623944 , -1.07462633 , 920.9862    , 29.8449612  , 790.0795    , 2.29        , 7           , 255         , 0           , 0
-0.209231332, -9.791861   , 0.141227692 , 0.00112641742, 0.000291610952, 8.685286E-05, 0.590003848 , -0.0262374878, -1.074624   , 920.9862    , 29.8449612  , 789.9683    , 2.3         , 7           , 255         , 0           , 0
-0.205899715, -9.789055   , 0.143491983 , 0.00119192945, 0.000311726122, 0.00018430996, 0.6059729   , -0.0263560228, -1.0750376  , 920.9862    , 29.8449612  , 790.879639  , 2.31        , 7           , 255         , 0           , 0
-0.208126932, -9.796994   , 0.143462539 , 0.00114783063, 7.61570845E-05, 0.0008136817, 0.605984151 , -0.0263600331, -1.07503045 , 920.9862    , 29.8449612  , 790.7741    , 2.32        , 7           , 255         , 0           , 0
-0.2034924  , -9.797516   , 0.145865351 , 0.001305255 , -0.000150757958, 0.0003202629, 0.605997145 , -0.0263631027, -1.07502866 , 920.9358    , 29.84686    , 790.668152  , 2.33        , 7           , 255         , 0           , 0
-0.1961726  , -9.804547   , 0.143101022 , 0.000954945048, 0.000462037162, 0.000312348071, 0.6060065   , -0.0263610762, -1.07502341 , 920.9358    , 29.84686    , 790.561768  , 2.34        , 7           , 255         , 0           , 0
-0.191724777, -9.792919   , 0.139750868 , 0.0002040274, 0.000196329711, 0.00029774048, 0.60600847  , -0.02636118 , -1.07501984 , 920.9358    , 29.84686    , 790.4549    , 2.35        , 7           , 255         , 0           , 0
-0.189558   , -9.791721   , 0.136719227 , 0.0007693287, 0.000498985231, 6.07781549E-05, 0.60601604  , -0.0263573937, -1.0750165  , 920.9358    , 29.84686    , 790.3476    , 2.36        , 7           , 255         , 0           , 0
-0.186320543, -9.789711   , 0.1458756   , 0.00113069743, 0.000297876715, 0.000818559958, 0.6060272   , -0.0263595711, -1.07500815 , 920.9358    , 29.84686    , 790.239868  , 2.37        , 7           , 255         , 0           , 0
-0.172563732, -9.802224   , 0.1444402   , 0.001141602 , -0.000338938669, 0.000584395835, 0.606038451 , -0.0263656527, -1.07500529 , 920.9358    , 29.84686    , 790.1317    , 2.38        , 7           , 255         , 0           , 0
-0.176931649, -9.787701   , 0.139520183 , 0.0007397717, -5.00012975E-05, 0.000803491159, 0.6060458   , -0.0263706017, -1.074999   , 920.9358    , 29.84686    , 790.023132  , 2.39        , 7           , 255         , 0           , 0
-0.181578472, -9.801606   , 0.129636616 , 0.0009176086, -8.909454E-05, 0.00076227315, 0.6060547   , -0.0263756551, -1.07499313 , 920.9358    , 29.84686    , 789.9141    , 2.4         , 7           , 255         , 0           , 0
-0.179063156, -9.796982   , 0.132854372 , 0.0015160538, 0.000297074323, -0.000188742488, 0.620187163 , -0.0264528543, -1.07536364 , 920.9358    , 29.84686    , 790.925232  , 2.41        , 7           , 255         , 0           , 0
-0.195321128, -9.79334    , 0.143605232 , 0.00262137153, 0.0003259256, -0.0007977794, 0.6202135   , -0.02644561 , -1.07536817 , 920.9358    , 29.84686    , 790.8226    , 2.42        , 7           , 255         , 0           , 0
-0.196545035, -9.777645   , 0.139961839 , 0.00204724167, 9.76001E-05 , -8.525E-05  , 0.620233953 , -0.0264443289, -1.07536829 , 920.9513    , 29.8476734  , 790.719543  , 2.43        , 7           , 255         , 0           , 0
-0.19447282 , -9.785194   , 0.142282173 , 0.000565475959, 0.0004996459, 0.0001234124, 0.620239556 , -0.0264409445, -1.07536435 , 920.9513    , 29.8476734  , 790.6161    , 2.44        , 7           , 255         , 0           , 0
-0.188511178, -9.797188   , 0.138154581 , 0.0005924554, 0.00025122345, -0.000175463792, 0.6202454   , -0.0264379028, -1.07536435 , 920.9513    , 29.8476734  , 790.5122    , 2.45        , 7           , 255         , 0           , 0
-0.194583222, -9.810095   , 0.138421774 , 0.000700066041, 0.000251735037, 0.0005886124, 0.620252132 , -0.02643932 , -1.07535815 , 920.9513    , 29.8476734  , 790.4079    , 2.46        , 7           , 255         , 0           , 0
-0.19687964 , -9.806798   , 0.134904027 , 0.000373911345, -1.23653008E-05, -0.000273809885, 0.620255947 , -0.0264378581, -1.07536042 , 920.9513    , 29.8476734  , 790.303162  , 2.47        , 7           , 255         , 0           , 0
-0.204309464, -9.795199   , 0.131527826 , 0.000623043161, -0.000142251476, -2.473149E-06, 0.620262146 , -0.0264389925, -1.07536125 , 920.9513    , 29.8476734  , 790.198     , 2.48        , 7           , 255         , 0           , 0
-0.2116209  , -9.80285549 , 0.12760976  , 0.0007899743, 0.000387280481, -5.845628E-05, 0.62027     , -0.0264354888, -1.07535946 , 920.9513    , 29.8476734  , 790.0924    , 2.49        , 7           , 255         , 0           , 0
-0.20564425 , -9.791822   , 0.133563489 , 0.0002472822, 0.0003071747, 0.000343207241, 0.620272338 , -0.0264349822, -1.07535493 , 920.9513    , 29.8476734  , 789.9864    , 2.5         , 7           , 255         , 0           , 0
-0.199640974, -9.794232   , 0.132893115 , -0.000213733176, 1.35741866E-05, 0.000171660446, 0.633764446 , -0.026516743, -1.07570863 , 920.9513    , 29.8476734  , 790.991638  , 2.51        , 7           , 255         , 0           , 0
-0.19505465 , -9.798754   , 0.137666076 , 0.0008719691, 0.000265271578, -1.73114749E-05, 0.6337731   , -0.0265145078, -1.0757072  , 920.9513    , 29.8476734  , 790.891968  , 2.52        , 7           , 255         , 0           , 0
-0.204529136, -9.794666   , 0.125472143 , 0.0007475255, 0.000503664254, 0.000283421046, 0.6337805   , -0.026512092, -1.075702   , 920.9558    , 29.8457756  , 790.791931  , 2.53        , 7           , 255         , 0           , 0
-0.211093381, -9.790769   , 0.125032187 , 0.000969257148, 0.000143540063, -0.000117064854, 0.633790135 , -0.0265102442, -1.07570207 , 920.9558    , 29.8457756  , 790.691467  , 2.54        , 7           , 255         , 0           , 0
-0.205005288, -9.79328    , 0.1285978   , 0.00238822354, 0.000365216634, -0.001119226, 0.6338142   , -0.0265006442, -1.07570887 , 920.9558    , 29.8457756  , 790.5906    , 2.55        , 7           , 255         , 0           , 0
-0.206330687, -9.787253   , 0.134875327 , 0.002796557 , 0.000156229769, -0.000601593754, 0.63384223  , -0.0264958143, -1.0757128  , 920.9558    , 29.8457756  , 790.4893    , 2.56        , 7           , 255         , 0           , 0
-0.215510681, -9.792429   , 0.134961963 , 0.002376959 , -4.00271965E-05, -7.659788E-05, 0.633865952 , -0.0264956951, -1.07571363 , 920.9558    , 29.8457756  , 790.387634  , 2.57        , 7           , 255         , 0           , 0
-0.209681183, -9.794052   , 0.131803825 , 0.0016782789, -0.000220539689, 0.000151823886, 0.6338827   , -0.02649835 , -1.07571375 , 920.9558    , 29.8457756  , 790.2855    , 2.58        , 7           , 255         , 0           , 0
-0.212149143, -9.798576   , 0.125204459 , 0.002893875 , 0.000237048662, 0.000289630145, 0.6339115   , -0.02649814 , -1.07571    , 920.9558    , 29.8457756  , 790.183044  , 2.59        , 7           , 255         , 0           , 0
-0.214921668, -9.800787   , 0.123627461 , 0.00254197465, 0.00067518  , -0.0008573923, 0.633937061 , -0.0264876168, -1.07571292 , 920.9558    , 29.8457756  , 790.080139  , 2.6         , 7           , 255         , 0           , 0
-0.2071907  , -9.803619   , 0.130031154 , 0.00385886966, 0.000380370475, -0.001696178, 0.647956252 , -0.02657157 , -1.0760932  , 920.9558    , 29.8457756  , 791.0882    , 2.61        , 7           , 255         , 0           , 0
-0.193381667, -9.806651   , 0.128801063 , 0.004602151 , 0.0002402216, -0.00200219965, 0.648002565 , -0.0265576467, -1.07610762 , 920.9558    , 29.8457756  , 790.991638  , 2.62        , 7           , 255         , 0           , 0
-0.20600298 , -9.792056   , 0.1387851   , 0.00428855838, 0.0001533462, -0.001564487, 0.6480458   , -0.0265469737, -1.07611918 , 920.9412    , 29.8471317  , 790.8947    , 2.63        , 7           , 255         , 0           , 0
-0.201693028, -9.7840395  , 0.14672488  , 0.004011264 , -4.00872741E-05, -0.00166037085, 0.6480862   , -0.0265372545, -1.07613266 , 920.9412    , 29.8471317  , 790.797363  , 2.64        , 7           , 255         , 0           , 0
-0.193105534, -9.788414   , 0.153457686 , 0.00215848186, -0.00011575922, -0.000111261623, 0.6481078   , -0.0265375227, -1.0761342  , 920.9412    , 29.8471317  , 790.699646  , 2.65        , 7           , 255         , 0           , 0
-0.185677737, -9.783327   , 0.158893764 , 0.00124825  , 0.0005493706, 0.000464143173, 0.648120046 , -0.0265360028, -1.07612717 , 920.9412    , 29.8471317  , 790.6015    , 2.66        , 7           , 255         , 0           , 0
-0.192105561, -9.793836   , 0.150991276 , -0.00114987348, 0.000106295389, 0.000595851161, 0.6481084   , -0.0265387148, -1.07612169 , 920.9412    , 29.8471317  , 790.503     , 2.67        , 7           , 255         , 0           , 0
-0.189541459, -9.798554   , 0.142223522 , -0.00269679655, -0.000207457531, -0.0002740494, 0.648081541 , -0.026538685, -1.07612514 , 920.9412    , 29.8471317  , 790.404053  , 2.68        , 7           , 255         , 0           , 0
-0.188999221, -9.802145   , 0.135377    , -0.00137878978, -0.000376369979, 0.000295900973, 0.648067653 , -0.026543485, -1.076125   , 920.9412    , 29.8471317  , 790.304749  , 2.69        , 7           , 255         , 0           , 0
-0.1841173  , -9.79247    , 0.1418695   , -0.000895682, -0.00073443877, 0.00039405108, 0.648058653 , -0.026551744, -1.07612634 , 920.9412    , 29.8471317  , 790.205     , 2.7         , 7           , 255         , 0           , 0
-0.180648655, -9.791027   , 0.1466948   , -0.0008812521, -0.000170609681, 0.0002588564, 0.661726236 , -0.0266229957, -1.076487   , 920.9412    , 29.8471317  , 791.2346    , 2.71        , 7           , 255         , 0           , 0
-0.1738739  , -9.801025   , 0.14851515  , -0.00144781568, 0.000220730959, 0.000606458168, 0.661711633 , -0.0266249646, -1.07648087 , 920.9412    , 29.8471317  , 791.141357  , 2.72        , 7           , 255         , 0           , 0
-0.172412783, -9.788533   , 0.140194625 , -0.0009407031, -0.000350364717, 0.0006318008, 0.661702156 , -0.0266315527, -1.07647812 , 920.980835  , 29.8472672  , 791.0477    , 2.73        , 7           , 255         , 0           , 0
-0.170102954, -9.775599   , 0.15948388  , -0.000595698133, -0.000201528019, 0.00102563982, 0.661695957 , -0.0266394541, -1.07647109 , 920.980835  , 29.8472672  , 790.953735  , 2.74        , 7           , 255         , 0           , 0
-0.168414935, -9.79663    , 0.146912634 , -0.00101090153, 0.000222396833, 0.002028375 , 0.6616854   , -0.0266501568, -1.0764538  , 920.980835  , 29.8472672  , 790.8593    , 2.75        , 7           , 255         , 0           , 0
-0.175326   , -9.806195   , 0.131655321 , -0.0005147075, -0.000286303344, 0.00145940541, 0.66168     , -0.0266613662, -1.076444   , 920.980835  , 29.8472672  , 790.7645    , 2.76        , 7           , 255         , 0           , 0
-0.203764528, -9.807082   , 0.116804443 , 0.0005084735, -3.72331924E-05, -0.000246176438, 0.6616851   , -0.0266601723, -1.07644629 , 920.980835  , 29.8472672  , 790.6694    , 2.77        , 7           , 255         , 0           , 0
-0.211121708, -9.801709   , 0.104143366 , 0.005206323 , 0.000568231451, -0.002575665, 0.6617377   , -0.0266398713, -1.0764631  , 920.980835  , 29.8472672  , 790.573853  , 2.78        , 7           , 255         , 0           , 0
-0.202352911, -9.795929   , 0.1258357   , 0.009601936 , 0.000488001766, -0.00427878 , 0.6618345   , -0.02660973 , -1.07649386 , 920.980835  , 29.8472672  , 790.4779    , 2.79        , 7           , 255         , 0           , 0
-0.192902431, -9.790085   , 0.152617574 , 0.00796972  , -3.5234938E-05, -0.0024427427, 0.6619147   , -0.0265949424, -1.07651341 , 920.980835  , 29.8472672  , 790.3816    , 2.8         , 7           , 255         , 0           , 0
-0.205158472, -9.794748   , 0.1641773   , 0.00527839549, -0.0007835032, -0.000695092138, 0.6748304   , -0.0266402289, -1.076864   , 920.980835  , 29.8472672  , 791.3477    , 2.81        , 7           , 255         , 0           , 0
-0.229886413, -9.809076   , 0.151686192 , 0.0009809954, -0.0007122479, -0.000103540988, 0.6748403   , -0.0266451184, -1.07686937 , 920.980835  , 29.8472672  , 791.257446  , 2.82        , 7           , 255         , 0           , 0
-0.233084247, -9.785101   , 0.125433519 , -3.71586066E-06, 0.0003443615, 0.000591714634, 0.6748401   , -0.0266461316, -1.07686257 , 920.8954    , 29.8437386  , 791.1668    , 2.83        , 7           , 255         , 0           , 0
-0.229059935, -9.772604   , 0.123851381 , -0.000223429175, 7.818344E-05, 0.0011972466, 0.6748375   , -0.0266529582, -1.0768528  , 920.8954    , 29.8437386  , 791.0758    , 2.84        , 7           , 255         , 0           , 0
-0.2206922  , -9.77913952 , 0.124021247 , -0.0007977539, -3.79431367E-05, 0.000919047161, 0.674829364 , -0.02665904 , -1.07684588 , 920.8954    , 29.8437386  , 790.984436  , 2.85        , 7           , 255         , 0           , 0
-0.2173646  , -9.798089   , 0.120889232 , -0.000355059979, -0.000380165555, 0.00152964506, 0.674825549 , -0.0266715325, -1.07683623 , 920.8954    , 29.8437386  , 790.8927    , 2.86        , 7           , 255         , 0           , 0
-0.221555665, -9.809916   , 0.130332828 , -3.100885E-05, -0.0004185704, 0.00102155167, 0.674825    , -0.02668119 , -1.07683086 , 920.8954    , 29.8437386  , 790.8006    , 2.87        , 7           , 255         , 0           , 0
-0.220254183, -9.812333   , 0.122520648 , 0.0009009778, -9.443503E-05, -3.73798175E-05, 0.674834    , -0.0266816989, -1.0768317  , 920.8954    , 29.8437386  , 790.708069  , 2.88        , 7           , 255         , 0           , 0
-0.218991563, -9.811625   , 0.122091576 , 0.00281939143, 3.68754954E-05, -0.000691736466, 0.674862444 , -0.0266770776, -1.076837   , 920.8954    , 29.8437386  , 790.6152    , 2.89        , 7           , 255         , 0           , 0
-0.202781633, -9.783274   , 0.135079071 , 0.005329197 , 0.000215016276, -0.0008331457, 0.6749158   , -0.02667022 , -1.07684207 , 920.8954    , 29.8437386  , 790.5219    , 2.9         , 7           , 255         , 0           , 0
-0.188339859, -9.778032   , 0.150642961 , 0.00484687649, 0.000140567223, -0.0009945419, 0.6869324   , -0.0267536361, -1.07716715 , 920.8954    , 29.8437386  , 791.6011    , 2.91        , 7           , 255         , 0           , 0
-0.186456352, -9.78745651 , 0.151492015 , 0.0013736618, 0.000467578036, -0.00044293172, 0.686946154 , -0.0267471671, -1.07716775 , 920.8954    , 29.8437386  , 791.5146    , 2.92        , 7           , 255         , 0           , 0
-0.194653437, -9.797366   , 0.149838343 , -0.00143300358, 0.000408411 , 6.137829E-05, 0.6869318   , -0.0267444253, -1.07716477 , 920.9558    , 29.8461819  , 791.427734  , 2.93        , 7           , 255         , 0           , 0
-0.191916972, -9.796219   , 0.144148141 , -0.00290955044, -0.000119949538, 0.00145336369, 0.686902344 , -0.0267545618, -1.0771544  , 920.9558    , 29.8461819  , 791.3405    , 2.94        , 7           , 255         , 0           , 0
-0.179194242, -9.792262   , 0.133273274 , -0.00244457 , 0.000214542 , 0.00102446356, 0.6868776   , -0.02675942 , -1.077145   , 920.9558    , 29.8461819  , 791.2529    , 2.95        , 7           , 255         , 0           , 0
-0.185866162, -9.78251648 , 0.127884611 , -0.000811749254, 0.000190436578, 0.000719310367, 0.6868693   , -0.0267624911, -1.0771383  , 920.9558    , 29.8461819  , 791.165     , 2.96        , 7           , 255         , 0           , 0
-0.170666978, -9.786156   , 0.132484153 , -0.000272205682, 0.000131209148, 0.00114029367, 0.686866343 , -0.026768662, -1.07712865 , 920.9558    , 29.8461819  , 791.07666   , 2.97        , 7           , 255         , 0           , 0
-0.180401087, -9.796851   , 0.140569031 , 0.000376052572, 0.000606098969, 0.00147256884, 0.6868697   , -0.0267733131, -1.07711339 , 920.9558    , 29.8461819  , 790.988     , 2.98        , 7           , 255         , 0           , 0
-0.180348873, -9.806375   , 0.15253374  , -9.623973E-05, 0.0003533041, 0.0004077024, 0.686868668 , -0.026773164, -1.07710814 , 920.9558    , 29.8461819  , 790.8989    , 2.99        , 7           , 255         , 0           , 0
-0.1797911  , -9.805466   , 0.145213425 , 0.000461088726, 0.000208099955, -5.85697053E-05, 0.686873257 , -0.0267711375, -1.07710731 , 920.9558    , 29.8461819  , 790.8095    , 3           , 7           , 0           , 8.485236    , 300
-0.182453737, -9.792407   , 0.130568355 , 0.00140926673, 0.000432007771, 0.000164269921, 0.701081634 , -0.0268059578, -1.07748115 , 920.9558    , 29.8461819  , 791.7748    , 3.01        , 7           , 1           , 0           , 0
-0.183737442, -9.775796   , 0.13298431  , 0.00220880331, 0.000557192543, -0.0008343567, 0.7011038   , -0.02679633 , -1.07748377 , 920.9558    , 29.8461819  , 791.691345  , 3.02        , 7           , 2           , 0           , 0
-0.182130843, -9.777751   , 0.143437222 , 0.00187859184, 0.000196059525, -0.000290850527, 0.7011226   , -0.02679296 , -1.07748473 , 920.94165   , 29.8486233  , 791.6076    , 3.03        , 7           , 3           , 0           , 0
-0.19914636 , -9.799345   , 0.151647851 , 0.0005215871, 0.000461759832, 0.000701671466, 0.7011275   , -0.0267939735, -1.07747638 , 920.94165   , 29.8486233  , 791.5235    , 3.04        , 7           , 4           , 0           , 0
-0.203786045, -9.812383   , 0.144813329 , 0.000597427133, -0.00014647888, -9.17799E-05, 0.7011335   , -0.02679451 , -1.077478   , 920.94165   , 29.8486233  , 791.439     , 3.05        , 7           , 5           , 0           , 0
-0.203808784, -9.79906    , 0.137910351 , 0.0005706836, 1.18897879E-05, -0.0006543772, 0.7011394   , -0.0267901868, -1.07748294 , 920.94165   , 29.8486233  , 791.3542    , 3.06        , 7           , 6           , 0           , 0
-0.186797023, -9.786545   , 0.134121746 , 0.00124844431, -0.000103025181, -0.000857242849, 0.701152    , -0.0267854463, -1.07749021 , 920.94165   , 29.8486233  , 791.269     , 3.07        , 7           , 7           , 0           , 0
-0.190697879, -9.779825   , 0.136337966 , 0.00132254371, -0.000254466344, -0.0008439753, 0.701165438 , -0.02678196 , -1.07749832 , 920.94165   , 29.8486233  , 791.1834    , 3.08        , 7           , 8           , 5           , 5
-0.195852652, -9.781649   , 0.126090541 , 0.00120685028, -4.53274333E-05, -0.000104083338, 0.7011774   , -0.0267816614, -1.07749939 , 920.94165   , 29.8486233  , 791.097534  , 3.09        , 7           , 9           , 5           , 0.1
-0.206343725, -9.78566551 , 0.122336626 , 0.00102006085, -0.000434124522, -0.0006786474, 0.701187849 , -0.0267806184, -1.07750738 , 920.94165   , 29.8486233  , 791.0113    , 3.1         , 7           , 10          , 0.1         , 0.1
-0.208495662, -9.808871   , 0.1350961   , 0.00214364636, -0.000198618814, -0.000692329, 0.719363451 , -0.026839111, -1.07799709 , 920.94165   , 29.8486233  , 791.9772    , 3.11        , 7           , 11          , 0.00752378  , 0.0075246226
-0.193224326, -9.79593849 , 0.134155542 , 0.00177243934, -0.000335044984, -0.0005268913, 0.719381332 , -0.0268381573, -1.07800329 , 920.94165   , 29.8486233  , 791.8969    , 3.12        , 7           , 12          , 0.0346563272, 0
-0.192577347, -9.777747   , 0.1283201   , 0.00295422319, 7.351335E-05, 0.000166637969, 0.719410837 , -0.0268386938, -1.0780015  , 920.909363  , 29.8476067  , 791.816345  , 3.13        , 7           , 13          , 0           , 0
-0.20544228 , -9.78461    , 0.133782312 , 0.003498488 , 0.0004320754, -0.000251789927, 0.7194458   , -0.0268337745, -1.07800055 , 920.909363  , 29.8476067  , 791.7354    , 3.14        , 7           , 14          , -0.001937912, -6.70768641E-05
-0.213862821, -9.79656    , 0.146673709 , 0.002219751 , 0.0004337327, 0.0009875564, 0.7194677   , -0.0268370528, -1.07799029 , 920.909363  , 29.8476067  , 791.6541    , 3.15        , 7           , 15          , 0           , 0.000127575215
