Acc X       , Acc Y       , Acc Z       , Gyro X      , Gyro Y      , Gyro Z      , Euler X     , Euler Y     , Euler Z     , Pres X      , Pres Y      , Pres Z      , Time        , Status      , LowRate X   , LowRate Y   , LowRate Z    
9.657126    , 0.0886521339, -1.58513081 , 0           , 0           , 0           , -0.05586913 , 1.40785623  , 0           , 920.3272    , 30.1391239  , 804.0816    , 0           , 2           , 0           , 5.00423145  , 0
9.712611    , 0.0844702646, -1.218713   , 1.61057687E-06, -0.0169626623, 0.0004411054, -0.05578458 , 1.40768647  , 8.5466E-05  , 920.3272    , 30.1391239  , 804.0816    , 0.01        , 3           , 1           , 0           , 0
9.702807    , 0.08272966  , -1.25228608 , -0.0007815255, -0.00686492724, 0.0009933552, -0.05570891 , 1.40761864  , 0.000170058862, 920.3272    , 30.1391239  , 804.0816    , 0.02        , 3           , 2           , 0           , 0
9.70724     , 0.0799602   , -1.24165606 , -0.000827628537, 0.00588612771, 0.0007393567, -0.05569222 , 1.40767837  , 0.0001953534, 920.3091    , 29.712534   , 804.0816    , 0.03        , 3           , 3           , 0           , 0
9.720704    , 0.09428993  , -1.191585   , 0.000360365229, 0.0122309849, 0.000940393249, -0.0556729473, 1.40780139  , 0.000211258812, 920.3091    , 29.712534   , 804.0816    , 0.04        , 3           , 4           , 0           , 0
9.727857    , 0.0919349343, -1.15615559 , -0.00021864663, 0.006920714 , 0.000512878236, -0.05566738 , 1.40787125  , 0.000219076159, 920.3091    , 29.712534   , 804.0816    , 0.05        , 3           , 5           , 0           , 0
9.726231    , 0.0794331953, -1.16916537 , -0.000256566418, -0.003445826, 0.0003091612, -0.055639524, 1.4078356   , 0.000249914039, 920.3091    , 29.712534   , 804.0816    , 0.06        , 3           , 6           , 0           , 0
9.711931    , 0.08849498  , -1.21489394 , 0.0002506396, -0.00247635785, 0.00046103436, -0.05560064 , 1.40781093  , 0.000286770664, 920.3091    , 29.712534   , 804.0816    , 0.07        , 3           , 7           , 0           , 0
9.720491    , 0.0894046649, -1.210677   , -0.000128569358, 0.000930600334, 5.24683128E-05, -0.05560192 , 1.40782094  , 0.000286798459, 920.3091    , 29.712534   , 804.0816    , 0.08        , 3           , 8           , 5           , 5
9.715559    , 0.0903749242, -1.205813   , -0.000382168044, 0.00174968562, 0.0002519082, -0.0555963479, 1.40783858  , 0.0002963123, 920.3091    , 29.712534   , 804.0816    , 0.09        , 3           , 9           , 5           , 0.1
9.709446    , 0.08267425  , -1.20586944 , 6.273895E-05, 0.00363342324, 0.0003389847, -0.05558742 , 1.407875    , 0.0003047152, 920.3091    , 29.712534   , 804.0816    , 0.1         , 3           , 10          , 0.1         , 0.1
9.736806    , 0.08573992  , -1.1759609  , -0.000371716422, 0.00192852574, 0.00047690465, -0.0562313646, 1.41002619  , -0.000326560723, 920.3091    , 29.712534   , 804.2455    , 0.11        , 19          , 11          , 0.0109544508, 0.0109544508
9.74101     , 0.0775336251, -1.1610496  , 9.08527E-05 , -0.00453512743, 0.000469543069, -0.05618591 , 1.40998232  , -0.000281417131, 920.3091    , 29.712534   , 804.2455    , 0.12        , 19          , 12          , 0.174642488 , 0
9.733497    , 0.0885294154, -1.16056192 , 0.000202581112, -0.0131176524, -9.65835643E-05, -0.05614442 , 1.40985167  , -0.000241449976, 920.2716    , 29.7531033  , 804.2455    , 0.13        , 19          , 13          , 0           , 0
9.726756    , 0.0901376456, -1.20301723 , 0.000138693867, -0.01927792 , 6.201022E-05, -0.056072697, 1.40965879  , -0.000170172061, 920.2716    , 29.7531033  , 804.2455    , 0.14        , 19          , 14          , 0.000253951963, -0.0006606291
9.70754051  , 0.079320766 , -1.25550079 , 7.036817E-05, -0.0131751681, -0.000146258331, -0.05603554 , 1.4095273   , -0.000133250287, 920.2716    , 29.7531033  , 804.2455    , 0.15        , 19          , 15          , 0           , 0.000234735286
9.699375    , 0.07058277  , -1.2668699  , -0.0005085629, 0.00209341361, 0.0004994378, -0.0560172126, 1.40954876  , -0.000109519206, 920.2716    , 29.7531033  , 804.2455    , 0.16        , 19          , 16          , 0           , 1.401298E-45
9.717214    , 0.08643451  , -1.21388936 , 0.000427141174, 0.0124970144, 0.000696924631, -0.0560131632, 1.4096725   , -0.000109742905, 920.2716    , 29.7531033  , 804.2455    , 0.17        , 19          , 20          , 0           , 0
9.738896    , 0.08586943  , -1.15729213 , 0.0005040879, 0.008336966 , 0.000301801221, -0.05601827 , 1.40975606  , -0.000120045, 920.2716    , 29.7531033  , 804.2455    , 0.18        , 19          , 21          , 0           , 0
9.722189    , 0.0979202539, -1.17617774 , 0.0005809901, -0.000105209183, 0.000160961557, -0.05600223 , 1.40975463  , -0.000109670807, 920.2716    , 29.7531033  , 804.2455    , 0.19        , 19          , 22          , 0           , 0
9.70892     , 0.08645112  , -1.20781124 , -9.546903E-05, 0.000104211678, -0.0007364226, -0.0560487546, 1.40975642  , -0.000155858259, 920.2716    , 29.7531033  , 804.2455    , 0.2         , 19          , 40          , 0           , 0
9.710958    , 0.09228792  , -1.22458267 , 5.92650031E-05, 0.00640073745, -0.0006988348, -0.05647612 , 1.41104925  , -0.00058000657, 920.2716    , 29.7531033  , 804.415     , 0.21        , 19          , 41          , 0           , 0
9.740288    , 0.08852359  , -1.11992431 , 0.000398751668, 0.000217739376, 0.00014619327, -0.05646387 , 1.41105187  , -0.00057161873, 920.2716    , 29.7531033  , 804.415     , 0.22        , 19          , 42          , 0           , 0
9.747188    , 0.08732529  , -1.10409462 , -4.8723392E-05, -0.0249917489, -0.000240936424, -0.0563918948, 1.41080177  , -0.000498210546, 920.282043  , 29.7743378  , 804.415     , 0.23        , 19          , 255         , 0           , 0
9.723811    , 0.0873935   , -1.198742   , 0.000157714036, -0.03969748 , -0.000150863663, -0.05626127 , 1.41040647  , -0.0003675286, 920.282043  , 29.7743378  , 804.415     , 0.24        , 19          , 255         , 0           , 0
9.687124    , 0.0936575159, -1.29332471 , 0.000528565142, -0.0301806256, 0.000105691011, -0.0561447777, 1.41010511  , -0.000254866347, 920.282043  , 29.7743378  , 804.415     , 0.25        , 19          , 255         , 0           , 0
9.668538    , 0.08914934  , -1.3316195  , -0.000441600743, -0.004206796, -0.000111100191, -0.05614147 , 1.41006267  , -0.000247048971, 920.282043  , 29.7743378  , 804.415     , 0.26        , 19          , 255         , 0           , 0
9.700614    , 0.09742241  , -1.25734115 , -5.02805924E-05, 0.0180267524, -2.841877E-05, -0.0562062077, 1.4102416   , -0.0003120819, 920.282043  , 29.7743378  , 804.415     , 0.27        , 19          , 255         , 0           , 0
9.746329    , 0.104728892 , -1.12468112 , -3.65978049E-05, 0.0117144315, 0.000122357029, -0.05623963 , 1.41035938  , -0.000345608, 920.282043  , 29.7743378  , 804.415     , 0.28        , 19          , 255         , 0           , 0
9.749135    , 0.0890931338, -1.11295891 , 0.000413348578, -0.0140585359, 0.000394925068, -0.0561623424, 1.41022027  , -0.000271484547, 920.282043  , 29.7743378  , 804.415     , 0.29        , 19          , 255         , 0           , 0
9.711115    , 0.07710238  , -1.21593738 , 0.0009478651, -0.0265029185, -4.1782725E-05, -0.0560637675, 1.4099555   , -0.00018121794, 920.282043  , 29.7743378  , 804.415     , 0.3         , 19          , 255         , 0           , 0
9.680415    , 0.0784255639, -1.31827486 , 0.0005298451, -0.01169052 , 0.000283641741, -0.0566295721, 1.41142523  , -0.000743543, 920.282043  , 29.7743378  , 804.439758  , 0.31        , 19          , 255         , 0           , 0
9.687558    , 0.08726085  , -1.29190838 , -7.90981E-06, 0.0130467443, 0.00036990596, -0.0566526279, 1.41155553  , -0.00076678273, 920.282043  , 29.7743378  , 804.439758  , 0.32        , 19          , 255         , 0           , 0
9.720724    , 0.0891448   , -1.18451643 , 0.000178206014, 0.01903075  , 0.000445274345, -0.0566903  , 1.41174507  , -0.0008067487, 920.324768  , 29.7910271  , 804.439758  , 0.33        , 19          , 255         , 0           , 0
9.746392    , 0.100675151 , -1.11512053 , -0.000190819235, 0.0008569085, -0.000431804336, -0.0567221344, 1.41175461  , -0.0008370398, 920.324768  , 29.7910271  , 804.439758  , 0.34        , 19          , 255         , 0           , 0
9.740433    , 0.09167929  , -1.1441288  , 0.000321431755, -0.0221840013, 0.000204743134, -0.05662788 , 1.411533    , -0.0007448151, 920.324768  , 29.7910271  , 804.439758  , 0.35        , 19          , 255         , 0           , 0
9.711799    , 0.09514362  , -1.22978151 , 0.000463385455, -0.0289876629, -0.000111139, -0.0565281734, 1.41124308  , -0.00064854743, 920.324768  , 29.7910271  , 804.439758  , 0.36        , 19          , 255         , 0           , 0
9.708158    , 0.0910565853, -1.26735127 , 0.0006506697, -0.0207442455, -3.223402E-05, -0.0564509034, 1.41103578  , -0.000576899445, 920.324768  , 29.7910271  , 804.439758  , 0.37        , 19          , 255         , 0           , 0
9.715566    , 0.08851378  , -1.24838543 , -0.00021227455, -0.0112104341, -0.000280841719, -0.05643122 , 1.4109242   , -0.0005547824, 920.324768  , 29.7910271  , 804.4398    , 0.38        , 19          , 255         , 0           , 0
9.722818    , 0.080831036 , -1.23361075 , -0.000268476637, -0.008562968, 0.000342032057, -0.05638275 , 1.41083729  , -0.0005029865, 920.324768  , 29.7910271  , 804.4399    , 0.39        , 19          , 255         , 0           , 0
9.716154    , 0.08899241  , -1.22846735 , 2.53924227E-05, -0.00724707358, 0.000258420885, -0.0563411862, 1.41076589  , -0.000461159856, 920.324768  , 29.7910271  , 804.439941  , 0.4         , 19          , 255         , 0           , 0
9.730238    , 0.0949261039, -1.20691812 , 0.000188548554, -0.006976984, 4.93968255E-05, -0.0568233021, 1.41205215  , -0.0009383055, 920.324768  , 29.7910271  , 804.3551    , 0.41        , 19          , 255         , 0           , 0
9.732096    , 0.09249015  , -1.17067671 , 0.000330772076, -0.0158939268, -0.000368287321, -0.0567866266, 1.41189277  , -0.000904521148, 920.324768  , 29.7910271  , 804.355164  , 0.42        , 19          , 255         , 0           , 0
9.732937    , 0.09938457  , -1.152121   , -5.90543059E-05, -0.0327052139, 0.000111956382, -0.0566646755, 1.4115653   , -0.00078040373, 920.2983    , 29.8049335  , 804.3552    , 0.43        , 19          , 255         , 0           , 0
9.725439    , 0.09292257  , -1.19334626 , -6.832523E-05, -0.04754002 , -0.0003763975, -0.0565214977, 1.41109133  , -0.000634714845, 920.2983    , 29.8049335  , 804.3553    , 0.44        , 19          , 255         , 0           , 0
9.715035    , 0.09072484  , -1.22199476 , -0.000167151025, -0.05403782 , -0.00017176976, -0.0563449375, 1.410552    , -0.000454140245, 920.2983    , 29.8049335  , 804.355347  , 0.45        , 19          , 255         , 0           , 0
9.714123    , 0.0918929949, -1.229794   , 0.000640961458, -0.05664812 , 0.0002703305, -0.0561252274, 1.40998638  , -0.000238080218, 920.2983    , 29.8049335  , 804.3554    , 0.46        , 19          , 255         , 0           , 0
9.704852    , 0.0819141045, -1.2524786  , -6.53224E-05, -0.0584759526, 0.000164847123, -0.05591429 , 1.40940154  , -2.37273125E-05, 920.2983    , 29.8049335  , 804.355469  , 0.47        , 19          , 255         , 0           , 0
9.711297    , 0.08592488  , -1.29146886 , 0.0003894475, -0.0527756773, 6.870381E-05, -0.0557256974, 1.40887642  , 0.000163418081, 920.2983    , 29.8049335  , 804.3555    , 0.48        , 19          , 255         , 0           , 0
9.700915    , 0.08924159  , -1.317282   , -0.00022161621, -0.0407040231, -0.000828185235, -0.0556399673, 1.40846872  , 0.000252516678, 920.2983    , 29.8049335  , 804.3556    , 0.49        , 19          , 255         , 0           , 0
9.690661    , 0.08441106  , -1.32274747 , -9.587215E-05, -0.0241939276, -0.0006074249, -0.0555958748, 1.408227    , 0.000298165571, 920.2983    , 29.8049335  , 804.355652  , 0.5         , 19          , 255         , 0           , 0
9.69022751  , 0.08514486  , -1.31837845 , 4.35251568E-05, -0.007023355, 4.717386E-05, -0.0560035519, 1.40927911  , -0.000103859886, 920.2983    , 29.8049335  , 804.3532    , 0.51        , 19          , 255         , 0           , 0
9.696608    , 0.0984012   , -1.29105318 , 0.000560999964, 0.0052073095, -0.000367136148, -0.0560383  , 1.40933061  , -0.0001447687, 920.2983    , 29.8049335  , 804.3533    , 0.52        , 19          , 255         , 0           , 0
9.720968    , 0.09209444  , -1.24289167 , 0.000454014749, 0.00720532  , 0.000240056441, -0.05604383 , 1.40940332  , -0.000154963491, 920.3267    , 29.8133469  , 804.353333  , 0.53        , 19          , 255         , 0           , 0
9.738176    , 0.09324495  , -1.19958353 , -3.84723535E-07, -0.00412574131, 0.000472887652, -0.0560006648, 1.4093622   , -0.000111213347, 920.3267    , 29.8133469  , 804.3534    , 0.54        , 19          , 255         , 0           , 0
9.729573    , 0.09175501  , -1.22814238 , -2.30324513E-05, -0.01782228 , 0.000274727179, -0.0559228472, 1.4091835   , -3.216889E-05, 920.3267    , 29.8133469  , 804.353455  , 0.55        , 19          , 255         , 0           , 0
9.713398    , 0.08442329  , -1.283692   , -0.000460408948, -0.0196648538, -0.000547240139, -0.0558936074, 1.40898693  , 2.13892622E-06, 920.3267    , 29.8133469  , 804.3535    , 0.56        , 19          , 255         , 0           , 0
9.703336    , 0.0876135752, -1.29361939 , 0.000404467 , -0.0136773363, -0.000485499622, -0.0558724664, 1.40884972  , 1.94767854E-05, 920.3267    , 29.8133469  , 804.3536    , 0.57        , 19          , 255         , 0           , 0
9.715783    , 0.09632055  , -1.25706565 , -0.000145542741, -0.0115912249, -0.0002056798, -0.05584686 , 1.40873516  , 4.686818E-05, 920.3267    , 29.8133469  , 804.353638  , 0.58        , 19          , 255         , 0           , 0
9.713931    , 0.0840072855, -1.27139378 , 5.50522236E-06, -0.0156527758, 0.00040230772, -0.0557689033, 1.408579    , 0.000125835257, 920.3267    , 29.8133469  , 804.3537    , 0.59        , 19          , 255         , 0           , 0
9.697539    , 0.08473612  , -1.31529474 , 0.000164199533, -0.0102155861, 0.000199120215, -0.0557203628, 1.40847719  , 0.000173346722, 920.3267    , 29.8133469  , 804.35376   , 0.6         , 19          , 255         , 0           , 0
9.695303    , 0.091651164 , -1.3165195  , -0.000108267472, 0.001888505 , -0.0003057743, -0.0561163165, 1.40947461  , -0.000217027016, 920.3267    , 29.8133469  , 804.3074    , 0.61        , 19          , 255         , 0           , 0
9.708295    , 0.09144881  , -1.29440427 , 2.047728E-05, 0.0102334516, -0.000836323539, -0.0562027469, 1.409577    , -0.000304816873, 920.3267    , 29.8133469  , 804.307434  , 0.62        , 19          , 255         , 0           , 0
9.707311    , 0.08145614  , -1.28080285 , 0.000147399609, 0.01268943  , 0.000416877621, -0.05621951 , 1.40970337  , -0.000323286717, 920.292236  , 29.8171463  , 804.3075    , 0.63        , 19          , 255         , 0           , 0
9.719305    , 0.07944417  , -1.25599456 , 0.0008159695, 0.011700022 , -0.0001222101, -0.05625931 , 1.40982044  , -0.000371874572, 920.292236  , 29.8171463  , 804.307556  , 0.64        , 19          , 255         , 0           , 0
9.7132225   , 0.08633852  , -1.24914587 , 3.68171022E-05, 0.005689201 , 0.0002767956, -0.05626162 , 1.409877    , -0.000374597148, 920.292236  , 29.8171463  , 804.3076    , 0.65        , 19          , 255         , 0           , 0
9.714053    , 0.0904586762, -1.28081965 , -0.000150065258, 0.00521433167, -0.000352881674, -0.0563028865, 1.409929    , -0.000414871, 920.292236  , 29.8171463  , 804.3077    , 0.66        , 19          , 255         , 0           , 0
9.711485    , 0.0833588541, -1.29093587 , -0.00015911457, 0.009135874 , 0.0001397725, -0.0563275851, 1.41002023  , -0.000438282354, 920.292236  , 29.8171463  , 804.307739  , 0.67        , 19          , 255         , 0           , 0
9.706291    , 0.08417861  , -1.2940799  , 4.15052054E-05, 0.0148980105, 9.841773E-05, -0.05637288 , 1.41016924  , -0.000484593766, 920.292236  , 29.8171463  , 804.3078    , 0.68        , 19          , 255         , 0           , 0
9.715403    , 0.096765846 , -1.28307688 , 0.000303521869, 0.02096384  , 0.0009543579, -0.05638389 , 1.41037881  , -0.0004988301, 920.292236  , 29.8171463  , 804.307861  , 0.69        , 19          , 255         , 0           , 0
9.728699    , 0.0982235447, -1.21983957 , -0.000117674921, 0.0189318489, 0.000222404444, -0.05643731 , 1.41056812  , -0.0005517636, 920.292236  , 29.8171463  , 804.3079    , 0.7         , 19          , 255         , 0           , 0
9.72532     , 0.0807092339, -1.183988   , -0.0002752373, 0.002790972 , -0.000430780521, -0.05678259 , 1.41146052  , -0.00089084456, 920.292236  , 29.8171463  , 804.321533  , 0.71        , 19          , 255         , 0           , 0
9.714262    , 0.08695459  , -1.24996483 , -0.0002492223, -0.008948946, -1.37544121E-05, -0.0567543879, 1.41137147  , -0.0008597381, 920.292236  , 29.8171463  , 804.3216    , 0.72        , 19          , 255         , 0           , 0
9.701962    , 0.09574805  , -1.29101634 , -7.70175538E-05, -0.006050819, 0.000657083758, -0.0566930436, 1.41131258  , -0.000796844, 920.3366    , 29.8218937  , 804.321655  , 0.73        , 19          , 255         , 0           , 0
9.708932    , 0.0938769653, -1.29967785 , 0.000305287715, 0.0025807363, -9.018701E-05, -0.0567046255, 1.41133773  , -0.0008117051, 920.3366    , 29.8218937  , 804.3217    , 0.74        , 19          , 255         , 0           , 0
9.727755    , 0.0924977139, -1.27226543 , -0.000246118376, 0.008096203 , -0.000349918264, -0.0567574054, 1.4114188   , -0.000862637244, 920.3366    , 29.8218937  , 804.3218    , 0.75        , 19          , 255         , 0           , 0
9.714962    , 0.08935755  , -1.25209832 , 0.0003852719, 0.00660665845, -0.0003658422, -0.0567996167, 1.41148341  , -0.0009092866, 920.3366    , 29.8218937  , 804.321838  , 0.76        , 19          , 255         , 0           , 0
9.715139    , 0.0917823   , -1.24722576 , -0.000244063151, 0.00191209139, -0.000125829916, -0.056816604, 1.41150331  , -0.000924048771, 920.3366    , 29.8218937  , 804.3219    , 0.77        , 19          , 255         , 0           , 0
9.710869    , 0.09615414  , -1.25959921 , -0.0002998771, -0.0003222248, -0.000138655872, -0.05682708 , 1.41149879  , -0.0009316159, 920.3366    , 29.8218937  , 804.32196   , 0.78        , 19          , 255         , 0           , 0
9.709216    , 0.0821533   , -1.28441083 , 0.000414407754, 0.00105403387, 1.85800891E-05, -0.05682551 , 1.41151011  , -0.000934212643, 920.3366    , 29.8218937  , 804.322     , 0.79        , 19          , 255         , 0           , 0
9.709111    , 0.08415702  , -1.27396393 , -0.000273413083, 0.00498198066, 5.40560577E-05, -0.0568424575, 1.41156     , -0.000948644767, 920.3366    , 29.8218937  , 804.3221    , 0.8         , 19          , 255         , 0           , 0
9.713081    , 0.09058188  , -1.2605083  , -0.00015806788, 0.00650886074, 0.0002448611, -0.0571767464, 1.41247463  , -0.00127738 , 920.3366    , 29.8218937  , 804.277161  , 0.81        , 19          , 255         , 0           , 0
9.710939    , 0.08300562  , -1.25617063 , 0.000394892471, 0.00594864227, 5.70072152E-05, -0.0571905524, 1.412534    , -0.00129533571, 920.3366    , 29.8218937  , 804.277161  , 0.82        , 19          , 255         , 0           , 0
9.715118    , 0.08277352  , -1.25010562 , -0.000165798134, 0.00485297758, -0.000375403935, -0.0572330579, 1.4125824   , -0.00133668981, 920.310242  , 29.8282032  , 804.277161  , 0.83        , 19          , 255         , 0           , 0
9.718899    , 0.0936620459, -1.23799646 , -0.000269415643, -0.0009055014, -0.000287305942, -0.057250455, 1.412574    , -0.00135159085, 920.310242  , 29.8282032  , 804.2772    , 0.84        , 19          , 255         , 0           , 0
9.708229    , 0.08664705  , -1.23906207 , 0.000187700993, -0.0093024  , -6.487759E-05, -0.0572193  , 1.41247988  , -0.00132198853, 920.310242  , 29.8282032  , 804.2773    , 0.85        , 19          , 255         , 0           , 0
9.706865    , 0.0930459   , -1.28560865 , -0.0002870368, -0.008632921, -3.80610145E-05, -0.057193663, 1.41239333  , -0.00129308936, 920.310242  , 29.8282032  , 804.277344  , 0.86        , 19          , 255         , 0           , 0
9.697659    , 0.09622843  , -1.31774235 , -0.000281174434, 0.002927458 , -0.000425398641, -0.05723356 , 1.4124229   , -0.00133064482, 920.310242  , 29.8282032  , 804.2774    , 0.87        , 19          , 255         , 0           , 0
9.707548    , 0.08431413  , -1.30482233 , -0.000278148829, 0.0154332854, -0.000340588274, -0.0573129952, 1.41257632  , -0.00140826206, 920.310242  , 29.8282032  , 804.277466  , 0.88        , 19          , 255         , 0           , 0
9.705858    , 0.09645119  , -1.27909589 , 0.0005799432, 0.0225143861, 0.000289458054, -0.0573699661, 1.412802    , -0.00147184555, 920.310242  , 29.8282032  , 804.2775    , 0.89        , 19          , 255         , 0           , 0
9.717026    , 0.09045962  , -1.23627055 , 0.000421243254, 0.0239271019, 0.000288989773, -0.0574338362, 1.4130404   , -0.00154079532, 920.310242  , 29.8282032  , 804.2776    , 0.9         , 19          , 255         , 0           , 0
9.723532    , 0.08346796  , -1.21465468 , -0.0005787416, 0.01545103  , 0.000155161208, -0.05786573 , 1.41414988  , -0.00196279539, 920.310242  , 29.8282032  , 804.2722    , 0.91        , 19          , 255         , 0           , 0
9.723143    , 0.07870778  , -1.222709   , -0.000225319454, 0.00616263133, 0.0005198849, -0.0578577071, 1.41421175  , -0.00195237191, 920.310242  , 29.8282032  , 804.2723    , 0.92        , 19          , 255         , 0           , 0
9.719688    , 0.08672331  , -1.23500276 , -0.000127274834, -0.000341409934, -0.000149408792, -0.0578671545, 1.41420841  , -0.00196065358, 920.3262    , 29.8284073  , 804.272339  , 0.93        , 19          , 255         , 0           , 0
9.712702    , 0.0846684352, -1.24193859 , 0.000199138973, -0.00553766731, -0.000798013061, -0.0578953475, 1.4141537   , -0.00199123239, 920.3262    , 29.8284073  , 804.2724    , 0.94        , 19          , 255         , 0           , 0
9.718544    , 0.09044512  , -1.2462709  , 0.000153650442, -0.009183818, -3.37148376E-05, -0.0578623675, 1.41406083  , -0.00195938675, 920.3262    , 29.8284073  , 804.272461  , 0.95        , 19          , 255         , 0           , 0
9.711979    , 0.09580733  , -1.26211107 , -0.000213714258, -0.0107575934, 0.000191486892, -0.0578130819, 1.413954    , -0.001907317, 920.3262    , 29.8284073  , 804.2725    , 0.96        , 19          , 255         , 0           , 0
9.706004    , 0.08363269  , -1.28222585 , -0.000158272538, -0.008079   , 0.000383268227, -0.05776101 , 1.41387427  , -0.00185298861, 920.3262    , 29.8284073  , 804.2726    , 0.97        , 19          , 255         , 0           , 0
9.69504452  , 0.08375702  , -1.30172634 , 0.000398919161, -0.00204204349, -1.07875385E-05, -0.0577502362, 1.41385329  , -0.00184613571, 920.3262    , 29.8284073  , 804.272644  , 0.98        , 19          , 255         , 0           , 0
9.69055     , 0.0939227343, -1.32915652 , 0.0002392038, 0.0151966009, 9.55006253E-05, -0.05779733 , 1.41400588  , -0.00189620676, 920.3262    , 29.8284073  , 804.2727    , 0.99        , 19          , 255         , 0           , 0
9.715505    , 0.08877833  , -1.25044727 , 6.177023E-05, 0.02405994  , -0.000191868574, -0.0578968525, 1.41424465  , -0.00199760287, 920.3262    , 29.8284073  , 804.272766  , 1           , 19          , 0           , 6.004236    , 100
9.7342205   , 0.09032287  , -1.1907351  , 4.78205038E-07, 0.01210746  , 0.0002572994, -0.0582173765, 1.41523528  , -0.002314954, 920.3262    , 29.8284073  , 804.2509    , 1.01        , 19          , 1           , 0           , 0
9.72344     , 0.086615704 , -1.191515   , 0.000254097948, -0.006658181, 4.605463E-05, -0.05818726 , 1.41516948  , -0.00228703138, 920.3262    , 29.8284073  , 804.2509    , 1.02        , 19          , 2           , 0           , 0
9.718076    , 0.0846533254, -1.24124622 , -0.0004222876, -0.0175874531, -0.000115825751, -0.0581336878, 1.414993    , -0.00222852477, 920.3135    , 29.8298988  , 804.2509    , 1.03        , 19          , 3           , 0           , 0
9.699379    , 0.09047182  , -1.28461051 , -0.000134701666, -0.0144447666, 0.000488320948, -0.05805063 , 1.414849    , -0.002143076, 920.3135    , 29.8298988  , 804.2509    , 1.04        , 19          , 4           , 0           , 0
9.704108    , 0.0889050141, -1.28873193 , 5.79659245E-05, -0.009050642, -0.000459807867, -0.0580458753, 1.41475928  , -0.0021388426, 920.3135    , 29.8298988  , 804.2509    , 1.05        , 19          , 5           , 0           , 0
9.710014    , 0.09081284  , -1.28303838 , -0.000440247735, -0.006830437, -0.000571113254, -0.0580613129, 1.41469061  , -0.00215002452, 920.3135    , 29.8298988  , 804.2509    , 1.06        , 19          , 6           , 0           , 0
9.705577    , 0.08907068  , -1.29607475 , -8.892338E-05, -0.00117617124, 0.0004542251, -0.05802907 , 1.414678    , -0.00211646943, 920.3135    , 29.8298988  , 804.2509    , 1.07        , 19          , 7           , 0           , 0
9.707879    , 0.09447485  , -1.26661873 , 0.000240614434, 0.00562728336, 0.0002917467, -0.058028888, 1.41473508  , -0.002118737, 920.3135    , 29.8298988  , 804.2509    , 1.08        , 19          , 8           , 5           , 5
9.721478    , 0.08146709  , -1.21863    , -0.000287349452, -0.000203142816, 0.00067656365, -0.0579880737, 1.41473317  , -0.00207451941, 920.3135    , 29.8298988  , 804.2509    , 1.09        , 19          , 9           , 5           , 0.1
9.719501    , 0.0961267   , -1.2342211  , -2.57582869E-05, -0.008603499, -0.000268460979, -0.0579737127, 1.414647    , -0.00205969624, 920.3135    , 29.8298988  , 804.2509    , 1.1         , 19          , 10          , 0.1         , 0.1
9.716046    , 0.0981228352, -1.24788356 , -0.000242321665, -0.0119897136, -0.0004629682, -0.0582622  , 1.41529059  , -0.00234193285, 920.3135    , 29.8298988  , 804.245667  , 1.11        , 19          , 11          , 0.009139685 , 0.009139706
9.707407    , 0.08831459  , -1.2631371  , -0.000171015432, -0.0141514819, -0.000112225942, -0.05821853 , 1.41514874  , -0.002296003, 920.3135    , 29.8298988  , 804.245667  , 1.12        , 19          , 12          , 0.174642846 , 0
9.707756    , 0.0844690651, -1.2726965  , 0.000354763033, -0.0124450708, -0.000126685351, -0.0581769422, 1.415025    , -0.00225750753, 920.2483    , 29.8309174  , 804.245667  , 1.13        , 19          , 13          , 0           , 0
9.711839    , 0.08037052  , -1.28403091 , 0.000294905476, -0.0100279935, -0.000307417969, -0.058156427, 1.41492391  , -0.00223973673, 920.2483    , 29.8309174  , 804.245667  , 1.14        , 19          , 14          , 0.000254014478, -0.0006673447
9.705141    , 0.0829308853, -1.29346633 , 5.17364533E-05, -0.005954112, 0.00051940023, -0.05810091 , 1.41486526  , -0.00218405877, 920.2483    , 29.8309174  , 804.245667  , 1.15        , 19          , 15          , 0           , 0.000234743566
9.704969    , 0.08171047  , -1.28778291 , 3.988549E-05, -0.00453833956, 7.13821646E-05, -0.0580792762, 1.41482     , -0.002162543, 920.2483    , 29.8309174  , 804.245667  , 1.16        , 19          , 16          , 0           , 1.401298E-45
9.698155    , 0.08317667  , -1.30717969 , 0.000280655018, 0.00247651781, -0.000321554253, -0.05810599 , 1.41484451  , -0.00219243974, 920.2483    , 29.8309174  , 804.245667  , 1.17        , 19          , 20          , 0           , 0
9.704961    , 0.088203    , -1.2903893  , -0.00051869743, 0.009933394 , 0.000234487539, -0.0581330135, 1.4149431   , -0.00221453584, 920.2483    , 29.8309174  , 804.245667  , 1.18        , 19          , 21          , 0           , 0
9.707693    , 0.08949192  , -1.27472985 , -0.0002709412, 0.0117207551, 0.0001255327, -0.0581711568, 1.41506064  , -0.00225036475, 920.2483    , 29.8309174  , 804.245667  , 1.19        , 19          , 22          , 0           , 0
9.709417    , 0.0793045   , -1.25578427 , 3.19593528E-05, 0.0100716436, 0.000445387734, -0.05817981 , 1.41516256  , -0.00225947774, 920.2483    , 29.8309174  , 804.245667  , 1.2         , 19          , 40          , 0           , 0
9.706072    , 0.0766044259, -1.26365972 , -0.00016984297, 0.007673516 , 2.21095979E-05, -0.0584665947, 1.41609478  , -0.002541804, 920.2483    , 29.8309174  , 804.3084    , 1.21        , 19          , 41          , 0           , 0
9.708624    , 0.08815364  , -1.27432609 , 4.56160924E-05, 0.008596542 , 0.000199447939, -0.0584855676, 1.416181    , -0.002561481, 920.2483    , 29.8309174  , 804.3086    , 1.22        , 19          , 42          , 0           , 0
9.7217      , 0.09089796  , -1.24808    , 0.000331814226, 0.00717547676, -5.18719025E-06, -0.0585094877, 1.41625142  , -0.002589037, 920.294     , 29.8338337  , 804.3088    , 1.23        , 19          , 255         , 0           , 0
9.713209    , 0.08233167  , -1.27041054 , 0.000116149575, 0.005388039 , 2.2335269E-05, -0.05852713 , 1.416306    , -0.002608064, 920.294     , 29.8338337  , 804.30896   , 1.24        , 19          , 255         , 0           , 0
9.704887    , 0.08364685  , -1.29810953 , -0.000120952769, 0.00925776549, 0.000415649643, -0.058536496, 1.41639793  , -0.00261634123, 920.294     , 29.8338337  , 804.309143  , 1.25        , 19          , 255         , 0           , 0
9.708963    , 0.09451817  , -1.28652132 , -0.000327661721, 0.0154769253, -0.000158953888, -0.0586082563, 1.41655183  , -0.00268560974, 920.294     , 29.8338337  , 804.3093    , 1.26        , 19          , 255         , 0           , 0
9.712789    , 0.08093151  , -1.2677182  , 2.63812835E-05, 0.0194948427, -3.203159E-05, -0.0586835444, 1.41674793  , -0.00276210019, 920.294     , 29.8338337  , 804.3095    , 1.27        , 19          , 255         , 0           , 0
9.714982    , 0.09190428  , -1.24347174 , 0.000126129918, 0.0186194386, -0.000245400617, -0.0587685034, 1.41693366  , -0.00284934323, 920.294     , 29.8338337  , 804.3097    , 1.28        , 19          , 255         , 0           , 0
9.731861    , 0.09431761  , -1.23473883 , -7.3700794E-06, 0.013966959 , -0.000367795728, -0.0588451661, 1.417073    , -0.002926872, 920.294     , 29.8338337  , 804.309937  , 1.29        , 19          , 255         , 0           , 0
9.731181    , 0.0940711051, -1.22399807 , -0.000220909467, 0.00601654174, 0.000384510757, -0.05884543 , 1.41713333  , -0.00292489585, 920.294     , 29.8338337  , 804.3102    , 1.3         , 19          , 255         , 0           , 0
9.722475    , 0.09122096  , -1.24230266 , -1.51404383E-05, 0.000332660624, 0.0006995375, -0.0590069778, 1.4176904   , -0.00308334013, 920.294     , 29.8338337  , 804.3186    , 1.31        , 19          , 255         , 0           , 0
9.718906    , 0.09143883  , -1.250153   , 0.000344378 , -0.00219203136, 0.0007000792, -0.0589498542, 1.41766894  , -0.003029058, 920.294     , 29.8338337  , 804.318848  , 1.32        , 19          , 255         , 0           , 0
9.71702     , 0.08548568  , -1.23979247 , -0.000304546527, -0.00471598469, 0.000608623668, -0.0588956065, 1.41762209  , -0.00297105778, 920.328857  , 29.83492    , 804.3191    , 1.33        , 19          , 255         , 0           , 0
9.729861    , 0.08593458  , -1.21806574 , -0.000199744711, -0.0130871972, 0.0001346087, -0.0588390343, 1.41749084  , -0.002911814, 920.328857  , 29.83492    , 804.319336  , 1.34        , 19          , 255         , 0           , 0
9.72046852  , 0.08794877  , -1.2427876  , 0.0004990561, -0.0212724712, 7.175551E-05, -0.05874857 , 1.41727865  , -0.00282530556, 920.328857  , 29.83492    , 804.3196    , 1.35        , 19          , 255         , 0           , 0
9.710663    , 0.0962645   , -1.26788557 , 0.000256751373, -0.0223358516, 0.000399114448, -0.0586356632, 1.41705585  , -0.00271363556, 920.328857  , 29.83492    , 804.3198    , 1.36        , 19          , 255         , 0           , 0
9.714707    , 0.08821827  , -1.24964738 , -0.000716502836, -0.0258198883, 0.0004952335, -0.05851347 , 1.41679955  , -0.002582771, 920.328857  , 29.83492    , 804.320068  , 1.37        , 19          , 255         , 0           , 0
9.718809    , 0.07636257  , -1.23182607 , -0.000913940836, -0.03290068 , -0.000344595785, -0.0584210381, 1.41647041  , -0.00247998629, 920.328857  , 29.83492    , 804.3203    , 1.38        , 19          , 255         , 0           , 0
9.716978    , 0.08221147  , -1.26469743 , -0.000227395329, -0.0388821326, -0.0008513319, -0.0583322234, 1.41608083  , -0.00238779187, 920.328857  , 29.83492    , 804.320557  , 1.39        , 19          , 255         , 0           , 0
9.725751    , 0.08069135  , -1.22783971 , -7.89603946E-05, -0.0462955236, -0.000818104832, -0.05821267 , 1.41561925  , -0.00226602168, 920.328857  , 29.83492    , 804.3208    , 1.4         , 19          , 255         , 0           , 0
9.718626    , 0.07148896  , -1.23889649 , -0.0001396602, -0.05678925 , -0.000529410841, -0.0582073331, 1.41555679  , -0.002255045, 920.328857  , 29.83492    , 804.292358  , 1.41        , 19          , 255         , 0           , 0
9.724748    , 0.0811546   , -1.22759461 , -0.000371482864, -0.06856774 , 8.98972939E-05, -0.0579515658, 1.41487324  , -0.00199239445, 920.328857  , 29.83492    , 804.2925    , 1.42        , 19          , 255         , 0           , 0
9.698378    , 0.09088816  , -1.30601215 , -0.00063914666, -0.0791833  , -0.0006946678, -0.0577115454, 1.41408193  , -0.00174293085, 920.3381    , 29.8354626  , 804.2926    , 1.43        , 19          , 255         , 0           , 0
9.721947    , 0.08571462  , -1.23168468 , -0.000606956659, -0.0790934861, -0.000483820157, -0.0574607365, 1.41329217  , -0.001482866, 920.3381    , 29.8354626  , 804.2927    , 1.44        , 19          , 255         , 0           , 0
9.729998    , 0.07897723  , -1.224082   , -0.000892848358, -0.105095133, -0.0009953117, -0.0571542643, 1.41224337  , -0.00116350176, 920.3381    , 29.8354626  , 804.2929    , 1.45        , 19          , 255         , 0           , 0
9.697759    , 0.0853298455, -1.33218372 , -0.0008057876, -0.11254558 , -0.00062357547, -0.0568017438, 1.41111827  , -0.0007982907, 920.3381    , 29.8354626  , 804.2931    , 1.46        , 19          , 255         , 0           , 0
9.675776    , 0.0949817151, -1.38775826 , -0.0006733998, -0.1022723  , -0.000233233019, -0.0564646  , 1.41009665  , -0.000449946267, 920.3381    , 29.8354626  , 804.2933    , 1.47        , 19          , 255         , 0           , 0
9.66611     , 0.0808462948, -1.4051919  , -3.09625466E-05, -0.08625566 , 0.0003373375, -0.0561455265, 1.40923619  , -0.000126389583, 920.3381    , 29.8354626  , 804.293457  , 1.48        , 19          , 255         , 0           , 0
9.680281    , 0.0783283561, -1.39499462 , 0.000128612621, -0.07305984 , 0.000943108462, -0.05583633 , 1.40850747  , 0.000185621946, 920.3381    , 29.8354626  , 804.29364   , 1.49        , 19          , 255         , 0           , 0
9.692994    , 0.07954421  , -1.3581413  , 0.000448210951, -0.06625434 , 0.0005639743, -0.055572696, 1.40784585  , 0.0004482387, 920.3381    , 29.8354626  , 804.2938    , 1.5         , 19          , 255         , 0           , 0
9.695845    , 0.0869663656, -1.368371   , -0.000230779056, -0.06599544 , 0.000310239033, -0.05551407 , 1.40813529  , 0.0005147711, 920.3381    , 29.8354626  , 804.258     , 1.51        , 19          , 255         , 0           , 0
9.699334    , 0.09426377  , -1.354615   , -0.0008699765, -0.06595783 , 0.000420478173, -0.05527522 , 1.40747738  , 0.0007656697, 920.3381    , 29.8354626  , 804.258     , 1.52        , 19          , 255         , 0           , 0
9.699928    , 0.0819108039, -1.34921646 , -0.00026327683, -0.07201278 , 0.000137467345, -0.0550291538, 1.40675688  , 0.00101772486, 920.342651  , 29.8361416  , 804.258     , 1.53        , 19          , 255         , 0           , 0
9.678826    , 0.08356371  , -1.41889369 , -0.0009090147, -0.0700455755, -8.220908E-05, -0.0548113957, 1.40605819  , 0.00124765665, 920.342651  , 29.8361416  , 804.258     , 1.54        , 19          , 255         , 0           , 0
9.685628    , 0.0903002843, -1.41094422 , -0.0003149412, -0.0614211932, 0.000256549858, -0.054597564, 1.40544581  , 0.00146765448, 920.342651  , 29.8361416  , 804.258     , 1.55        , 19          , 255         , 0           , 0
9.688017    , 0.09623468  , -1.42100859 , 0.000221709692, -0.05451233 , -0.000418464624, -0.05444263 , 1.40490139  , 0.001622487 , 920.342651  , 29.8361416  , 804.258     , 1.56        , 19          , 255         , 0           , 0
9.683579    , 0.08394213  , -1.42871547 , -0.000128537009, -0.046719756, 0.0006374406, -0.05425457 , 1.4044342   , 0.00181446422, 920.342651  , 29.8361416  , 804.258     , 1.57        , 19          , 255         , 0           , 0
9.689676    , 0.08118205  , -1.42176867 , 0.000541368965, -0.0414469764, 7.225157E-05, -0.05411136 , 1.40402114  , 0.001954209 , 920.342651  , 29.8361416  , 804.258     , 1.58        , 19          , 255         , 0           , 0
9.696535    , 0.07743893  , -1.40674317 , -1.58284674E-05, -0.040537525, -0.000653719937, -0.0540203  , 1.40361524  , 0.0020467334, 920.342651  , 29.8361416  , 804.258     , 1.59        , 19          , 255         , 0           , 0
9.696742    , 0.0791809   , -1.41292739 , -0.000172555825, -0.0424052775, -0.0007902908, -0.0539332852, 1.403192    , 0.00213667983, 920.342651  , 29.8361416  , 804.258     , 1.6         , 19          , 255         , 0           , 0
9.699636    , 0.08731333  , -1.39877808 , -7.47398E-05, -0.0438181  , -0.0004787919, -0.05397651 , 1.40337181  , 0.00209794287, 920.342651  , 29.8361416  , 804.2205    , 1.61        , 19          , 255         , 0           , 0
9.710603    , 0.0855647549, -1.38465047 , 7.661336E-05, -0.0517523251, -0.0005619253, -0.05384421 , 1.40285468  , 0.00223138346, 920.342651  , 29.8361416  , 804.220337  , 1.62        , 19          , 255         , 0           , 0
9.692898    , 0.09067075  , -1.42467427 , -0.00031416156, -0.0572160967, 4.84815828E-05, -0.05366349 , 1.402283    , 0.002417856 , 920.3075    , 29.8370228  , 804.220154  , 1.63        , 19          , 255         , 0           , 0
9.674809    , 0.08698416  , -1.46451092 , 6.025395E-06, -0.0529236458, 0.000313271128, -0.0534788035, 1.401755    , 0.00260514161, 920.3075    , 29.8370228  , 804.22      , 1.64        , 19          , 255         , 0           , 0
9.690571    , 0.0795559138, -1.44336522 , 0.000194096909, -0.04864366 , -0.000359918136, -0.0533459522, 1.40126824  , 0.00273795566, 920.3075    , 29.8370228  , 804.2198    , 1.65        , 19          , 255         , 0           , 0
9.705347    , 0.0817407742, -1.39802349 , -0.0005529249, -0.0556019433, 0.000242676077, -0.05316469 , 1.400714    , 0.002927469 , 920.3075    , 29.8370228  , 804.2196    , 1.66        , 19          , 255         , 0           , 0
9.712427    , 0.08731578  , -1.3681705  , -0.000333109, -0.07227919 , 0.000804921961, -0.052898705, 1.39999223  , 0.00320075452, 920.3075    , 29.8370228  , 804.2194    , 1.67        , 19          , 255         , 0           , 0
9.717836    , 0.08509062  , -1.36833715 , -6.87869033E-07, -0.0951922759, 4.14594251E-06, -0.0526082739, 1.39904249  , 0.00349548273, 920.3075    , 29.8370228  , 804.219238  , 1.68        , 19          , 255         , 0           , 0
9.697337    , 0.08679943  , -1.41159415 , 0.000491023064, -0.11295101 , 0.000114921291, -0.05225664 , 1.39791274  , 0.00384742068, 920.3075    , 29.8370228  , 804.219055  , 1.69        , 19          , 255         , 0           , 0
9.665991    , 0.0920214   , -1.51206362 , 0.0007128774, -0.118375033, -0.000596991, -0.05193184 , 1.39673138  , 0.004169961 , 920.3075    , 29.8370228  , 804.2189    , 1.7         , 19          , 255         , 0           , 0
9.659601    , 0.08943702  , -1.593158   , 0.000154029083, -0.101716541, -0.000780579634, -0.05177714 , 1.39612365  , 0.00432858756, 920.3075    , 29.8370228  , 804.2237    , 1.71        , 19          , 255         , 0           , 0
9.641985    , 0.0860785246, -1.62974358 , -4.04819875E-05, -0.0733962655, -0.000281956425, -0.0515790656, 1.39539051  , 0.00453013554, 920.3075    , 29.8370228  , 804.2236    , 1.72        , 19          , 255         , 0           , 0
9.632658    , 0.07593651  , -1.63693178 , 0.000852083554, -0.03961978 , 0.000497339759, -0.0514275841, 1.39499438  , 0.00467530638, 920.305969  , 29.8374977  , 804.22345   , 1.73        , 19          , 255         , 0           , 0
9.645986    , 0.08027254  , -1.59862423 , 0.0003802662, -0.0120746242, 0.000773133361, -0.0513454527, 1.3948741   , 0.00475487066, 920.305969  , 29.8374977  , 804.2233    , 1.74        , 19          , 255         , 0           , 0
9.66027     , 0.0890265256, -1.548418   , -0.00030435287, 0.00422049267, -2.05624383E-06, -0.0513608232, 1.3949163   , 0.00474237464, 920.305969  , 29.8374977  , 804.2232    , 1.75        , 19          , 255         , 0           , 0
9.682211    , 0.09548897  , -1.48366857 , -0.000144454185, 0.00700919051, 0.000655826239, -0.0513456278, 1.39498723  , 0.004759268 , 920.305969  , 29.8374977  , 804.2231    , 1.76        , 19          , 255         , 0           , 0
9.688714    , 0.09771991  , -1.45484281 , 0.000255402032, -0.005786223, 0.0003027293, -0.0513093546, 1.39492929  , 0.00479352335, 920.305969  , 29.8374977  , 804.222961  , 1.77        , 19          , 255         , 0           , 0
9.689653    , 0.08210142  , -1.46078622 , -0.000125983977, -0.0215929709, -8.935851E-05, -0.051253397, 1.39471316  , 0.00485164765, 920.305969  , 29.8374977  , 804.222839  , 1.78        , 19          , 255         , 0           , 0
9.689079    , 0.0904255658, -1.45088267 , -0.00034888275, -0.03501056 , -0.000236132313, -0.05116952 , 1.394364    , 0.004940389 , 920.305969  , 29.8374977  , 804.2227    , 1.79        , 19          , 255         , 0           , 0
9.711017    , 0.0906626061, -1.4042623  , -0.0004294234, -0.054854434, -0.000224163581, -0.0510294363, 1.39381576  , 0.00508702872, 920.305969  , 29.8374977  , 804.2226    , 1.8         , 19          , 255         , 0           , 0
9.699158    , 0.08332002  , -1.43535209 , -0.000199688715, -0.08163199 , -0.000162954413, -0.0509846173, 1.39363432  , 0.005140164 , 920.305969  , 29.8374977  , 804.2288    , 1.81        , 19          , 255         , 0           , 0
9.674449    , 0.0921550244, -1.51879215 , 0.0004551666, -0.09240237 , -0.000965054263, -0.0507719964, 1.39271009  , 0.00535158068, 920.305969  , 29.8374977  , 804.2287    , 1.82        , 19          , 255         , 0           , 0
9.653777    , 0.09140213  , -1.6107353  , -0.0005068433, -0.08477594 , -0.00037532096, -0.05055984 , 1.39186478  , 0.005572275 , 920.328552  , 29.8398724  , 804.2286    , 1.83        , 19          , 255         , 0           , 0
9.633317    , 0.0966450945, -1.69014323 , -9.474742E-05, -0.05880177 , -0.0008231858, -0.050442338, 1.39127731  , 0.00569266733, 920.328552  , 29.8398724  , 804.228455  , 1.84        , 19          , 255         , 0           , 0
9.630861    , 0.0891364962, -1.700279   , -0.000239860659, -0.0207143091, -0.0003526386, -0.0504066274, 1.39106882  , 0.00573142432, 920.328552  , 29.8398724  , 804.228333  , 1.85        , 19          , 255         , 0           , 0
9.6401      , 0.0861471444, -1.66283107 , -0.0008588701, 0.0109277181, -7.638121E-05, -0.0504497252, 1.39117885  , 0.005696343 , 920.328552  , 29.8398724  , 804.2282    , 1.86        , 19          , 255         , 0           , 0
9.665214    , 0.0910432339, -1.58560634 , -0.000470142637, 0.02877426  , -0.000309274415, -0.0505515076, 1.391466    , 0.00559766265, 920.328552  , 29.8398724  , 804.228149  , 1.87        , 19          , 255         , 0           , 0
9.6884      , 0.09657052  , -1.49137437 , -0.000363966916, 0.024850335 , -4.46444028E-06, -0.05062479 , 1.3917141   , 0.005526897 , 920.328552  , 29.8398724  , 804.2281    , 1.88        , 19          , 255         , 0           , 0
9.71303     , 0.09335638  , -1.4464401  , 0.000196696958, 0.00336764939, 0.000361544458, -0.0506123  , 1.39174891  , 0.005537589 , 920.328552  , 29.8398724  , 804.228     , 1.89        , 19          , 255         , 0           , 0
9.695592    , 0.101370238 , -1.44650984 , -0.000458582857, -0.021575449, -0.00017915637, -0.05056655 , 1.39153254  , 0.00558877736, 920.328552  , 29.8398724  , 804.227966  , 1.9         , 19          , 255         , 0           , 0
9.674958    , 0.0878232345, -1.50940061 , -0.000201930961, -0.0382215269, -0.0008384889, -0.0506801642, 1.391587    , 0.005480902 , 920.328552  , 29.8398724  , 804.2074    , 1.91        , 19          , 255         , 0           , 0
9.669132    , 0.09837864  , -1.56332278 , -0.000165198435, -0.04101293 , -0.00012338259, -0.0505742133, 1.39117718  , 0.0055902726, 920.328552  , 29.8398724  , 804.2072    , 1.92        , 19          , 255         , 0           , 0
9.651365    , 0.0945780054, -1.5930897  , -4.47457278E-05, -0.0350901  , -0.000254117534, -0.0504911  , 1.390827    , 0.00567518547, 920.2855    , 29.8413658  , 804.207031  , 1.93        , 19          , 255         , 0           , 0
9.659475    , 0.0822032243, -1.60040057 , 0.000131465757, -0.0243104342, -7.774995E-05, -0.05042671 , 1.390584    , 0.005739305 , 920.2855    , 29.8413658  , 804.206848  , 1.94        , 19          , 255         , 0           , 0
9.656579    , 0.08083264  , -1.62142968 , -0.000242724811, -0.01289317 , 0.000854551559, -0.05034664 , 1.39045632  , 0.00582314143, 920.2855    , 29.8413658  , 804.206665  , 1.95        , 19          , 255         , 0           , 0
9.655685    , 0.09036484  , -1.62034857 , -0.000232212886, -0.000618344, -0.000338584854, -0.05036584 , 1.3904494   , 0.005806014 , 920.2855    , 29.8413658  , 804.2065    , 1.96        , 19          , 255         , 0           , 0
9.657222    , 0.0890795439, -1.600901   , 0.000206969824, 0.0105653172, 0.000354301563, -0.05037354 , 1.39055574  , 0.00579607068, 920.2855    , 29.8413658  , 804.2063    , 1.97        , 19          , 255         , 0           , 0
9.669769    , 0.0850528553, -1.56368637 , 0.000641896157, 0.0169684049, -0.000482622359, -0.0504405126, 1.39072442  , 0.00572147034, 920.2855    , 29.8413658  , 804.2061    , 1.98        , 19          , 255         , 0           , 0
9.688445    , 0.09223201  , -1.49649322 , 0.000450617255, 0.009181775 , -0.000653686, -0.05049736 , 1.390816    , 0.00565911643, 920.2855    , 29.8413658  , 804.205933  , 1.99        , 19          , 255         , 0           , 0
9.68412     , 0.0820572153, -1.5035826  , 0.000496723456, -0.00684545469, -0.000383531151, -0.05049442 , 1.39074636  , 0.00565703167, 920.2855    , 29.8413658  , 804.20575   , 2           , 19          , 0           , 7.004236    , 200
9.654787    , 0.086164616 , -1.58601773 , -0.000168386556, -0.0126289045, 0.00011800816, -0.050581824, 1.39108646  , 0.0055740485, 920.2855    , 29.8413658  , 804.2389    , 2.01        , 19          , 1           , 0           , 0
9.642378    , 0.0886552   , -1.6350348  , 0.000231549435, -0.00059822906, -0.000144076737, -0.0505857766, 1.39107978  , 0.00556767453, 920.2855    , 29.8413658  , 804.2389    , 2.02        , 19          , 2           , 0           , 0
9.655063    , 0.09104939  , -1.60163474 , 0.0002660464, 0.0116913151, 0.0005032801, -0.05058802 , 1.39119661  , 0.00556270545, 920.3171    , 29.8398724  , 804.2389    , 2.03        , 19          , 3           , 0           , 0
9.670045    , 0.0925307348, -1.54878831 , -7.98252149E-05, 0.0142596764, 0.000334107957, -0.0506101474, 1.39133978  , 0.005541038 , 920.3171    , 29.8398724  , 804.2389    , 2.04        , 19          , 4           , 0           , 0
9.684976    , 0.09834938  , -1.50773168 , -2.98500527E-05, 0.00414268952, -0.000124826227, -0.0506288558, 1.39138079  , 0.0055223126, 920.3171    , 29.8398724  , 804.2389    , 2.05        , 19          , 5           , 0           , 0
9.685124    , 0.087831296 , -1.51752734 , -0.000140253833, -0.007862572, -0.000307502778, -0.0506252535, 1.39130235  , 0.005527386 , 920.3171    , 29.8398724  , 804.2389    , 2.06        , 19          , 6           , 0           , 0
9.664297    , 0.08405024  , -1.56657338 , 0.000212981249, -0.01178546 , 0.000172127111, -0.05058082 , 1.39118528  , 0.00557039352, 920.3171    , 29.8398724  , 804.2389    , 2.07        , 19          , 7           , 0           , 0
9.654933    , 0.0870934352, -1.59443319 , 3.573319E-05, -0.007665571, -0.000100242643, -0.05056464 , 1.39110851  , 0.00558649  , 920.3171    , 29.8398724  , 804.2389    , 2.08        , 19          , 8           , 5           , 5
9.661413    , 0.0843397   , -1.59031177 , 0.000578906271, -0.000315685931, 4.490874E-05, -0.05055549 , 1.39110482  , 0.0055898875, 920.3171    , 29.8398724  , 804.2389    , 2.09        , 19          , 9           , 5           , 0.1
9.666476    , 0.07882243  , -1.58087826 , -0.0004879611, 0.00644115871, 8.361785E-05, -0.05057371 , 1.39117026  , 0.005576343 , 920.3171    , 29.8398724  , 804.2389    , 2.1         , 19          , 10          , 0.1         , 0.1
9.667148    , 0.0929819345, -1.56992507 , -0.0004221655, 0.008473024 , 0.000292451 , -0.0507130139, 1.3917402   , 0.00544316042, 920.3171    , 29.8398724  , 804.2301    , 2.11        , 19          , 11          , 0.00799159  , 0.007991887
9.666496    , 0.0921679   , -1.56325459 , -9.629404E-05, 0.008670179 , -0.0003770815, -0.05075908 , 1.39182663  , 0.00539732026, 920.3171    , 29.8398724  , 804.2301    , 2.12        , 19          , 12          , 0.174643889 , 0
9.662874    , 0.08443324  , -1.56374466 , -0.000141132914, 0.00761377672, -0.000215070992, -0.0507937334, 1.39190161  , 0.00536355469, 920.2951    , 29.839941   , 804.2301    , 2.13        , 19          , 13          , 0           , 0
9.659499    , 0.0800902545, -1.56824183 , 0.000192007632, 0.009002236 , -0.000311551325, -0.0508343168, 1.39199173  , 0.00532034831, 920.2951    , 29.839941   , 804.2301    , 2.14        , 19          , 14          , 0.000254115526, -0.0006799312
9.661482    , 0.07943353  , -1.55574322 , 0.0004831725, 0.0116457539, -0.000258256332, -0.050876528, 1.39210808  , 0.00527254771, 920.2951    , 29.839941   , 804.2301    , 2.15        , 19          , 15          , 0           , 0.000234657142
9.663256    , 0.08817482  , -1.566172   , 0.0001469265, 0.0125289075, -0.000220883172, -0.0509226061, 1.39223361  , 0.005224249 , 920.2951    , 29.839941   , 804.2301    , 2.16        , 19          , 16          , 0           , 1.401298E-45
9.6682      , 0.0886672139, -1.55083561 , -0.000130015091, 0.0131002311, 0.000218478846, -0.0509487838, 1.39236379  , 0.005198961 , 920.2951    , 29.839941   , 804.2301    , 2.17        , 19          , 20          , 0           , 0
9.664838    , 0.08689716  , -1.5502919  , -0.000165680074, 0.0130002117, 0.000258845 , -0.0509728231, 1.3924942   , 0.005176221 , 920.2951    , 29.839941   , 804.2301    , 2.18        , 19          , 21          , 0           , 0
9.66673851  , 0.0828184038, -1.5718776  , 0.000237181637, 0.0136811482, -4.79109731E-05, -0.0510118157, 1.39263034  , 0.005134199 , 920.2951    , 29.839941   , 804.2301    , 2.19        , 19          , 22          , 0           , 0
9.656976    , 0.0931181163, -1.59466755 , -0.000287301955, 0.0196114965, -0.000255812949, -0.0510844961, 1.39282715  , 0.00506326649, 920.2951    , 29.839941   , 804.2301    , 2.2         , 19          , 40          , 0           , 0
9.656677    , 0.0974894539, -1.578864   , -0.000196652763, 0.02544368  , 0.000124649727, -0.05127828 , 1.39362144  , 0.00487237  , 920.2951    , 29.839941   , 804.250061  , 2.21        , 19          , 41          , 0           , 0
9.669012    , 0.102771379 , -1.56624913 , 6.823684E-06, 0.0280226469, 8.60528962E-05, -0.0513537265, 1.39390135  , 0.00479563745, 920.2951    , 29.839941   , 804.2502    , 2.22        , 19          , 42          , 0           , 0
9.664813    , 0.08472651  , -1.56096184 , -1.75678288E-05, 0.0308290049, -0.00038779233, -0.05146429 , 1.39420891  , 0.00468351739, 920.356     , 29.8409576  , 804.2503    , 2.23        , 19          , 255         , 0           , 0
9.657551    , 0.08456675  , -1.55890012 , -0.000444899226, 0.03460464  , -0.000239704648, -0.0515821353, 1.39455366  , 0.00456833746, 920.356     , 29.8409576  , 804.2504    , 2.24        , 19          , 255         , 0           , 0
9.669482    , 0.08854151  , -1.54361129 , -0.000254060171, 0.039147906 , -0.000456515118, -0.0517239571, 1.39494562  , 0.004426885 , 920.356     , 29.8409576  , 804.250549  , 2.25        , 19          , 255         , 0           , 0
9.675695    , 0.0790129751, -1.5353781  , 0.000449826184, 0.0404891334, -0.000238393986, -0.0518509559, 1.39534914  , 0.004293303 , 920.356     , 29.8409576  , 804.2507    , 2.26        , 19          , 255         , 0           , 0
9.66882     , 0.08417084  , -1.53391933 , -0.000195290326, 0.0405743867, -0.0003711305, -0.05199281 , 1.39575458  , 0.004151257 , 920.356     , 29.8409576  , 804.2508    , 2.27        , 19          , 255         , 0           , 0
9.653333    , 0.09364215  , -1.57171    , -0.00034085114, 0.0453076363, 0.000413351925, -0.0521062948, 1.39620733  , 0.004039463 , 920.356     , 29.8409576  , 804.2509    , 2.28        , 19          , 255         , 0           , 0
9.638143    , 0.0919650048, -1.61123371 , 0.0006483094, 0.06139051  , -6.16847537E-05, -0.0522851869, 1.39682019  , 0.00385121186, 920.356     , 29.8409576  , 804.251038  , 2.29        , 19          , 255         , 0           , 0
9.640114    , 0.09207713  , -1.61066246 , 0.00011667065, 0.0849999   , -0.000817223, -0.05258468 , 1.397669    , 0.00354598672, 920.356     , 29.8409576  , 804.25116   , 2.3         , 19          , 255         , 0           , 0
9.651241    , 0.09315219  , -1.56072462 , 0.000343964959, 0.10402739  , -0.000774387852, -0.0532045066, 1.39943635  , 0.00292120245, 920.356     , 29.8409576  , 804.189758  , 2.31        , 19          , 255         , 0           , 0
9.673589    , 0.07897746  , -1.49336171 , 0.000204258948, 0.111903086 , -0.000273787969, -0.05356446 , 1.40055358  , 0.002553829 , 920.356     , 29.8409576  , 804.189453  , 2.32        , 19          , 255         , 0           , 0
9.698359    , 0.08203696  , -1.43544555 , 0.0006311732, 0.104891755 , -0.000330731535, -0.0539061762, 1.40159988  , 0.00220073573, 920.2612    , 29.8415012  , 804.189148  , 2.33        , 19          , 255         , 0           , 0
9.710449    , 0.08233023  , -1.40204847 , 0.000263049034, 0.0862807   , -3.59820842E-06, -0.0541772842, 1.40246224  , 0.00192306621, 920.2612    , 29.8415012  , 804.1889    , 2.34        , 19          , 255         , 0           , 0
9.69693851  , 0.0938281   , -1.42174208 , 0.000391716836, 0.07024055  , 0.00017100446, -0.05438801 , 1.40316379  , 0.00170536316, 920.2612    , 29.8415012  , 804.18866   , 2.35        , 19          , 255         , 0           , 0
9.661646    , 0.0994961   , -1.52389181 , 7.042021E-05, 0.0729642659, 0.000233821236, -0.0546088442, 1.40389132  , 0.0014806625, 920.2612    , 29.8415012  , 804.1884    , 2.36        , 19          , 255         , 0           , 0
9.646606    , 0.0903629   , -1.57091939 , 0.000230112986, 0.0938260555, -0.0003144179, -0.05493101 , 1.40482855  , 0.00115168293, 920.2612    , 29.8415012  , 804.1882    , 2.37        , 19          , 255         , 0           , 0
9.62988     , 0.07366042  , -1.6254282  , 0.000491245359, 0.129862145 , 0.000156992624, -0.0553456433, 1.40612471  , 0.000726321246, 920.2612    , 29.8415012  , 804.1879    , 2.38        , 19          , 255         , 0           , 0
9.61931     , 0.07512207  , -1.65304685 , 0.00032258092, 0.178233355 , 0.00065324  , -0.0559024848, 1.40790546  , 0.000158651339, 920.2612    , 29.8415012  , 804.1877    , 2.39        , 19          , 255         , 0           , 0
9.638036    , 0.0841597244, -1.60320437 , 1.819458E-05, 0.23064509  , 9.231943E-05, -0.0566920266, 1.41020834  , -0.0006415285, 920.2612    , 29.8415012  , 804.187439  , 2.4         , 19          , 255         , 0           , 0
9.661137    , 0.09013133  , -1.49068749 , 0.000184601085, 0.268436819 , 0.0006274043, -0.0577541  , 1.41384721  , -0.00171535206, 920.2612    , 29.8415012  , 804.2585    , 2.41        , 19          , 255         , 0           , 0
9.678665    , 0.09035586  , -1.422614   , 9.650103E-06, 0.289092958 , 0.000995234 , -0.05876437 , 1.41673315  , -0.00273801573, 920.2612    , 29.8415012  , 804.258667  , 2.42        , 19          , 255         , 0           , 0
9.705481    , 0.09694488  , -1.319117   , 0.000220727263, 0.29605937  , 0.0006936439, -0.0598582774, 1.41968918  , -0.00384704745, 920.312744  , 29.8436031  , 804.25885   , 2.43        , 19          , 255         , 0           , 0
9.753473    , 0.09011311  , -1.16242957 , 0.000676202239, 0.278144747 , 0.00107370771, -0.0608930141, 1.42246521  , -0.004900331, 920.312744  , 29.8436031  , 804.259033  , 2.44        , 19          , 255         , 0           , 0
9.790931    , 0.09491585  , -1.0097425  , 0.000332069321, 0.224666953 , 0.00107409316, -0.061745882, 1.42470872  , -0.00576588 , 920.312744  , 29.8436031  , 804.2592    , 2.45        , 19          , 255         , 0           , 0
9.809267    , 0.0887668952, -0.977210641, 0.0002416925, 0.152950764 , -0.0003766293, -0.06241752 , 1.42623413  , -0.006447085, 920.312744  , 29.8436031  , 804.2594    , 2.46        , 19          , 255         , 0           , 0
9.782661    , 0.0844723955, -1.04079187 , 6.170894E-05, 0.08830704  , 0.000452752167, -0.06276639 , 1.42711639  , -0.006800226, 920.312744  , 29.8436031  , 804.2596    , 2.47        , 19          , 255         , 0           , 0
9.756952    , 0.0882230252, -1.14618421 , 0.0005455896, 0.0490720533, 0.000426560757, -0.0629449  , 1.42760634  , -0.006986127, 920.312744  , 29.8436031  , 804.259766  , 2.48        , 19          , 255         , 0           , 0
9.701208    , 0.08613981  , -1.27453458 , 0.00015283117, 0.04117461  , 0.0002035142, -0.0631093457, 1.42801833  , -0.007153806, 920.312744  , 29.8436031  , 804.259949  , 2.49        , 19          , 255         , 0           , 0
9.673117    , 0.08292316  , -1.329916   , -0.00102955662, 0.0586722866, 0.000451674685, -0.0633466244, 1.42860436  , -0.00738311931, 920.312744  , 29.8436031  , 804.260132  , 2.5         , 19          , 255         , 0           , 0
9.692024    , 0.09319931  , -1.31173289 , -0.00041025423, 0.0821854845, -0.0005388613, -0.06385487 , 1.42963088  , -0.007890365, 920.312744  , 29.8436031  , 804.2537    , 2.51        , 19          , 255         , 0           , 0
9.723323    , 0.08562221  , -1.23133528 , -0.0005510581, 0.09613667  , 0.000330765732, -0.0642716438, 1.43058944  , -0.008305716, 920.312744  , 29.8436031  , 804.2539    , 2.52        , 19          , 255         , 0           , 0
9.74809     , 0.08460934  , -1.13764071 , 6.01758074E-05, 0.0854483843, -0.00028734628, -0.06468275 , 1.431443    , -0.008721473, 920.305847  , 29.843401   , 804.2541    , 2.53        , 19          , 255         , 0           , 0
9.755726    , 0.08504142  , -1.10151947 , 2.55723135E-05, 0.0606422573, 0.000142284567, -0.0649530143, 1.43204844  , -0.008994644, 920.305847  , 29.843401   , 804.2543    , 2.54        , 19          , 255         , 0           , 0
9.734359    , 0.08466758  , -1.13600838 , 0.0005919703, 0.03840223  , -0.0001739361, -0.06513855 , 1.43242991  , -0.009187922, 920.305847  , 29.843401   , 804.254456  , 2.55        , 19          , 255         , 0           , 0
9.722661    , 0.0906322449, -1.17515349 , 0.000432408124, 0.0272762533, -0.000340054423, -0.06528638 , 1.4327029   , -0.009341576, 920.305847  , 29.843401   , 804.254639  , 2.56        , 19          , 255         , 0           , 0
9.715845    , 0.0966115147, -1.20156443 , 0.000242015871, 0.0260778628, 5.44836366E-05, -0.06540265 , 1.43296337  , -0.00946140848, 920.305847  , 29.843401   , 804.2548    , 2.57        , 19          , 255         , 0           , 0
9.713522    , 0.09500612  , -1.21681666 , 0.0004442929, 0.0315637626, 0.00038183073, -0.06551974 , 1.43327737  , -0.009584082, 920.305847  , 29.843401   , 804.255     , 2.58        , 19          , 255         , 0           , 0
9.714575    , 0.09403605  , -1.19721866 , 0.0005366168, 0.0369127765, -0.000549240969, -0.0657291338, 1.43364573  , -0.009800918, 920.305847  , 29.843401   , 804.2552    , 2.59        , 19          , 255         , 0           , 0
9.723629    , 0.08526933  , -1.15266585 , 0.0002606393, 0.0349673666, -0.000487812445, -0.06592872 , 1.43399489  , -0.0100050075, 920.305847  , 29.843401   , 804.2554    , 2.6         , 19          , 255         , 0           , 0
9.726065    , 0.09033517  , -1.17382491 , -0.000119116332, 0.02964825  , 0.000336427765, -0.0661878958, 1.4345454   , -0.010262806, 920.305847  , 29.843401   , 804.258667  , 2.61        , 19          , 255         , 0           , 0
9.727199    , 0.0886351   , -1.20424783 , -0.0001188036, 0.03381175  , 0.0006325043, -0.0663064644, 1.43488324  , -0.0103813065, 920.305847  , 29.843401   , 804.25885   , 2.62        , 19          , 255         , 0           , 0
9.696883    , 0.0860803   , -1.204716   , -0.00014735006, 0.0397105366, 0.0005557887, -0.0664602444, 1.43527937  , -0.0105349859, 920.289856  , 29.8436031  , 804.259033  , 2.63        , 19          , 255         , 0           , 0
9.702582    , 0.08492066  , -1.20759416 , -0.000108570384, 0.0488760881, 0.000382023922, -0.06667218 , 1.43576682  , -0.0107478136, 920.289856  , 29.8436031  , 804.2592    , 2.64        , 19          , 255         , 0           , 0
9.719907    , 0.08555776  , -1.18502355 , -0.000324947177, 0.054306    , 0.00023546048, -0.06692545 , 1.436309    , -0.0110001164, 920.289856  , 29.8436031  , 804.2594    , 2.65        , 19          , 255         , 0           , 0
9.724088    , 0.09632745  , -1.1605593  , -0.000160697964, 0.05755973  , 0.000384241866, -0.0671843737, 1.43688369  , -0.0112597411, 920.289856  , 29.8436031  , 804.2596    , 2.66        , 19          , 255         , 0           , 0
9.729616    , 0.09817551  , -1.12691951 , 0.000501201954, 0.05331718  , 0.000483232085, -0.06741014 , 1.43741548  , -0.0114926239, 920.289856  , 29.8436031  , 804.2598    , 2.67        , 19          , 255         , 0           , 0
9.720691    , 0.08618383  , -1.13820064 , 0.000568768941, 0.04894002  , 4.87133075E-05, -0.06764748 , 1.437904    , -0.011737776, 920.289856  , 29.8436031  , 804.2601    , 2.68        , 19          , 255         , 0           , 0
9.723307    , 0.09428904  , -1.14632869 , 0.000178875285, 0.04930894  , 0.000127316962, -0.06788636 , 1.438397    , -0.0119806156, 920.289856  , 29.8436031  , 804.2603    , 2.69        , 19          , 255         , 0           , 0
9.712996    , 0.09426154  , -1.18156934 , -0.000209933758, 0.0538408346, 0.0001073086, -0.06815576 , 1.43893456  , -0.0122502418, 920.289856  , 29.8436031  , 804.260559  , 2.7         , 19          , 255         , 0           , 0
9.69014549  , 0.0775984153, -1.23975992 , 0.000266606221, 0.0710336044, 0.000106837208, -0.0687718242, 1.44003022  , -0.0128698684, 920.289856  , 29.8436031  , 804.285461  , 2.71        , 19          , 255         , 0           , 0
9.703695    , 0.09468176  , -1.2520963  , 0.0004781938, 0.0987101   , 0.000140718577, -0.06927589 , 1.4410162   , -0.0133830793, 920.289856  , 29.8436031  , 804.2858    , 2.72        , 19          , 255         , 0           , 0
9.706167    , 0.09685991  , -1.19145036 , 0.0004958512, 0.124433637 , 0.00110728946, -0.06985187 , 1.44225883  , -0.0139688831, 920.3319    , 29.8450279  , 804.2862    , 2.73        , 19          , 255         , 0           , 0
9.713316    , 0.09496925  , -1.11215079 , 0.00049178215, 0.134527519 , 0.000432453468, -0.07054731 , 1.44359934  , -0.0146750258, 920.3319    , 29.8450279  , 804.28656   , 2.74        , 19          , 255         , 0           , 0
9.74709     , 0.08974056  , -1.0074693  , 2.97079969E-05, 0.125591561 , -0.00025336555, -0.07126613 , 1.444852    , -0.0153999217, 920.3319    , 29.8450279  , 804.2869    , 2.75        , 19          , 255         , 0           , 0
9.78468     , 0.08126285  , -0.9466177  , 0.000309732743, 0.0955227   , -0.000737064867, -0.07186282 , 1.4458046   , -0.016004445, 920.3319    , 29.8450279  , 804.2873    , 2.76        , 19          , 255         , 0           , 0
9.773241    , 0.08983026  , -0.9858882  , 0.0002528262, 0.0651197955, -0.0005413724, -0.07227755 , 1.44645321  , -0.01642497 , 920.3319    , 29.8450279  , 804.287659  , 2.77        , 19          , 255         , 0           , 0
9.743074    , 0.07904142  , -1.04756021 , 0.0008700385, 0.0493416563, -0.000312056043, -0.0725800246, 1.44694531  , -0.01673857 , 920.3319    , 29.8450279  , 804.288     , 2.78        , 19          , 255         , 0           , 0
9.714426    , 0.08151681  , -1.0789777  , 0.000209872815, 0.04826222  , 0.000100075456, -0.07285209 , 1.4474268   , -0.0170148276, 920.3319    , 29.8450279  , 804.2884    , 2.79        , 19          , 255         , 0           , 0
9.716707    , 0.08027111  , -1.10405135 , -0.000227917088, 0.0565204173, -0.0001716731, -0.07320152 , 1.447991    , -0.0173646379, 920.3319    , 29.8450279  , 804.288757  , 2.8         , 19          , 255         , 0           , 0
9.732154    , 0.09534256  , -1.07851028 , -0.000334401149, 0.065129444 , -8.043379E-05, -0.07376355 , 1.448942    , -0.01792506 , 920.3319    , 29.8450279  , 804.2512    , 2.81        , 19          , 255         , 0           , 0
9.734321    , 0.0839563161, -1.09873664 , 0.000122490688, 0.07318619  , 0.000227578115, -0.07418676 , 1.44967186  , -0.0183526557, 920.3319    , 29.8450279  , 804.251343  , 2.82        , 19          , 255         , 0           , 0
9.707103    , 0.08372925  , -1.10862815 , 0.0007417576, 0.09074141  , 0.000311005278, -0.07471037 , 1.4505775   , -0.01888758 , 920.322449  , 29.845232   , 804.251465  , 2.83        , 19          , 255         , 0           , 0
9.726784    , 0.08246715  , -1.05726719 , -0.000334667857, 0.103853621 , 0.000447843515, -0.07532377 , 1.45161474  , -0.0195020512, 920.322449  , 29.845232   , 804.2516    , 2.84        , 19          , 255         , 0           , 0
9.740852    , 0.0890643746, -0.989376068, 7.670419E-05, 0.104022115 , 0.0006173442, -0.07593064 , 1.45265031  , -0.0201139562, 920.322449  , 29.845232   , 804.2517    , 2.85        , 19          , 255         , 0           , 0
9.77767     , 0.08467887  , -0.886558652, -0.000220434682, 0.0856995657, 0.0005107049, -0.0764413252, 1.45350707  , -0.0206259917, 920.322449  , 29.845232   , 804.2519    , 2.86        , 19          , 255         , 0           , 0
9.797977    , 0.09200471  , -0.8439329  , -9.58748E-05, 0.0486373641, 0.000254728657, -0.07673714 , 1.45399141  , -0.02092287 , 920.322449  , 29.845232   , 804.2521    , 2.87        , 19          , 255         , 0           , 0
9.78568     , 0.09105263  , -0.856055856, -8.175611E-05, 0.008858918 , 0.0005799802, -0.07674662 , 1.45408094  , -0.0209316071, 920.322449  , 29.845232   , 804.252258  , 2.88        , 19          , 255         , 0           , 0
9.776966    , 0.0777706355, -0.9247732  , -0.000329482777, -0.0196294412, 0.000248019118, -0.0766007155, 1.453886    , -0.0207813978, 920.322449  , 29.845232   , 804.252441  , 2.89        , 19          , 255         , 0           , 0
9.742685    , 0.08830526  , -1.00746131 , -3.62945866E-05, -0.0298383348, -0.000418554118, -0.0764426  , 1.45358753  , -0.0206218176, 920.322449  , 29.845232   , 804.2526    , 2.9         , 19          , 255         , 0           , 0
9.719429    , 0.09272517  , -1.0681529  , 0.0005239238, -0.0209733061, 0.000288186828, -0.07639183 , 1.45356607  , -0.0205744021, 920.322449  , 29.845232   , 804.233459  , 2.91        , 19          , 255         , 0           , 0
9.730283    , 0.08919263  , -1.05427051 , 0.000399629847, -0.00644541 , 0.00060369703, -0.07629504 , 1.453504    , -0.0204809811, 920.322449  , 29.845232   , 804.2335    , 2.92        , 19          , 255         , 0           , 0
9.747591    , 0.0875309855, -1.00834858 , 0.0001807824, -0.00197060313, 0.000208093392, -0.07626289 , 1.4534831   , -0.02045038 , 920.33606   , 29.8455029  , 804.2336    , 2.93        , 19          , 255         , 0           , 0
9.76058     , 0.0995971039, -0.9778649  , -5.87422546E-05, -0.00705664465, 0.000565656752, -0.0761700943, 1.45341337  , -0.0203563217, 920.33606   , 29.8455029  , 804.233643  , 2.94        , 19          , 255         , 0           , 0
9.745639    , 0.09576521  , -0.9917153  , -0.0006650955, -0.0151575739, 0.000123089078, -0.07606865 , 1.45326233  , -0.0202475023, 920.33606   , 29.8455029  , 804.2337    , 2.95        , 19          , 255         , 0           , 0
9.731534    , 0.08752752  , -1.02241111 , -0.000246338983, -0.01617774 , -5.6195684E-05, -0.0759718642, 1.4531008   , -0.0201475713, 920.33606   , 29.8455029  , 804.233765  , 2.96        , 19          , 255         , 0           , 0
9.734049    , 0.08898687  , -1.03454757 , 0.000185271841, -0.012517862, 1.88269914E-05, -0.07588809 , 1.45297539  , -0.0200651176, 920.33606   , 29.8455029  , 804.2338    , 2.97        , 19          , 255         , 0           , 0
9.738716    , 0.09717609  , -1.00262046 , 0.0003084362, -0.0129098538, 0.0008147842, -0.0757338  , 1.45284724  , -0.0199128333, 920.33606   , 29.8455029  , 804.2339    , 2.98        , 19          , 255         , 0           , 0
9.73782     , 0.09115897  , -1.005455   , 0.000496104243, -0.01645844 , -2.32706661E-05, -0.0756258443, 1.45268369  , -0.01980913 , 920.33606   , 29.8455029  , 804.233948  , 2.99        , 19          , 255         , 0           , 0
9.730978    , 0.0909944251, -1.03592932 , 7.460147E-05, -0.0154639268, 0.0002262676, -0.07550783 , 1.45252955  , -0.0196909867, 920.33606   , 29.8455029  , 804.234     , 3           , 19          , 0           , 8.004236    , 300
9.733669    , 0.09068794  , -1.03049254 , 0.00013209926, -0.0121814348, -0.0005009031, -0.0757282153, 1.45267308  , -0.0199106541, 920.33606   , 29.8455029  , 804.197937  , 3.01        , 19          , 1           , 0           , 0
9.742464    , 0.0977218   , -1.01288533 , -0.000215679276, -0.0142653761, -0.0002995488, -0.07566468 , 1.4525311   , -0.0198445059, 920.33606   , 29.8455029  , 804.197754  , 3.02        , 19          , 2           , 0           , 0
9.730725    , 0.0965489447, -1.01709485 , -0.000107788161, -0.0163960028, 0.00012906114, -0.07555071 , 1.45236754  , -0.01972869 , 920.2905    , 29.845232   , 804.1976    , 3.03        , 19          , 3           , 0           , 0
9.738432    , 0.09351013  , -1.03571975 , -3.42649728E-05, -0.0137245087, -0.0001974297, -0.07548062 , 1.45223141  , -0.0196577366, 920.2905    , 29.845232   , 804.1974    , 3.04        , 19          , 4           , 0           , 0
9.748269    , 0.08958106  , -1.01936436 , 0.00035486382, -0.0129790241, -0.000347181631, -0.0754240453, 1.45210147  , -0.0196043067, 920.2905    , 29.845232   , 804.1972    , 3.05        , 19          , 5           , 0           , 0
9.756024    , 0.09332707  , -0.9944593  , 0.0001511648, -0.02179822 , 0.00040033  , -0.0752516538, 1.45188367  , -0.0194322374, 920.2905    , 29.845232   , 804.197     , 3.06        , 19          , 6           , 0           , 0
9.745224    , 0.09411468  , -1.00240171 , 0.0007488069, -0.030619802, -0.000328728725, -0.0750794038, 1.45157862  , -0.0192662887, 920.2905    , 29.845232   , 804.196838  , 3.07        , 19          , 7           , 0           , 0
9.745413    , 0.08408381  , -1.0402534  , 0.000150976353, -0.03314334 , 0.0007538669, -0.074808374, 1.45124829  , -0.0189948343, 920.2905    , 29.845232   , 804.196655  , 3.08        , 19          , 8           , 5           , 5
9.73254     , 0.0764153153, -1.07585645 , 0.000113518734, -0.02889635 , 5.513412E-05, -0.07462337 , 1.45096231  , -0.0188096389, 920.2905    , 29.845232   , 804.1965    , 3.09        , 19          , 9           , 5           , 0.1
9.732018    , 0.08117497  , -1.06794834 , 0.000200007547, -0.0209906064, -0.000324632652, -0.07451851 , 1.45075154  , -0.0187060572, 920.2905    , 29.845232   , 804.1963    , 3.1         , 19          , 10          , 0.1         , 0.1
9.74237251  , 0.09115681  , -1.02869248 , -0.000225861149, -0.0201332737, -0.0002011179, -0.0745672  , 1.45075059  , -0.0187505446, 920.2905    , 29.845232   , 804.229736  , 3.11        , 19          , 11          , 0.006880265 , 0.00688159931
9.766205    , 0.0865569338, -1.00549865 , -0.000516184, -0.0272963475, 6.936799E-05, -0.07439833 , 1.45047712  , -0.0185753312, 920.2905    , 29.845232   , 804.2298    , 3.12        , 19          , 12          , 0.174645633 , 0
9.742529    , 0.0873862356, -1.00365376 , 5.69204276E-05, -0.0384960733, -0.000172571, -0.07417609 , 1.45009291  , -0.0183520019, 920.308     , 29.8466568  , 804.229858  , 3.13        , 19          , 13          , 0           , 0
9.749147    , 0.09232797  , -1.0170939  , -0.000380986836, -0.0491409935, -0.0004779594, -0.07392    , 1.44960284  , -0.0180901643, 920.308     , 29.8466568  , 804.2299    , 3.14        , 19          , 14          , 0.0002542554, -0.000695785158
9.734873    , 0.08640833  , -1.06281638 , 0.000180630508, -0.0529282428, 0.000235783635, -0.07357934 , 1.44907451  , -0.0177488364, 920.308     , 29.8466568  , 804.23      , 3.15        , 19          , 15          , 0           , 0.000234632986
9.7191925   , 0.08409159  , -1.09022558 , -1.91677827E-06, -0.0483513027, 0.00052184693, -0.07324761 , 1.44859242  , -0.0174145717, 920.308     , 29.8466568  , 804.230042  , 3.16        , 19          , 16          , 0           , 1.401298E-45
9.723581    , 0.09031741  , -1.08788264 , -0.000325828383, -0.0410975  , 0.00025855063, -0.07298596 , 1.44818425  , -0.0171476528, 920.308     , 29.8466568  , 804.2301    , 3.17        , 19          , 20          , 0           , 0
9.727742    , 0.0844981447, -1.06793058 , -0.000106709078, -0.03845395 , 0.000383366947, -0.0727293  , 1.44780087  , -0.0168879386, 920.308     , 29.8466568  , 804.230164  , 3.18        , 19          , 21          , 0           , 0
