Acc X       , Acc Y       , Acc Z       , Gyro X      , Gyro Y      , Gyro Z      , Euler X     , Euler Y     , Euler Z     , Pres X      , Pres Y      , Pres Z      , Time        , Status      , LowRate X   , LowRate Y   , LowRate Z    
-0.1552774  , 0.128655642 , -9.784343   , 0           , 0           , 0           , -0.0131483767, -0.0158672836, 0           , 921.1172    , 32.5345573  , 796.973755  , 0           , 2           , 0           , 5.479232    , 0
-0.158594161, 0.131646842 , -9.792594   , 0.000856051454, 0.000162542623, 5.58623142E-05, -0.0131396558, -0.0158655234, 5.37266146E-07, 921.1172    , 32.5345573  , 796.973755  , 0.01        , 3           , 1           , 0           , 0
-0.1498267  , 0.124211863 , -9.788786   , 0.000170146639, -2.912432E-05, 0.0006924191, -0.0131380642, -0.0158657227, 7.46538126E-06, 921.1172    , 32.5345573  , 796.973755  , 0.02        , 3           , 2           , 0           , 0
-0.165304586, 0.120346449 , -9.787101   , 0.000147034647, -0.00026573136, -0.000378203, -0.013136534, -0.015868431, 3.71821329E-06, 921.127     , 32.09487    , 796.973755  , 0.03        , 3           , 3           , 0           , 0
-0.16132918 , 0.128694847 , -9.78663    , -0.000316354679, -0.000186913414, -0.0006335338, -0.0131395971, -0.0158703849, -2.59266267E-06, 921.127     , 32.09487    , 796.973755  , 0.04        , 3           , 4           , 0           , 0
-0.153135329, 0.1337752   , -9.794647   , -0.000298161525, -1.33778667E-06, 0.000338088517, -0.01314263 , -0.0158703532, 7.88449256E-07, 921.127     , 32.09487    , 796.973755  , 0.05        , 3           , 5           , 0           , 0
-0.1469235  , 0.12829408  , -9.801716   , 0.000159663963, 0.000168679631, 0.0003002403, -0.0131410835, -0.0158686265, 3.76873663E-06, 921.127     , 32.09487    , 796.973755  , 0.06        , 3           , 6           , 0           , 0
-0.154905483, 0.132497817 , -9.78909    , 0.000592293567, 0.000268200471, 0.000503042364, -0.0131352413, -0.0158658754, 8.763997E-06, 921.127     , 32.09487    , 796.973755  , 0.07        , 3           , 7           , 0           , 0
-0.16172263 , 0.132726565 , -9.794721   , 0.00052021374, -7.4712676E-05, 0.0004887973, -0.0131301172, -0.015866559, 1.36618582E-05, 921.127     , 32.09487    , 796.973755  , 0.08        , 3           , 8           , 5           , 5
-0.152983561, 0.131951809 , -9.793722   , -0.0006427524, -7.332594E-05, -0.000343217, -0.01313649 , -0.0158673376, 1.02392669E-05, 921.127     , 32.09487    , 796.973755  , 0.09        , 3           , 9           , 5           , 0.1
-0.15924795 , 0.112489916 , -9.804747   , -0.000666253851, 8.78813444E-05, -8.07190663E-05, -0.013143138, -0.0158664715, 9.420517E-06, 921.127     , 32.09487    , 796.973755  , 0.1         , 3           , 10          , 0.1         , 0.1
-0.16091074 , 0.121862829 , -9.799019   , -0.00047513016, 0.0002546463, -0.000634181954, -0.0131438114, -0.015867617, 2.982019E-06, 921.127     , 32.09487    , 796.8868    , 0.11        , 3           , 11          , 0.0109544508, 0.0109544508
-0.158316076, 0.124326982 , -9.794153   , 0.000309200434, -0.000153791276, -0.000782937, -0.0131405955, -0.01586926 , -4.827267E-06, 921.127     , 32.09487    , 796.8868    , 0.12        , 3           , 12          , 0.174642488 , 0
-0.160090834, 0.1318793   , -9.78893    , 0.0003214501, -0.000109904446, -0.000337866484, -0.0131373266, -0.0158704016, -8.191533E-06, 921.1466    , 32.13524    , 796.8868    , 0.13        , 3           , 13          , 0           , 0
-0.152025267, 0.1287134   , -9.782583   , -0.000126144616, 0.000629918359, 0.0002242063, -0.013138623, -0.0158640742, -6.032201E-06, 921.1466    , 32.13524    , 796.8868    , 0.14        , 3           , 14          , -0.000665913569, -0.0008224893
-0.153981671, 0.128099874 , -9.792112   , -0.0002583083, -0.00029800873, 0.0007137604, -0.0131413192, -0.0158669613, 1.144674E-06, 921.1466    , 32.13524    , 796.8868    , 0.15        , 3           , 15          , 0           , -0.000132530447
-0.160170138, 0.1288177   , -9.791463   , -0.000131666427, -0.00041826797, 0.000377982273, -0.0131426957, -0.0158710945, 4.979521E-06, 921.1466    , 32.13524    , 796.8868    , 0.16        , 3           , 16          , 0           , 1.401298E-45
-0.165455282, 0.1319237   , -9.785906   , 0.000364959822, -0.000106574444, 0.000388221582, -0.01313911 , -0.0158721078, 8.875792E-06, 921.1466    , 32.13524    , 796.8868    , 0.17        , 3           , 20          , 0           , 0
-0.163984165, 0.134502858 , -9.791906   , -0.000617204, -0.000243353948, 0.001145194 , -0.0131454635, -0.0158743877, 2.03598865E-05, 921.1466    , 32.13524    , 796.8868    , 0.18        , 3           , 21          , 0           , 0
-0.1563936  , 0.122596525 , -9.783718   , 0.000279460481, -0.000174134562, 0.000231909537, -0.0131427059, -0.0158761  , 2.27019063E-05, 921.1466    , 32.13524    , 796.8868    , 0.19        , 3           , 22          , 0           , 0
-0.142022878, 0.118204162 , -9.783541   , 0.000187091442, 8.986273E-05, -0.000486886827, -0.0131407594, -0.015875265, 1.7821154E-05, 921.1466    , 32.13524    , 796.886841  , 0.2         , 3           , 40          , 0           , 0
-0.149097323, 0.125729725 , -9.794247   , -0.00013802899, -0.000368512236, -4.18405834E-05, -0.0131344656, -0.0158888251, 1.73293411E-05, 921.1466    , 32.13524    , 796.7982    , 0.21        , 3           , 41          , 0           , 0
-0.157873064, 0.1234382   , -9.79556751 , -0.0001555506, -0.0002926814, 0.0002457639, -0.01313606 , -0.01589172 , 1.9825462E-05, 921.1466    , 32.13524    , 796.7983    , 0.22        , 3           , 42          , 0           , 0
-0.155487567, 0.118620083 , -9.801399   , -0.000138085976, 0.000121880847, 0.0005066596, -0.0131375212, -0.0158904344, 2.48761244E-05, 921.10376   , 32.16061    , 796.79834   , 0.23        , 3           , 255         , 0           , 0
-0.155850023, 0.117961422 , -9.797739   , -1.0971271E-05, -0.000100597623, -0.0005986667, -0.0131375352, -0.0158915147, 1.89025832E-05, 921.10376   , 32.16061    , 796.7984    , 0.24        , 3           , 255         , 0           , 0
-0.155706331, 0.130935073 , -9.797526   , 8.05789E-05 , -2.062117E-05, 9.990598E-05, -0.0131367464, -0.0158917084, 1.99043679E-05, 921.10376   , 32.16061    , 796.798462  , 0.25        , 3           , 255         , 0           , 0
-0.148334742, 0.127497748 , -9.786219   , 0.000149787287, 0.0001827681, 0.000344767177, -0.0131353037, -0.0158898365, 2.332808E-05, 921.10376   , 32.16061    , 796.7985    , 0.26        , 3           , 255         , 0           , 0
-0.155760914, 0.131363943 , -9.789443   , -0.000143652956, 4.32835659E-05, -9.06994246E-05, -0.0131367249, -0.0158894155, 2.24153846E-05, 921.10376   , 32.16061    , 796.7986    , 0.27        , 3           , 255         , 0           , 0
-0.154453591, 0.1250956   , -9.795553   , 0.000320130261, -0.0001720147, -0.00040935626, -0.0131334579, -0.0158911888, 1.83443517E-05, 921.10376   , 32.16061    , 796.798645  , 0.28        , 3           , 255         , 0           , 0
-0.150205225, 0.125555128 , -9.79129    , 0.00077372574, 0.000261831447, -0.00090785214, -0.0131255789, -0.0158886909, 9.231314E-06, 921.10376   , 32.16061    , 796.7987    , 0.29        , 3           , 255         , 0           , 0
-0.151832685, 0.123595558 , -9.78828049 , 0.000400376332, -0.000312159071, 0.000184234566, -0.0131216031, -0.0158917867, 1.1114651E-05, 921.10376   , 32.16061    , 796.798767  , 0.3         , 3           , 255         , 0           , 0
-0.155397922, 0.128024742 , -9.801102   , -0.000344579341, -0.000141009048, -0.0004074284, -0.0131122721, -0.0158856567, 6.85687655E-06, 921.10376   , 32.16061    , 796.8985    , 0.31        , 3           , 255         , 0           , 0
-0.158874273, 0.128711969 , -9.793622   , -0.000460481155, -0.000175727473, -3.606308E-05, -0.0131168729, -0.01588742 , 6.51928758E-06, 921.10376   , 32.16061    , 796.89856   , 0.32        , 3           , 255         , 0           , 0
-0.161002442, 0.1304299   , -9.789506   , -0.000472910469, -0.0003718307, -0.000116430019, -0.0131215816, -0.01589115 , 5.40375049E-06, 921.1126    , 32.1777077  , 796.8986    , 0.33        , 3           , 255         , 0           , 0
-0.1611773  , 0.1346886   , -9.799364   , -0.000359991216, -0.000518492947, 0.0003922089, -0.0131252445, -0.0158962831, 9.393932E-06, 921.1126    , 32.1777077  , 796.8987    , 0.34        , 3           , 255         , 0           , 0
-0.14791517 , 0.12917465  , -9.796676   , 0.00010080589, 0.000122071884, 0.000935634947, -0.0131243858, -0.01589494 , 1.8734414E-05, 921.1126    , 32.1777077  , 796.898743  , 0.35        , 3           , 255         , 0           , 0
-0.147387221, 0.129986212 , -9.793498   , -8.19643E-05, 8.080859E-05, -7.082775E-05, -0.0131251933, -0.0158941429, 1.80155257E-05, 921.1126    , 32.1777077  , 796.8988    , 0.36        , 3           , 255         , 0           , 0
-0.154774   , 0.134575188 , -9.795701   , -9.131804E-05, 3.606855E-05, 0.00017041096, -0.013126133, -0.01589376 , 1.97149147E-05, 921.1126    , 32.1777077  , 796.898865  , 0.37        , 3           , 255         , 0           , 0
-0.155327991, 0.127996609 , -9.787835   , -0.000235935207, -0.00023684901, 4.62097378E-05, -0.0131285  , -0.015896121, 2.02081119E-05, 921.1126    , 32.1777077  , 796.8989    , 0.38        , 3           , 255         , 0           , 0
-0.151767164, 0.124014594 , -9.78426552 , -1.24450307E-05, 9.152427E-05, 2.33843166E-05, -0.013128629, -0.0158952046, 2.04299486E-05, 921.1126    , 32.1777077  , 796.899     , 0.39        , 3           , 255         , 0           , 0
-0.151602969, 0.117402717 , -9.786659   , 0.000473328371, 0.000409526 , 0.0003902656, -0.0131239574, -0.0158910584, 2.42789138E-05, 921.1126    , 32.1777077  , 796.899048  , 0.4         , 3           , 255         , 0           , 0
-0.151080728, 0.129776314 , -9.783791   , -0.000641386141, 0.000100328121, 0.0004703048, -0.0131303212, -0.0158858914, 2.89668988E-05, 921.1126    , 32.1777077  , 796.928955  , 0.41        , 3           , 255         , 0           , 0
-0.1540222  , 0.123197459 , -9.794313   , -0.00022965041, -0.0001066557, 0.00117473991, -0.013132805, -0.015886806, 4.07284824E-05, 921.1126    , 32.1777077  , 796.929     , 0.42        , 3           , 255         , 0           , 0
-0.156069085, 0.12371774  , -9.795125   , 0.000288840674, 0.000435083348, 0.0008203132, -0.0131300464, -0.0158823412, 4.887459E-05, 921.145264  , 32.1853065  , 796.9291    , 0.43        , 3           , 255         , 0           , 0
-0.150157839, 0.126271039 , -9.787034   , 0.000460257521, 0.0004670352, -0.000360988372, -0.0131253852, -0.0158777237, 4.520335E-05, 921.145264  , 32.1853065  , 796.929138  , 0.44        , 3           , 255         , 0           , 0
-0.148776561, 0.123029158 , -9.80031    , -0.000145656581, 5.51677076E-05, 4.809729E-05, -0.0131268492, -0.015877163, 4.567708E-05, 921.145264  , 32.1853065  , 796.9292    , 0.45        , 3           , 255         , 0           , 0
-0.1482555  , 0.132136181 , -9.790965   , 0.000239522633, 0.000283476722, 0.0007909685, -0.01312458 , -0.0158742238, 5.354966E-05, 921.145264  , 32.1853065  , 796.92926   , 0.46        , 3           , 255         , 0           , 0
-0.151094824, 0.14117828  , -9.78752    , 6.417651E-05, 1.50831765E-05, 0.000121619021, -0.0131239565, -0.015874058, 5.4763892E-05, 921.145264  , 32.1853065  , 796.9293    , 0.47        , 3           , 255         , 0           , 0
-0.150640056, 0.132900342 , -9.792984   , 0.000237199682, -9.691779E-05, 0.000253098173, -0.0131216254, -0.0158749931, 5.730763E-05, 921.145264  , 32.1853065  , 796.9294    , 0.48        , 3           , 255         , 0           , 0
-0.145604327, 0.135077685 , -9.80077648 , 0.000342258136, 0.000237518863, -0.000866990245, -0.013118065, -0.01587273 , 4.86064127E-05, 921.145264  , 32.1853065  , 796.929443  , 0.49        , 3           , 255         , 0           , 0
-0.14822416 , 0.133346364 , -9.800644   , 0.0005834015, -0.000361273356, -0.0003670472, -0.0131121725, -0.01587639 , 4.498327E-05, 921.145264  , 32.1853065  , 796.9295    , 0.5         , 3           , 255         , 0           , 0
-0.159085244, 0.134049982 , -9.795338   , 0.000236842927, 3.31258052E-05, 0.0003732475, -0.0131148305, -0.0158591066, 4.87902071E-05, 921.145264  , 32.1853065  , 796.8872    , 0.51        , 3           , 255         , 0           , 0
-0.150336981, 0.1313907   , -9.790943   , -0.0004984727, 0.000185129233, 0.000344897737, -0.0131198689, -0.01585721 , 5.22149458E-05, 921.145264  , 32.1853065  , 796.887268  , 0.52        , 3           , 255         , 0           , 0
-0.153380588, 0.128206491 , -9.789549   , -0.000327726826, 1.19965989E-05, 0.0002579057, -0.0131231863, -0.01585706 , 5.47924756E-05, 921.1988    , 32.1990776  , 796.8873    , 0.53        , 3           , 255         , 0           , 0
-0.154921919, 0.123688757 , -9.78974    , 0.00070968247, -0.000110362307, -6.54088944E-05, -0.0131160794, -0.01585817 , 5.41528534E-05, 921.1988    , 32.1990776  , 796.8874    , 0.54        , 3           , 255         , 0           , 0
-0.15289101 , 0.115083694 , -9.78928    , -0.000377435354, 5.62267378E-05, 0.000113939837, -0.0131198717, -0.0158575941, 5.52848869E-05, 921.1988    , 32.1990776  , 796.887451  , 0.55        , 3           , 255         , 0           , 0
-0.152183741, 0.123219237 , -9.795025   , -0.0006253278, -3.44715081E-05, -0.000178068687, -0.0131260958, -0.01585796 , 5.35086874E-05, 921.1988    , 32.1990776  , 796.8875    , 0.56        , 3           , 255         , 0           , 0
-0.151842743, 0.1343995   , -9.790487   , 0.0003594128, 2.43482064E-05, -0.000158025869, -0.0131224766, -0.0158577375, 5.19252171E-05, 921.1988    , 32.1990776  , 796.8876    , 0.57        , 3           , 255         , 0           , 0
-0.150423571, 0.135841936 , -9.795134   , 0.000336716 , 0.000105748477, -0.0005280305, -0.0131190279, -0.0158567484, 4.663096E-05, 921.1988    , 32.1990776  , 796.8877    , 0.58        , 3           , 255         , 0           , 0
-0.150771424, 0.133365825 , -9.793409   , 0.000385874766, 0.000312001619, -0.000316523481, -0.0131151183, -0.0158536732, 4.34247559E-05, 921.1988    , 32.1990776  , 796.8878    , 0.59        , 3           , 255         , 0           , 0
-0.1577173  , 0.124175489 , -9.792575   , -0.000207786274, 3.7011574E-05, -0.000378159, -0.0131171355, -0.0158533528, 3.96382566E-05, 921.1988    , 32.1990776  , 796.887939  , 0.6         , 3           , 255         , 0           , 0
-0.155757159, 0.12628822  , -9.788804   , -7.296214E-05, -9.58242454E-05, -0.0004978729, -0.0131173655, -0.0158476233, 3.4665336E-05, 921.1988    , 32.1990776  , 796.775452  , 0.61        , 3           , 255         , 0           , 0
-0.162185431, 0.133114681 , -9.793882   , 5.84584777E-05, -0.000241171976, -0.0003382657, -0.0131167276, -0.01585008 , 3.13142664E-05, 921.1988    , 32.1990776  , 796.7755    , 0.62        , 3           , 255         , 0           , 0
-0.162058055, 0.133395866 , -9.794942   , -0.0001544031, 0.000107873406, 8.445531E-05, -0.0131182848, -0.01584899 , 3.214468E-05, 921.1497    , 32.2009773  , 796.7756    , 0.63        , 3           , 255         , 0           , 0
-0.155907571, 0.1273089   , -9.796846   , 9.808794E-05, -2.76684877E-05, 5.537636E-05, -0.0131173134, -0.01584926 , 3.270208E-05, 921.1497    , 32.2009773  , 796.775635  , 0.64        , 3           , 255         , 0           , 0
-0.15901725 , 0.134058088 , -9.790377   , -0.000268434174, -0.000174937828, -2.10484577E-05, -0.0131199937, -0.0158510134, 3.251455E-05, 921.1497    , 32.2009773  , 796.7757    , 0.65        , 3           , 255         , 0           , 0
-0.150333717, 0.133336276 , -9.79681    , -7.924088E-05, -0.000119393284, 0.0002715826, -0.0131208282, -0.01585217 , 3.52460738E-05, 921.1497    , 32.2009773  , 796.775757  , 0.66        , 3           , 255         , 0           , 0
-0.1476151  , 0.128339082 , -9.788206   , -0.0002675252, -2.640771E-05, 0.000372585055, -0.0131235626, -0.0158523861, 3.89754423E-05, 921.1497    , 32.2009773  , 796.7758    , 0.67        , 3           , 255         , 0           , 0
-0.14894329 , 0.126452491 , -9.784435   , -0.0002702957, -0.000162674289, 0.000409958448, -0.01312633 , -0.0158539619, 4.309644E-05, 921.1497    , 32.2009773  , 796.7759    , 0.68        , 3           , 255         , 0           , 0
-0.156476408, 0.124273404 , -9.79438    , 0.000404485239, 0.000168276776, -0.000184313656, -0.0131222559, -0.0158523  , 4.12311856E-05, 921.1497    , 32.2009773  , 796.77594   , 0.69        , 3           , 255         , 0           , 0
-0.146773875, 0.119249865 , -9.787856   , 0.0005612732, 5.16591244E-05, -0.000439896132, -0.0131165758, -0.01585184 , 3.68253823E-05, 921.1497    , 32.2009773  , 796.776     , 0.7         , 3           , 255         , 0           , 0
-0.15332824 , 0.126571849 , -9.79875    , 0.0003372855, 5.865132E-05, -0.000310813775, -0.0131135629, -0.0158488024, 3.37159981E-05, 921.1497    , 32.2009773  , 796.7619    , 0.71        , 3           , 255         , 0           , 0
-0.154301912, 0.12025968  , -9.802717   , 0.000212393177, 6.35942E-05 , -0.000472295535, -0.0131113641, -0.0158482287, 2.898464E-05, 921.1497    , 32.2009773  , 796.761963  , 0.72        , 3           , 255         , 0           , 0
-0.1544356  , 0.131079078 , -9.794762   , -0.000216751534, 0.000398578646, -0.000364980981, -0.0131134735, -0.0158442911, 2.52825157E-05, 921.1351    , 32.2006378  , 796.762     , 0.73        , 3           , 255         , 0           , 0
-0.152446926, 0.133013487 , -9.79452    , -0.00027568423, 0.000196243636, -0.000258497923, -0.0131161883, -0.0158423632, 2.26717639E-05, 921.1351    , 32.2006378  , 796.7621    , 0.74        , 3           , 255         , 0           , 0
-0.15326339 , 0.1264526   , -9.79509    , 9.981822E-05, -0.000246265961, -0.000237007975, -0.0131151536, -0.0158448555, 2.03339459E-05, 921.1351    , 32.2006378  , 796.762146  , 0.75        , 3           , 255         , 0           , 0
-0.161511645, 0.12519601  , -9.793381   , -2.463971E-05, 0.000263036171, -0.000353587646, -0.0131153436, -0.015842272, 1.67635189E-05, 921.1351    , 32.2006378  , 796.7622    , 0.76        , 3           , 255         , 0           , 0
-0.1595178  , 0.127033055 , -9.79105949 , -0.000255287741, -0.000154630223, -0.0001598321, -0.0131178712, -0.0158438385, 1.51854483E-05, 921.1351    , 32.2006378  , 796.762268  , 0.77        , 3           , 255         , 0           , 0
-0.146217972, 0.129540324 , -9.801828   , 0.00015463616, -3.91987851E-05, 0.0005922923, -0.0131164193, -0.0158441532, 2.111361E-05, 921.1351    , 32.2006378  , 796.7623    , 0.78        , 3           , 255         , 0           , 0
-0.1485631  , 0.13201718  , -9.787583   , -0.000272921869, 0.000226057309, 0.0006152248, -0.0131192449, -0.0158418138, 2.72362959E-05, 921.1351    , 32.2006378  , 796.7624    , 0.79        , 3           , 255         , 0           , 0
-0.15778324 , 0.13552089  , -9.787199   , -0.000250104, 0.000361214683, 0.00061062153, -0.0131218405, -0.01583812 , 3.32951931E-05, 921.1351    , 32.2006378  , 796.762451  , 0.8         , 3           , 255         , 0           , 0
-0.153615624, 0.1368354   , -9.800436   , -0.0005120126, -0.000296814716, -3.893947E-06, -0.0131275048, -0.0158381388, 3.33038261E-05, 921.1351    , 32.2006378  , 796.769958  , 0.81        , 3           , 255         , 0           , 0
-0.153203443, 0.136477381 , -9.806719   , -0.0001976366, 2.07884586E-05, 0.000622007239, -0.01312958 , -0.0158378463, 3.95212446E-05, 921.1351    , 32.2006378  , 796.7701    , 0.82        , 3           , 255         , 0           , 0
-0.152801067, 0.123115718 , -9.78157    , 0.0003910992, -0.000214971253, -0.000216808476, -0.0131256357, -0.0158400275, 3.73813564E-05, 921.1801    , 32.2087135  , 796.7702    , 0.83        , 3           , 255         , 0           , 0
-0.153394386, 0.124040328 , -9.788332   , 6.36238256E-05, 0.000150577864, -6.91760943E-05, -0.0131249875, -0.01583853 , 3.66698259E-05, 921.1801    , 32.2087135  , 796.7703    , 0.84        , 3           , 255         , 0           , 0
-0.1480762  , 0.119544372 , -9.795804   , 0.000319149549, -0.000372616225, -0.000374377531, -0.0131217362, -0.0158423036, 3.29748873E-05, 921.1801    , 32.2087135  , 796.770447  , 0.85        , 3           , 255         , 0           , 0
-0.157733053, 0.123894334 , -9.791479   , 0.000391579641, -0.000249860343, -0.000500848342, -0.0131177427, -0.0158448666, 2.79991164E-05, 921.1801    , 32.2087135  , 796.770569  , 0.86        , 3           , 255         , 0           , 0
-0.1540782  , 0.120429114 , -9.794895   , -6.16248E-05, 0.000263288559, -0.0005842698, -0.0131182661, -0.0158423111, 2.21217979E-05, 921.1801    , 32.2087135  , 796.7707    , 0.87        , 3           , 255         , 0           , 0
-0.154411286, 0.119405605 , -9.79447    , 2.16140179E-05, 0.000571408134, -0.000342269253, -0.0131179951, -0.0158366449, 1.86241068E-05, 921.1801    , 32.2087135  , 796.7708    , 0.88        , 3           , 255         , 0           , 0
-0.165283874, 0.119468771 , -9.793922   , 0.000366121851, 4.436169E-05, -0.000522255257, -0.0131142521, -0.0158362668, 1.33956564E-05, 921.1801    , 32.2087135  , 796.770935  , 0.89        , 3           , 255         , 0           , 0
-0.154962391, 0.120140113 , -9.799223   , 0.000322298554, -0.000282353372, 0.000197812944, -0.0131110605, -0.0158390645, 1.541084E-05, 921.1801    , 32.2087135  , 796.771057  , 0.9         , 3           , 255         , 0           , 0
-0.152435452, 0.125924423 , -9.791098   , -0.000213999883, -0.000532507, 0.0002983425, -0.0131019661, -0.01584321 , 1.8285371E-05, 921.1801    , 32.2087135  , 796.7248    , 0.91        , 3           , 255         , 0           , 0
-0.1567997  , 0.1287413   , -9.789038   , -0.000388641667, -1.28583633E-05, 7.52485939E-05, -0.0131058628, -0.0158433244, 1.90395349E-05, 921.1801    , 32.2087135  , 796.724854  , 0.92        , 3           , 255         , 0           , 0
-0.1668843  , 0.12851505  , -9.800644   , 8.337322E-05, -3.881863E-05, 3.488794E-05, -0.0131050348, -0.0158437081, 1.9393503E-05, 921.1233    , 32.2091179  , 796.7249    , 0.93        , 3           , 255         , 0           , 0
-0.165610373, 0.129030511 , -9.788996   , 0.000198333146, -0.000108422246, -3.1465388E-05, -0.0131030474, -0.0158447959, 1.9093055E-05, 921.1233    , 32.2091179  , 796.725     , 0.94        , 3           , 255         , 0           , 0
-0.164445966, 0.129037276 , -9.791675   , 3.82504077E-05, 0.0001911709, 0.000119444128, -0.0131026842, -0.01584287 , 2.02624633E-05, 921.1233    , 32.2091179  , 796.725037  , 0.95        , 3           , 255         , 0           , 0
-0.155863732, 0.1306477   , -9.79357    , 0.000296235346, -4.404661E-05, -8.129778E-05, -0.0130997077, -0.0158433188, 1.94552322E-05, 921.1233    , 32.2091179  , 796.7251    , 0.96        , 3           , 255         , 0           , 0
-0.157023817, 0.147577509 , -9.80126    , 5.80973E-05 , 5.0958537E-05, -0.000191051731, -0.0130990967, -0.0158428345, 1.75380173E-05, 921.1233    , 32.2091179  , 796.725159  , 0.97        , 3           , 255         , 0           , 0
-0.153388932, 0.1360175   , -9.791575   , 3.7695223E-05, 4.92916442E-05, 0.000336587254, -0.0130987735, -0.015842298, 2.0897487E-05, 921.1233    , 32.2091179  , 796.7252    , 0.98        , 3           , 255         , 0           , 0
-0.149628133, 0.124142788 , -9.791183   , -0.000150305219, 0.000116091862, 0.0005453176, -0.0131003615, -0.0158410668, 2.63355341E-05, 921.1233    , 32.2091179  , 796.7253    , 0.99        , 3           , 255         , 0           , 0
-0.156374246, 0.128186047 , -9.78996849 , 0.000164185709, -5.783513E-06, 0.000188249935, -0.01309875 , -0.0158411  , 2.82188121E-05, 921.1233    , 32.2091179  , 796.725342  , 1           , 3           , 0           , 6.4792366   , 100
-0.154927865, 0.130794212 , -9.783388   , 0.000260975648, 5.33519778E-05, 0.000165351827, -0.013103297, -0.0158482641, 2.99783751E-05, 921.1233    , 32.2091179  , 796.7492    , 1.01        , 3           , 1           , 0           , 0
-0.152025625, 0.12250521  , -9.791328   , 0.0006031621, 0.0003695567, -0.0002950507, -0.0130972192, -0.0158446059, 2.69794036E-05, 921.1233    , 32.2091179  , 796.7493    , 1.02        , 3           , 2           , 0           , 0
-0.1560148  , 0.1254868   , -9.787893   , 0.000252000726, -0.000143676123, -0.000176778965, -0.01309467 , -0.0158460662, 2.52304144E-05, 921.1669    , 32.2108154  , 796.749451  , 1.03        , 3           , 3           , 0           , 0
-0.146293432, 0.130770117 , -9.79454    , 0.000289694028, 0.000217482622, -5.59039763E-05, -0.0130917653, -0.0158439018, 2.464288E-05, 921.1669    , 32.2108154  , 796.7496    , 1.04        , 3           , 4           , 0           , 0
-0.148896486, 0.122558333 , -9.788735   , -0.0003465087, -0.00024784304, 0.0002056039, -0.0130952606, -0.0158463512, 2.67313972E-05, 921.1669    , 32.2108154  , 796.7497    , 1.05        , 3           , 5           , 0           , 0
-0.155080855, 0.131187946 , -9.78506    , -0.0005496725, -3.76574462E-05, 1.7432918E-05, -0.01310076 , -0.0158467218, 2.69106567E-05, 921.1669    , 32.2108154  , 796.7498    , 1.06        , 3           , 6           , 0           , 0
-0.156493872, 0.129512116 , -9.793013   , 6.78919E-05 , 0.000186351885, -5.29835233E-08, -0.0131000811, -0.01584486 , 2.68857184E-05, 921.1669    , 32.2108154  , 796.749939  , 1.07        , 3           , 7           , 0           , 0
-0.155818731, 0.1312356   , -9.790298   , 6.694137E-05, 1.26077794E-05, -0.0008838463, -0.0130992718, -0.015844848, 1.804547E-05, 921.1669    , 32.2108154  , 796.750061  , 1.08        , 3           , 8           , 5           , 5
-0.160389334, 0.136525109 , -9.788567   , 0.000104930717, 0.0005570876, -0.000606474234, -0.0130981253, -0.0158393625, 1.19076649E-05, 921.1669    , 32.2108154  , 796.7502    , 1.09        , 3           , 9           , 5           , 0.1
-0.158665791, 0.133967    , -9.791084   , -0.000102349848, -3.735005E-05, -0.000497794361, -0.01309907 , -0.0158397984, 6.934537E-06, 921.1669    , 32.2108154  , 796.7503    , 1.1         , 3           , 10          , 0.1         , 0.1
-0.148494363, 0.1368876   , -9.796549   , 0.000229970756, -0.000191833591, -0.000305622583, -0.0131014017, -0.0158392359, 3.977501E-06, 921.1669    , 32.2108154  , 796.7244    , 1.11        , 3           , 11          , 0.0092424   , 0.0092424
-0.157626733, 0.1283185   , -9.800352   , 0.000453014218, -7.784751E-05, -8.325373E-05, -0.0130968578, -0.0158400256, 3.15514922E-06, 921.1669    , 32.2108154  , 796.7245    , 1.12        , 3           , 12          , 0.174642846 , 0
-0.163304508, 0.122884214 , -9.78214    , -0.000340786471, -8.285977E-06, -3.54771328E-05, -0.0131002609, -0.0158401132, 2.801464E-06, 921.161438  , 32.2114258  , 796.724548  , 1.13        , 3           , 13          , 0           , 0
-0.152563289, 0.11230024  , -9.800063   , -0.000175434921, -0.0002709875, 0.0002832809, -0.0131020611, -0.0158427861, 5.66981726E-06, 921.161438  , 32.2114258  , 796.7246    , 1.14        , 3           , 14          , -0.00066591223, -0.000822503935
-0.164952666, 0.122017518 , -9.79484749 , -0.0001909323, -0.0001344927, -1.40748161E-05, -0.0131039675, -0.015844129, 5.546679E-06, 921.161438  , 32.2114258  , 796.7247    , 1.15        , 3           , 15          , 0           , -0.000132530637
-0.160598844, 0.1266816   , -9.792321   , 2.0673906E-05, 0.000108971959, 0.0003577345, -0.0131038176, -0.0158429909, 9.109792E-06, 921.161438  , 32.2114258  , 796.724731  , 1.16        , 3           , 16          , 0           , 1.401298E-45
-0.146795645, 0.127218455 , -9.802815   , 0.000340313825, -9.81017947E-05, 0.000162802826, -0.01310044 , -0.01584395 , 1.07506976E-05, 921.161438  , 32.2114258  , 796.7248    , 1.17        , 3           , 20          , 0           , 0
-0.143725485, 0.1343375   , -9.792775   , -0.0002672361, 0.000221868569, 0.00054143084, -0.0131031983, -0.015841661, 1.61360113E-05, 921.161438  , 32.2114258  , 796.724854  , 1.18        , 3           , 21          , 0           , 0
-0.149915025, 0.131714314 , -9.785611   , 0.000302670262, 3.46998568E-05, 0.0006337645, -0.01310027 , -0.01584123 , 2.24691958E-05, 921.161438  , 32.2114258  , 796.7249    , 1.19        , 3           , 22          , 0           , 0
-0.153161675, 0.126482278 , -9.791522   , -5.77310566E-05, -3.164867E-05, 0.00114181684, -0.01310103 , -0.0158414  , 3.38916834E-05, 921.161438  , 32.2114258  , 796.725     , 1.2         , 3           , 40          , 0           , 0
-0.155957609, 0.126210257 , -9.787187   , -0.000421201636, -0.000365895685, -0.000100671125, -0.0131014884, -0.0158422887, 3.28736933E-05, 921.161438  , 32.2114258  , 796.7082    , 1.21        , 3           , 41          , 0           , 0
-0.157454684, 0.1359723   , -9.789559   , 4.03253944E-05, 0.00013925723, 0.000237104934, -0.0131011214, -0.0158408657, 3.522652E-05, 921.161438  , 32.2114258  , 796.7082    , 1.22        , 3           , 42          , 0           , 0
-0.1555948  , 0.136862367 , -9.796494   , 0.0005442114, 0.00020818389, -0.000186778459, -0.01309565 , -0.0158388074, 3.33314529E-05, 921.1294    , 32.2161751  , 796.7082    , 1.23        , 3           , 255         , 0           , 0
-0.161172867, 0.137846068 , -9.78949    , 0.00011336559, 0.000427914725, -7.9552934E-05, -0.0130945034, -0.0158345383, 3.24798748E-05, 921.1294    , 32.2161751  , 796.7082    , 1.24        , 3           , 255         , 0           , 0
-0.151941478, 0.1304679   , -9.78598    , 0.00045128513, 0.000225272262, -0.000477115944, -0.0130899148, -0.0158323515, 2.76791488E-05, 921.1294    , 32.2161751  , 796.7082    , 1.25        , 3           , 255         , 0           , 0
-0.150963038, 0.124117456 , -9.79733    , 0.000255768857, -4.466722E-05, -0.00052630296, -0.0130872736, -0.0158328637, 2.24218766E-05, 921.1294    , 32.2161751  , 796.7082    , 1.26        , 3           , 255         , 0           , 0
-0.154973552, 0.125800774 , -9.795236   , 0.000115845527, -0.0003576543, -0.0004262595, -0.0130860489, -0.0158364959, 1.82060157E-05, 921.1294    , 32.2161751  , 796.7082    , 1.27        , 3           , 255         , 0           , 0
-0.15446189 , 0.1264617   , -9.791147   , -0.000151295622, -0.000120842538, 0.00010418173, -0.0130875781, -0.015837688, 1.92636653E-05, 921.1294    , 32.2161751  , 796.708252  , 1.28        , 3           , 255         , 0           , 0
-0.158556163, 0.130549908 , -9.792448   , 0.000300813816, 6.225193E-06, -0.000114641764, -0.0130845513, -0.0158376414, 1.8116416E-05, 921.1294    , 32.2161751  , 796.7083    , 1.29        , 3           , 255         , 0           , 0
-0.162939385, 0.135856867 , -9.790103   , 0.000276470761, 0.000181008247, -0.0006532213, -0.0130816838, -0.0158359185, 1.15604216E-05, 921.1294    , 32.2161751  , 796.7084    , 1.3         , 3           , 255         , 0           , 0
-0.149595544, 0.13230364  , -9.791632   , -0.0005571586, 0.000571553363, -0.0007269507, -0.0130954059, -0.0158342365, 4.346911E-06, 921.1294    , 32.2161751  , 796.7264    , 1.31        , 3           , 255         , 0           , 0
-0.1564546  , 0.130609185 , -9.784445   , -0.0002483097, 0.000218947011, -0.0008066237, -0.01309776 , -0.0158321541, -3.74811884E-06, 921.1294    , 32.2161751  , 796.7265    , 1.32        , 3           , 255         , 0           , 0
-0.164222464, 0.122366689 , -9.792655   , -0.000163420511, -5.72371646E-05, 0.000439203548, -0.0130994627, -0.0158326644, 6.51469065E-07, 921.139954  , 32.214817   , 796.7266    , 1.33        , 3           , 255         , 0           , 0
-0.161836654, 0.126448363 , -9.796815   , 0.00042516418, -0.0002046543, 0.0004952414, -0.0130952913, -0.0158346463, 5.63075537E-06, 921.139954  , 32.214817   , 796.726746  , 1.34        , 3           , 255         , 0           , 0
-0.157669544, 0.1286046   , -9.795055   , 0.000143546262, -0.000536338659, -0.000183410273, -0.0130938264, -0.0158400349, 3.86685633E-06, 921.139954  , 32.214817   , 796.726868  , 1.35        , 3           , 255         , 0           , 0
-0.151767179, 0.12445794  , -9.791716   , -0.000298286555, -0.000236942084, 8.215255E-06, -0.0130968122, -0.0158424042, 3.9800484E-06, 921.139954  , 32.214817   , 796.727     , 1.36        , 3           , 255         , 0           , 0
-0.1525042  , 0.122890905 , -9.789357   , -9.850343E-05, 0.0001805806, 0.000619096158, -0.0130978944, -0.0158405174, 1.01474579E-05, 921.139954  , 32.214817   , 796.7271    , 1.37        , 3           , 255         , 0           , 0
-0.157801673, 0.131470174 , -9.78784    , -0.000188829843, -1.228333E-05, 0.000384807 , -0.0130998436, -0.01584059 , 1.39971835E-05, 921.139954  , 32.214817   , 796.727234  , 1.38        , 3           , 255         , 0           , 0
-0.1523619  , 0.1338565   , -9.797585   , 0.000244989 , 0.000118176744, -0.000804904266, -0.0130972667, -0.0158395134, 5.932556E-06, 921.139954  , 32.214817   , 796.727356  , 1.39        , 3           , 255         , 0           , 0
-0.143521935, 0.128615677 , -9.794144   , -0.000223464333, -0.000121183926, -0.000102452716, -0.0130994851, -0.0158407371, 4.92387244E-06, 921.139954  , 32.214817   , 796.7275    , 1.4         , 3           , 255         , 0           , 0
-0.161214218, 0.125233427 , -9.793363   , -0.000724803831, 0.0002954026, 0.000267936237, -0.0131065911, -0.0158368181, 7.56165036E-06, 921.139954  , 32.214817   , 796.7326    , 1.41        , 3           , 255         , 0           , 0
-0.154943079, 0.12545611  , -9.790479   , 0.000218782108, -1.59918563E-05, -4.42978053E-05, -0.0131043959, -0.0158369821, 7.12075234E-06, 921.139954  , 32.214817   , 796.7327    , 1.42        , 3           , 255         , 0           , 0
-0.1595867  , 0.125318885 , -9.789148   , 2.018694E-05, 0.0003140957, -0.000258730841, -0.0131041529, -0.0158338752, 4.492245E-06, 921.1597    , 32.21441    , 796.732849  , 1.43        , 3           , 255         , 0           , 0
-0.158062965, 0.1364876   , -9.787401   , 3.21858679E-05, 0.000500053633, 0.000116181021, -0.0131038483, -0.0158288591, 5.588534E-06, 921.1597    , 32.21441    , 796.733     , 1.44        , 3           , 255         , 0           , 0
-0.148803443, 0.134171173 , -9.786687   , -1.28004467E-06, -0.000117940886, -1.1928234E-05, -0.0131038595, -0.0158300418, 5.484715E-06, 921.1597    , 32.21441    , 796.7331    , 1.45        , 3           , 255         , 0           , 0
-0.146985665, 0.130178735 , -9.796453   , -0.000221113849, 0.000199258036, 0.000667849963, -0.0131061766, -0.0158279613, 1.21372E-05 , 921.1597    , 32.21441    , 796.7332    , 1.46        , 3           , 255         , 0           , 0
-0.1527255  , 0.134722412 , -9.79412651 , 0.000107123342, -8.547085E-05, 0.000138474978, -0.013105128, -0.0158287976, 1.353318E-05, 921.1597    , 32.21441    , 796.733337  , 1.47        , 3           , 255         , 0           , 0
-0.149958521, 0.136678144 , -9.794835   , -0.000300327141, 2.62214453E-05, -0.0005162649, -0.0131080495, -0.0158286039, 8.36701E-06 , 921.1597    , 32.21441    , 796.733459  , 1.48        , 3           , 255         , 0           , 0
-0.154054791, 0.123119161 , -9.792475   , -0.000154858863, -0.000362829, 0.000276744482, -0.013109643, -0.0158321951, 1.11820664E-05, 921.1597    , 32.21441    , 796.7336    , 1.49        , 3           , 255         , 0           , 0
-0.16483216 , 0.126206532 , -9.798016   , -0.000146335282, -5.10889222E-05, -0.000239510729, -0.0131110679, -0.0158327371, 8.793623E-06, 921.1597    , 32.21441    , 796.733765  , 1.5         , 3           , 255         , 0           , 0
-0.154540256, 0.121129893 , -9.80122948 , -8.963625E-05, -2.01552175E-05, -0.000333243283, -0.013115678, -0.015833199, 5.523464E-06, 921.1597    , 32.21441    , 796.717651  , 1.51        , 3           , 255         , 0           , 0
-0.149675608, 0.114710137 , -9.804525   , -0.000279192522, -1.54151348E-06, -0.0002867581, -0.0131184263, -0.01583325 , 2.65604285E-06, 921.1597    , 32.21441    , 796.7177    , 1.52        , 3           , 255         , 0           , 0
-0.154447541, 0.121671595 , -9.793703   , 5.029596E-05, -0.000327414251, 0.0003766826, -0.0131179839, -0.0158364736, 6.46587023E-06, 921.1409    , 32.2161751  , 796.7178    , 1.53        , 3           , 255         , 0           , 0
-0.154571041, 0.123598173 , -9.790689   , -9.294454E-05, -0.0003403409, 0.00132431719, -0.0131191229, -0.0158397  , 1.97538666E-05, 921.1409    , 32.2161751  , 796.717834  , 1.54        , 3           , 255         , 0           , 0
-0.1473907  , 0.133984014 , -9.794215   , 3.98469274E-05, 0.000125859631, 0.000285699178, -0.01311877 , -0.015838407, 2.25943877E-05, 921.1409    , 32.2161751  , 796.7179    , 1.55        , 3           , 255         , 0           , 0
-0.15375565 , 0.135065228 , -9.789701   , 0.000139756827, 0.000366759283, -0.0003314343, -0.01311732 , -0.01583478 , 1.923188E-05, 921.1409    , 32.2161751  , 796.717957  , 1.56        , 3           , 255         , 0           , 0
-0.15788421 , 0.132353008 , -9.783471   , -5.04789059E-05, -0.000161248725, -0.000436461822, -0.0131177558, -0.01583645 , 1.48883528E-05, 921.1409    , 32.2161751  , 796.718     , 1.57        , 3           , 255         , 0           , 0
-0.152319238, 0.138627008 , -9.794528   , -0.0003320892, -0.000179848983, -0.00104635255, -0.0131209092, -0.0158383828, 4.448264E-06, 921.1409    , 32.2161751  , 796.71814   , 1.58        , 3           , 255         , 0           , 0
-0.153586715, 0.138129756 , -9.788506   , 0.0004045508, -0.0002802189, -1.07463275E-05, -0.0131168645, -0.015841186, 4.37756944E-06, 921.1409    , 32.2161751  , 796.718262  , 1.59        , 3           , 255         , 0           , 0
-0.15362519 , 0.126759559 , -9.791      , -4.22307639E-05, 0.000265380717, -0.000335998484, -0.0131172324, -0.01583858 , 9.827194E-07, 921.1409    , 32.2161751  , 796.7184    , 1.6         , 3           , 255         , 0           , 0
-0.1531013  , 0.129488423 , -9.789137   , -0.00011104357, 4.02778969E-05, -0.000193215674, -0.0131186023, -0.0158334412, -9.501409E-07, 921.1409    , 32.2161751  , 796.7238    , 1.61        , 3           , 255         , 0           , 0
-0.157825246, 0.133481145 , -9.789508   , -0.0007879858, 0.000199481845, -0.000123830221, -0.0131264618, -0.015831463, -2.21466416E-06, 921.1409    , 32.2161751  , 796.723938  , 1.62        , 3           , 255         , 0           , 0
-0.151295573, 0.14011322  , -9.793729   , -0.000975692, 0.000480004 , -0.000221196067, -0.0131361838, -0.0158266928, -4.4896824E-06, 921.1614    , 32.2186852  , 796.72406   , 1.63        , 3           , 255         , 0           , 0
-0.15372856 , 0.121714547 , -9.796102   , -0.0003772928, 0.0001265477, 0.0001930504, -0.0131399864, -0.0158254039, -2.57578586E-06, 921.1614    , 32.2186852  , 796.7242    , 1.64        , 3           , 255         , 0           , 0
-0.150506824, 0.1232359   , -9.793394   , -0.000278157182, 0.000389336463, 0.000208373691, -0.0131428  , -0.015821483, -5.43181841E-07, 921.1614    , 32.2186852  , 796.7243    , 1.65        , 3           , 255         , 0           , 0
-0.147466585, 0.121761873 , -9.789428   , -0.0004012194, -0.000285096059, -6.84215047E-05, -0.0131468019, -0.01582434 , -1.18993546E-06, 921.1614    , 32.2186852  , 796.7244    , 1.66        , 3           , 255         , 0           , 0
-0.153885067, 0.135823727 , -9.796816   , -0.0004682737, -0.000142734323, -0.000318282953, -0.0131514343, -0.01582581 , -4.35403444E-06, 921.1614    , 32.2186852  , 796.724548  , 1.67        , 3           , 255         , 0           , 0
-0.154356837, 0.129312769 , -9.785753   , 0.000347797672, -0.000257358362, -0.000392471236, -0.0131478952, -0.0158284325, -8.24497E-06, 921.1614    , 32.2186852  , 796.7247    , 1.68        , 3           , 255         , 0           , 0
-0.153537   , 0.137280315 , -9.791109   , -0.000390980451, -8.336699E-05, -0.000157869217, -0.0131517807, -0.0158292875, -9.81272E-06, 921.1614    , 32.2186852  , 796.7248    , 1.69        , 3           , 255         , 0           , 0
-0.159708053, 0.132127687 , -9.79194    , -0.000326193229, -0.0001689237, 0.000136544419, -0.0131550636, -0.0158309583, -8.425035E-06, 921.1614    , 32.2186852  , 796.7249    , 1.7         , 3           , 255         , 0           , 0
-0.15512459 , 0.128719777 , -9.795675   , -0.00025141082, -0.000503773335, -8.047049E-05, -0.0131621435, -0.0158322863, -9.090978E-06, 921.1614    , 32.2186852  , 796.707153  , 1.71        , 3           , 255         , 0           , 0
-0.152647763, 0.133830279 , -9.7853775  , -0.0002223727, 0.000106443767, -8.06070748E-05, -0.0131643536, -0.0158312321, -9.911081E-06, 921.1614    , 32.2186852  , 796.7072    , 1.72        , 3           , 255         , 0           , 0
-0.1558705  , 0.127646059 , -9.789302   , -0.000599722553, -0.000406075851, 0.000599861844, -0.0131704463, -0.01583521 , -3.858903E-06, 921.1593    , 32.21977    , 796.7073    , 1.73        , 3           , 255         , 0           , 0
-0.156741664, 0.133567765 , -9.794806   , -8.835952E-05, -0.000439940253, -0.000142086923, -0.0131713087, -0.01583963 , -5.22183836E-06, 921.1593    , 32.21977    , 796.707336  , 1.74        , 3           , 255         , 0           , 0
-0.151558071, 0.120403573 , -9.790537   , -0.0005381322, -0.000586630544, -0.000166301863, -0.0131766638, -0.0158455148, -6.807608E-06, 921.1593    , 32.21977    , 796.7074    , 1.75        , 3           , 255         , 0           , 0
-0.154168487, 0.1183643   , -9.794175   , -0.000106237247, -0.0003809313, 0.000702402 , -0.0131778382, -0.01584923 , 2.667119E-07, 921.1593    , 32.21977    , 796.707458  , 1.76        , 3           , 255         , 0           , 0
-0.159186989, 0.128318638 , -9.792358   , 0.0005084214, -0.0005539787, 0.000379513251, -0.0131728146, -0.0158547219, 4.13487851E-06, 921.1593    , 32.21977    , 796.7075    , 1.77        , 3           , 255         , 0           , 0
-0.154923052, 0.1281119   , -9.78943348 , 0.000292226032, -8.286646E-05, 0.000200931856, -0.0131699229, -0.0158555228, 6.15514227E-06, 921.1593    , 32.21977    , 796.7076    , 1.78        , 3           , 255         , 0           , 0
-0.163791746, 0.128440171 , -9.790302   , 0.000541005866, 3.532623E-07, 0.000142749836, -0.0131645352, -0.0158555  , 7.582603E-06, 921.1593    , 32.21977    , 796.707642  , 1.79        , 3           , 255         , 0           , 0
-0.160618871, 0.124806143 , -9.793217   , 0.000471238047, 6.70886948E-05, 0.0006681548, -0.01315993 , -0.01585474 , 1.42554227E-05, 921.1593    , 32.21977    , 796.7077    , 1.8         , 3           , 255         , 0           , 0
-0.141642973, 0.132072017 , -9.792895   , 0.0006605733, -7.80852861E-05, 3.42216081E-05, -0.01314871 , -0.0158589035, 1.45346348E-05, 921.1593    , 32.21977    , 796.6937    , 1.81        , 3           , 255         , 0           , 0
-0.149117664, 0.142212123 , -9.792094   , -6.63881656E-06, 0.000368019857, -0.000170819869, -0.0131487483, -0.0158552416, 1.27780131E-05, 921.1593    , 32.21977    , 796.6937    , 1.82        , 3           , 255         , 0           , 0
-0.1524128  , 0.1368463   , -9.787564   , 8.12961953E-05, 0.000197174028, 0.000204312688, -0.0131479669, -0.0158532448, 1.47952424E-05, 921.0998    , 32.2170563  , 796.6937    , 1.83        , 3           , 255         , 0           , 0
-0.153689012, 0.122585796 , -9.794985   , -0.000278478255, -0.000170893269, -0.0005059035, -0.0131506724, -0.015855018, 9.758599E-06, 921.0998    , 32.2170563  , 796.6937    , 1.84        , 3           , 255         , 0           , 0
-0.162933886, 0.12057896  , -9.790525   , 5.20345056E-05, -9.04388144E-05, -5.11996041E-05, -0.0131501425, -0.015855927, 9.258489E-06, 921.0998    , 32.2170563  , 796.6937    , 1.85        , 3           , 255         , 0           , 0
-0.153352886, 0.131745    , -9.792775   , -0.0003063804, 9.996584E-07, -0.000122760481, -0.0131531879, -0.0158559345, 8.030734E-06, 921.0998    , 32.2170563  , 796.6937    , 1.86        , 3           , 255         , 0           , 0
-0.152131557, 0.134484753 , -9.786993   , 0.000128466869, -0.0003074276, -5.78964246E-05, -0.0131518953, -0.0158590153, 7.492188E-06, 921.0998    , 32.2170563  , 796.6937    , 1.87        , 3           , 255         , 0           , 0
-0.152330175, 0.126152843 , -9.793589   , 0.0001651115, -1.21281482E-06, 0.000101585472, -0.01315026 , -0.0158590134, 8.508215E-06, 921.0998    , 32.2170563  , 796.6937    , 1.88        , 3           , 255         , 0           , 0
-0.157410771, 0.124815643 , -9.796289   , 0.000192148378, -0.00042572082, 0.0002569884, -0.0131483795, -0.015863236, 1.11341178E-05, 921.0998    , 32.2170563  , 796.6937    , 1.89        , 3           , 255         , 0           , 0
-0.157288924, 0.126848176 , -9.799296   , 0.000413727161, -0.0007391089, -0.0001944082, -0.0131442109, -0.0158706512, 9.287161E-06, 921.0998    , 32.2170563  , 796.6937    , 1.9         , 3           , 255         , 0           , 0
-0.16185157 , 0.131554842 , -9.794445   , -0.0002829713, -0.000490848266, -2.06952536E-05, -0.0131494785, -0.015870763, 9.183481E-06, 921.0998    , 32.2170563  , 796.7507    , 1.91        , 3           , 255         , 0           , 0
-0.155203119, 0.127499565 , -9.790049   , -0.000105670886, 0.000498274341, 0.00017430546, -0.0131505635, -0.0158657562, 1.08610257E-05, 921.0998    , 32.2170563  , 796.751038  , 1.92        , 3           , 255         , 0           , 0
-0.150042638, 0.132248327 , -9.792039   , 0.000713396352, 0.000241481408, 9.41459148E-05, -0.0131434444, -0.015863331, 1.17707477E-05, 921.187439  , 32.2198372  , 796.7514    , 1.93        , 3           , 255         , 0           , 0
-0.163073137, 0.122572228 , -9.80141    , -3.52994539E-06, 0.000569129246, -0.000291296339, -0.0131434342, -0.015857676, 8.78293849E-06, 921.187439  , 32.2198372  , 796.7518    , 1.94        , 3           , 255         , 0           , 0
-0.157195359, 0.1261628   , -9.791624   , -0.000236745807, 0.000144045684, 4.768291E-05, -0.0131458072, -0.0158562288, 9.240835E-06, 921.187439  , 32.2198372  , 796.752136  , 1.95        , 3           , 255         , 0           , 0
-0.152758554, 0.121582389 , -9.794729   , -0.000320526073, -0.000245085859, 4.102695E-05, -0.0131490193, -0.0158586744, 9.683327E-06, 921.187439  , 32.2198372  , 796.7525    , 1.96        , 3           , 255         , 0           , 0
-0.160133153, 0.128852487 , -9.799063   , -0.000150986132, 3.554049E-05, -0.0006657474, -0.0131504228, -0.0158584062, 3.02107378E-06, 921.187439  , 32.2198372  , 796.752869  , 1.97        , 3           , 255         , 0           , 0
-0.154472724, 0.13940306  , -9.793295   , -0.0001499097, 0.0005247144, -0.0006021191, -0.0131518273, -0.0158532411, -3.06920288E-06, 921.187439  , 32.2198372  , 796.753235  , 1.98        , 3           , 255         , 0           , 0
-0.150919825, 0.136972621 , -9.785133   , -1.76111935E-05, 0.000122339581, -0.000146406368, -0.01315198 , -0.0158520341, -4.549377E-06, 921.187439  , 32.2198372  , 796.7536    , 1.99        , 3           , 255         , 0           , 0
-0.157852158, 0.131202891 , -9.793284   , 0.000174388115, 0.000313277822, -0.0001113319, -0.0131502189, -0.015848916, -5.703911E-06, 921.187439  , 32.2198372  , 796.753967  , 2           , 3           , 0           , 7.4792366   , 200
-0.15468435 , 0.127201647 , -9.798318   , 0.00022091213, 0.0002670996, -0.00100093288, -0.0131501388, -0.0158485919, -1.57122486E-05, 921.187439  , 32.2198372  , 796.6997    , 2.01        , 3           , 1           , 0           , 0
-0.158871457, 0.121962234 , -9.80118    , 7.011002E-05, 0.000224080635, 0.000203175237, -0.0131494692, -0.0158463251, -1.37099305E-05, 921.187439  , 32.2198372  , 796.6997    , 2.02        , 3           , 2           , 0           , 0
-0.1526395  , 0.1265396   , -9.783292   , 0.000469302933, -0.000120574492, 0.0003260236, -0.0131448284, -0.0158474874, -1.04337887E-05, 921.1345    , 32.2167168  , 796.6997    , 2.03        , 3           , 3           , 0           , 0
-0.1533512  , 0.126894027 , -9.792933   , 0.000202072115, 0.000337894366, -0.000537653454, -0.0131427208, -0.01584418 , -1.58548264E-05, 921.1345    , 32.2167168  , 796.6997    , 2.04        , 3           , 4           , 0           , 0
-0.1502007  , 0.1302124   , -9.796186   , 0.000704838836, -1.35718728E-05, -0.000325329165, -0.0131356223, -0.0158443563, -1.91064009E-05, 921.1345    , 32.2167168  , 796.6997    , 2.05        , 3           , 5           , 0           , 0
-0.152143046, 0.1219156   , -9.793819   , 0.000144254009, -4.44042962E-05, -0.000258564076, -0.0131341377, -0.0158448331, -2.168624E-05, 921.1345    , 32.2167168  , 796.6997    , 2.06        , 3           , 6           , 0           , 0
-0.146747634, 0.124960944 , -9.798824   , -0.000311688578, -1.18790194E-05, -0.000129791617, -0.0131372334, -0.01584497 , -2.29826164E-05, 921.1345    , 32.2167168  , 796.6997    , 2.07        , 3           , 7           , 0           , 0
-0.154364139, 0.122574314 , -9.789874   , -0.000149411615, -0.000533283339, 0.0005477334, -0.0131388148, -0.0158502311, -1.74351371E-05, 921.1345    , 32.2167168  , 796.699768  , 2.08        , 3           , 8           , 5           , 5
-0.154070333, 0.132887319 , -9.797081   , 0.00016354135, -0.0003510483, 0.000109509936, -0.0131371971, -0.01585373 , -1.62939E-05, 921.1345    , 32.2167168  , 796.6998    , 2.09        , 3           , 9           , 5           , 0.1
-0.152516931, 0.120911159 , -9.802386   , 0.000282267516, 1.19378092E-05, 0.000230882724, -0.0131344115, -0.0158535782, -1.39866061E-05, 921.1345    , 32.2167168  , 796.6999    , 2.1         , 3           , 10          , 0.1         , 0.1
-0.152310953, 0.13031438  , -9.792612   , 0.000242859969, -1.76946633E-05, -4.25685E-05, -0.0131261153, -0.01584947 , -1.45028653E-05, 921.1345    , 32.2167168  , 796.7162    , 2.11        , 3           , 11          , 0.008114169 , 0.008114169
-0.156122208, 0.130088538 , -9.792956   , 0.000228138408, 0.000485260622, 0.000280505046, -0.0131238792, -0.0158445835, -1.17614609E-05, 921.1345    , 32.2167168  , 796.7163    , 2.12        , 3           , 12          , 0.174643889 , 0
-0.152023524, 0.121460319 , -9.798188   , 0.000176871778, 0.0003408841, 0.000412205816, -0.0131221749, -0.01584112 , -7.68407E-06, 921.1221    , 32.2179375  , 796.716431  , 2.13        , 3           , 13          , 0           , 0
-0.155862659, 0.128212735 , -9.793556   , -0.000198378111, 0.000255037041, -0.0005560167, -0.01312407 , -0.0158386435, -1.3277785E-05, 921.1221    , 32.2179375  , 796.716553  , 2.14        , 3           , 14          , -0.0006659024, -0.0008225317
-0.163921282, 0.128495291 , -9.79006    , -7.970672E-05, -0.000206210942, 7.299972E-05, -0.0131248794, -0.0158406943, -1.25207207E-05, 921.1221    , 32.2179375  , 796.7167    , 2.15        , 3           , 15          , 0           , -0.000132531175
-0.157476038, 0.124268964 , -9.792725   , -0.000110894616, 0.000399068784, -0.000529062352, -0.0131259058, -0.0158367734, -1.78637983E-05, 921.1221    , 32.2179375  , 796.7168    , 2.16        , 3           , 16          , 0           , 1.401298E-45
-0.163331121, 0.13376072  , -9.783511   , -8.91618E-05, 0.000140463468, -0.000112349007, -0.0131267784, -0.0158353839, -1.90057435E-05, 921.1221    , 32.2179375  , 796.7169    , 2.17        , 3           , 20          , 0           , 0
-0.152969122, 0.128109217 , -9.796072   , 1.4440564E-05, 0.000254774117, -0.0004543584, -0.0131265605, -0.0158328954, -2.35828484E-05, 921.1221    , 32.2179375  , 796.717041  , 2.18        , 3           , 21          , 0           , 0
-0.144919172, 0.127167821 , -9.795667   , 0.000420456374, -0.0002848332, 6.800503E-06, -0.0131223584, -0.0158357434, -2.3477447E-05, 921.1221    , 32.2179375  , 796.717163  , 2.19        , 3           , 22          , 0           , 0
-0.155284435, 0.12399634  , -9.785948   , 0.0003975884, 0.000183041964, 0.0003521079, -0.0131184375, -0.0158338659, -1.99803289E-05, 921.1221    , 32.2179375  , 796.717346  , 2.2         , 3           , 40          , 0           , 0
-0.146052778, 0.127615064 , -9.787951   , -0.000235631072, 0.0002349944, -0.0001981952, -0.0131186275, -0.0158322  , -2.2026954E-05, 921.1221    , 32.2179375  , 796.747864  , 2.21        , 3           , 41          , 0           , 0
-0.148643523, 0.128696412 , -9.79062    , 0.0003287283, 0.000204237527, 5.64766669E-05, -0.0131153492, -0.0158301517, -2.14889624E-05, 921.1221    , 32.2179375  , 796.7482    , 2.22        , 3           , 42          , 0           , 0
-0.148906365, 0.1256698   , -9.792204   , 4.4202432E-05, 0.000119853648, 0.000143391109, -0.0131149311, -0.0158289354, -2.007075E-05, 921.1484    , 32.2183456  , 796.7486    , 2.23        , 3           , 255         , 0           , 0
-0.152239084, 0.133140817 , -9.793127   , 0.000253713253, 0.000414332375, 0.00015861784, -0.0131124174, -0.0158247743, -1.85388835E-05, 921.1484    , 32.2183456  , 796.748962  , 2.24        , 3           , 255         , 0           , 0
-0.165064484, 0.136194631 , -9.792513   , 5.56512969E-05, 0.000438334479, -0.0001415534, -0.0131118381, -0.0158204082, -2.0011903E-05, 921.1484    , 32.2183456  , 796.7493    , 2.25        , 3           , 255         , 0           , 0
-0.155429   , 0.123135373 , -9.791951   , -0.000162452867, -0.000129883061, 0.000339595048, -0.0131135164, -0.01582166 , -1.65988877E-05, 921.1484    , 32.2183456  , 796.7497    , 2.26        , 3           , 255         , 0           , 0
-0.153537408, 0.123013392 , -9.786214   , -0.000160041964, -0.0002562221, 0.000806209166, -0.0131152431, -0.0158241168, -8.503087E-06, 921.1484    , 32.2183456  , 796.750061  , 2.27        , 3           , 255         , 0           , 0
-0.150195152, 0.128981277 , -9.794145   , 0.0005081305, -1.51685672E-05, 0.0003676407, -0.01311022 , -0.01582422 , -4.82465157E-06, 921.1484    , 32.2183456  , 796.7504    , 2.28        , 3           , 255         , 0           , 0
-0.154885858, 0.13076894  , -9.788964   , -0.000197288173, 0.000110780238, 7.982051E-05, -0.0131122051, -0.0158230979, -4.040962E-06, 921.1484    , 32.2183456  , 796.7508    , 2.29        , 3           , 255         , 0           , 0
-0.158146545, 0.12360058  , -9.793373   , 0.0002431134, -0.000123766367, 0.000267710944, -0.0131098181, -0.015824303, -1.34758147E-06, 921.1484    , 32.2183456  , 796.75116   , 2.3         , 3           , 255         , 0           , 0
-0.15200606 , 0.120739236 , -9.79124    , 0.000120193989, 7.059716E-05, -4.885951E-06, -0.0131078754, -0.0158196632, -1.41741759E-06, 921.1484    , 32.2183456  , 796.7437    , 2.31        , 3           , 255         , 0           , 0
-0.158863991, 0.128217489 , -9.797079   , -0.000311643118, 0.000492593332, -1.637495E-05, -0.0131109888, -0.0158147458, -1.64575079E-06, 921.1484    , 32.2183456  , 796.744     , 2.32        , 3           , 255         , 0           , 0
-0.16008392 , 0.130405515 , -9.786387   , -0.000256005733, 0.0005385189, 0.000169232444, -0.0131135741, -0.0158093348, -2.40209381E-08, 921.1751    , 32.2220078  , 796.7443    , 2.33        , 3           , 255         , 0           , 0
-0.152064   , 0.122840643 , -9.791756   , 0.000366344175, 0.000177382259, 6.40268845E-05, -0.0131099215, -0.0158075523, 5.929992E-07, 921.1751    , 32.2220078  , 796.7446    , 2.34        , 3           , 255         , 0           , 0
-0.154731959, 0.128736764 , -9.794747   , 0.0004004368, -0.0005034302, 0.000169444713, -0.0131059447, -0.0158125646, 2.35346283E-06, 921.1751    , 32.2220078  , 796.744934  , 2.35        , 3           , 255         , 0           , 0
-0.15356724 , 0.123747669 , -9.790635   , 0.000272142817, -0.000320805644, 0.0003278397, -0.0131032756, -0.01581573 , 5.673956E-06, 921.1751    , 32.2220078  , 796.745239  , 2.36        , 3           , 255         , 0           , 0
-0.1556632  , 0.124187827 , -9.788753   , 0.00013001659, 0.000327116577, -0.00024888615, -0.0131019363, -0.015812492, 3.14220256E-06, 921.1751    , 32.2220078  , 796.745544  , 2.37        , 3           , 255         , 0           , 0
-0.15341875 , 0.127628729 , -9.797577   , -0.000160175608, 8.892821E-05, -0.000112311362, -0.01310352 , -0.0158116184, 2.00741874E-06, 921.1751    , 32.2220078  , 796.74585   , 2.38        , 3           , 255         , 0           , 0
-0.155727237, 0.128725976 , -9.798851   , -0.000109589018, -0.000390256348, -0.0001777455, -0.0131045878, -0.0158155449, 2.810763E-07, 921.1751    , 32.2220078  , 796.746155  , 2.39        , 3           , 255         , 0           , 0
-0.157774478, 0.132965237 , -9.791628   , -0.000149364641, -5.609292E-05, -0.00051473896, -0.0131060006, -0.0158161726, -4.859034E-06, 921.1751    , 32.2220078  , 796.74646   , 2.4         , 3           , 255         , 0           , 0
-0.157384485, 0.128562316 , -9.792529   , -0.0005349442, -1.91479921E-06, -0.000425847335, -0.0131080728, -0.0158173516, -9.168104E-06, 921.1751    , 32.2220078  , 796.7042    , 2.41        , 3           , 255         , 0           , 0
-0.151802734, 0.131923318 , -9.797293   , -0.000529866, -0.000244011171, -0.000793209649, -0.0131132454, -0.0158198923, -1.70683252E-05, 921.1751    , 32.2220078  , 796.7043    , 2.42        , 3           , 255         , 0           , 0
-0.1568641  , 0.121892452 , -9.793715   , 6.84160041E-05, 0.000334995129, 4.16318653E-06, -0.0131125608, -0.0158165451, -1.70706171E-05, 921.1468    , 32.2213974  , 796.704346  , 2.43        , 3           , 255         , 0           , 0
-0.153761536, 0.135386139 , -9.792023   , -3.88500048E-05, 0.000278541585, 0.000302302884, -0.0131129967, -0.0158137213, -1.4084073E-05, 921.1468    , 32.2213974  , 796.7044    , 2.44        , 3           , 255         , 0           , 0
-0.148713753, 0.134691715 , -9.795437   , -6.935559E-06, 0.000167462043, -0.000107148255, -0.0131130489, -0.0158120636, -1.51775212E-05, 921.1468    , 32.2213974  , 796.704468  , 2.45        , 3           , 255         , 0           , 0
-0.159129739, 0.130602866 , -9.79136848 , -0.000628529757, -0.000117954332, -7.03817641E-05, -0.0131193232, -0.01581325 , -1.58658913E-05, 921.1468    , 32.2213974  , 796.7045    , 2.46        , 3           , 255         , 0           , 0
-0.163469627, 0.136515126 , -9.793947   , 0.00035050814, -8.156692E-05, 0.000246544485, -0.0131158568, -0.0158140324, -1.33897056E-05, 921.1468    , 32.2213974  , 796.7046    , 2.47        , 3           , 255         , 0           , 0
-0.159875154, 0.126962021 , -9.79276848 , 0.0006285725, 0.000111685309, 0.000649863039, -0.0131096737, -0.015812831, -6.90562365E-06, 921.1468    , 32.2213974  , 796.704651  , 2.48        , 3           , 255         , 0           , 0
-0.162945464, 0.128987327 , -9.793759   , 6.71006856E-05, 8.91663949E-05, 0.000364695123, -0.0131090619, -0.01581189 , -3.270319E-06, 921.1468    , 32.2213974  , 796.7047    , 2.49        , 3           , 255         , 0           , 0
-0.1519148  , 0.125309    , -9.798662   , 0.000165133446, -0.0004433184, -0.000226694276, -0.0131073752, -0.0158163533, -5.479183E-06, 921.1468    , 32.2213974  , 796.7048    , 2.5         , 3           , 255         , 0           , 0
-0.1610665  , 0.1289531   , -9.785588   , 0.000371377566, -0.000194944732, -0.000114292139, -0.0131067121, -0.0158214644, -6.54802443E-06, 921.1468    , 32.2213974  , 796.7056    , 2.51        , 3           , 255         , 0           , 0
-0.1703057  , 0.119803861 , -9.787592   , 8.300459E-05, -0.000264007656, -0.00038750004, -0.01310582 , -0.0158241559, -1.03884722E-05, 921.1468    , 32.2213974  , 796.7057    , 2.52        , 3           , 255         , 0           , 0
-0.161259368, 0.128996089 , -9.788412   , -6.943103E-05, 5.32124541E-05, 0.000709145039, -0.0131066265, -0.01582353 , -3.3038948E-06, 921.1467    , 32.2218056  , 796.70575   , 2.53        , 3           , 255         , 0           , 0
-0.15669    , 0.13368538  , -9.788916   , -4.4271E-06 , 0.000382337457, 0.000474510656, -0.0131067457, -0.0158196446, 1.39116992E-06, 921.1467    , 32.2218056  , 796.7058    , 2.54        , 3           , 255         , 0           , 0
-0.149363518, 0.129193172 , -9.788535   , 0.000231235288, -2.230506E-05, 0.000468661776, -0.0131045068, -0.0158198047, 6.08076243E-06, 921.1467    , 32.2218056  , 796.7059    , 2.55        , 3           , 255         , 0           , 0
-0.154763788, 0.122250095 , -9.786176   , 0.00015008531, -0.00013159198, 0.000164743091, -0.0131030334, -0.0158211  , 7.74547E-06 , 921.1467    , 32.2218056  , 796.705933  , 2.56        , 3           , 255         , 0           , 0
-0.152102545, 0.129865229 , -9.79109    , 8.78413E-05 , -0.000128137, 0.000164814381, -0.0131021813, -0.0158223584, 9.410424E-06, 921.1467    , 32.2218056  , 796.706     , 2.57        , 3           , 255         , 0           , 0
-0.1522673  , 0.127203315 , -9.798063   , 5.88150579E-05, 0.000118378841, 0.000349501963, -0.0131016485, -0.01582113 , 1.288999E-05, 921.1467    , 32.2218056  , 796.706055  , 2.58        , 3           , 255         , 0           , 0
-0.148301065, 0.124950089 , -9.803132   , -0.000269947923, 0.000153817236, 0.000382685219, -0.01310441 , -0.0158195421, 1.66967457E-05, 921.1467    , 32.2218056  , 796.7062    , 2.59        , 3           , 255         , 0           , 0
-0.156378344, 0.13164553  , -9.791021   , 3.88536137E-07, -0.000188191014, -6.644522E-05, -0.013104395, -0.0158214327, 1.60569489E-05, 921.1467    , 32.2218056  , 796.7063    , 2.6         , 3           , 255         , 0           , 0
-0.15004231 , 0.1344777   , -9.791513   , -0.000150948879, 0.000457797985, 0.000129818014, -0.0131043876, -0.0158199184, 1.72708242E-05, 921.1467    , 32.2218056  , 796.707031  , 2.61        , 3           , 255         , 0           , 0
-0.154211119, 0.1298729   , -9.786867   , 0.000400555175, 0.000175121764, 0.000122546131, -0.0131004  , -0.01581815 , 1.84733562E-05, 921.1467    , 32.2218056  , 796.707153  , 2.62        , 3           , 255         , 0           , 0
-0.152000353, 0.128426671 , -9.78760052 , -1.347682E-05, -0.000107592845, 0.000741163851, -0.013100653, -0.01581913 , 2.5899204E-05, 921.12085   , 32.2211952  , 796.7073    , 2.63        , 3           , 255         , 0           , 0
-0.158158138, 0.135948032 , -9.795931   , 9.12555261E-05, -0.000175328343, -0.000125094579, -0.01309972 , -0.0158209018, 2.46712116E-05, 921.12085   , 32.2211952  , 796.7074    , 2.64        , 3           , 255         , 0           , 0
-0.150532648, 0.132548362 , -9.802237   , 4.97861765E-05, -0.00021590665, 0.000188796083, -0.0130992522, -0.0158230346, 2.658748E-05, 921.12085   , 32.2211952  , 796.7075    , 2.65        , 3           , 255         , 0           , 0
-0.151920915, 0.122582912 , -9.801604   , 0.000277073676, -0.0004076258, 0.000166142112, -0.0130965076, -0.01582709 , 2.83023055E-05, 921.12085   , 32.2211952  , 796.707642  , 2.66        , 3           , 255         , 0           , 0
-0.154211089, 0.12799108  , -9.80223751 , -0.000160602969, 9.6951786E-05, 0.0011215359, -0.01309829 , -0.01582597 , 3.950512E-05, 921.12085   , 32.2211952  , 796.707764  , 2.67        , 3           , 255         , 0           , 0
-0.154607117, 0.130339324 , -9.796602   , 0.0001201235, 0.000236446678, 0.000233580155, -0.013097126, -0.0158235766, 4.1809988E-05, 921.12085   , 32.2211952  , 796.7079    , 2.68        , 3           , 255         , 0           , 0
-0.161455765, 0.120457925 , -9.794152   , 0.000206152152, 0.000449048239, -0.0005393276, -0.0130949784, -0.0158191565, 3.6357822E-05, 921.12085   , 32.2211952  , 796.708     , 2.69        , 3           , 255         , 0           , 0
-0.1695559  , 0.12448144  , -9.784239   , 9.826652E-05, 8.769054E-05, -0.000318140083, -0.0130939446, -0.01581832 , 3.316489E-05, 921.12085   , 32.2211952  , 796.7081    , 2.7         , 3           , 255         , 0           , 0
-0.1589419  , 0.13510038  , -9.782255   , 0.000424292724, -1.93216256E-05, -5.15539432E-05, -0.0130904177, -0.0158197228, 3.26633053E-05, 921.12085   , 32.2211952  , 796.7442    , 2.71        , 3           , 255         , 0           , 0
-0.1562652  , 0.130770981 , -9.790521   , -8.44693859E-05, 9.479164E-05, -0.000128787171, -0.0130912419, -0.0158187952, 3.136302E-05, 921.12085   , 32.2211952  , 796.744568  , 2.72        , 3           , 255         , 0           , 0
-0.149205312, 0.1289596   , -9.792253   , -0.000138742034, 0.000170994608, 2.12440427E-05, -0.0130926333, -0.0158170816, 3.15530669E-05, 921.1706    , 32.2222137  , 796.744934  , 2.73        , 3           , 255         , 0           , 0
-0.156001851, 0.133088514 , -9.796389   , -3.160222E-05, 0.00038513483, 0.000408370746, -0.0130930133, -0.0158131775, 3.55864067E-05, 921.1706    , 32.2222137  , 796.7453    , 2.74        , 3           , 255         , 0           , 0
-0.1482211  , 0.131413937 , -9.792212   , 0.0005428407, -0.0005851348, -0.000196186054, -0.0130875558, -0.0158190522, 3.37011224E-05, 921.1706    , 32.2222137  , 796.745667  , 2.75        , 3           , 255         , 0           , 0
-0.151087761, 0.123279169 , -9.787763   , 0.00025797775, -2.97976076E-05, -0.00034358917, -0.0130849211, -0.015819395, 3.02690732E-05, 921.1706    , 32.2222137  , 796.746033  , 2.76        , 3           , 255         , 0           , 0
-0.150579482, 0.129886225 , -9.791559   , 0.0005932705, 2.2029446E-05, 0.000138024072, -0.01307901 , -0.0158191565, 3.16464539E-05, 921.1706    , 32.2222137  , 796.7464    , 2.77        , 3           , 255         , 0           , 0
-0.156231418, 0.128042579 , -9.792366   , 0.000432522269, 8.42695E-05 , -2.63009715E-05, -0.01307468 , -0.0158183184, 3.13724267E-05, 921.1706    , 32.2222137  , 796.746765  , 2.78        , 3           , 255         , 0           , 0
-0.152210236, 0.121444844 , -9.790996   , 0.0006668564, 0.000356310571, -0.000185625526, -0.0130679831, -0.0158147831, 2.946958E-05, 921.1706    , 32.2222137  , 796.747131  , 2.79        , 3           , 255         , 0           , 0
-0.156923249, 0.129664555 , -9.786211   , 0.000127022038, 0.000153552683, -7.5685035E-05, -0.0130667007, -0.0158132575, 2.86926515E-05, 921.1706    , 32.2222137  , 796.7475    , 2.8         , 3           , 255         , 0           , 0
-0.154176   , 0.134108484 , -9.794495   , 0.000266588671, -1.4937541E-05, -0.000180792151, -0.013066357, -0.0158103723, 2.69238171E-05, 921.1706    , 32.2222137  , 796.709534  , 2.81        , 3           , 255         , 0           , 0
-0.151604027, 0.122417808 , -9.793746   , 0.000182936812, -0.0004107174, 9.6558324E-05, -0.0130645446, -0.0158144645, 2.79430751E-05, 921.1706    , 32.2222137  , 796.709656  , 2.82        , 3           , 255         , 0           , 0
-0.14682202 , 0.128716752 , -9.79066    , 0.0001285433, 0.00023189187, 0.00031730716, -0.01306331 , -0.0158121046, 3.10859032E-05, 921.134     , 32.22072    , 796.7098    , 2.83        , 3           , 255         , 0           , 0
-0.154160291, 0.1264212   , -9.789457   , 6.1642786E-05, 0.0007268718, -0.0004997146, -0.013062614, -0.0158049  , 2.59937242E-05, 921.134     , 32.22072    , 796.7099    , 2.84        , 3           , 255         , 0           , 0
-0.157054737, 0.136314869 , -9.793146   , -9.446853E-05, 5.76470047E-05, 9.489077E-05, -0.0130635733, -0.0158043113, 2.6935104E-05, 921.134     , 32.22072    , 796.71      , 2.85        , 3           , 255         , 0           , 0
-0.156204417, 0.131841809 , -9.795833   , 0.000136121584, -0.000100856938, -0.000477025344, -0.0130621362, -0.01580538 , 2.21779683E-05, 921.134     , 32.22072    , 796.710144  , 2.86        , 3           , 255         , 0           , 0
-0.152410135, 0.134035781 , -9.7945     , -0.000235876127, 0.000416579656, -2.17887864E-05, -0.0130644916, -0.0158012174, 2.19056528E-05, 921.134     , 32.22072    , 796.710266  , 2.87        , 3           , 255         , 0           , 0
-0.147404671, 0.129464954 , -9.793127   , -0.00026105 , 0.0006568343, 0.000292890938, -0.0130671468, -0.0157946125, 2.47487951E-05, 921.134     , 32.22072    , 796.7104    , 2.88        , 3           , 255         , 0           , 0
-0.145353615, 0.140272647 , -9.796196   , -0.0002285905, 0.0001255906, 0.000246760232, -0.0130694713, -0.0157933235, 2.72000143E-05, 921.134     , 32.22072    , 796.7105    , 2.89        , 3           , 255         , 0           , 0
-0.159416229, 0.133152157 , -9.801564   , 0.000454097055, -3.48161557E-05, 0.000594894169, -0.0130650252, -0.0157935936, 3.31535957E-05, 921.134     , 32.22072    , 796.710632  , 2.9         , 3           , 255         , 0           , 0
-0.1551873  , 0.13359639  , -9.790109   , 0.000134479662, 0.000248906668, -0.000110167035, -0.01307006 , -0.015787065, 3.21203843E-05, 921.134     , 32.22072    , 796.728455  , 2.91        , 3           , 255         , 0           , 0
-0.1565363  , 0.121099614 , -9.79659748 , -0.000261023059, 0.000284112117, 0.000236966531, -0.0130727077, -0.0157841928, 3.445294E-05, 921.134     , 32.22072    , 796.7287    , 2.92        , 3           , 255         , 0           , 0
-0.163425833, 0.119933069 , -9.801674   , -1.2230943E-05, 2.73393816E-05, 0.000112344656, -0.0130728474, -0.0157839041, 3.55728262E-05, 921.133057  , 32.2224159  , 796.728943  , 2.93        , 3           , 255         , 0           , 0
-0.1573229  , 0.126309112 , -9.790564   , -0.000520903268, -2.703641E-05, 3.55641168E-05, -0.0130780619, -0.01578417 , 3.59320038E-05, 921.133057  , 32.2224159  , 796.7292    , 2.94        , 3           , 255         , 0           , 0
-0.151955649, 0.128308743 , -9.784572   , -0.000339486636, 0.000203400152, 0.000307845883, -0.013081505, -0.0157820974, 3.8983897E-05, 921.133057  , 32.2224159  , 796.729431  , 2.95        , 3           , 255         , 0           , 0
-0.153157443, 0.123747304 , -9.790283   , -0.000556211337, 0.0004158855, 9.802482E-05, -0.0130870817, -0.0157779232, 3.99097371E-05, 921.133057  , 32.2224159  , 796.7297    , 2.96        , 3           , 255         , 0           , 0
-0.1601393  , 0.1340469   , -9.785599   , -0.000626723049, 0.000215075153, 3.64571461E-05, -0.0130933542, -0.01577577 , 4.024616E-05, 921.133057  , 32.2224159  , 796.7299    , 2.97        , 3           , 255         , 0           , 0
-0.1568981  , 0.1316073   , -9.790741   , -8.281664E-05, 0.0001638701, 0.0003262709, -0.0130942333, -0.015774088, 4.34874637E-05, 921.133057  , 32.2224159  , 796.730164  , 2.98        , 3           , 255         , 0           , 0
-0.154162452, 0.127872363 , -9.790086   , 0.000191056111, 8.024968E-05, 0.000170721571, -0.0130923493, -0.0157732628, 4.51841879E-05, 921.133057  , 32.2224159  , 796.7304    , 2.99        , 3           , 255         , 0           , 0
-0.161536485, 0.1334697   , -9.794477   , -1.10814E-05, -0.000217312889, -0.000417224073, -0.0130923958, -0.01577549 , 4.104034E-05, 921.133057  , 32.2224159  , 796.730652  , 3           , 3           , 0           , 8.479237    , 300
-0.156096384, 0.134167492 , -9.79685    , -4.39372379E-05, -8.217216E-05, -0.000378432625, -0.0130926082, -0.0157813951, 3.726408E-05, 921.133057  , 32.2224159  , 796.747     , 3.01        , 3           , 1           , 0           , 0
-0.153614491, 0.134827733 , -9.800329   , -0.000103813538, 0.000337618781, -0.0009858797, -0.0130934911, -0.0157781467, 2.73609458E-05, 921.133057  , 32.2224159  , 796.7474    , 3.02        , 3           , 2           , 0           , 0
-0.145537123, 0.1274127   , -9.797467   , -0.000198415015, 2.71266326E-05, 9.439596E-05, -0.0130954888, -0.0157778617, 2.83013524E-05, 921.1591    , 32.220108   , 796.747742  , 3.03        , 3           , 3           , 0           , 0
-0.152705342, 0.132345334 , -9.786364   , -1.69583363E-05, 0.000192934123, 0.0006032057, -0.0130957533, -0.0157758538, 3.430822E-05, 921.1591    , 32.220108   , 796.7481    , 3.04        , 3           , 4           , 0           , 0
-0.150910184, 0.138264969 , -9.781005   , 0.000343383756, -7.8406476E-05, 6.068585E-07, -0.0130923195, -0.0157766361, 3.432456E-05, 921.1591    , 32.220108   , 796.7485    , 3.05        , 3           , 5           , 0           , 0
-0.152807653, 0.126983553 , -9.791095   , -0.000266206625, 9.68161039E-05, -0.0006989508, -0.0130948713, -0.01577576 , 2.732228E-05, 921.1591    , 32.220108   , 796.74884   , 3.06        , 3           , 6           , 0           , 0
-0.162998036, 0.138776451 , -9.790767   , -2.90133758E-05, 0.000279562955, -0.00114177517, -0.0130949812, -0.0157731138, 1.586776E-05, 921.1591    , 32.220108   , 796.7492    , 3.07        , 3           , 7           , 0           , 0
-0.158010289, 0.1315665   , -9.789511   , -0.000114222872, 0.000139033829, -0.0007295357, -0.0130960075, -0.01577182 , 8.55409E-06 , 921.1591    , 32.220108   , 796.7496    , 3.08        , 3           , 8           , 5           , 5
-0.144554853, 0.11784713  , -9.800295   , -9.752781E-05, 0.000555897539, 0.000395695621, -0.013097045, -0.01576621 , 1.243829E-05, 921.1591    , 32.220108   , 796.749939  , 3.09        , 3           , 9           , 5           , 0.1
-0.15178749 , 0.130737051 , -9.798857   , 0.000161010656, 0.000283488655, -6.039407E-05, -0.0130954245, -0.0157633815, 1.17972122E-05, 921.1591    , 32.220108   , 796.7503    , 3.1         , 3           , 10          , 0.1         , 0.1
-0.160766512, 0.12469621  , -9.785283   , 8.46454641E-05, 0.000125152175, 0.000139252486, -0.0131000113, -0.0157592334, 1.32586383E-05, 921.1591    , 32.220108   , 796.7275    , 3.11        , 3           , 11          , 0.00735379755, 0.00735379662
-0.1466517  , 0.121932387 , -9.790601   , 0.000124882034, 7.588515E-05, 1.73663357E-05, -0.0130987642, -0.0157584734, 1.34223528E-05, 921.1591    , 32.220108   , 796.7277    , 3.12        , 3           , 12          , 0.174645633 , 0
-0.15268591 , 0.126173332 , -9.794627   , 0.0001509377, 1.3407087E-05, 9.16585E-05 , -0.0130972685, -0.0157583263, 1.43372008E-05, 921.154663  , 32.21692    , 796.727966  , 3.13        , 3           , 13          , 0           , 0
-0.160851762, 0.131951928 , -9.78844452 , -0.000249357137, 7.427868E-05, -6.18631E-05, -0.0130997524, -0.0157575924, 1.37088273E-05, 921.154663  , 32.21692    , 796.7282    , 3.14        , 3           , 14          , -0.0006658491, -0.0008225322
-0.144683361, 0.131281927 , -9.789787   , 0.0004999126, 0.000121153251, -0.0005153137, -0.0130946729, -0.0157564487, 8.53976053E-06, 921.154663  , 32.21692    , 796.728455  , 3.15        , 3           , 15          , 0           , -0.000132532019
-0.150863   , 0.126118153 , -9.794111   , 0.00011174567, -9.012956E-05, 0.000129683482, -0.0130935768, -0.0157573316, 9.848402E-06, 921.154663  , 32.21692    , 796.7287    , 3.16        , 3           , 16          , 0           , 1.401298E-45
-0.156158984, 0.127247915 , -9.785753   , -0.000178266433, 0.0005343271, 5.08547819E-05, -0.0130953658, -0.0157519858, 1.02869981E-05, 921.154663  , 32.21692    , 796.728943  , 3.17        , 3           , 20          , 0           , 0
-0.145553082, 0.132387429 , -9.803068   , 8.78697E-06 , 0.000202272553, 0.000111288493, -0.0130952941, -0.0157499462, 1.137339E-05, 921.154663  , 32.21692    , 796.7292    , 3.18        , 3           , 21          , 0           , 0
-0.154330522, 0.1316793   , -9.79727    , 0.000347997469, 0.000225884491, 4.183362E-05, -0.0130918231, -0.0157476813, 1.17621639E-05, 921.154663  , 32.21692    , 796.729431  , 3.19        , 3           , 22          , 0           , 0
-0.150646165, 0.128448844 , -9.788701   , 2.25970871E-05, 4.324253E-05, -0.000268900942, -0.0130915539, -0.0157472827, 9.067463E-06, 921.154663  , 32.21692    , 796.7297    , 3.2         , 3           , 40          , 0           , 0
-0.153870791, 0.127989054 , -9.792391   , 7.870933E-05, 6.95392955E-05, 0.000101737583, -0.0130906757, -0.01574271 , 1.00740554E-05, 921.154663  , 32.21692    , 796.715942  , 3.21        , 3           , 41          , 0           , 0
-0.154354021, 0.12677823  , -9.800103   , -0.00027202483, -8.44378956E-05, 0.0006998914, -0.0130935069, -0.0157434624, 1.70841249E-05, 921.154663  , 32.21692    , 796.7161    , 3.22        , 3           , 42          , 0           , 0
-0.1531716  , 0.122389689 , -9.781199   , 0.000226599455, -0.000322731561, 0.000220726113, -0.0130912764, -0.01574666 , 1.93336709E-05, 921.108459  , 32.2216034  , 796.7163    , 3.23        , 3           , 255         , 0           , 0
-0.1568611  , 0.129433557 , -9.791191   , 0.0001682422, 0.000208178244, 0.000476526737, -0.013089668, -0.0157445166, 2.407175E-05, 921.108459  , 32.2216034  , 796.7165    , 3.24        , 3           , 255         , 0           , 0
-0.1593401  , 0.134103447 , -9.78562    , 0.000505156931, 0.000304380141, 0.0004434383, -0.0130846854, -0.015741419, 2.84663565E-05, 921.108459  , 32.2216034  , 796.7167    , 3.25        , 3           , 255         , 0           , 0
-0.148126274, 0.1386588   , -9.79019    , -0.000115494186, 0.0007198799, 6.674313E-05, -0.0130858505, -0.0157342125, 2.90395965E-05, 921.108459  , 32.2216034  , 796.716858  , 3.26        , 3           , 255         , 0           , 0
-0.148421019, 0.1295492   , -9.798218   , -0.0001827341, 0.0005414572, -0.0003244985, -0.0130876275, -0.0157288387, 2.57237152E-05, 921.108459  , 32.2216034  , 796.717041  , 3.27        , 3           , 255         , 0           , 0
-0.1594527  , 0.1367587   , -9.793119   , -0.000472397369, -0.0001947059, 0.0006209704, -0.013092448, -0.0157307051, 3.19589853E-05, 921.108459  , 32.2216034  , 796.7172    , 3.28        , 3           , 255         , 0           , 0
-0.154872879, 0.135400325 , -9.790441   , -0.0004154208, -0.000307923532, -9.770226E-05, -0.0130965859, -0.0157337934, 3.102226E-05, 921.108459  , 32.2216034  , 796.7174    , 3.29        , 3           , 255         , 0           , 0
-0.161573336, 0.122137845 , -9.788778   , -0.000141244614, -0.00012807548, -0.0005452544, -0.013097913, -0.0157351457, 2.55864088E-05, 921.108459  , 32.2216034  , 796.7176    , 3.3         , 3           , 255         , 0           , 0
-0.167256549, 0.133887485 , -9.792382   , -0.000204322569, 0.000352523231, 0.0001684445, -0.0131043121, -0.0157332681, 2.72928319E-05, 921.108459  , 32.2216034  , 796.770935  , 3.31        , 3           , 255         , 0           , 0
-0.159198955, 0.125186279 , -9.805278   , -0.000100442674, 0.0003874497, 0.000857013161, -0.0131054493, -0.0157292839, 3.58122852E-05, 921.108459  , 32.2216034  , 796.7714    , 3.32        , 3           , 255         , 0           , 0
-0.153275132, 0.127378285 , -9.784628   , 0.0005813025, 0.000488382066, 0.000181740354, -0.0130996648, -0.0157243758, 3.75657219E-05, 921.1319    , 32.2205162  , 796.772     , 3.33        , 3           , 255         , 0           , 0
-0.164480358, 0.121509746 , -9.791858   , 7.957604E-05, -9.897049E-06, 0.000205909542, -0.0130989021, -0.0157244485, 3.96261421E-05, 921.1319    , 32.2205162  , 796.7725    , 3.34        , 3           , 255         , 0           , 0
-0.158021837, 0.1169721   , -9.796714   , -0.000244196039, 4.88287769E-05, 0.00059514516, -0.0131014362, -0.0157238822, 4.55712725E-05, 921.1319    , 32.2205162  , 796.7731    , 3.35        , 3           , 255         , 0           , 0
-0.154098392, 0.113685749 , -9.796712   , -8.229894E-05, 0.00011264265, 7.325523E-05, -0.0131022716, -0.015722746, 4.62890857E-05, 921.1319    , 32.2205162  , 796.7736    , 3.36        , 3           , 255         , 0           , 0
-0.152176678, 0.128620088 , -9.791224   , -2.5006535E-05, -0.000344783184, -0.00035757813, -0.0131024653, -0.01572624 , 4.27584237E-05, 921.1319    , 32.2205162  , 796.7742    , 3.37        , 3           , 255         , 0           , 0
-0.1545682  , 0.128036454 , -9.788765   , -0.000369226385, -0.000117791991, -0.000125711435, -0.0131061366, -0.0157274362, 4.151672E-05, 921.1319    , 32.2205162  , 796.7747    , 3.38        , 3           , 255         , 0           , 0
-0.16088511 , 0.134082779 , -9.794051   , -3.18221282E-07, 0.000503479561, -0.000403198384, -0.013106076, -0.0157224536, 3.74186857E-05, 921.1319    , 32.2205162  , 796.775269  , 3.39        , 3           , 255         , 0           , 0
-0.1654053  , 0.134339035 , -9.802884   , 0.000129081949, 0.000345427427, -0.0001153546, -0.0131047647, -0.0157190152, 3.621986E-05, 921.1319    , 32.2205162  , 796.7758    , 3.4         , 3           , 255         , 0           , 0
-0.154608682, 0.128278226 , -9.79759    , -0.000331332674, -7.320021E-05, -0.000466533, -0.0131049734, -0.0157274324, 3.15163743E-05, 921.1319    , 32.2205162  , 796.7876    , 3.41        , 3           , 255         , 0           , 0
-0.15065825 , 0.129332513 , -9.793437   , 3.438932E-05, 0.000430370332, 6.810608E-05, -0.0131046409, -0.0157231186, 3.21410444E-05, 921.1319    , 32.2205162  , 796.7882    , 3.42        , 3           , 255         , 0           , 0
-0.147778064, 0.123910464 , -9.794756   , -0.00011231337, 0.000556970248, -0.000101454061, -0.0131057473, -0.0157175623, 3.1053507E-05, 921.1224    , 32.2224159  , 796.7888    , 3.43        , 3           , 255         , 0           , 0
-0.148144215, 0.12717548  , -9.79192352 , 9.567494E-05, 0.000446645747, 0.000392468879, -0.0131048514, -0.0157130472, 3.49197144E-05, 921.1224    , 32.2224159  , 796.7894    , 3.44        , 3           , 255         , 0           , 0
-0.152028963, 0.127708048 , -9.799307   , -0.000406778883, 0.000362861523, -0.000254707644, -0.0131088793, -0.0157094523, 3.23250351E-05, 921.1224    , 32.2224159  , 796.790039  , 3.45        , 3           , 255         , 0           , 0
-0.160066783, 0.131760567 , -9.794263   , -0.00042159576, 7.898518E-05, 9.93677459E-05, -0.0131131094, -0.0157086477, 3.330836E-05, 921.1224    , 32.2224159  , 796.790649  , 3.46        , 3           , 255         , 0           , 0
-0.157576948, 0.129592329 , -9.787491   , 0.0004984379, 9.817182E-05, -0.000169246036, -0.0131080979, -0.0157076884, 3.16030128E-05, 921.1224    , 32.2224159  , 796.79126   , 3.47        , 3           , 255         , 0           , 0
-0.16425392 , 0.1297382   , -9.789053   , 0.000144475081, 6.42538653E-05, -0.000365055923, -0.0131065967, -0.0157070942, 2.79439773E-05, 921.1224    , 32.2224159  , 796.7919    , 3.48        , 3           , 255         , 0           , 0
-0.157454267, 0.122110881 , -9.7918     , -0.00021356123, 0.000320887018, -0.000719327538, -0.0131086186, -0.01570398 , 2.07085541E-05, 921.1224    , 32.2224159  , 796.7925    , 3.49        , 3           , 255         , 0           , 0
-0.155399948, 0.123665228 , -9.787621   , 0.000101804384, 0.000125484366, -4.054299E-05, -0.0131075932, -0.01570273 , 2.02866777E-05, 921.1224    , 32.2224159  , 796.7931    , 3.5         , 3           , 255         , 0           , 0
-0.15454343 , 0.131020039 , -9.793275   , 0.0005202894, 0.000312702323, -0.000312571123, -0.0131005608, -0.0157012269, 1.70919539E-05, 921.1224    , 32.2224159  , 796.8161    , 3.51        , 3           , 255         , 0           , 0
-0.151665479, 0.1412024   , -9.807847   , -0.000188264414, 0.0005752014, -0.000416990137, -0.0131023768, -0.0156955272, 1.28466381E-05, 921.1224    , 32.2224159  , 796.8169    , 3.52        , 3           , 255         , 0           , 0
-0.1479112  , 0.130750582 , -9.794797   , -0.000494970358, 0.0007272864, -0.000227386277, -0.0131072886, -0.0156882852, 1.0477439E-05, 921.1457    , 32.2225533  , 796.8177    , 3.53        , 3           , 255         , 0           , 0
-0.159609586, 0.132699043 , -9.789617   , -0.000413535861, 0.00024798658, -0.000401774421, -0.01311136 , -0.0156858582, 6.42714258E-06, 921.1457    , 32.2225533  , 796.8185    , 3.54        , 3           , 255         , 0           , 0
-0.154499292, 0.135919362 , -9.789604   , -0.000107372645, 5.90567361E-05, -0.0005814517, -0.0131123429, -0.0156853441, 6.0480113E-07, 921.1457    , 32.2225533  , 796.8193    , 3.55        , 3           , 255         , 0           , 0
-0.150287956, 0.130950615 , -9.79375    , 0.0003799565, -0.000128935673, -0.0001687092, -0.013108518, -0.0156866554, -1.065404E-06, 921.1457    , 32.2225533  , 796.820068  , 3.56        , 3           , 255         , 0           , 0
-0.154406473, 0.124046579 , -9.79171    , -0.000182699761, 2.49901786E-05, -0.000186706951, -0.0131103154, -0.0156864282, -2.93577364E-06, 921.1457    , 32.2225533  , 796.820862  , 3.57        , 3           , 255         , 0           , 0
-0.152514368, 0.127361566 , -9.785167   , -4.61544259E-05, 0.000439595518, 2.66247225E-05, -0.0131107811, -0.0156820286, -2.72716079E-06, 921.1457    , 32.2225533  , 796.821655  , 3.58        , 3           , 255         , 0           , 0
-0.156524211, 0.12727657  , -9.790639   , -0.00034515874, 0.000367036351, 0.000664606 , -0.0131143369, -0.0156782717, 3.870849E-06, 921.1457    , 32.2225533  , 796.822449  , 3.59        , 3           , 255         , 0           , 0
-0.161156565, 0.123466693 , -9.792903   , 0.000211546809, 0.000282117224, 0.0006656825, -0.0131123262, -0.0156753678, 1.04907449E-05, 921.1457    , 32.2225533  , 796.823242  , 3.6         , 3           , 255         , 0           , 0
-0.150926217, 0.131032333 , -9.78875    , 0.0008108287, -0.0003691304, -0.000261310779, -0.0131076062, -0.0156802181, 7.979759E-06, 921.1457    , 32.2225533  , 796.8085    , 3.61        , 3           , 255         , 0           , 0
-0.155697554, 0.124777362 , -9.795032   , 0.0002667453, 1.6714388E-05, -0.0005514462, -0.0131048514, -0.015680125, 2.46305444E-06, 921.1457    , 32.2225533  , 796.809143  , 3.62        , 3           , 255         , 0           , 0
-0.1547455  , 0.123102508 , -9.79368    , -9.905774E-05, 0.000154561247, 0.000421147153, -0.0131059075, -0.015678525, 6.65431025E-06, 921.1815    , 32.2210579  , 796.8098    , 3.63        , 3           , 255         , 0           , 0
-0.155333236, 0.129596472 , -9.79721451 , 0.0003066766, 0.000217501482, -4.01106081E-05, -0.013102836, -0.015676355, 6.22469224E-06, 921.1815    , 32.2210579  , 796.8105    , 3.64        , 3           , 255         , 0           , 0
-0.155061513, 0.132819861 , -9.792006   , -0.000374327821, 0.0003182075, 3.62602877E-05, -0.0131065836, -0.0156731661, 6.545594E-06, 921.1815    , 32.2210579  , 796.811157  , 3.65        , 3           , 255         , 0           , 0
-0.156939447, 0.130312786 , -9.785131   , 0.000294011552, 0.0002732448, 0.000540853944, -0.0131037291, -0.0156703629, 1.19183851E-05, 921.1815    , 32.2210579  , 796.8118    , 3.66        , 3           , 255         , 0           , 0
-0.151343077, 0.12797299  , -9.79249    , 8.7966735E-05, 0.000236532127, 0.000791099563, -0.0131029747, -0.0156678967, 1.979849E-05, 921.1815    , 32.2210579  , 796.8125    , 3.67        , 3           , 255         , 0           , 0
-0.149373576, 0.128551513 , -9.792716   , -0.000420086959, -0.000153479283, -4.60439624E-05, -0.0131071676, -0.0156694353, 1.93581545E-05, 921.1815    , 32.2210579  , 796.8132    , 3.68        , 3           , 255         , 0           , 0
-0.16469425 , 0.126165345 , -9.787332   , 0.000181726879, -0.000224647112, 0.000149995656, -0.0131053738, -0.015671663, 2.088759E-05, 921.1815    , 32.2210579  , 796.813843  , 3.69        , 3           , 255         , 0           , 0
-0.160217464, 0.127937108 , -9.788194   , 0.000223210343, -9.41628241E-05, 0.00103136792, -0.0131033035, -0.0156724658, 3.121373E-05, 921.1815    , 32.2210579  , 796.8145    , 3.7         , 3           , 255         , 0           , 0
-0.152063489, 0.130755514 , -9.790178   , 0.0008538867, 0.000119652017, 0.000386105268, -0.0130946469, -0.0156748071, 3.50563678E-05, 921.1815    , 32.2210579  , 796.7504    , 3.71        , 3           , 255         , 0           , 0
-0.161178753, 0.128967017 , -9.800936   , 0.000550699 , -0.000148768071, -0.0002169315, -0.0130891073, -0.0156763177, 3.29064933E-05, 921.1815    , 32.2210579  , 796.750732  , 3.72        , 3           , 255         , 0           , 0
-0.1593947  , 0.1352358   , -9.784948   , 7.73021E-05 , 6.702106E-05, 0.0004829563, -0.0130884089, -0.0156755839, 3.77273427E-05, 921.1612    , 32.2211952  , 796.751038  , 3.73        , 3           , 255         , 0           , 0
-0.153914109, 0.1274952   , -9.787432   , 0.000515984 , 0.000280112785, -0.000155068046, -0.0130832242, -0.0156728011, 3.6139998E-05, 921.1612    , 32.2211952  , 796.751343  , 3.74        , 3           , 255         , 0           , 0
-0.163340762, 0.135605887 , -9.794619   , -0.000121236953, 0.000779855938, 0.000371303351, -0.0130844936, -0.0156649556, 3.97510266E-05, 921.1612    , 32.2211952  , 796.751648  , 3.75        , 3           , 255         , 0           , 0
-0.157311648, 0.121484496 , -9.794365   , 0.000146464852, 2.27913843E-05, -0.000279009226, -0.0130829858, -0.0156647637, 3.69579175E-05, 921.1612    , 32.2211952  , 796.751953  , 3.76        , 3           , 255         , 0           , 0
-0.154049963, 0.115608476 , -9.79182148 , 2.11028964E-05, -0.000416118477, -0.00118922617, -0.01308259 , -0.0156690814, 2.5119949E-05, 921.1612    , 32.2211952  , 796.752258  , 3.77        , 3           , 255         , 0           , 0
-0.153059542, 0.12690182  , -9.787732   , -4.950026E-05, -0.00032173068, -0.0009911441, -0.013082928, -0.0156724248, 1.52504754E-05, 921.1612    , 32.2211952  , 796.752563  , 3.78        , 3           , 255         , 0           , 0
-0.150872827, 0.128693283 , -9.7901125  , -0.000156005379, 0.00012548262, -0.000283865375, -0.0130844442, -0.0156712085, 1.2395366E-05, 921.1612    , 32.2211952  , 796.752869  , 3.79        , 3           , 255         , 0           , 0
-0.154306   , 0.12531966  , -9.795962   , -0.000403130078, -9.436329E-05, 0.0008739478, -0.013088611, -0.0156720337, 2.114731E-05, 921.1612    , 32.2211952  , 796.7532    , 3.8         , 3           , 255         , 0           , 0
-0.146867782, 0.131659836 , -9.793627   , -0.000447222672, 5.707465E-05, 0.0004138404, -0.0130922478, -0.0156757869, 2.52641385E-05, 921.1612    , 32.2211952  , 796.726563  , 3.81        , 3           , 255         , 0           , 0
-0.151207611, 0.119490638 , -9.806852   , -0.000347885, 0.0003758128, -0.000180978575, -0.0130956974, -0.01567205 , 2.340512E-05, 921.1612    , 32.2211952  , 796.7267    , 3.82        , 3           , 255         , 0           , 0
-0.1602457  , 0.122225165 , -9.785568   , 2.69116717E-05, 0.0002021523, 8.374453E-05, -0.0130954413, -0.01567002 , 2.42161022E-05, 921.1336    , 32.2226868  , 796.7268    , 3.83        , 3           , 255         , 0           , 0
-0.15429911 , 0.129011273 , -9.792536   , 0.000186313991, 0.000159132527, 0.000183671131, -0.0130936056, -0.0156684034, 2.60319975E-05, 921.1336    , 32.2226868  , 796.7269    , 3.84        , 3           , 255         , 0           , 0
-0.1524935  , 0.125984654 , -9.784483   , -0.000114210707, 9.865151E-05, 0.00021791883, -0.013094781, -0.0156673882, 2.81982866E-05, 921.1336    , 32.2226868  , 796.727051  , 3.85        , 3           , 255         , 0           , 0
-0.1505018  , 0.135457575 , -9.789244   , 0.000147120154, 0.0004090537, 0.0002951737, -0.013093356, -0.0156632643, 3.10965042E-05, 921.1336    , 32.2226868  , 796.7272    , 3.86        , 3           , 255         , 0           , 0
-0.144376472, 0.126960784 , -9.794219   , 0.000288680138, 7.887487E-05, 0.0004786332, -0.0130905453, -0.0156624112, 3.58725665E-05, 921.1336    , 32.2226868  , 796.7273    , 3.87        , 3           , 255         , 0           , 0
-0.152402177, 0.130498618 , -9.791887   , -0.000324392051, -0.0003471304, 0.000371809525, -0.0130938469, -0.0156658329, 3.96361429E-05, 921.1336    , 32.2226868  , 796.7274    , 3.88        , 3           , 255         , 0           , 0
-0.155024439, 0.127505928 , -9.792965   , 0.0002704078, -7.83454743E-05, -0.000284496229, -0.0130910985, -0.0156666543, 3.680141E-05, 921.1336    , 32.2226868  , 796.7276    , 3.89        , 3           , 255         , 0           , 0
-0.158508   , 0.11649362  , -9.790433   , 0.000619121536, -0.000355124066, 0.000328601222, -0.01308496 , -0.0156701617, 4.0133953E-05, 921.1336    , 32.2226868  , 796.7278    , 3.9         , 3           , 255         , 0           , 0
-0.154173151, 0.115822777 , -9.796503   , -1.65945967E-05, -0.000198410358, 0.00114105456, -0.0130824437, -0.0156705566, 5.152573E-05, 921.1336    , 32.2226868  , 796.7441    , 3.91        , 3           , 255         , 0           , 0
-0.150847465, 0.129093677 , -9.79483    , -3.84579762E-05, -0.000170468935, 0.000155550311, -0.0130828507, -0.01567224 , 5.310355E-05, 921.1336    , 32.2226868  , 796.7443    , 3.92        , 3           , 255         , 0           , 0
-0.151492447, 0.124740407 , -9.793314   , 9.583187E-05, -0.000103480415, -0.0006034712, -0.0130817993, -0.0156733561, 4.7082307E-05, 921.106445  , 32.22228    , 796.744568  , 3.93        , 3           , 255         , 0           , 0
-0.154192075, 0.125078738 , -9.787509   , 0.00017378683, 0.0001554786, -0.0003714588, -0.0130800018, -0.0156718474, 4.3347336E-05, 921.106445  , 32.22228    , 796.7448    , 3.94        , 3           , 255         , 0           , 0
-0.16408062 , 0.137587592 , -9.800316   , 0.000343143183, 0.000295033969, -0.000244462, -0.0130765336, -0.0156689286, 4.08641E-05 , 921.106445  , 32.22228    , 796.745056  , 3.95        , 3           , 255         , 0           , 0
-0.15548341 , 0.131086618 , -9.790021   , 0.0009534068, 0.000167814549, 3.116457E-05, -0.0130670033, -0.0156672485, 4.11538131E-05, 921.106445  , 32.22228    , 796.7453    , 3.96        , 3           , 255         , 0           , 0
-0.152212933, 0.1269656   , -9.791134   , 0.00050635857, 0.00052283617, 0.0002620744, -0.0130619807, -0.0156619847, 4.37062845E-05, 921.106445  , 32.22228    , 796.745544  , 3.97        , 3           , 255         , 0           , 0
-0.157027721, 0.135025561 , -9.789952   , -6.460678E-05, -2.55270861E-05, 6.141321E-05, -0.0130626373, -0.0156622324, 4.432376E-05, 921.106445  , 32.22228    , 796.7458    , 3.98        , 3           , 255         , 0           , 0
-0.156783536, 0.137569129 , -9.78848    , 0.000122547732, 0.000353762851, 7.731702E-05, -0.0130614219, -0.0156586859, 4.505073E-05, 921.106445  , 32.22228    , 796.746033  , 3.99        , 3           , 255         , 0           , 0
-0.159321338, 0.139470518 , -9.7921505  , 0.000138597388, 6.74114563E-05, -0.000139009644, -0.0130600147, -0.0156580266, 4.365181E-05, 921.106445  , 32.22228    , 796.7463    , 4           , 3           , 0           , 9.479237    , 400
-0.1565952  , 0.129537851 , -9.796413   , -0.000132341986, 0.000115882081, -0.000450207444, -0.0130647868, -0.01566031 , 3.91896574E-05, 921.106445  , 32.22228    , 796.79834   , 4.01        , 3           , 1           , 0           , 0
-0.14277412 , 0.116015054 , -9.79458    , 0.000125424122, 0.000260705769, 0.000512335 , -0.0130636115, -0.0156576335, 4.42789969E-05, 921.106445  , 32.22228    , 796.79895   , 4.02        , 3           , 2           , 0           , 0
-0.152950883, 0.114566907 , -9.791028   , -5.4824457E-05, 0.0005183204, 0.000339987164, -0.013064215, -0.0156524088, 4.76112073E-05, 921.1415    , 32.2220764  , 796.799561  , 4.03        , 3           , 3           , 0           , 0
-0.160466284, 0.128112867 , -9.783547   , -0.000290148484, 0.000160044234, 0.0003206394, -0.0130671645, -0.015650766, 5.079673E-05, 921.1415    , 32.2220764  , 796.8002    , 4.04        , 3           , 4           , 0           , 0
-0.151065081, 0.1279022   , -9.7853     , -5.52298734E-05, -0.000210489554, -0.000442937016, -0.0130676478, -0.01565293 , 4.639482E-05, 921.1415    , 32.2220764  , 796.8008    , 4.05        , 3           , 5           , 0           , 0
-0.155421138, 0.123927556 , -9.788624   , -9.591965E-05, 0.00038424955, -0.000153141256, -0.0130685829, -0.01564911 , 4.481318E-05, 921.1415    , 32.2220764  , 796.8014    , 4.06        , 3           , 6           , 0           , 0
-0.159808964, 0.125617892 , -9.781252   , 0.00048741285, 0.000210482453, -0.0005579789, -0.0130636226, -0.0156470779, 3.920582E-05, 921.1415    , 32.2220764  , 796.802     , 4.07        , 3           , 7           , 0           , 0
-0.1486532  , 0.12428771  , -9.780241   , 0.000479904615, -0.000391290232, 6.813784E-05, -0.0130588338, -0.01565098 , 3.99383171E-05, 921.1415    , 32.2220764  , 796.8026    , 4.08        , 3           , 8           , 5           , 5
-0.15830496 , 0.124410331 , -9.789637   , 0.0004854448, -0.00017398718, 0.00115223275, -0.0130541613, -0.0156525727, 5.148351E-05, 921.1415    , 32.2220764  , 796.8032    , 4.09        , 3           , 9           , 5           , 0.1
-0.154314265, 0.12059132  , -9.792609   , 4.59550647E-05, 0.000408557535, -3.95257666E-06, -0.0130537013, -0.015648488, 5.13906562E-05, 921.1415    , 32.2220764  , 796.803833  , 4.1         , 3           , 10          , 0.1         , 0.1
-0.145503357, 0.122754537 , -9.792126   , 2.2491964E-05, -0.0006336793, 0.0006944466, -0.013043615, -0.0156565439, 5.826185E-05, 921.1415    , 32.2220764  , 796.798     , 4.11        , 3           , 11          , 0.00678560371, 0.00678560138
-0.1528768  , 0.128797323 , -9.796201   , 8.561992E-05, 0.000263302878, 0.000299224368, -0.0130428066, -0.015653871, 6.121979E-05, 921.1415    , 32.2220764  , 796.7985    , 4.12        , 3           , 12          , 0.174648076 , 0
-0.161111265, 0.132752568 , -9.780471   , -0.000157164119, -8.527591E-05, -0.000351375, -0.0130443228, -0.0156547688, 5.77171049E-05, 921.139954  , 32.22384    , 796.7991    , 4.13        , 3           , 13          , 0           , 0
-0.153701276, 0.128693342 , -9.791368   , -0.000149255327, -0.0003443667, -0.000295956823, -0.0130457673, -0.0156582538, 5.48024182E-05, 921.139954  , 32.22384    , 796.7996    , 4.14        , 3           , 14          , -0.000665907864, -0.000822404458
-0.15493378 , 0.136036441 , -9.792408   , 8.05720338E-05, -8.800201E-05, 8.579773E-05, -0.0130449748, -0.0156591218, 5.56718842E-05, 921.139954  , 32.22384    , 796.8002    , 4.15        , 3           , 15          , 0           , -0.000132529414
-0.153577849, 0.129235476 , -9.801511   , 0.000490330858, -0.0003170877, -2.672983E-06, -0.0130400732, -0.01566229 , 5.56865161E-05, 921.139954  , 32.22384    , 796.8007    , 4.16        , 3           , 16          , 0           , 1.401298E-45
-0.156797886, 0.1271578   , -9.796103   , -1.95113826E-05, -4.23775055E-06, 0.000233542974, -0.0130403042, -0.0156623013, 5.80225242E-05, 921.139954  , 32.22384    , 796.8013    , 4.17        , 3           , 20          , 0           , 0
-0.15629217 , 0.125132278 , -9.7873745  , -0.000335627818, -3.126741E-05, -8.879087E-05, -0.0130436476, -0.0156626273, 5.71386845E-05, 921.139954  , 32.22384    , 796.8019    , 4.18        , 3           , 21          , 0           , 0
-0.1581693  , 0.1312459   , -9.778679   , 0.000147824816, -0.0005333911, 0.000351231021, -0.0130422246, -0.0156679135, 6.07206166E-05, 921.139954  , 32.22384    , 796.8025    , 4.19        , 3           , 22          , 0           , 0
-0.153910369, 0.139752552 , -9.79132652 , -0.0002518269, -0.0003604106, 0.000477709778, -0.0130448174, -0.0156714525, 6.554477E-05, 921.139954  , 32.22384    , 796.8031    , 4.2         , 3           , 40          , 0           , 0
-0.152874365, 0.120025218 , -9.79674    , 5.051226E-05, 4.82617179E-05, 8.242492E-05, -0.0130486228, -0.01567335 , 6.643005E-05, 921.139954  , 32.22384    , 796.7994    , 4.21        , 3           , 41          , 0           , 0
-0.14942348 , 0.122653805 , -9.798898   , 0.0003320625, 7.906277E-05, -0.000265702256, -0.01304526 , -0.0156725943, 6.37626945E-05, 921.139954  , 32.22384    , 796.7999    , 4.22        , 3           , 42          , 0           , 0
-0.146031976, 0.126277953 , -9.77976    , 0.000278395542, -3.46345478E-05, -0.000382265425, -0.0130424164, -0.01567299 , 5.99445048E-05, 921.0813    , 32.2216034  , 796.8005    , 4.23        , 3           , 255         , 0           , 0
-0.1687708  , 0.1209615   , -9.798128   , -0.000187465339, 0.00031891  , 7.35310241E-05, -0.0130443033, -0.015669791, 6.06382237E-05, 921.0813    , 32.2216034  , 796.801     , 4.24        , 3           , 255         , 0           , 0
-0.157265455, 0.120807886 , -9.790835   , -0.000352989, -0.000200857932, -9.850322E-06, -0.0130478311, -0.0156718  , 6.05659261E-05, 921.0813    , 32.2216034  , 796.8016    , 4.25        , 3           , 255         , 0           , 0
-0.160336673, 0.124397315 , -9.784392   , -7.387466E-05, -0.000168013677, 0.0003101866, -0.0130486181, -0.0156734418, 6.368975E-05, 921.0813    , 32.2216034  , 796.8021    , 4.26        , 3           , 255         , 0           , 0
-0.157837853, 0.1325444   , -9.794786   , -0.000516660337, 4.72010579E-05, 0.000104130217, -0.0130538018, -0.0156729557, 6.472491E-05, 921.0813    , 32.2216034  , 796.8027    , 4.27        , 3           , 255         , 0           , 0
-0.154391035, 0.134358928 , -9.798731   , -0.000737816852, 0.000292256824, -0.0006953509, -0.013061068, -0.0156701189, 5.77331375E-05, 921.0813    , 32.2216034  , 796.8032    , 4.28        , 3           , 255         , 0           , 0
-0.149145827, 0.126371175 , -9.798723   , -0.0003760333, -1.10714464E-05, -0.000261479639, -0.0130647887, -0.015670266, 5.51197554E-05, 921.0813    , 32.2216034  , 796.8038    , 4.29        , 3           , 255         , 0           , 0
-0.157684878, 0.123807989 , -9.794564   , 0.000191084837, 0.000172541768, -0.0002666444, -0.0130628357, -0.0156685747, 5.243074E-05, 921.0813    , 32.2216034  , 796.8043    , 4.3         , 3           , 255         , 0           , 0
-0.158485115, 0.123250648 , -9.795046   , 0.000133959984, 0.000211603765, 0.00013165077, -0.0130578494, -0.01566913 , 5.36621665E-05, 921.0813    , 32.2216034  , 796.883667  , 4.31        , 3           , 255         , 0           , 0
-0.1572584  , 0.13824378  , -9.800016   , -0.000229952042, -0.00037066295, -0.0006343608, -0.0130600492, -0.01567292 , 4.736688E-05, 921.0813    , 32.2216034  , 796.8847    , 4.32        , 3           , 255         , 0           , 0
-0.156888947, 0.134535164 , -9.786536   , 0.000327286078, -0.000313350058, 0.000311386131, -0.0130568268, -0.0156760141, 5.05217E-05 , 921.1644    , 32.21943    , 796.885742  , 4.33        , 3           , 255         , 0           , 0
-0.153644055, 0.132057786 , -9.782664   , -1.04316277E-05, -0.00032428425, -0.000660332153, -0.0130568268, -0.0156793427, 4.396063E-05, 921.1644    , 32.21943    , 796.8868    , 4.34        , 3           , 255         , 0           , 0
-0.153499186, 0.122901022 , -9.785807   , -1.02299964E-05, -6.201066E-05, -0.000524854055, -0.0130568473, -0.01568003 , 3.872012E-05, 921.1644    , 32.21943    , 796.8879    , 4.35        , 3           , 255         , 0           , 0
-0.15642786 , 0.122440174 , -9.797617   , -0.0001074968, 0.0001679933, -0.000393978669, -0.01305786 , -0.015678402, 3.475835E-05, 921.1644    , 32.21943    , 796.889     , 4.36        , 3           , 255         , 0           , 0
-0.140913233, 0.124041751 , -9.792338   , 0.00033080086, -0.000155377376, -0.000127101142, -0.0130545339, -0.0156799722, 3.35076038E-05, 921.1644    , 32.21943    , 796.8901    , 4.37        , 3           , 255         , 0           , 0
-0.142946124, 0.122838005 , -9.795309   , -7.54395151E-05, -0.0001609546, -8.976579E-05, -0.0130552733, -0.0156815927, 3.26309528E-05, 921.1644    , 32.21943    , 796.8912    , 4.38        , 3           , 255         , 0           , 0
-0.151377767, 0.112641886 , -9.794138   , 0.000195915636, -0.0006329002, 0.000308351 , -0.0130533632, -0.015687881, 3.57971221E-05, 921.1644    , 32.21943    , 796.8923    , 4.39        , 3           , 255         , 0           , 0
-0.1509918  , 0.126377016 , -9.793535   , 0.00028190235, -0.0003190246, 0.0004765684, -0.0130506195, -0.01569101 , 4.06045147E-05, 921.1644    , 32.21943    , 796.8934    , 4.4         , 3           , 255         , 0           , 0
-0.1621115  , 0.128507167 , -9.794859   , -8.65123E-05, 0.00012582948, -5.78808249E-06, -0.013048498, -0.0156877078, 4.04833954E-05, 921.1644    , 32.21943    , 796.842163  , 4.41        , 3           , 255         , 0           , 0
-0.157432288, 0.128741235 , -9.789278   , -0.0006565574, 0.000403631042, -0.000134356786, -0.0130550433, -0.01568369 , 3.90871319E-05, 921.1644    , 32.21943    , 796.8429    , 4.42        , 3           , 255         , 0           , 0
-0.151321486, 0.13278535  , -9.78291    , -0.000155125279, -0.000260693021, 0.000182543285, -0.0130566219, -0.0156862717, 4.09466229E-05, 921.1146    , 32.2170563  , 796.8436    , 4.43        , 3           , 255         , 0           , 0
-0.154659063, 0.126343742 , -9.788211   , -0.000144905935, -0.0008952195, -9.026819E-05, -0.0130580589, -0.0156952348, 4.016083E-05, 921.1146    , 32.2170563  , 796.84436   , 4.44        , 3           , 255         , 0           , 0
-0.152426213, 0.1299856   , -9.78665    , 2.853066E-05, 3.88000626E-06, -0.000284166861, -0.0130577292, -0.0156952329, 3.73186158E-05, 921.1146    , 32.2170563  , 796.8451    , 4.45        , 3           , 255         , 0           , 0
-0.141541332, 0.1326592   , -9.789271   , 0.000294331141, 0.0004850151, -0.000730301, -0.0130546717, -0.01569048 , 2.99521926E-05, 921.1146    , 32.2170563  , 796.8458    , 4.46        , 3           , 255         , 0           , 0
-0.153391287, 0.128175974 , -9.801422   , 0.000162790937, -0.000207057921, -0.000176732166, -0.0130530158, -0.015692573, 2.82118672E-05, 921.1146    , 32.2170563  , 796.8466    , 4.47        , 3           , 255         , 0           , 0
-0.1591078  , 0.127680272 , -9.798044   , 0.0001379642, -2.48916913E-05, -0.0004383206, -0.0130515667, -0.0156928785, 2.38318644E-05, 921.1146    , 32.2170563  , 796.8474    , 4.48        , 3           , 255         , 0           , 0
-0.153534561, 0.13276571  , -9.78337    , -0.0001978465, 0.0004930764, 0.0003980965, -0.0130536072, -0.0156878959, 2.77485124E-05, 921.1146    , 32.2170563  , 796.8482    , 4.49        , 3           , 255         , 0           , 0
-0.150536492, 0.13114728  , -9.781449   , 0.000187194732, 0.000193716434, 0.0002727054, -0.0130517771, -0.0156859234, 3.04503283E-05, 921.1146    , 32.2170563  , 796.849     , 4.5         , 3           , 255         , 0           , 0
-0.1480533  , 0.127570063 , -9.785141   , -2.18965579E-06, -0.000200153387, -0.000154292109, -0.0130556151, -0.015687814, 2.89937561E-05, 921.1146    , 32.2170563  , 796.8743    , 4.51        , 3           , 255         , 0           , 0
-0.140629545, 0.120228812 , -9.791028   , 0.000233580678, -4.41503362E-05, -0.000467720267, -0.0130532067, -0.0156883169, 2.432225E-05, 921.1146    , 32.2170563  , 796.875244  , 4.52        , 3           , 255         , 0           , 0
-0.146099612, 0.121083    , -9.793      , -0.000515538966, 0.0004669951, -0.0005396911, -0.0130582778, -0.015683718, 1.88643025E-05, 921.168     , 32.2204475  , 796.87616   , 4.53        , 3           , 255         , 0           , 0
-0.15480499 , 0.125579447 , -9.787228   , -0.000441678567, 0.0007964605, -0.000520773756, -0.0130626094, -0.0156758223, 1.35524679E-05, 921.168     , 32.2204475  , 796.8771    , 4.54        , 3           , 255         , 0           , 0
-0.156626686, 0.126023769 , -9.787186   , -0.00040242984, 1.14492141E-05, -2.01694929E-05, -0.01306663 , -0.01567571 , 1.33492767E-05, 921.168     , 32.2204475  , 796.878     , 4.55        , 3           , 255         , 0           , 0
